Time (s),Gyroscope X (deg/s),Gyroscope Y (deg/s),Gyroscope Z (deg/s),Accelerometer X (g),Accelerometer Y (g),Accelerometer Z (g)
8.365,-0.0000,0.0001,0.0000,0.0110,0.0027,1.0304
8.368,-0.0000,-0.0002,-0.0002,0.0134,0.0147,1.0184
8.371,0.0005,-0.0007,-0.0008,0.0158,0.0099,1.0041
8.374,-0.0003,-0.0005,-0.0005,0.0158,0.0099,1.0017
8.377,-0.0006,0.0001,-0.0008,0.0253,0.0075,1.0160
8.381,-0.0006,0.0006,-0.0008,0.0277,0.0051,1.0089
8.384,-0.0006,0.0003,0.0000,0.0134,-0.0020,1.0232
8.387,-0.0008,-0.0002,0.0003,0.0158,-0.0044,1.0304
8.390,-0.0008,0.0003,0.0006,0.0062,-0.0044,1.0520
8.393,-0.0008,0.0001,0.0000,0.0062,-0.0092,1.0496
8.396,-0.0003,0.0001,0.0003,-0.0010,-0.0092,1.0304
8.399,-0.0000,-0.0002,-0.0002,0.0014,-0.0092,1.0304
8.402,-0.0000,0.0006,-0.0002,0.0062,-0.0116,1.0328
8.406,0.0005,-0.0002,0.0000,0.0038,0.0099,1.0184
8.409,0.0005,0.0001,0.0003,-0.0010,0.0051,1.0137
8.412,0.0005,-0.0002,0.0003,0.0014,-0.0044,1.0304
8.415,-0.0000,-0.0005,0.0006,-0.0010,-0.0068,1.0280
8.418,0.0002,0.0001,0.0003,-0.0178,-0.0092,1.0256
8.421,0.0005,-0.0002,0.0003,-0.0201,0.0027,1.0328
8.424,-0.0003,0.0003,0.0003,-0.0058,0.0075,1.0232
8.427,-0.0000,-0.0002,0.0000,-0.0058,0.0075,1.0184
8.431,-0.0003,-0.0002,0.0003,0.0062,0.0147,1.0208
8.434,-0.0003,0.0001,-0.0002,0.0038,0.0003,1.0160
8.437,0.0002,0.0001,0.0000,-0.0010,-0.0116,1.0065
8.440,-0.0000,0.0003,0.0006,0.0062,-0.0044,1.0137
8.443,-0.0003,0.0006,-0.0002,-0.0106,-0.0044,1.0137
8.446,-0.0000,0.0003,0.0000,-0.0058,-0.0116,1.0304
8.449,0.0002,0.0003,0.0003,-0.0106,-0.0140,1.0400
8.452,0.0010,0.0003,0.0006,-0.0010,-0.0020,1.0304
8.456,0.0002,0.0003,0.0008,0.0086,0.0027,1.0424
8.459,-0.0006,-0.0002,0.0000,-0.0010,0.0003,1.0352
8.462,-0.0008,-0.0002,0.0000,-0.0058,-0.0020,1.0256
8.465,-0.0006,-0.0002,-0.0002,-0.0130,-0.0092,1.0208
8.468,-0.0006,-0.0002,0.0000,-0.0154,0.0027,1.0232
8.471,0.0005,-0.0002,-0.0002,-0.0082,-0.0020,1.0448
8.474,-0.0000,-0.0002,0.0000,-0.0082,-0.0068,1.0424
8.477,-0.0000,0.0001,0.0000,-0.0082,-0.0044,1.0376
8.481,-0.0008,0.0001,0.0000,-0.0010,0.0003,1.0352
8.484,-0.0003,-0.0002,0.0000,0.0062,-0.0116,1.0496
8.487,-0.0008,0.0003,-0.0002,-0.0058,-0.0068,1.0400
8.490,-0.0003,-0.0005,0.0000,-0.0010,0.0027,1.0520
8.493,0.0002,-0.0007,-0.0005,-0.0058,0.0003,1.0448
8.496,0.0005,-0.0002,-0.0002,-0.0058,-0.0068,1.0448
8.499,0.0008,0.0001,0.0000,-0.0201,-0.0020,1.0520
8.503,0.0005,0.0006,0.0003,-0.0201,-0.0116,1.0424
8.506,0.0008,-0.0002,0.0006,-0.0273,-0.0092,1.0352
8.509,0.0002,0.0006,0.0003,-0.0249,0.0003,1.0232
8.512,-0.0000,0.0014,0.0006,-0.0273,0.0051,1.0328
8.515,0.0002,0.0009,0.0011,-0.0154,0.0075,1.0184
8.518,-0.0000,0.0006,0.0014,-0.0154,0.0075,1.0184
8.521,-0.0000,0.0009,0.0011,-0.0130,-0.0020,1.0160
8.524,-0.0000,0.0009,0.0008,-0.0010,0.0075,1.0328
8.528,-0.0003,0.0009,0.0003,0.0014,0.0147,1.0352
8.531,-0.0003,0.0001,0.0006,0.0086,0.0099,1.0448
8.534,-0.0003,0.0001,0.0008,0.0086,0.0003,1.0376
8.537,0.0002,0.0003,0.0006,-0.0010,0.0075,1.0376
8.540,-0.0000,0.0011,0.0006,0.0014,0.0147,1.0184
8.543,0.0002,0.0009,0.0008,0.0038,0.0219,1.0424
8.546,-0.0000,0.0009,0.0011,0.0158,0.0291,1.0352
8.549,-0.0000,0.0009,0.0008,0.0158,0.0243,1.0424
8.552,-0.0000,0.0009,0.0003,0.0086,0.0219,1.0328
8.556,-0.0000,0.0006,0.0000,0.0038,0.0099,1.0280
8.559,-0.0003,0.0009,0.0003,0.0062,0.0075,1.0280
8.562,-0.0003,0.0009,0.0003,-0.0058,0.0027,1.0232
8.565,0.0002,-0.0002,0.0003,0.0134,-0.0020,1.0137
8.568,0.0008,-0.0010,0.0008,0.0158,0.0075,1.0208
8.571,0.0013,-0.0002,0.0011,0.0086,0.0075,1.0256
8.574,0.0005,0.0006,0.0006,0.0110,0.0099,1.0256
8.577,-0.0000,0.0001,0.0008,-0.0010,0.0099,1.0304
8.580,-0.0000,-0.0002,0.0006,-0.0010,0.0051,1.0304
8.584,-0.0003,-0.0002,0.0011,0.0014,0.0123,1.0400
8.587,0.0002,0.0003,0.0008,0.0038,0.0195,1.0496
8.590,-0.0000,0.0001,0.0003,-0.0034,0.0171,1.0448
8.593,0.0002,0.0001,0.0003,-0.0010,0.0243,1.0424
8.596,0.0008,0.0003,-0.0002,0.0014,0.0123,1.0304
8.599,-0.0000,0.0001,-0.0002,-0.0058,0.0147,1.0232
8.602,-0.0003,-0.0002,-0.0005,-0.0010,0.0075,1.0065
8.605,-0.0003,-0.0005,-0.0002,0.0062,0.0147,0.9969
8.609,-0.0000,-0.0005,0.0000,0.0086,0.0219,1.0137
8.612,-0.0000,-0.0007,0.0000,-0.0034,0.0147,1.0160
8.615,-0.0003,-0.0005,-0.0002,0.0014,0.0123,1.0184
8.618,0.0002,-0.0002,-0.0002,0.0182,0.0123,1.0256
8.621,-0.0000,-0.0007,0.0003,0.0158,0.0099,1.0280
8.624,-0.0006,0.0003,0.0003,0.0110,0.0075,1.0304
8.627,0.0002,0.0001,-0.0002,0.0110,0.0027,1.0328
8.630,-0.0000,-0.0002,0.0000,0.0086,0.0027,1.0232
8.634,-0.0000,-0.0005,0.0003,0.0086,-0.0068,1.0089
8.637,0.0002,0.0001,0.0000,0.0134,0.0003,0.9897
8.640,-0.0000,0.0003,-0.0005,0.0134,-0.0092,0.9993
8.643,0.0005,0.0001,-0.0008,-0.0010,-0.0020,1.0065
8.646,-0.0000,0.0003,-0.0008,-0.0010,-0.0020,1.0065
8.649,0.0002,-0.0005,-0.0005,-0.0034,-0.0092,1.0304
8.652,-0.0000,0.0001,0.0000,-0.0106,-0.0020,1.0376
8.655,-0.0000,0.0001,0.0000,-0.0178,0.0003,1.0256
8.659,-0.0000,0.0003,0.0006,-0.0225,-0.0068,1.0304
8.662,0.0002,0.0003,0.0003,-0.0201,-0.0020,1.0328
8.665,-0.0000,0.0006,0.0006,-0.0106,0.0027,1.0448
8.668,-0.0000,0.0001,0.0008,-0.0058,-0.0068,1.0544
8.671,0.0005,0.0003,0.0008,0.0038,-0.0044,1.0400
8.674,0.0008,-0.0002,0.0014,0.0086,0.0027,1.0400
8.677,0.0005,-0.0005,0.0006,0.0086,0.0027,1.0472
8.680,0.0002,-0.0002,0.0008,0.0086,0.0099,1.0304
8.683,-0.0000,0.0006,0.0011,-0.0034,0.0219,1.0113
8.687,-0.0000,0.0003,0.0006,0.0038,0.0147,1.0113
8.690,-0.0003,0.0009,0.0000,0.0038,0.0027,1.0160
8.693,-0.0003,0.0006,0.0000,0.0038,0.0051,1.0208
8.696,0.0002,-0.0002,0.0003,0.0086,0.0051,1.0256
8.699,0.0005,0.0003,0.0000,0.0206,0.0027,1.0304
8.702,0.0005,0.0006,0.0006,0.0253,0.0075,1.0256
8.705,0.0008,0.0003,0.0003,0.0277,0.0051,1.0065
8.708,0.0005,0.0006,0.0006,0.0110,0.0027,1.0041
8.712,0.0008,-0.0002,0.0008,0.0086,0.0099,0.9969
8.715,0.0002,0.0001,0.0011,0.0086,0.0051,1.0065
8.718,-0.0000,-0.0005,0.0006,0.0038,0.0147,1.0280
8.721,-0.0000,-0.0007,0.0003,0.0038,0.0171,1.0256
8.724,0.0005,-0.0015,0.0006,0.0062,0.0171,1.0232
8.727,-0.0000,-0.0010,0.0003,-0.0034,0.0027,1.0184
8.730,-0.0000,-0.0015,0.0011,-0.0154,-0.0092,1.0328
8.733,-0.0000,-0.0007,0.0008,-0.0082,-0.0164,1.0424
8.736,-0.0000,-0.0002,0.0008,-0.0106,-0.0116,1.0328
8.740,-0.0003,0.0001,0.0003,-0.0154,0.0003,1.0280
8.743,-0.0003,-0.0005,0.0006,-0.0106,-0.0068,1.0256
8.746,-0.0008,-0.0002,0.0006,-0.0201,-0.0044,1.0280
8.749,-0.0008,-0.0002,0.0003,-0.0178,-0.0044,1.0400
8.752,-0.0003,-0.0002,-0.0002,-0.0225,-0.0020,1.0424
8.755,-0.0000,-0.0005,-0.0002,-0.0178,0.0075,1.0304
8.758,0.0005,-0.0007,-0.0005,-0.0201,0.0051,1.0280
8.762,-0.0000,-0.0005,-0.0008,-0.0154,0.0027,1.0328
8.765,0.0005,-0.0005,-0.0010,-0.0058,-0.0068,1.0376
8.768,0.0005,0.0001,-0.0010,0.0014,-0.0140,1.0280
8.771,-0.0000,0.0001,-0.0005,0.0086,-0.0044,1.0137
8.774,-0.0000,0.0003,-0.0008,0.0014,-0.0044,1.0208
8.777,0.0002,0.0006,-0.0013,-0.0034,-0.0044,1.0352
8.780,0.0002,-0.0002,-0.0010,-0.0034,0.0123,1.0304
8.783,-0.0000,0.0001,-0.0008,0.0014,0.0147,1.0232
8.787,0.0002,0.0003,-0.0005,0.0014,0.0123,1.0352
8.790,-0.0000,0.0003,-0.0005,0.0014,0.0171,1.0328
8.793,-0.0003,0.0003,-0.0002,-0.0058,0.0147,1.0280
8.796,-0.0003,0.0001,-0.0005,-0.0034,0.0123,1.0208
8.799,-0.0006,-0.0002,-0.0005,0.0038,0.0075,1.0256
8.802,-0.0006,0.0001,-0.0008,0.0086,0.0075,1.0328
8.805,-0.0006,0.0003,-0.0005,0.0134,0.0099,1.0304
8.809,-0.0008,0.0006,-0.0005,0.0206,0.0171,1.0232
8.812,-0.0003,0.0003,0.0000,0.0158,0.0147,1.0280
8.815,-0.0003,-0.0002,-0.0002,0.0038,0.0075,1.0328
8.818,-0.0003,-0.0005,-0.0002,-0.0058,0.0027,1.0448
8.821,-0.0003,-0.0002,0.0006,-0.0058,0.0027,1.0304
8.824,0.0002,-0.0002,0.0006,-0.0225,-0.0044,1.0137
8.827,-0.0000,0.0001,0.0006,-0.0178,-0.0044,1.0089
8.830,-0.0003,0.0003,0.0008,-0.0082,-0.0068,1.0137
8.834,-0.0006,0.0001,0.0003,0.0014,-0.0140,1.0280
8.837,-0.0000,0.0001,0.0008,0.0014,-0.0116,1.0304
8.840,-0.0000,-0.0002,0.0008,0.0038,-0.0068,1.0352
8.843,0.0002,-0.0005,0.0008,-0.0106,-0.0140,1.0041
8.846,-0.0000,0.0001,0.0008,-0.0010,-0.0092,1.0160
8.849,-0.0000,-0.0002,0.0008,-0.0034,-0.0020,1.0376
8.852,-0.0003,0.0006,0.0003,-0.0106,-0.0044,1.0376
8.855,-0.0000,0.0003,-0.0002,-0.0130,-0.0092,1.0400
8.859,0.0002,0.0001,0.0000,-0.0106,-0.0044,1.0328
8.862,0.0005,0.0001,0.0003,-0.0058,-0.0020,1.0208
8.865,0.0005,0.0001,-0.0005,-0.0106,0.0051,1.0160
8.868,0.0008,0.0011,-0.0008,-0.0130,-0.0044,1.0113
8.871,0.0010,0.0009,-0.0013,-0.0106,-0.0020,1.0208
8.874,0.0010,0.0006,-0.0013,-0.0010,0.0123,1.0041
8.877,0.0010,0.0006,-0.0005,0.0038,0.0051,0.9993
8.880,0.0013,0.0011,-0.0008,0.0229,0.0051,1.0065
8.884,0.0013,0.0003,-0.0008,0.0206,-0.0020,1.0160
8.887,0.0010,0.0006,-0.0008,0.0110,-0.0068,1.0232
8.890,0.0005,-0.0005,-0.0008,-0.0130,-0.0044,1.0256
8.893,0.0002,0.0001,-0.0016,-0.0273,0.0003,1.0280
8.896,0.0008,0.0003,-0.0013,-0.0106,-0.0068,1.0448
8.899,0.0008,0.0003,-0.0016,-0.0178,-0.0020,1.0591
8.902,0.0005,-0.0002,-0.0021,0.0014,0.0075,1.0520
8.905,0.0005,0.0003,-0.0024,0.0086,0.0195,1.0304
8.909,0.0008,-0.0002,-0.0029,0.0038,0.0075,1.0065
8.912,0.0008,-0.0010,-0.0021,0.0038,0.0099,1.0065
8.915,0.0008,-0.0005,-0.0018,0.0110,0.0147,1.0160
8.918,0.0005,0.0001,-0.0021,0.0014,-0.0068,1.0017
8.921,0.0008,0.0001,-0.0021,0.0062,-0.0164,0.9921
8.924,0.0010,0.0006,-0.0021,0.0110,-0.0140,1.0137
8.927,0.0005,0.0006,-0.0018,0.0182,-0.0044,1.0113
8.930,0.0005,0.0003,-0.0021,0.0134,0.0003,1.0232
8.934,0.0005,0.0011,-0.0018,0.0086,0.0075,1.0280
8.937,0.0002,0.0006,-0.0021,-0.0010,0.0099,1.0280
8.940,0.0008,0.0003,-0.0024,0.0062,0.0051,1.0256
8.943,0.0002,0.0003,-0.0024,0.0038,-0.0092,1.0232
8.946,0.0005,-0.0005,-0.0018,0.0086,-0.0260,1.0280
8.949,0.0008,-0.0002,-0.0018,0.0086,-0.0188,1.0208
8.952,0.0005,-0.0005,-0.0018,-0.0034,-0.0044,1.0137
8.955,0.0005,-0.0007,-0.0018,0.0014,-0.0044,1.0065
8.959,-0.0000,-0.0002,-0.0018,-0.0154,-0.0068,1.0184
8.962,-0.0006,-0.0002,-0.0016,-0.0106,-0.0164,1.0160
8.965,-0.0006,0.0003,-0.0016,-0.0130,-0.0164,1.0089
8.968,-0.0003,-0.0002,-0.0008,-0.0058,0.0027,1.0232
8.971,-0.0008,0.0001,-0.0010,-0.0082,0.0027,1.0352
8.974,-0.0008,0.0003,-0.0008,-0.0034,-0.0020,1.0208
8.977,-0.0008,-0.0002,-0.0008,-0.0034,0.0003,1.0113
8.981,-0.0003,-0.0007,-0.0008,-0.0010,-0.0068,1.0137
8.984,-0.0003,-0.0007,-0.0016,-0.0034,-0.0068,1.0113
8.987,-0.0000,-0.0010,-0.0013,0.0062,-0.0068,1.0184
8.990,-0.0000,-0.0007,-0.0010,0.0086,-0.0068,1.0256
8.993,-0.0003,-0.0005,-0.0010,0.0062,-0.0044,1.0328
8.996,-0.0003,-0.0007,-0.0010,0.0134,-0.0068,1.0328
8.999,-0.0000,-0.0002,-0.0002,0.0110,-0.0068,1.0256
9.002,-0.0000,-0.0005,0.0000,0.0134,-0.0044,1.0184
9.006,-0.0003,-0.0010,0.0003,0.0229,-0.0092,1.0041
9.009,0.0002,-0.0010,-0.0002,0.0134,-0.0020,1.0065
9.012,0.0005,-0.0005,-0.0005,0.0062,-0.0020,1.0041
9.015,0.0002,-0.0002,-0.0005,0.0062,0.0123,1.0137
9.018,-0.0000,-0.0007,-0.0010,0.0158,0.0123,1.0089
9.021,0.0005,0.0003,-0.0008,0.0253,0.0147,1.0160
9.024,0.0008,-0.0005,-0.0002,0.0182,0.0075,1.0208
9.028,0.0008,-0.0010,-0.0005,0.0086,0.0051,1.0160
9.031,0.0008,-0.0002,-0.0008,0.0038,0.0003,1.0232
9.034,0.0002,0.0003,-0.0005,-0.0010,-0.0020,1.0089
9.037,-0.0000,0.0003,-0.0013,-0.0178,-0.0044,0.9993
9.040,-0.0000,0.0009,-0.0013,-0.0106,0.0003,0.9993
9.043,-0.0003,0.0003,-0.0008,-0.0082,0.0075,1.0113
9.046,-0.0006,0.0009,-0.0008,-0.0106,0.0171,1.0304
9.049,-0.0008,0.0006,-0.0010,-0.0130,0.0027,1.0184
9.053,-0.0003,0.0001,-0.0010,0.0014,0.0027,1.0113
9.056,-0.0003,-0.0005,-0.0013,0.0062,0.0003,1.0137
9.059,-0.0003,-0.0002,-0.0010,-0.0034,-0.0044,1.0160
9.062,-0.0000,0.0001,-0.0010,0.0014,-0.0068,0.9969
9.065,0.0005,0.0003,-0.0016,0.0110,-0.0020,0.9993
9.068,0.0002,0.0003,-0.0016,0.0206,0.0099,1.0017
9.071,-0.0003,-0.0002,-0.0018,0.0182,0.0123,1.0065
9.074,0.0002,-0.0005,-0.0021,0.0158,0.0147,1.0089
9.078,-0.0003,-0.0002,-0.0016,0.0086,0.0267,1.0113
9.081,-0.0008,-0.0005,-0.0013,0.0086,0.0195,1.0113
9.084,-0.0003,-0.0005,-0.0016,0.0062,0.0099,1.0017
9.087,-0.0003,0.0003,-0.0016,0.0038,-0.0020,0.9969
9.090,-0.0000,0.0003,-0.0018,0.0206,0.0051,1.0041
9.093,-0.0003,0.0001,-0.0013,0.0325,0.0075,0.9921
9.096,-0.0006,0.0003,-0.0010,0.0349,0.0051,1.0017
9.099,-0.0008,0.0003,-0.0008,0.0349,0.0051,0.9945
9.103,-0.0006,0.0006,-0.0002,0.0158,0.0027,1.0041
9.106,-0.0000,-0.0002,0.0000,0.0229,-0.0044,1.0065
9.109,-0.0003,-0.0005,0.0003,0.0277,0.0099,1.0089
9.112,-0.0003,-0.0007,0.0003,0.0277,0.0147,0.9993
9.115,0.0002,-0.0002,0.0006,0.0229,0.0075,1.0113
9.118,0.0002,0.0003,0.0006,0.0134,0.0219,1.0328
9.121,0.0002,-0.0002,0.0008,0.0062,0.0243,1.0400
9.124,0.0002,0.0001,0.0003,0.0110,0.0219,1.0424
9.128,-0.0000,0.0001,0.0000,0.0158,0.0147,1.0352
9.131,-0.0000,0.0003,0.0006,0.0062,0.0123,1.0280
9.134,0.0002,-0.0002,0.0011,0.0086,0.0147,1.0208
9.137,-0.0000,0.0003,0.0011,-0.0034,0.0099,1.0113
9.140,-0.0000,-0.0002,0.0014,-0.0058,0.0195,1.0160
9.143,-0.0000,0.0001,0.0011,-0.0130,0.0123,1.0184
9.146,-0.0006,0.0003,0.0008,-0.0154,-0.0020,1.0256
9.149,-0.0008,0.0003,0.0011,-0.0106,0.0003,1.0160
9.152,-0.0011,0.0006,0.0006,-0.0082,0.0003,1.0208
9.156,-0.0006,0.0006,0.0008,-0.0154,0.0003,1.0280
9.159,-0.0008,0.0001,0.0011,-0.0106,0.0027,1.0208
9.162,-0.0008,0.0006,0.0014,0.0014,0.0099,0.9969
9.165,-0.0003,0.0009,0.0011,-0.0058,0.0147,1.0041
9.168,-0.0003,0.0009,0.0011,0.0086,0.0171,0.9945
9.171,-0.0006,0.0011,0.0014,0.0014,0.0099,0.9969
9.174,-0.0008,0.0017,0.0016,-0.0034,0.0099,1.0089
9.177,-0.0000,0.0011,0.0008,-0.0154,0.0027,1.0208
9.181,-0.0000,0.0017,0.0006,-0.0178,0.0003,1.0232
9.184,0.0002,0.0009,0.0008,-0.0154,0.0075,1.0089
9.187,-0.0000,0.0006,0.0008,-0.0130,0.0123,0.9969
9.190,0.0005,-0.0005,0.0011,-0.0034,0.0027,1.0065
9.193,0.0002,-0.0005,0.0006,-0.0178,0.0003,0.9993
9.196,0.0005,-0.0005,0.0008,-0.0297,-0.0116,1.0065
9.199,0.0005,-0.0013,0.0006,-0.0297,-0.0140,0.9969
9.202,0.0008,-0.0010,0.0003,-0.0273,-0.0140,1.0089
9.206,0.0008,-0.0002,-0.0002,-0.0345,-0.0236,1.0160
9.209,0.0002,0.0001,0.0006,-0.0297,-0.0308,1.0137
9.212,-0.0003,0.0001,0.0003,-0.0178,-0.0284,1.0184
9.215,-0.0003,0.0001,-0.0005,-0.0106,-0.0140,1.0208
9.218,-0.0006,0.0006,-0.0002,-0.0225,-0.0140,1.0352
9.221,0.0002,0.0001,-0.0008,-0.0345,-0.0044,1.0256
9.224,-0.0003,-0.0002,0.0000,-0.0297,-0.0020,1.0232
9.227,-0.0003,0.0001,-0.0002,-0.0249,-0.0140,1.0376
9.231,-0.0008,0.0006,-0.0010,-0.0393,-0.0188,1.0280
9.234,-0.0008,0.0001,-0.0010,-0.0345,0.0027,1.0208
9.237,-0.0014,0.0009,-0.0013,-0.0178,0.0027,1.0280
9.240,-0.0006,0.0003,-0.0010,-0.0082,0.0123,1.0089
9.243,-0.0003,0.0003,-0.0013,-0.0082,0.0147,0.9993
9.246,-0.0003,0.0006,-0.0010,-0.0058,0.0075,1.0017
9.249,-0.0008,0.0003,-0.0013,-0.0130,0.0051,1.0256
9.253,-0.0006,0.0003,-0.0016,-0.0106,0.0051,1.0304
9.256,-0.0003,0.0011,-0.0016,-0.0058,-0.0044,1.0184
9.259,-0.0006,0.0006,-0.0008,-0.0034,-0.0068,1.0304
9.262,-0.0000,0.0009,-0.0010,-0.0034,-0.0092,1.0256
9.265,-0.0003,0.0009,-0.0010,-0.0010,-0.0092,1.0304
9.268,-0.0003,0.0017,-0.0013,0.0014,-0.0068,1.0376
9.271,-0.0003,0.0011,-0.0010,0.0134,0.0027,1.0376
9.274,-0.0003,0.0006,-0.0005,0.0110,0.0099,1.0304
9.278,-0.0003,0.0003,-0.0005,0.0038,0.0051,1.0256
9.281,-0.0011,0.0003,-0.0002,0.0134,0.0171,1.0280
9.284,-0.0008,0.0009,0.0000,0.0134,0.0243,1.0352
9.287,-0.0006,0.0003,0.0000,0.0110,0.0267,1.0424
9.290,-0.0000,0.0006,-0.0002,0.0134,0.0219,1.0400
9.293,0.0002,0.0009,0.0000,0.0206,0.0147,1.0232
9.296,-0.0003,0.0001,0.0003,0.0182,0.0243,1.0137
9.299,-0.0003,0.0001,0.0011,0.0014,0.0219,1.0304
9.303,-0.0000,0.0001,0.0003,-0.0106,0.0147,1.0328
9.306,0.0002,0.0001,-0.0002,-0.0130,0.0171,1.0184
9.309,-0.0000,0.0011,-0.0002,-0.0297,0.0147,1.0089
9.312,0.0008,0.0014,-0.0002,-0.0417,0.0075,1.0208
9.315,0.0002,0.0006,-0.0002,-0.0417,0.0147,1.0184
9.318,0.0005,0.0014,-0.0002,-0.0369,0.0051,1.0256
9.321,-0.0000,0.0001,-0.0002,-0.0393,0.0003,1.0352
9.324,-0.0006,0.0001,-0.0008,-0.0393,-0.0044,1.0328
9.328,-0.0006,0.0001,-0.0002,-0.0393,-0.0116,1.0352
9.331,-0.0006,-0.0002,-0.0008,-0.0369,-0.0116,1.0304
9.334,-0.0000,0.0003,-0.0008,-0.0225,-0.0140,1.0160
9.337,-0.0000,-0.0002,-0.0008,-0.0297,-0.0116,1.0280
9.340,-0.0003,0.0001,-0.0005,-0.0249,-0.0068,1.0232
9.343,-0.0006,0.0003,-0.0002,-0.0201,-0.0188,1.0232
9.346,-0.0008,0.0001,-0.0005,-0.0058,-0.0140,1.0137
9.349,-0.0006,0.0003,-0.0005,0.0014,-0.0068,1.0017
9.353,-0.0003,0.0003,-0.0010,-0.0034,0.0051,0.9945
9.356,-0.0003,0.0003,-0.0010,-0.0034,0.0051,1.0065
9.359,-0.0006,0.0006,-0.0016,0.0014,0.0099,1.0160
9.362,-0.0003,0.0001,-0.0018,0.0038,0.0147,1.0113
9.365,-0.0000,-0.0002,-0.0018,0.0110,0.0147,1.0137
9.368,0.0002,-0.0002,-0.0021,0.0182,0.0171,1.0160
9.371,-0.0003,0.0003,-0.0010,0.0229,0.0123,1.0184
9.375,-0.0003,-0.0002,-0.0008,0.0134,0.0099,1.0208
9.378,-0.0006,-0.0002,-0.0008,0.0206,0.0171,1.0232
9.381,-0.0003,0.0009,-0.0010,0.0301,0.0099,1.0089
9.384,-0.0008,0.0009,-0.0010,0.0253,-0.0068,1.0089
9.387,-0.0003,0.0009,-0.0008,0.0277,-0.0044,1.0089
9.390,0.0002,0.0011,-0.0010,0.0134,-0.0068,1.0280
9.393,0.0002,0.0006,-0.0005,-0.0082,0.0075,1.0208
9.396,-0.0000,0.0001,-0.0002,-0.0034,0.0027,1.0184
9.400,-0.0000,0.0001,-0.0008,0.0110,-0.0068,1.0208
9.403,-0.0003,0.0006,-0.0010,0.0062,-0.0116,1.0256
9.406,-0.0003,0.0006,-0.0010,-0.0106,-0.0212,1.0041
9.409,-0.0003,0.0003,-0.0010,-0.0058,-0.0236,1.0089
9.412,-0.0003,0.0009,-0.0008,-0.0058,-0.0092,1.0137
9.415,0.0002,0.0006,-0.0008,0.0014,-0.0092,1.0160
9.418,-0.0000,0.0006,-0.0005,0.0062,-0.0140,1.0280
9.421,-0.0003,0.0009,-0.0010,-0.0058,-0.0116,1.0160
9.425,-0.0003,0.0001,-0.0008,-0.0154,-0.0116,1.0017
9.428,-0.0003,0.0001,-0.0008,-0.0082,0.0027,1.0113
9.431,-0.0006,0.0001,-0.0008,-0.0082,-0.0116,1.0065
9.434,0.0002,0.0009,-0.0005,-0.0106,-0.0116,1.0065
9.437,-0.0000,0.0009,-0.0010,-0.0082,-0.0068,0.9969
9.440,0.0005,0.0011,-0.0016,-0.0154,-0.0068,1.0137
9.443,0.0005,0.0009,-0.0010,-0.0178,-0.0188,1.0232
9.447,-0.0003,0.0009,-0.0013,-0.0154,-0.0140,1.0113
9.450,0.0002,0.0011,-0.0013,-0.0058,-0.0140,1.0017
9.453,-0.0000,0.0009,-0.0010,-0.0082,-0.0068,1.0041
9.456,-0.0000,0.0001,-0.0008,0.0014,-0.0164,0.9873
9.459,-0.0006,0.0006,-0.0010,-0.0010,-0.0140,0.9945
9.462,-0.0000,0.0001,-0.0010,0.0062,-0.0116,0.9945
9.465,-0.0003,-0.0007,-0.0008,-0.0034,-0.0116,1.0041
9.468,-0.0003,-0.0002,-0.0005,-0.0082,-0.0044,1.0376
9.472,-0.0011,-0.0005,-0.0005,-0.0010,-0.0020,1.0280
9.475,-0.0008,-0.0002,-0.0013,0.0182,0.0051,1.0017
9.478,-0.0006,0.0001,-0.0013,0.0206,0.0003,1.0160
9.481,-0.0000,-0.0005,-0.0008,0.0062,0.0051,1.0376
9.484,0.0002,-0.0002,-0.0008,0.0086,0.0099,1.0304
9.487,-0.0000,0.0001,-0.0005,0.0325,0.0051,1.0184
9.490,-0.0000,0.0001,-0.0008,0.0469,0.0051,1.0160
9.494,-0.0006,-0.0002,-0.0002,0.0469,0.0123,1.0232
9.497,-0.0003,-0.0010,-0.0002,0.0469,0.0147,1.0232
9.500,-0.0000,-0.0013,-0.0005,0.0253,0.0075,1.0256
9.503,-0.0003,-0.0010,-0.0008,0.0253,0.0147,1.0376
9.506,-0.0003,-0.0005,-0.0010,0.0206,0.0123,1.0496
9.509,-0.0000,0.0001,-0.0010,0.0229,0.0099,1.0567
9.512,-0.0006,-0.0002,-0.0005,0.0301,0.0027,1.0639
9.515,-0.0000,-0.0005,-0.0002,0.0349,0.0027,1.0567
9.519,-0.0006,-0.0005,-0.0005,0.0158,0.0027,1.0424
9.522,-0.0006,-0.0007,-0.0002,0.0134,-0.0020,1.0304
9.525,-0.0006,-0.0007,-0.0002,0.0301,0.0003,1.0184
9.528,-0.0006,-0.0007,-0.0002,0.0301,0.0027,1.0208
9.531,-0.0006,-0.0007,-0.0002,0.0134,0.0003,1.0304
9.534,-0.0008,-0.0005,0.0000,0.0062,-0.0068,1.0256
9.537,-0.0006,0.0003,-0.0002,0.0062,-0.0164,1.0256
9.540,-0.0003,0.0003,0.0003,0.0038,-0.0020,1.0280
9.544,-0.0000,0.0001,0.0000,0.0062,-0.0164,1.0376
9.547,-0.0000,-0.0002,0.0003,-0.0130,-0.0164,1.0065
9.550,-0.0000,-0.0005,0.0003,-0.0058,-0.0188,1.0184
9.553,-0.0000,-0.0010,0.0006,-0.0034,-0.0068,1.0280
9.556,0.0002,-0.0002,-0.0002,0.0014,-0.0092,1.0232
9.559,0.0002,0.0006,0.0000,-0.0034,-0.0092,1.0232
9.562,-0.0003,0.0006,0.0000,0.0062,0.0003,1.0280
9.566,0.0005,0.0003,0.0000,0.0038,0.0075,1.0328
9.569,-0.0003,0.0003,0.0000,-0.0106,0.0075,1.0328
9.572,-0.0011,0.0001,0.0000,-0.0058,0.0051,1.0232
9.575,-0.0011,0.0006,-0.0002,0.0014,0.0027,1.0256
9.578,-0.0016,0.0003,0.0000,0.0110,-0.0044,1.0352
9.581,-0.0016,0.0003,-0.0002,0.0014,-0.0068,1.0615
9.584,-0.0014,0.0006,-0.0005,-0.0010,-0.0116,1.0208
9.587,-0.0008,0.0017,-0.0002,-0.0010,-0.0140,1.0328
9.591,-0.0006,0.0009,-0.0005,-0.0106,-0.0020,1.0304
9.594,-0.0006,0.0003,0.0000,0.0014,0.0075,1.0256
9.597,-0.0006,0.0003,-0.0005,-0.0154,0.0051,1.0208
9.600,-0.0003,0.0009,-0.0002,-0.0201,0.0003,1.0041
9.603,0.0002,0.0019,0.0006,-0.0297,0.0003,1.0280
9.606,-0.0003,0.0014,0.0000,-0.0297,0.0027,1.0137
9.609,-0.0006,0.0006,0.0003,-0.0130,0.0003,1.0160
9.612,-0.0000,0.0001,0.0003,0.0014,-0.0044,1.0065
9.616,0.0002,0.0014,0.0003,0.0038,-0.0020,1.0232
9.619,-0.0003,0.0006,0.0003,0.0038,0.0075,1.0232
9.622,-0.0003,0.0009,0.0003,0.0158,0.0075,1.0232
9.625,-0.0003,0.0006,0.0008,0.0229,0.0099,1.0160
9.628,-0.0003,0.0006,0.0014,0.0229,0.0171,1.0280
9.631,-0.0000,0.0001,0.0016,0.0325,0.0003,1.0160
9.634,-0.0003,0.0001,0.0014,0.0325,0.0075,1.0041
9.637,-0.0000,0.0001,0.0019,0.0206,0.0027,0.9849
9.640,-0.0000,0.0003,0.0014,0.0134,0.0099,0.9921
9.644,0.0002,0.0006,0.0016,0.0086,0.0075,1.0017
9.647,0.0002,-0.0005,0.0008,0.0038,0.0027,0.9945
9.650,-0.0000,-0.0002,0.0011,0.0158,0.0003,1.0160
9.653,0.0002,0.0003,0.0008,0.0062,0.0051,1.0304
9.656,0.0002,0.0003,0.0011,-0.0010,-0.0044,1.0376
9.659,0.0005,-0.0002,0.0003,0.0038,-0.0212,1.0208
9.662,-0.0000,-0.0002,0.0008,-0.0058,-0.0260,1.0160
9.665,-0.0000,0.0003,0.0008,-0.0130,-0.0212,1.0137
9.669,-0.0000,-0.0002,0.0008,-0.0225,-0.0140,1.0304
9.672,-0.0000,0.0003,0.0008,-0.0297,-0.0236,1.0137
9.675,-0.0003,0.0006,0.0006,-0.0537,-0.0260,1.0113
9.678,-0.0003,0.0009,0.0000,-0.0537,-0.0092,1.0304
9.681,-0.0008,0.0001,-0.0008,-0.0489,-0.0020,1.0304
9.684,-0.0008,-0.0005,-0.0008,-0.0393,-0.0044,1.0208
9.687,-0.0003,-0.0007,-0.0010,-0.0321,-0.0020,1.0280
9.690,-0.0006,-0.0005,-0.0010,-0.0345,-0.0044,1.0304
9.694,-0.0014,-0.0007,-0.0008,-0.0201,-0.0164,1.0137
9.697,-0.0006,-0.0005,-0.0008,-0.0225,-0.0068,1.0041
9.700,-0.0011,-0.0002,-0.0005,-0.0273,-0.0020,0.9969
9.703,-0.0011,0.0003,-0.0008,-0.0297,0.0123,1.0137
9.706,-0.0008,0.0006,-0.0010,-0.0201,0.0147,1.0208
9.709,-0.0006,0.0009,-0.0018,-0.0154,0.0051,1.0232
9.712,-0.0006,0.0009,-0.0018,-0.0201,0.0051,1.0232
9.716,-0.0006,0.0003,-0.0013,0.0086,-0.0020,1.0400
9.719,-0.0006,0.0011,-0.0013,0.0229,0.0003,1.0208
9.722,-0.0003,0.0014,-0.0008,0.0229,-0.0044,1.0160
9.725,0.0002,0.0009,-0.0008,0.0206,-0.0068,1.0137
9.728,0.0002,0.0006,-0.0008,0.0206,-0.0092,1.0089
9.731,-0.0000,0.0006,-0.0008,0.0134,-0.0092,1.0256
9.734,0.0002,0.0006,-0.0008,0.0014,-0.0044,1.0304
9.737,-0.0000,0.0009,-0.0002,0.0062,-0.0044,1.0160
9.741,-0.0000,0.0003,0.0008,0.0158,0.0051,1.0065
9.744,-0.0006,0.0001,0.0011,0.0134,0.0171,1.0184
9.747,-0.0008,0.0009,0.0016,0.0158,0.0171,1.0208
9.750,-0.0011,0.0006,0.0011,0.0206,0.0195,1.0280
9.753,-0.0011,-0.0005,0.0008,0.0014,0.0075,1.0232
9.756,-0.0008,-0.0005,0.0011,0.0158,0.0027,1.0065
9.759,-0.0008,0.0001,0.0006,0.0014,-0.0044,1.0089
9.762,-0.0006,0.0006,0.0003,-0.0058,0.0051,1.0113
9.766,-0.0008,0.0006,0.0003,-0.0106,-0.0092,1.0184
9.769,-0.0003,0.0011,0.0003,-0.0082,-0.0092,1.0184
9.772,0.0005,0.0009,0.0003,-0.0082,-0.0092,1.0184
9.775,-0.0003,0.0011,0.0008,-0.0034,0.0003,1.0137
9.778,-0.0000,0.0006,0.0003,0.0038,-0.0092,1.0160
9.781,0.0002,-0.0007,0.0006,0.0014,-0.0116,1.0089
9.784,0.0002,0.0001,0.0008,-0.0058,-0.0020,1.0137
9.787,-0.0000,-0.0005,0.0006,-0.0225,0.0075,1.0113
9.791,-0.0003,-0.0005,-0.0002,-0.0154,-0.0092,1.0113
9.794,-0.0003,0.0001,0.0000,-0.0154,-0.0164,1.0280
9.797,-0.0003,0.0003,0.0000,-0.0082,-0.0140,1.0208
9.800,-0.0008,0.0003,-0.0002,-0.0130,-0.0116,1.0184
9.803,-0.0003,0.0006,-0.0002,-0.0034,-0.0020,1.0352
9.806,-0.0003,0.0006,-0.0005,-0.0034,-0.0044,1.0496
9.809,-0.0003,0.0006,-0.0005,-0.0106,-0.0020,1.0376
9.812,-0.0006,0.0009,-0.0005,-0.0034,0.0099,1.0376
9.816,-0.0003,0.0006,-0.0008,0.0086,0.0051,1.0304
9.819,-0.0003,-0.0002,-0.0010,0.0134,0.0003,1.0232
9.822,-0.0006,0.0001,-0.0005,0.0182,0.0027,1.0232
9.825,-0.0006,0.0001,-0.0010,0.0229,0.0075,1.0160
9.828,-0.0003,0.0003,-0.0008,0.0253,0.0051,1.0280
9.831,-0.0000,-0.0005,-0.0005,0.0158,0.0051,1.0424
9.834,-0.0006,-0.0005,-0.0002,0.0158,0.0075,1.0520
9.837,-0.0003,-0.0007,0.0006,0.0229,0.0147,1.0448
9.841,-0.0003,-0.0010,0.0000,0.0301,0.0195,1.0472
9.844,-0.0003,-0.0010,0.0003,0.0182,0.0003,1.0280
9.847,-0.0000,-0.0013,0.0003,0.0253,0.0003,1.0328
9.850,-0.0003,-0.0007,0.0000,0.0349,0.0051,1.0232
9.853,-0.0000,-0.0005,0.0003,0.0158,0.0051,1.0328
9.856,-0.0003,-0.0002,0.0000,0.0253,0.0051,1.0256
9.859,-0.0000,0.0006,0.0003,0.0229,0.0027,1.0256
9.862,-0.0006,0.0006,0.0003,0.0182,0.0027,1.0184
9.866,-0.0006,-0.0002,0.0006,0.0158,0.0123,1.0280
9.869,-0.0006,-0.0002,0.0008,0.0158,0.0075,1.0256
9.872,-0.0006,-0.0005,0.0011,0.0134,0.0147,1.0304
9.875,-0.0003,0.0001,0.0003,0.0038,0.0219,1.0496
9.878,-0.0008,-0.0002,0.0006,0.0062,0.0123,1.0328
9.881,-0.0000,-0.0007,0.0006,0.0038,0.0075,1.0328
9.884,-0.0003,0.0001,0.0008,-0.0154,0.0075,1.0232
9.887,-0.0000,0.0003,0.0006,-0.0130,0.0051,1.0232
9.891,0.0002,0.0009,0.0003,-0.0225,0.0003,1.0184
9.894,-0.0000,0.0009,0.0003,-0.0273,-0.0092,1.0256
9.897,-0.0003,0.0006,-0.0002,-0.0154,-0.0068,1.0304
9.900,-0.0011,-0.0002,-0.0002,-0.0345,0.0003,1.0208
9.903,-0.0003,-0.0005,0.0003,-0.0273,0.0051,1.0304
9.906,-0.0000,-0.0002,0.0003,-0.0297,0.0003,1.0352
9.909,0.0002,-0.0002,0.0008,-0.0345,0.0027,1.0113
9.912,0.0005,-0.0002,0.0003,-0.0297,0.0027,1.0256
9.915,0.0005,0.0003,-0.0002,-0.0297,-0.0020,1.0256
9.919,-0.0003,-0.0007,0.0000,-0.0273,-0.0044,1.0137
9.922,-0.0000,-0.0005,-0.0002,-0.0321,-0.0092,1.0113
9.925,-0.0000,-0.0002,-0.0010,-0.0321,-0.0044,1.0089
9.928,-0.0003,0.0001,-0.0010,-0.0225,-0.0044,1.0041
9.931,0.0002,-0.0002,-0.0005,-0.0106,-0.0068,1.0113
9.934,0.0002,-0.0002,-0.0002,-0.0201,-0.0092,1.0208
9.937,-0.0000,-0.0005,0.0003,-0.0178,-0.0188,1.0280
9.941,-0.0006,0.0001,0.0000,-0.0034,-0.0092,1.0232
9.944,-0.0008,-0.0002,0.0006,0.0086,-0.0068,1.0256
9.947,-0.0006,-0.0005,0.0003,0.0229,-0.0068,1.0256
9.950,0.0002,0.0001,0.0000,0.0325,-0.0116,1.0256
9.953,-0.0003,-0.0015,0.0000,0.0373,-0.0116,1.0280
9.956,0.0002,0.0003,-0.0002,0.0804,0.0003,1.0256
9.959,-0.0003,-0.0018,0.0006,0.1259,0.0219,1.0304
9.962,-0.0006,-0.0015,0.0011,0.1331,0.0363,1.0041
9.966,-0.0003,-0.0007,0.0019,0.1355,0.0363,1.0113
9.969,-0.0006,-0.0005,0.0019,0.1163,0.0506,1.0160
9.972,-0.0006,0.0003,0.0024,0.0876,0.0387,1.0208
9.975,-0.0003,-0.0007,0.0027,0.0708,0.0434,1.0376
9.978,-0.0003,-0.0015,0.0035,0.0469,0.0315,1.0376
9.981,-0.0000,-0.0018,0.0038,0.0301,0.0075,1.0232
9.984,-0.0008,-0.0031,0.0038,0.0086,-0.0092,1.0496
9.987,-0.0008,-0.0029,0.0032,-0.0106,-0.0188,1.0232
9.991,0.0013,0.0030,0.0027,-0.0345,-0.0332,0.9825
9.994,0.0018,0.0049,0.0024,-0.0848,-0.0428,1.0735
9.997,0.0005,0.0003,0.0027,-0.1087,-0.0499,1.0903
10.000,-0.0003,-0.0018,0.0027,-0.1015,-0.0667,1.0208
10.003,0.0005,0.0001,0.0022,-0.1159,-0.0595,1.0184
10.006,0.0005,0.0006,0.0011,-0.1159,-0.0643,1.0160
10.009,0.0002,0.0011,0.0003,-0.1303,-0.0619,1.0160
10.012,0.0002,0.0011,0.0008,-0.1375,-0.0619,1.0448
10.016,-0.0008,0.0009,-0.0002,-0.1303,-0.0451,1.0089
10.019,-0.0008,0.0025,-0.0013,-0.1159,-0.0499,0.9753
10.022,0.0013,0.0083,-0.0024,-0.0992,-0.0523,0.9610
10.025,0.0024,0.0121,-0.0034,-0.0944,-0.0332,0.9921
10.028,0.0029,0.0131,-0.0040,-0.0824,-0.0260,1.0160
10.031,0.0032,0.0139,-0.0045,-0.0728,-0.0092,1.0520
10.034,0.0026,0.0110,-0.0042,-0.0632,0.0003,1.0807
10.037,0.0016,0.0075,-0.0050,-0.0465,0.0051,1.0496
10.041,0.0010,0.0033,-0.0048,-0.0106,0.0123,1.0831
10.044,0.0002,-0.0015,-0.0045,0.0229,0.0171,1.0903
10.047,-0.0006,-0.0047,-0.0037,0.0684,0.0267,1.0472
10.050,-0.0000,-0.0055,-0.0032,0.1020,0.0267,1.0232
10.053,-0.0008,-0.0066,-0.0026,0.1427,0.0243,0.9849
10.056,0.0010,-0.0010,-0.0013,0.1498,0.0171,0.9753
10.059,0.0021,0.0011,-0.0010,0.1427,0.0267,1.0208
10.062,0.0021,0.0011,0.0003,0.1427,0.0243,0.9849
10.066,0.0021,0.0006,0.0008,0.1163,0.0243,0.9897
10.069,0.0021,0.0001,0.0011,0.1044,0.0195,1.0113
10.072,0.0013,-0.0010,0.0024,0.0876,0.0171,1.0184
10.075,0.0005,-0.0021,0.0027,0.0660,0.0075,1.0232
10.078,-0.0008,-0.0023,0.0035,0.0517,0.0123,1.0232
10.081,-0.0019,-0.0029,0.0043,0.0325,0.0171,1.0520
10.084,-0.0024,-0.0031,0.0048,0.0158,0.0075,1.0089
10.087,-0.0016,-0.0002,0.0046,0.0014,0.0123,0.9969
10.090,-0.0006,0.0025,0.0043,-0.0321,0.0075,0.9993
10.094,-0.0008,0.0033,0.0040,-0.0417,0.0027,1.0089
10.097,-0.0006,0.0035,0.0032,-0.0465,0.0003,1.0065
10.100,0.0002,0.0046,0.0032,-0.0489,-0.0020,1.0017
10.103,0.0005,0.0043,0.0022,-0.0656,-0.0068,1.0137
10.106,-0.0000,0.0025,0.0014,-0.0824,-0.0188,1.0424
10.109,-0.0006,0.0011,0.0008,-0.0992,-0.0260,1.0496
10.112,-0.0011,-0.0002,0.0000,-0.1015,-0.0404,1.0520
10.115,-0.0008,-0.0013,-0.0008,-0.1111,-0.0380,1.0352
10.118,-0.0008,-0.0002,-0.0010,-0.1135,-0.0428,1.0065
10.122,-0.0008,0.0003,-0.0018,-0.1111,-0.0356,0.9993
10.125,0.0002,0.0022,-0.0026,-0.0992,-0.0260,1.0184
10.128,0.0010,0.0017,-0.0032,-0.0944,-0.0308,1.0304
10.131,0.0010,0.0019,-0.0032,-0.0920,-0.0236,1.0328
10.134,0.0005,-0.0002,-0.0037,-0.0848,-0.0140,1.0280
10.137,-0.0000,0.0001,-0.0034,-0.0608,-0.0188,1.0232
10.140,-0.0000,-0.0002,-0.0037,-0.0417,-0.0092,1.0304
10.144,-0.0011,-0.0002,-0.0042,-0.0082,-0.0092,1.0256
10.147,-0.0011,-0.0007,-0.0042,0.0134,-0.0068,1.0232
10.150,-0.0011,-0.0013,-0.0042,0.0349,0.0027,1.0137
10.153,-0.0011,-0.0005,-0.0040,0.0613,0.0003,1.0113
10.156,-0.0006,0.0001,-0.0034,0.0924,-0.0044,1.0137
10.159,-0.0006,0.0014,-0.0024,0.1020,0.0147,1.0232
10.162,-0.0006,0.0003,-0.0026,0.1115,0.0195,1.0352
10.165,-0.0008,0.0001,-0.0021,0.1259,0.0410,1.0184
10.169,-0.0008,0.0003,-0.0021,0.1283,0.0339,1.0089
10.172,-0.0006,0.0001,-0.0013,0.1044,0.0434,1.0184
10.175,-0.0006,0.0001,-0.0005,0.1139,0.0339,1.0113
10.178,0.0005,0.0003,0.0006,0.1259,0.0315,1.0232
10.181,-0.0000,0.0006,0.0011,0.1187,0.0195,1.0113
10.184,-0.0000,0.0006,0.0011,0.1115,0.0171,1.0208
10.187,0.0002,0.0011,0.0011,0.0948,0.0075,1.0113
10.190,-0.0003,0.0009,0.0027,0.0565,0.0003,0.9945
10.194,-0.0008,0.0009,0.0030,0.0277,0.0003,0.9945
10.197,-0.0011,0.0003,0.0035,-0.0034,0.0027,0.9921
10.200,-0.0014,0.0006,0.0038,-0.0106,-0.0092,1.0017
10.203,-0.0008,0.0009,0.0040,-0.0249,0.0051,0.9945
10.206,-0.0008,0.0009,0.0048,-0.0273,0.0099,1.0017
10.209,-0.0003,0.0009,0.0046,-0.0345,0.0051,1.0113
10.212,-0.0003,0.0009,0.0048,-0.0321,-0.0044,1.0280
10.215,0.0005,0.0009,0.0043,-0.0417,-0.0020,1.0113
10.219,0.0005,0.0011,0.0040,-0.0441,-0.0068,1.0089
10.222,0.0010,0.0014,0.0040,-0.0417,-0.0020,1.0256
10.225,0.0008,0.0009,0.0035,-0.0369,0.0027,1.0208
10.228,0.0005,0.0001,0.0032,-0.0321,-0.0116,1.0160
10.231,0.0005,-0.0005,0.0027,-0.0369,-0.0116,1.0328
10.234,-0.0003,-0.0010,0.0030,-0.0345,-0.0140,1.0352
10.237,-0.0003,-0.0005,0.0027,-0.0345,-0.0092,1.0280
10.240,-0.0000,-0.0002,0.0019,-0.0417,-0.0116,1.0137
10.244,0.0002,0.0003,0.0022,-0.0417,0.0027,1.0208
10.247,0.0002,0.0006,0.0019,-0.0321,-0.0044,1.0184
10.250,0.0005,0.0009,0.0019,-0.0249,-0.0020,1.0328
10.253,0.0005,0.0011,0.0016,-0.0154,0.0027,1.0304
10.256,0.0005,0.0009,0.0011,-0.0178,-0.0068,1.0256
10.259,-0.0000,0.0006,0.0011,-0.0178,-0.0188,1.0304
10.262,-0.0003,0.0009,0.0014,0.0038,-0.0116,1.0184
10.265,-0.0008,0.0011,0.0008,0.0134,-0.0068,1.0280
10.269,-0.0008,0.0009,0.0008,0.0134,-0.0020,1.0160
10.272,-0.0008,0.0017,0.0003,0.0134,0.0027,1.0256
10.275,-0.0008,0.0014,0.0008,0.0158,0.0075,1.0424
10.278,-0.0003,0.0011,0.0011,0.0229,0.0051,1.0304
10.281,-0.0006,0.0017,0.0014,0.0134,0.0171,1.0232
10.284,0.0002,0.0017,0.0016,-0.0010,0.0099,1.0160
10.287,0.0005,0.0019,0.0014,-0.0130,0.0027,1.0160
10.290,0.0002,0.0001,0.0016,-0.0201,0.0051,1.0113
10.293,-0.0006,0.0001,0.0016,-0.0393,-0.0068,1.0184
10.297,-0.0011,0.0006,0.0006,-0.0393,-0.0116,1.0113
10.300,-0.0006,0.0014,0.0006,-0.0632,-0.0044,1.0208
10.303,-0.0000,0.0003,0.0003,-0.0632,-0.0044,1.0137
10.306,-0.0000,0.0003,-0.0002,-0.0704,-0.0092,1.0232
10.309,-0.0003,0.0009,-0.0010,-0.0848,-0.0116,1.0232
10.312,-0.0000,0.0009,-0.0010,-0.1015,-0.0164,1.0280
10.315,-0.0003,0.0011,-0.0018,-0.1159,-0.0140,1.0280
10.319,-0.0006,0.0009,-0.0024,-0.1159,-0.0212,1.0232
10.322,-0.0000,0.0014,-0.0032,-0.1159,-0.0212,1.0400
10.325,-0.0006,0.0014,-0.0032,-0.1063,-0.0236,1.0424
10.328,-0.0008,0.0019,-0.0042,-0.1015,-0.0284,1.0496
10.331,-0.0008,0.0011,-0.0042,-0.0896,-0.0380,1.0352
10.334,-0.0008,0.0009,-0.0042,-0.0704,-0.0380,1.0208
10.337,-0.0011,0.0014,-0.0048,-0.0561,-0.0164,1.0208
10.340,-0.0011,0.0014,-0.0056,-0.0489,-0.0236,1.0208
10.344,-0.0011,0.0003,-0.0066,-0.0441,-0.0116,1.0184
10.347,-0.0014,0.0003,-0.0066,-0.0369,-0.0164,1.0256
10.350,-0.0008,0.0011,-0.0061,-0.0106,-0.0116,1.0232
10.353,-0.0003,0.0011,-0.0058,0.0014,0.0099,1.0424
10.356,-0.0006,0.0017,-0.0058,0.0229,0.0123,1.0448
10.359,-0.0008,0.0014,-0.0050,0.0613,0.0171,1.0232
10.362,-0.0006,0.0014,-0.0056,0.0756,0.0291,1.0208
10.366,-0.0008,0.0011,-0.0050,0.0876,0.0243,1.0232
10.369,-0.0011,0.0011,-0.0045,0.1067,0.0291,1.0256
10.372,-0.0008,0.0009,-0.0040,0.1139,0.0506,1.0232
10.375,-0.0006,0.0006,-0.0034,0.1091,0.0434,1.0113
10.378,-0.0003,0.0003,-0.0026,0.1115,0.0434,1.0041
10.381,-0.0003,0.0001,-0.0016,0.1211,0.0363,1.0065
10.384,-0.0000,-0.0005,-0.0008,0.1307,0.0363,1.0160
10.387,-0.0003,0.0003,0.0008,0.1307,0.0267,1.0065
10.391,-0.0008,0.0009,0.0014,0.1307,0.0195,1.0089
10.394,-0.0003,0.0006,0.0016,0.1163,0.0219,1.0065
10.397,-0.0006,-0.0002,0.0022,0.1044,0.0291,1.0089
10.400,-0.0006,-0.0002,0.0024,0.0948,0.0243,1.0065
10.403,-0.0000,0.0006,0.0030,0.0780,0.0291,1.0208
10.406,-0.0006,0.0006,0.0027,0.0493,0.0195,1.0304
10.409,-0.0000,0.0006,0.0035,0.0301,0.0195,1.0400
10.412,0.0005,0.0006,0.0038,-0.0010,0.0027,1.0376
10.415,0.0008,0.0003,0.0038,-0.0201,0.0027,1.0280
10.419,0.0005,0.0003,0.0030,-0.0441,-0.0116,1.0184
10.422,0.0002,-0.0002,0.0024,-0.0680,-0.0140,1.0041
10.425,-0.0000,-0.0005,0.0024,-0.0848,-0.0332,1.0184
10.428,-0.0000,-0.0002,0.0019,-0.0920,-0.0308,1.0184
10.431,-0.0006,-0.0005,0.0014,-0.1015,-0.0308,1.0041
10.434,-0.0000,0.0001,0.0011,-0.1039,-0.0284,1.0065
10.437,-0.0003,0.0003,0.0003,-0.1063,-0.0308,1.0280
10.441,0.0002,-0.0002,-0.0002,-0.0992,-0.0332,1.0352
10.444,0.0005,-0.0005,-0.0005,-0.0896,-0.0260,1.0208
10.447,-0.0000,-0.0005,-0.0016,-0.0848,-0.0260,1.0113
10.450,-0.0003,0.0001,-0.0018,-0.0800,-0.0212,0.9993
10.453,0.0002,0.0001,-0.0021,-0.0632,-0.0092,0.9873
10.456,0.0005,0.0003,-0.0024,-0.0513,-0.0092,0.9969
10.459,0.0005,0.0006,-0.0029,-0.0345,-0.0140,1.0017
10.462,0.0005,0.0001,-0.0029,-0.0058,0.0003,1.0017
10.466,-0.0003,-0.0005,-0.0024,0.0158,0.0099,1.0232
10.469,-0.0003,-0.0005,-0.0026,0.0349,0.0243,1.0304
10.472,-0.0006,0.0001,-0.0026,0.0541,0.0339,1.0304
10.475,-0.0006,0.0001,-0.0018,0.0684,0.0339,1.0280
10.478,-0.0003,0.0006,-0.0016,0.0828,0.0267,1.0304
10.481,-0.0003,0.0001,-0.0016,0.0876,0.0267,1.0280
10.484,-0.0003,-0.0002,-0.0008,0.0948,0.0387,1.0113
10.487,-0.0003,-0.0007,-0.0002,0.0924,0.0339,1.0280
10.491,-0.0006,-0.0007,0.0000,0.0948,0.0315,1.0328
10.494,-0.0003,-0.0007,0.0006,0.0924,0.0387,1.0208
10.497,-0.0003,-0.0002,0.0014,0.0924,0.0315,1.0113
10.500,-0.0000,0.0001,0.0016,0.0852,0.0291,1.0208
10.503,-0.0000,-0.0005,0.0019,0.0565,0.0219,1.0041
10.506,0.0002,-0.0007,0.0024,0.0397,0.0123,1.0065
10.509,0.0005,-0.0002,0.0030,0.0158,0.0051,1.0041
10.512,0.0008,-0.0005,0.0035,0.0014,-0.0044,0.9921
10.516,0.0008,-0.0013,0.0038,-0.0106,-0.0068,0.9849
10.519,0.0005,-0.0010,0.0035,-0.0345,-0.0164,0.9753
10.522,-0.0000,-0.0005,0.0038,-0.0441,-0.0212,0.9873
10.525,-0.0003,0.0003,0.0032,-0.0561,-0.0140,1.0113
10.528,-0.0000,-0.0002,0.0035,-0.0656,-0.0092,1.0184
10.531,-0.0000,-0.0002,0.0027,-0.0704,-0.0284,1.0208
10.534,0.0008,-0.0005,0.0030,-0.0656,-0.0284,1.0208
10.537,0.0002,-0.0005,0.0024,-0.0704,-0.0212,1.0352
10.541,0.0005,-0.0007,0.0022,-0.0848,-0.0188,1.0256
10.544,0.0005,-0.0007,0.0016,-0.0896,-0.0260,1.0160
10.547,-0.0000,-0.0005,0.0011,-0.0752,-0.0380,1.0160
10.550,0.0002,-0.0007,0.0003,-0.0776,-0.0380,1.0184
10.553,-0.0000,-0.0005,-0.0002,-0.0824,-0.0308,1.0160
10.556,-0.0003,-0.0013,0.0003,-0.0656,-0.0188,1.0089
10.559,-0.0008,-0.0015,-0.0008,-0.0489,-0.0140,1.0065
10.563,-0.0003,-0.0013,-0.0013,-0.0297,-0.0116,1.0017
10.566,0.0002,-0.0007,-0.0016,-0.0058,-0.0044,0.9873
10.569,0.0002,-0.0005,-0.0016,-0.0034,0.0123,0.9825
10.572,0.0008,-0.0002,-0.0018,0.0014,0.0147,0.9897
10.575,0.0005,0.0003,-0.0018,0.0086,0.0099,1.0017
10.578,0.0005,0.0003,-0.0013,0.0134,-0.0020,1.0137
10.581,-0.0000,-0.0010,-0.0016,0.0134,0.0003,1.0160
10.584,-0.0000,-0.0021,-0.0018,0.0206,0.0075,1.0137
10.588,-0.0000,-0.0021,-0.0013,0.0277,0.0147,0.9993
10.591,-0.0003,-0.0018,-0.0005,0.0253,0.0075,0.9873
10.594,-0.0008,-0.0007,-0.0005,0.0349,0.0099,0.9969
10.597,-0.0006,-0.0010,-0.0005,0.0253,0.0147,1.0017
10.600,-0.0008,-0.0007,-0.0008,0.0158,0.0099,1.0041
10.603,-0.0000,-0.0002,-0.0008,0.0182,0.0075,1.0065
10.606,0.0008,-0.0005,-0.0010,0.0134,0.0123,1.0232
10.610,0.0008,-0.0002,-0.0010,0.0134,0.0171,1.0232
10.613,0.0008,-0.0002,-0.0002,0.0206,0.0075,1.0304
10.616,0.0008,-0.0007,-0.0002,0.0158,0.0147,1.0400
10.619,-0.0000,-0.0005,-0.0008,0.0110,0.0051,1.0304
10.622,-0.0000,-0.0005,-0.0010,0.0134,-0.0068,1.0256
10.625,-0.0003,-0.0005,-0.0008,0.0110,-0.0092,1.0256
10.628,-0.0000,-0.0005,0.0000,0.0086,-0.0092,1.0352
10.631,-0.0003,-0.0005,0.0000,-0.0058,0.0003,1.0304
10.635,-0.0003,-0.0007,0.0003,-0.0058,-0.0092,1.0280
10.638,-0.0003,-0.0010,0.0011,-0.0178,-0.0068,1.0113
10.641,0.0002,-0.0018,0.0008,-0.0225,-0.0068,0.9993
10.644,-0.0000,-0.0015,0.0008,-0.0201,-0.0140,1.0184
10.647,0.0010,-0.0018,0.0006,-0.0106,-0.0140,1.0160
10.650,-0.0000,-0.0018,0.0003,-0.0034,-0.0140,1.0280
10.653,0.0002,-0.0015,0.0006,0.0038,-0.0092,1.0089
10.657,0.0002,-0.0015,0.0003,-0.0034,-0.0068,1.0041
10.660,-0.0000,-0.0018,-0.0005,0.0038,-0.0068,1.0160
10.663,0.0002,-0.0013,0.0003,0.0062,-0.0116,1.0280
10.666,-0.0003,-0.0013,0.0003,-0.0082,-0.0188,1.0352
10.669,-0.0003,-0.0013,0.0006,-0.0154,-0.0260,1.0208
10.672,-0.0003,-0.0013,0.0006,-0.0178,-0.0284,1.0208
10.675,-0.0006,-0.0007,0.0003,-0.0154,-0.0332,1.0256
10.678,-0.0000,-0.0007,0.0000,0.0062,-0.0260,1.0184
10.682,-0.0003,-0.0013,0.0000,0.0014,-0.0236,1.0137
10.685,-0.0003,-0.0002,0.0000,-0.0010,-0.0260,1.0184
10.688,0.0005,-0.0007,0.0003,-0.0034,-0.0188,1.0017
10.691,0.0010,0.0001,0.0003,-0.0130,-0.0116,1.0041
10.694,0.0010,-0.0005,0.0006,-0.0058,-0.0068,0.9993
10.697,0.0018,-0.0007,0.0003,-0.0297,-0.0068,1.0089
10.700,0.0013,-0.0007,0.0000,-0.0345,-0.0116,1.0160
10.703,0.0008,-0.0010,0.0003,-0.0249,-0.0140,1.0256
10.707,0.0005,-0.0010,0.0003,-0.0130,-0.0140,1.0376
10.710,0.0013,-0.0013,-0.0005,-0.0034,-0.0092,1.0137
10.713,0.0008,-0.0013,-0.0002,-0.0034,-0.0044,1.0232
10.716,0.0005,-0.0015,0.0000,-0.0058,-0.0044,1.0113
10.719,0.0010,-0.0018,0.0000,-0.0082,-0.0092,1.0089
10.722,0.0005,-0.0021,0.0000,-0.0106,0.0027,1.0137
10.725,0.0005,-0.0018,-0.0002,-0.0178,0.0099,1.0089
10.728,-0.0000,-0.0015,0.0000,-0.0130,0.0123,1.0017
10.732,0.0002,-0.0015,-0.0002,-0.0034,0.0243,1.0089
10.735,0.0002,-0.0021,0.0003,-0.0010,0.0123,1.0184
10.738,0.0010,-0.0018,0.0003,-0.0010,0.0051,1.0280
10.741,0.0008,-0.0021,0.0006,0.0062,-0.0068,1.0304
10.744,0.0010,-0.0021,0.0006,0.0158,-0.0068,1.0280
10.747,0.0010,-0.0021,0.0008,0.0182,-0.0092,1.0160
10.750,0.0005,-0.0023,0.0000,0.0158,-0.0020,1.0160
10.753,0.0005,-0.0018,0.0000,0.0062,-0.0044,1.0113
10.757,0.0002,-0.0021,0.0000,0.0014,0.0027,1.0113
10.760,0.0002,-0.0023,0.0008,0.0062,0.0051,1.0065
10.763,-0.0000,-0.0023,0.0006,0.0110,0.0123,1.0041
10.766,-0.0000,-0.0026,0.0006,0.0110,0.0123,1.0113
10.769,-0.0000,-0.0021,0.0003,0.0110,0.0195,1.0160
10.772,0.0005,-0.0018,0.0008,0.0134,0.0219,1.0137
10.775,0.0005,-0.0018,0.0003,0.0038,0.0243,1.0160
10.778,0.0010,-0.0015,0.0006,0.0014,0.0243,1.0160
10.782,0.0010,-0.0018,0.0006,-0.0010,0.0195,1.0256
10.785,0.0010,-0.0015,0.0006,-0.0010,0.0171,1.0256
10.788,0.0008,-0.0013,0.0008,-0.0130,0.0123,1.0304
10.791,0.0008,-0.0021,0.0008,-0.0058,0.0099,1.0280
10.794,0.0002,-0.0018,0.0014,-0.0154,0.0027,1.0256
10.797,0.0005,-0.0021,0.0016,-0.0201,0.0147,1.0304
10.800,0.0005,-0.0021,0.0016,-0.0034,0.0147,1.0615
10.803,0.0005,-0.0018,0.0014,0.0038,0.0075,1.0735
10.807,0.0005,-0.0029,0.0016,-0.0082,0.0027,1.0639
10.810,0.0010,-0.0034,0.0008,-0.0034,-0.0020,1.0544
10.813,0.0010,-0.0029,0.0003,-0.0130,0.0051,1.0567
10.816,0.0005,-0.0023,0.0000,-0.0154,-0.0020,1.0424
10.819,0.0005,-0.0026,0.0003,-0.0154,0.0075,1.0376
10.822,0.0008,-0.0026,0.0003,-0.0178,-0.0044,1.0232
10.825,0.0010,-0.0029,0.0003,-0.0201,-0.0092,1.0208
10.828,0.0010,-0.0026,0.0003,-0.0201,-0.0116,1.0256
10.832,0.0008,-0.0029,0.0000,-0.0225,-0.0164,1.0184
10.835,0.0008,-0.0031,0.0000,-0.0225,-0.0116,1.0017
10.838,0.0010,-0.0039,0.0000,-0.0249,-0.0044,1.0065
10.841,0.0008,-0.0034,-0.0002,-0.0321,0.0027,1.0184
10.844,0.0010,-0.0031,-0.0005,-0.0201,-0.0044,1.0184
10.847,0.0008,-0.0026,0.0003,-0.0106,-0.0140,1.0017
10.850,0.0008,-0.0026,0.0006,-0.0034,-0.0140,1.0041
10.853,0.0010,-0.0029,0.0008,-0.0058,-0.0068,0.9993
10.857,0.0005,-0.0023,0.0011,-0.0034,0.0003,1.0065
10.860,0.0005,-0.0029,0.0006,-0.0010,-0.0020,0.9969
10.863,0.0005,-0.0031,0.0003,-0.0178,0.0003,1.0041
10.866,0.0008,-0.0021,-0.0002,-0.0082,0.0099,1.0113
10.869,0.0008,-0.0021,-0.0005,0.0110,0.0123,1.0184
10.872,0.0002,-0.0021,-0.0002,0.0206,0.0123,1.0232
10.875,0.0005,-0.0018,0.0006,0.0253,0.0147,1.0065
10.878,0.0005,-0.0013,0.0006,0.0373,0.0051,1.0137
10.882,0.0008,-0.0013,0.0006,0.0373,0.0075,1.0065
10.885,0.0008,-0.0013,0.0008,0.0541,0.0147,1.0065
10.888,0.0002,-0.0013,0.0006,0.0493,0.0171,1.0041
10.891,0.0005,-0.0018,-0.0002,0.0397,0.0123,1.0089
10.894,0.0008,-0.0013,-0.0002,0.0229,0.0123,1.0041
10.897,0.0002,-0.0010,0.0008,0.0301,0.0051,1.0113
10.900,-0.0000,-0.0010,0.0006,0.0182,0.0123,1.0089
10.903,-0.0003,-0.0010,0.0008,0.0182,0.0099,1.0208
10.906,-0.0000,-0.0007,0.0006,0.0182,0.0051,1.0017
10.910,-0.0000,-0.0010,0.0008,0.0206,0.0051,1.0041
10.913,0.0002,-0.0010,0.0006,0.0158,0.0027,1.0160
10.916,0.0002,-0.0010,0.0000,0.0038,-0.0020,1.0184
10.919,0.0002,-0.0002,-0.0002,-0.0058,0.0075,1.0017
10.922,-0.0000,-0.0013,-0.0005,-0.0154,0.0003,0.9873
10.925,0.0002,-0.0010,-0.0005,-0.0249,-0.0044,0.9825
10.928,-0.0000,-0.0005,-0.0002,-0.0345,0.0003,0.9801
10.931,0.0005,-0.0005,0.0000,-0.0178,0.0003,0.9993
10.935,0.0002,0.0001,-0.0005,-0.0321,0.0051,0.9993
10.938,0.0002,-0.0002,-0.0002,-0.0345,0.0147,1.0184
10.941,0.0002,0.0001,-0.0008,-0.0297,0.0075,1.0113
10.944,-0.0000,0.0001,-0.0005,-0.0321,0.0147,1.0017
10.947,-0.0003,0.0003,-0.0002,-0.0465,0.0171,0.9921
10.950,-0.0003,0.0006,-0.0002,-0.0393,0.0075,0.9969
10.953,-0.0003,0.0003,0.0003,-0.0130,0.0003,1.0113
10.956,-0.0006,0.0001,0.0003,-0.0225,0.0027,1.0089
10.960,-0.0008,-0.0002,-0.0002,-0.0082,0.0027,0.9945
10.963,-0.0003,-0.0002,0.0000,0.0038,0.0123,1.0041
10.966,-0.0006,-0.0002,0.0003,0.0158,0.0099,1.0017
10.969,-0.0008,0.0001,0.0000,0.0038,0.0051,1.0304
10.972,-0.0008,-0.0005,-0.0002,0.0038,0.0027,1.0424
10.975,-0.0003,0.0001,-0.0002,0.0277,-0.0116,1.0280
10.978,0.0005,-0.0010,-0.0002,0.0373,-0.0140,1.0208
10.981,0.0005,-0.0015,-0.0005,0.0253,-0.0020,1.0184
10.985,-0.0000,-0.0005,-0.0005,0.0086,0.0123,1.0137
10.988,-0.0003,-0.0010,0.0000,0.0110,-0.0020,1.0065
10.991,-0.0008,-0.0007,0.0003,0.0134,-0.0092,1.0137
10.994,-0.0008,-0.0002,0.0003,0.0349,-0.0068,1.0208
10.997,-0.0006,0.0001,0.0006,0.0253,-0.0020,1.0184
11.000,-0.0006,-0.0005,0.0006,0.0182,-0.0116,1.0113
11.003,-0.0011,-0.0005,0.0006,0.0182,-0.0092,1.0089
11.006,-0.0006,-0.0010,0.0008,0.0253,-0.0044,1.0041
11.010,0.0002,-0.0002,0.0008,0.0086,-0.0236,1.0017
11.013,-0.0000,0.0003,0.0008,-0.0010,-0.0212,1.0137
11.016,0.0002,0.0003,0.0006,-0.0010,-0.0260,1.0256
11.019,-0.0003,0.0001,0.0000,-0.0106,-0.0260,1.0256
11.022,-0.0003,-0.0005,0.0006,-0.0058,-0.0212,1.0328
11.025,-0.0000,-0.0002,0.0011,-0.0082,-0.0068,1.0352
11.028,-0.0000,-0.0010,0.0014,-0.0178,-0.0140,1.0328
11.031,-0.0008,-0.0005,0.0014,-0.0130,-0.0212,1.0304
11.035,-0.0003,-0.0005,0.0014,-0.0130,-0.0212,1.0352
11.038,-0.0003,-0.0007,0.0011,-0.0130,-0.0164,1.0448
11.041,-0.0006,-0.0002,0.0003,-0.0058,-0.0212,1.0400
11.044,-0.0006,-0.0007,0.0008,-0.0130,-0.0068,1.0352
11.047,-0.0003,-0.0002,0.0003,-0.0106,-0.0116,1.0232
11.050,-0.0006,-0.0005,0.0000,-0.0201,-0.0212,1.0256
11.053,-0.0003,0.0003,0.0006,-0.0225,-0.0236,1.0304
11.057,-0.0000,0.0003,0.0006,-0.0201,-0.0140,1.0280
11.060,0.0005,0.0006,0.0003,-0.0273,-0.0116,1.0232
11.063,0.0010,0.0003,-0.0005,-0.0273,-0.0188,1.0232
11.066,0.0002,0.0003,-0.0008,-0.0273,-0.0140,1.0232
11.069,0.0002,0.0009,-0.0008,-0.0201,-0.0236,1.0137
11.072,-0.0000,0.0014,-0.0005,-0.0273,-0.0212,1.0256
11.075,0.0002,0.0006,-0.0005,-0.0201,-0.0188,1.0304
11.078,-0.0000,0.0003,-0.0002,-0.0058,-0.0068,1.0232
11.082,0.0005,0.0001,-0.0005,0.0086,-0.0188,1.0256
11.085,0.0002,0.0001,-0.0005,0.0182,-0.0260,1.0113
11.088,0.0002,-0.0007,-0.0005,0.0253,-0.0236,0.9945
11.091,0.0005,-0.0002,-0.0002,0.0301,-0.0116,1.0041
11.094,0.0002,-0.0002,-0.0002,0.0349,-0.0068,1.0160
11.097,-0.0000,-0.0010,-0.0005,0.0206,-0.0020,1.0017
11.100,0.0002,-0.0013,-0.0005,0.0182,0.0003,1.0184
11.103,-0.0000,-0.0013,-0.0010,0.0229,-0.0044,1.0137
11.106,-0.0006,-0.0005,-0.0010,0.0134,-0.0020,1.0280
11.110,-0.0006,-0.0007,-0.0008,0.0086,0.0003,1.0304
11.113,-0.0006,-0.0007,0.0000,0.0014,0.0075,1.0280
11.116,-0.0008,-0.0007,0.0008,0.0086,-0.0044,1.0376
11.119,0.0002,-0.0007,0.0014,0.0110,-0.0068,1.0208
11.122,-0.0003,-0.0002,0.0011,0.0038,0.0003,1.0232
11.125,0.0002,-0.0005,0.0006,-0.0010,0.0027,1.0184
11.128,-0.0000,-0.0002,0.0006,-0.0010,-0.0020,1.0184
11.132,0.0002,-0.0005,0.0003,-0.0130,0.0003,0.9993
11.135,0.0002,-0.0005,0.0014,-0.0178,-0.0116,1.0017
11.138,0.0002,0.0001,0.0014,-0.0201,-0.0164,1.0137
11.141,0.0005,-0.0005,0.0014,-0.0106,-0.0020,1.0160
11.144,0.0005,-0.0002,0.0016,-0.0010,0.0147,1.0232
11.147,0.0008,0.0001,0.0019,-0.0058,0.0123,1.0137
11.150,0.0002,0.0001,0.0011,-0.0058,0.0075,1.0089
11.153,0.0005,0.0003,0.0011,-0.0082,0.0171,1.0113
11.157,0.0002,0.0001,0.0003,-0.0106,0.0171,1.0041
11.160,-0.0000,-0.0002,0.0003,-0.0201,0.0171,1.0017
11.163,-0.0003,-0.0007,0.0003,-0.0106,0.0171,0.9945
11.166,0.0002,-0.0005,0.0003,-0.0034,0.0147,0.9873
11.169,0.0005,-0.0002,0.0000,0.0014,0.0123,1.0041
11.172,0.0002,-0.0002,-0.0002,-0.0034,0.0147,1.0160
11.175,0.0002,-0.0005,-0.0005,-0.0106,-0.0068,1.0376
11.178,-0.0000,0.0001,-0.0008,0.0038,0.0003,1.0304
11.182,-0.0006,-0.0005,-0.0005,0.0086,-0.0020,1.0208
11.185,-0.0006,-0.0005,-0.0005,0.0038,0.0003,1.0137
11.188,-0.0011,-0.0007,-0.0005,0.0086,-0.0044,1.0184
11.191,-0.0006,-0.0005,-0.0005,0.0086,-0.0092,1.0256
11.194,-0.0011,-0.0010,-0.0010,0.0086,0.0027,1.0232
11.197,-0.0008,-0.0007,-0.0010,0.0086,0.0003,1.0113
11.200,-0.0008,-0.0005,-0.0010,0.0158,0.0075,1.0113
11.203,-0.0003,-0.0002,-0.0005,0.0206,0.0003,1.0160
11.207,-0.0000,0.0003,-0.0002,0.0206,0.0099,1.0113
11.210,0.0002,0.0001,-0.0005,0.0301,-0.0044,0.9873
11.213,0.0002,0.0011,0.0000,0.0229,-0.0044,0.9969
11.216,0.0005,0.0009,-0.0005,0.0158,-0.0092,1.0256
11.219,0.0008,0.0003,-0.0002,0.0062,-0.0068,1.0160
11.222,0.0002,0.0001,-0.0010,0.0014,0.0003,1.0256
11.225,0.0002,-0.0002,-0.0008,0.0062,0.0051,0.9921
11.228,0.0002,0.0009,-0.0010,-0.0058,0.0075,1.0352
11.231,-0.0000,0.0011,-0.0013,-0.0010,0.0099,1.0472
11.235,0.0002,0.0009,-0.0010,0.0086,-0.0020,1.0424
11.238,0.0005,0.0001,-0.0010,0.0014,0.0003,1.0400
11.241,0.0005,-0.0002,-0.0002,0.0038,-0.0044,1.0400
11.244,-0.0003,0.0001,-0.0002,0.0182,-0.0068,1.0089
11.247,-0.0000,0.0009,-0.0002,0.0014,-0.0140,1.0089
11.250,0.0002,0.0011,-0.0002,-0.0034,-0.0188,1.0208
11.253,0.0005,0.0001,0.0000,-0.0082,-0.0308,1.0160
11.256,0.0002,0.0001,0.0006,-0.0106,-0.0308,1.0328
11.260,0.0002,-0.0002,0.0003,-0.0082,-0.0140,1.0544
11.263,0.0002,-0.0007,-0.0005,-0.0130,-0.0068,1.0544
11.266,0.0002,-0.0015,-0.0005,-0.0058,-0.0092,1.0208
11.269,0.0013,0.0017,0.0003,-0.0273,-0.0284,1.0041
11.272,0.0018,0.0022,-0.0002,-0.0345,-0.0188,1.0400
11.275,0.0005,0.0017,0.0000,-0.0321,-0.0164,1.0184
11.278,0.0005,0.0027,0.0000,-0.0345,-0.0092,1.0232
11.281,0.0013,0.0041,-0.0008,-0.0345,-0.0020,1.0256
11.285,0.0016,0.0049,-0.0008,-0.0225,0.0075,1.0280
11.288,0.0008,0.0043,-0.0010,-0.0010,0.0147,1.0448
11.291,0.0010,0.0038,-0.0008,0.0014,0.0171,1.0280
11.294,0.0010,0.0057,-0.0013,0.0229,0.0003,1.0017
11.297,0.0026,0.0073,-0.0008,0.0110,0.0147,1.0472
11.300,0.0013,0.0065,-0.0008,0.0182,0.0171,1.0424
11.303,0.0010,0.0049,-0.0005,0.0206,0.0219,1.0544
11.306,0.0002,0.0025,-0.0008,0.0110,0.0147,1.0855
11.310,-0.0027,-0.0031,0.0003,0.0086,0.0291,1.1166
11.313,-0.0051,-0.0095,0.0006,0.0397,0.0147,1.0496
11.316,-0.0035,-0.0066,0.0006,0.0732,-0.0068,0.9442
11.319,-0.0000,0.0001,0.0006,0.0325,0.0099,0.9897
11.322,0.0002,0.0011,0.0003,0.0229,0.0123,0.9825
11.325,0.0005,0.0025,0.0008,0.0110,0.0075,1.0065
11.328,0.0002,0.0019,0.0006,0.0062,-0.0020,1.0352
11.331,-0.0000,0.0022,0.0006,0.0182,-0.0068,1.0137
11.335,0.0010,0.0027,0.0003,0.0301,-0.0212,0.9921
11.338,0.0021,0.0046,0.0003,0.0206,-0.0092,1.0065
11.341,0.0018,0.0043,0.0006,0.0086,0.0051,1.0328
11.344,0.0005,0.0019,0.0008,-0.0058,0.0051,1.0544
11.347,0.0005,0.0006,0.0011,-0.0058,-0.0068,1.0232
11.350,0.0002,-0.0007,0.0011,-0.0249,-0.0164,1.0448
11.353,0.0005,-0.0007,0.0006,-0.0321,-0.0260,1.0232
11.356,0.0013,0.0001,0.0000,-0.0201,-0.0188,1.0256
11.359,0.0013,0.0006,-0.0002,-0.0130,-0.0140,1.0328
11.363,0.0010,0.0001,-0.0008,-0.0201,-0.0140,1.0567
11.366,0.0005,-0.0010,-0.0005,-0.0154,-0.0116,1.0424
11.369,0.0010,-0.0002,-0.0008,-0.0225,-0.0260,1.0280
11.372,0.0016,0.0009,-0.0008,-0.0249,-0.0332,1.0328
11.375,0.0010,0.0027,-0.0010,-0.0106,-0.0284,0.9945
11.378,0.0010,0.0046,-0.0008,-0.0249,-0.0236,1.0759
11.381,0.0008,0.0035,-0.0013,-0.0106,-0.0188,0.9945
11.385,0.0005,0.0038,-0.0016,-0.0082,-0.0068,1.0256
11.388,0.0008,0.0035,-0.0013,-0.0082,-0.0068,1.0304
11.391,0.0008,0.0043,-0.0008,-0.0178,0.0003,1.0376
11.394,0.0016,0.0035,-0.0013,-0.0082,0.0147,1.0304
11.397,0.0018,0.0041,-0.0010,-0.0154,0.0315,1.0113
11.400,0.0018,0.0046,-0.0008,-0.0201,0.0267,1.0376
11.403,0.0016,0.0027,-0.0005,-0.0106,0.0291,1.0496
11.406,0.0008,0.0014,-0.0005,0.0158,0.0291,1.0208
11.410,0.0005,0.0014,-0.0002,0.0301,0.0051,1.0184
11.413,0.0002,0.0014,-0.0002,0.0349,-0.0116,1.0208
11.416,0.0010,0.0014,-0.0005,0.0349,-0.0260,1.0113
11.419,0.0013,0.0014,-0.0002,0.0373,-0.0236,1.0017
11.422,-0.0000,-0.0015,0.0003,-0.0345,-0.0044,1.1334
11.425,-0.0056,-0.0162,0.0000,-0.0848,0.0219,1.2124
11.428,-0.0128,-0.0330,-0.0016,-0.3146,-0.0571,1.2028
11.432,-0.0179,-0.0442,-0.0298,-1.2579,-0.3827,1.1429
11.435,-0.0200,-0.0511,-0.0999,-1.8230,-0.6174,1.0639
11.438,-0.0187,-0.0490,-0.1809,-1.7559,-0.6868,0.9418
11.441,-0.0131,-0.0343,-0.2712,-1.1646,-0.5791,0.8101
11.444,-0.0054,-0.0141,-0.3168,-0.7121,-0.4306,0.7551
11.447,0.0021,0.0038,-0.3456,-0.3769,-0.2510,0.8892
11.450,0.0042,0.0102,-0.3565,0.0277,-0.0835,1.0089
11.454,0.0042,0.0107,-0.3429,0.7652,0.1751,0.9897
11.457,0.0056,0.0155,-0.2947,1.5912,0.4481,0.9466
11.460,0.0085,0.0249,-0.2150,2.1514,0.6971,0.9275
11.463,0.0090,0.0294,-0.0914,2.0030,0.6468,1.0639
11.466,0.0058,0.0233,-0.0072,1.6702,0.4576,1.1046
11.469,0.0026,0.0166,0.0677,1.6821,0.3427,1.0376
11.472,0.0010,0.0203,0.1519,1.9431,0.3068,1.0472
11.475,-0.0048,0.0249,0.2406,1.7994,0.2613,1.1741
11.478,-0.0134,0.0286,0.3177,1.3278,0.1823,1.2100
11.482,-0.0240,0.0318,0.3664,0.5784,0.1129,1.3153
11.485,-0.0384,0.0296,0.3821,-0.1135,0.0267,1.4063
11.488,-0.0563,0.0286,0.3715,-0.4511,0.0530,1.4470
11.491,-0.0818,0.0331,0.3430,-0.5493,0.0746,1.4781
11.494,-0.1029,0.0374,0.3179,-0.6355,0.0219,1.5308
11.497,-0.1247,0.0344,0.2851,-0.8845,-0.0906,1.5883
11.500,-0.1471,0.0267,0.2433,-1.0066,-0.2391,1.5069
11.503,-0.1639,0.0190,0.1967,-1.0066,-0.3732,1.3464
11.507,-0.1743,0.0121,0.1509,-0.9587,-0.4450,1.1525
11.510,-0.1770,0.0070,0.1093,-0.8629,-0.4258,1.0041
11.513,-0.1714,0.0115,0.0682,-0.5038,-0.3205,0.8796
11.516,-0.1671,0.0158,0.0525,-0.2069,-0.2319,0.9610
11.519,-0.1666,0.0129,0.0501,0.1762,-0.1218,1.0352
11.522,-0.1684,0.0153,0.0661,0.6694,0.0937,1.0831
11.525,-0.1722,0.0169,0.1029,1.0668,0.1847,1.1429
11.528,-0.1783,0.0190,0.1580,1.4882,0.2853,1.1358
11.532,-0.1860,0.0155,0.2327,1.6462,0.2757,1.3010
11.535,-0.2023,-0.0071,0.3097,1.3661,0.1727,1.5404
11.538,-0.2255,-0.0442,0.3752,0.9471,0.0363,1.5907
11.541,-0.2513,-0.0903,0.4346,0.4132,-0.0930,1.3536
11.544,-0.2596,-0.1092,0.4594,0.0397,-0.1816,1.1166
11.547,-0.2598,-0.1134,0.4658,-0.2213,-0.2917,0.9299
11.550,-0.2516,-0.1012,0.4589,-0.3146,-0.4498,0.7479
11.553,-0.2391,-0.0841,0.4429,-0.3098,-0.6174,0.7479
11.557,-0.2284,-0.0703,0.4240,-0.2284,-0.7706,0.7838
11.560,-0.2175,-0.0580,0.4075,-0.1255,-0.9047,0.7910
11.563,-0.2060,-0.0490,0.3816,-0.0848,-1.0938,0.8101
11.566,-0.1964,-0.0423,0.3579,-0.0417,-1.2087,0.8125
11.569,-0.1866,-0.0394,0.3326,-0.0130,-1.2686,0.7694
11.572,-0.1759,-0.0295,0.3017,0.0134,-1.2949,0.8269
11.575,-0.1716,-0.0276,0.2740,0.1810,-1.2375,0.9035
11.579,-0.1666,-0.0258,0.2558,0.3462,-1.2327,0.9490
11.582,-0.1663,-0.0290,0.2441,0.3964,-1.2422,1.0352
11.585,-0.1636,-0.0290,0.2356,0.5425,-1.3332,0.9227
11.588,-0.1610,-0.0244,0.2303,0.5377,-1.4027,0.9706
11.591,-0.1583,-0.0228,0.2231,0.5042,-1.4434,0.9777
11.594,-0.1570,-0.0252,0.2113,0.4778,-1.4577,0.9682
11.597,-0.1543,-0.0212,0.1954,0.4443,-1.5128,0.9921
11.600,-0.1551,-0.0242,0.1775,0.4084,-1.5679,0.9993
11.604,-0.1514,-0.0308,0.1588,0.4180,-1.5894,0.9610
11.607,-0.1474,-0.0359,0.1402,0.4060,-1.5798,0.9658
11.610,-0.1426,-0.0447,0.1122,0.4108,-1.6110,0.9059
11.613,-0.1346,-0.0412,0.0880,0.4563,-1.6540,0.7934
11.616,-0.1282,-0.0340,0.0597,0.5473,-1.6900,0.8149
11.619,-0.1231,-0.0306,0.0309,0.6574,-1.6900,0.8963
11.622,-0.1189,-0.0284,0.0019,0.7652,-1.6086,0.9179
11.625,-0.1157,-0.0236,-0.0258,0.8777,-1.4912,0.9562
11.629,-0.1170,-0.0178,-0.0522,0.9519,-1.4003,0.9466
11.632,-0.1136,-0.0098,-0.0804,0.9615,-1.3572,0.9777
11.635,-0.1133,-0.0002,-0.1233,0.9327,-1.3979,0.9873
11.638,-0.1096,0.0019,-0.1598,0.8561,-1.5487,0.9634
11.641,-0.1088,-0.0002,-0.2017,0.7221,-1.7426,1.0065
11.644,-0.1064,-0.0050,-0.2470,0.6478,-1.8384,0.9849
11.647,-0.1042,-0.0023,-0.2928,0.5928,-1.8504,0.9490
11.651,-0.1010,0.0009,-0.3346,0.5401,-1.7355,1.0256
11.654,-0.1010,0.0022,-0.3677,0.5090,-1.5415,1.0711
11.657,-0.1029,0.0014,-0.3885,0.4946,-1.3141,1.0041
11.660,-0.1005,0.0041,-0.3938,0.4443,-1.0579,0.9514
11.663,-0.0981,0.0097,-0.3877,0.4084,-0.9382,0.9682
11.666,-0.0970,0.0150,-0.3767,0.3940,-0.8640,0.9825
11.669,-0.0986,0.0206,-0.3634,0.4324,-0.8568,1.0280
11.672,-0.1016,0.0278,-0.3466,0.4826,-0.9071,1.1022
11.675,-0.1080,0.0296,-0.3306,0.5688,-0.9693,1.1022
11.679,-0.1114,0.0382,-0.3115,0.6837,-1.0172,1.0735
11.682,-0.1154,0.0470,-0.2880,0.7556,-1.0914,1.0975
11.685,-0.1205,0.0494,-0.2558,0.8322,-1.2303,1.0951
11.688,-0.1237,0.0494,-0.2310,0.8274,-1.3548,1.0448
11.691,-0.1242,0.0486,-0.2086,0.7939,-1.4314,0.9849
11.694,-0.1223,0.0499,-0.1910,0.7221,-1.5104,0.9610
11.697,-0.1202,0.0488,-0.1793,0.6407,-1.5343,0.9945
11.700,-0.1191,0.0486,-0.1758,0.6023,-1.5343,1.0304
11.704,-0.1165,0.0467,-0.1753,0.6071,-1.4984,1.0591
11.707,-0.1162,0.0456,-0.1772,0.6311,-1.4697,1.0975
11.710,-0.1186,0.0451,-0.1772,0.6383,-1.4170,1.0711
11.713,-0.1197,0.0526,-0.1732,0.6957,-1.3260,0.9442
11.716,-0.1178,0.0587,-0.1665,0.6790,-1.2231,0.9155
11.719,-0.1152,0.0624,-0.1574,0.6239,-1.1297,0.8820
11.722,-0.1120,0.0640,-0.1487,0.4874,-1.0435,0.9251
11.725,-0.1072,0.0590,-0.1407,0.3294,-0.9765,0.9179
11.728,-0.1029,0.0534,-0.1367,0.1810,-0.9573,0.9275
11.732,-0.0973,0.0456,-0.1377,0.0948,-0.9789,0.9251
11.735,-0.0925,0.0414,-0.1425,0.0541,-0.9909,0.9538
11.738,-0.0885,0.0403,-0.1519,0.0325,-1.0435,0.9394
11.741,-0.0858,0.0435,-0.1609,0.0445,-1.1010,0.9227
11.744,-0.0826,0.0526,-0.1718,0.0182,-1.1824,0.9131
11.747,-0.0778,0.0603,-0.1828,-0.0154,-1.2686,0.9179
11.750,-0.0667,0.0635,-0.1929,-0.0728,-1.3500,0.9059
11.753,-0.0464,0.0632,-0.2022,-0.1183,-1.3739,0.8461
11.757,-0.0174,0.0635,-0.2091,-0.1399,-1.3596,0.7814
11.760,0.0343,0.0680,-0.2126,-0.1279,-1.3093,0.7072
11.763,0.0802,0.0749,-0.2097,-0.0848,-1.2877,0.6880
11.766,0.1297,0.0864,-0.2014,-0.0273,-1.2662,0.6617
11.769,0.1806,0.1021,-0.1894,0.0182,-1.2159,0.7072
11.772,0.2273,0.1202,-0.1726,0.0158,-1.1680,0.7958
11.775,0.2696,0.1386,-0.1566,-0.0178,-1.1201,0.8604
11.778,0.3064,0.1567,-0.1428,-0.0776,-1.0675,0.9227
11.782,0.3392,0.1762,-0.1337,-0.1351,-1.0220,0.9394
11.785,0.3698,0.1943,-0.1305,-0.1877,-0.9693,0.9370
11.788,0.4103,0.2191,-0.1343,-0.2117,-0.9118,0.8939
11.791,0.4404,0.2362,-0.1412,-0.2117,-0.8520,0.8556
11.794,0.4695,0.2524,-0.1511,-0.2117,-0.8137,0.8508
11.797,0.4977,0.2647,-0.1633,-0.2165,-0.7897,0.8485
11.800,0.5228,0.2719,-0.1793,-0.2380,-0.7682,0.8772
11.803,0.5449,0.2737,-0.1958,-0.2739,-0.7299,0.8820
11.807,0.5641,0.2689,-0.2113,-0.3027,-0.7059,0.8485
11.810,0.5816,0.2620,-0.2243,-0.3266,-0.6844,0.7431
11.813,0.6040,0.2426,-0.2363,-0.3458,-0.6341,0.7527
11.816,0.6182,0.2151,-0.2385,-0.3170,-0.5336,0.8365
11.819,0.6272,0.1794,-0.2329,-0.2524,-0.4162,0.8987
11.822,0.6333,0.1392,-0.2206,-0.2045,-0.3133,0.9394
11.825,0.6376,0.0957,-0.2059,-0.1830,-0.2295,0.8724
11.828,0.6392,0.0590,-0.1956,-0.1925,-0.1505,0.8078
11.832,0.6395,0.0241,-0.1894,-0.2165,-0.0978,0.8269
11.835,0.6365,-0.0138,-0.1857,-0.2189,-0.0811,0.8772
11.838,0.6291,-0.0684,-0.1801,-0.1446,-0.0475,0.9586
11.841,0.6219,-0.1062,-0.1713,-0.0297,-0.0188,0.9370
11.844,0.6142,-0.1388,-0.1582,0.0852,0.0027,0.9370
11.847,0.6030,-0.1651,-0.1439,0.1714,0.0434,0.9825
11.850,0.5862,-0.1803,-0.1313,0.2312,0.1272,1.1166
11.853,0.5611,-0.1817,-0.1241,0.2456,0.2182,1.2555
11.857,0.5313,-0.1691,-0.1241,0.2336,0.2565,1.3584
11.860,0.5012,-0.1452,-0.1273,0.1977,0.2517,1.4039
11.863,0.4705,-0.1017,-0.1327,0.0732,0.1632,1.4063
11.866,0.4572,-0.0681,-0.1300,-0.0585,0.0841,1.3800
11.869,0.4537,-0.0364,-0.1185,-0.2141,0.0219,1.2914
11.872,0.4577,-0.0085,-0.0988,-0.4391,0.0027,1.2124
11.875,0.4668,0.0155,-0.0754,-0.6690,0.0243,1.1358
11.878,0.4772,0.0363,-0.0493,-0.8581,0.1033,1.1286
11.882,0.4841,0.0550,-0.0255,-0.9683,0.2086,1.1334
11.885,0.4855,0.0723,-0.0026,-1.0042,0.3092,1.1717
11.888,0.4799,0.0928,0.0264,-0.9850,0.4074,1.1836
11.891,0.4700,0.1059,0.0469,-0.9228,0.4385,1.1693
11.894,0.4583,0.1168,0.0656,-0.8509,0.4840,1.1429
11.897,0.4434,0.1234,0.0813,-0.7911,0.5199,1.1070
11.900,0.4279,0.1274,0.0938,-0.7097,0.5558,1.0663
11.903,0.4146,0.1306,0.1005,-0.5948,0.6204,1.0376
11.906,0.4039,0.1312,0.1005,-0.5110,0.7018,1.0256
11.909,0.3933,0.1280,0.0936,-0.4367,0.7880,1.0376
11.913,0.3850,0.1242,0.0794,-0.3745,0.8192,1.0232
11.916,0.3802,0.1221,0.0589,-0.3218,0.7880,0.9490
11.919,0.3810,0.1197,0.0277,-0.3290,0.6923,0.9035
11.922,0.3858,0.1131,0.0043,-0.3721,0.6468,0.8556
11.925,0.3943,0.1032,-0.0168,-0.4224,0.6133,0.8293
11.928,0.4052,0.0901,-0.0357,-0.5110,0.6109,0.8245
11.931,0.4162,0.0731,-0.0514,-0.6235,0.6348,0.8245
11.934,0.4263,0.0528,-0.0645,-0.7408,0.6300,0.8389
11.937,0.4335,0.0326,-0.0756,-0.8701,0.6228,0.8772
11.940,0.4351,0.0150,-0.0863,-0.9874,0.6540,0.9179
11.944,0.4271,0.0049,-0.0959,-1.1023,0.7210,1.0113
11.947,0.4098,0.0006,-0.1036,-1.1957,0.8024,1.0711
11.950,0.3762,-0.0013,-0.1063,-1.2795,0.9149,1.1022
11.953,0.3480,-0.0010,-0.1015,-1.3106,1.0035,1.1310
11.956,0.3186,-0.0005,-0.0906,-1.3465,1.1065,1.1525
11.959,0.2912,0.0006,-0.0748,-1.4064,1.1831,1.1310
11.962,0.2659,0.0014,-0.0573,-1.4543,1.2381,1.1142
11.965,0.2456,0.0027,-0.0381,-1.5189,1.2717,1.1046
11.968,0.2291,0.0046,-0.0197,-1.5548,1.3028,1.0927
11.972,0.2155,0.0065,-0.0008,-1.5644,1.3291,1.0807
11.975,0.2065,0.0035,0.0174,-1.5309,1.3579,1.0903
11.978,0.1985,-0.0042,0.0435,-1.3896,1.3866,1.1429
11.981,0.1942,-0.0127,0.0643,-1.2675,1.3866,1.1860
11.984,0.1905,-0.0234,0.0858,-1.1191,1.3746,1.2291
11.987,0.1873,-0.0362,0.1064,-0.9922,1.3459,1.2818
11.990,0.1836,-0.0522,0.1253,-0.8892,1.2884,1.3369
11.993,0.1801,-0.0700,0.1397,-0.7959,1.2190,1.3800
11.996,0.1777,-0.0903,0.1493,-0.7193,1.1591,1.4398
11.999,0.1769,-0.1132,0.1543,-0.6570,1.1256,1.5069
12.003,0.1788,-0.1385,0.1559,-0.6091,1.1208,1.5643
12.006,0.1865,-0.1734,0.1556,-0.5541,1.1113,1.5811
12.009,0.1963,-0.1995,0.1532,-0.5469,1.1208,1.5619
12.012,0.2115,-0.2248,0.1514,-0.5612,1.0921,1.5236
12.015,0.2291,-0.2496,0.1474,-0.5948,1.0610,1.4877
12.018,0.2483,-0.2728,0.1423,-0.6259,1.0370,1.4518
12.021,0.2691,-0.2949,0.1373,-0.6546,1.0418,1.4278
12.024,0.2901,-0.3157,0.1330,-0.6642,1.0873,1.4159
12.028,0.3104,-0.3349,0.1295,-0.6642,1.1496,1.3824
12.031,0.3352,-0.3549,0.1263,-0.6043,1.2645,1.3584
12.034,0.3533,-0.3663,0.1269,-0.5493,1.3339,1.3512
12.037,0.3703,-0.3754,0.1285,-0.5181,1.3770,1.3417
12.040,0.3861,-0.3815,0.1306,-0.5134,1.4033,1.3081
12.043,0.4013,-0.3871,0.1325,-0.5564,1.4273,1.2531
12.046,0.4156,-0.3916,0.1338,-0.6139,1.4728,1.2004
12.049,0.4298,-0.3988,0.1338,-0.6762,1.5231,1.1549
12.052,0.4426,-0.4068,0.1338,-0.7312,1.5805,1.0927
12.056,0.4537,-0.4135,0.1330,-0.7623,1.6380,1.0137
12.059,0.4665,-0.4207,0.1330,-0.8126,1.6667,0.8987
12.062,0.4732,-0.4249,0.1306,-0.8485,1.6308,0.8221
12.065,0.4791,-0.4300,0.1255,-0.8725,1.5757,0.7503
12.068,0.4823,-0.4300,0.1181,-0.8390,1.5494,0.6713
12.071,0.4817,-0.4244,0.1117,-0.7743,1.5422,0.5923
12.074,0.4767,-0.4145,0.1064,-0.7001,1.5805,0.5133
12.077,0.4663,-0.4018,0.1032,-0.6379,1.6236,0.4797
12.080,0.4516,-0.3884,0.1008,-0.5804,1.6619,0.4965
12.084,0.4322,-0.3775,0.1000,-0.5349,1.6835,0.5348
12.087,0.3986,-0.3714,0.1013,-0.4655,1.6739,0.6138
12.090,0.3695,-0.3722,0.1016,-0.3769,1.6476,0.6497
12.093,0.3378,-0.3738,0.1000,-0.2476,1.6116,0.6617
12.096,0.3035,-0.3732,0.0965,-0.0824,1.6236,0.6761
12.099,0.2688,-0.3655,0.0909,0.0972,1.6308,0.6809
12.102,0.2352,-0.3530,0.0818,0.2504,1.6499,0.6952
12.105,0.2059,-0.3386,0.0696,0.3701,1.6643,0.7455
12.108,0.1825,-0.3250,0.0528,0.4611,1.6954,0.8006
12.112,0.1662,-0.3120,0.0323,0.5281,1.7122,0.8317
12.115,0.1580,-0.2984,0.0022,0.5664,1.7409,0.8892
12.118,0.1601,-0.2901,-0.0197,0.5545,1.7457,0.9466
12.121,0.1676,-0.2866,-0.0405,0.5329,1.7601,1.0232
12.124,0.1766,-0.2861,-0.0589,0.5329,1.7816,1.0879
12.127,0.1881,-0.2880,-0.0722,0.5377,1.8295,1.1621
12.130,0.1985,-0.2893,-0.0820,0.5162,1.8702,1.2459
12.133,0.2057,-0.2885,-0.0906,0.5066,1.9109,1.3081
12.136,0.2102,-0.2842,-0.0954,0.4659,1.9612,1.3417
12.139,0.2115,-0.2757,-0.0991,0.4156,2.0282,1.3800
12.143,0.2118,-0.2645,-0.1010,0.3533,2.0641,1.3800
12.146,0.2129,-0.2453,-0.1044,0.2552,2.0785,1.2914
12.149,0.2150,-0.2248,-0.1079,0.2025,2.0761,1.1789
12.152,0.2195,-0.1976,-0.1105,0.1307,2.0354,1.0256
12.155,0.2267,-0.1641,-0.1124,0.0589,1.9803,0.8580
12.158,0.2344,-0.1265,-0.1135,-0.0201,1.9444,0.7168
12.161,0.2408,-0.0860,-0.1124,-0.0896,1.9373,0.6186
12.164,0.2438,-0.0436,-0.1097,-0.1566,1.9444,0.5803
12.167,0.2422,-0.0066,-0.1058,-0.2428,1.9803,0.5827
12.171,0.2334,0.0249,-0.1018,-0.3266,2.0330,0.6090
12.174,0.2142,0.0555,-0.0964,-0.3505,2.0953,0.6306
12.177,0.1958,0.0715,-0.0924,-0.3051,2.1120,0.6426
12.180,0.1745,0.0835,-0.0890,-0.1925,2.1120,0.6186
12.183,0.1518,0.0928,-0.0842,-0.0537,2.0953,0.6186
12.186,0.1273,0.0987,-0.0810,0.1020,2.0761,0.6593
12.189,0.1009,0.0995,-0.0796,0.2504,2.0618,0.7599
12.192,0.0735,0.0920,-0.0810,0.3821,2.0641,0.8892
12.195,0.0450,0.0784,-0.0855,0.5018,2.1025,1.0256
12.198,0.0181,0.0598,-0.0940,0.6239,2.1479,1.1477
12.202,-0.0131,0.0336,-0.1095,0.7723,2.2150,1.3321
12.205,-0.0302,0.0131,-0.1249,0.8585,2.2365,1.4374
12.208,-0.0389,-0.0066,-0.1441,0.8896,2.2581,1.5404
12.211,-0.0381,-0.0244,-0.1668,0.8873,2.2724,1.6122
12.214,-0.0259,-0.0415,-0.1910,0.8370,2.2748,1.6433
12.217,-0.0024,-0.0594,-0.2150,0.7747,2.2796,1.6625
12.220,0.0309,-0.0777,-0.2363,0.7149,2.2988,1.6625
12.223,0.0727,-0.0956,-0.2531,0.6478,2.3107,1.6649
12.226,0.1201,-0.1132,-0.2664,0.5473,2.3179,1.6457
12.230,0.1726,-0.1305,-0.2768,0.4204,2.3203,1.5931
12.233,0.2459,-0.1545,-0.2859,0.2648,2.2868,1.4901
12.236,0.3013,-0.1718,-0.2909,0.1618,2.2341,1.3848
12.239,0.3560,-0.1873,-0.2939,0.0804,2.1551,1.2531
12.242,0.4074,-0.1984,-0.2968,0.0182,2.0689,1.1262
12.245,0.4511,-0.2059,-0.2973,-0.0154,2.0019,0.9849
12.248,0.4871,-0.2080,-0.2971,-0.0369,1.9277,0.8748
12.251,0.5124,-0.2056,-0.2952,-0.0369,1.8846,0.7551
12.254,0.5257,-0.2008,-0.2931,-0.0489,1.8295,0.6713
12.258,0.5281,-0.1931,-0.2907,-0.0656,1.7457,0.6138
12.261,0.5132,-0.1801,-0.2891,-0.0704,1.6476,0.5133
12.264,0.4895,-0.1657,-0.2885,-0.0513,1.5925,0.4319
12.267,0.4575,-0.1468,-0.2867,-0.0082,1.5638,0.3648
12.270,0.4191,-0.1238,-0.2840,0.0517,1.5614,0.3624
12.273,0.3746,-0.0991,-0.2829,0.1067,1.5733,0.3552
12.276,0.3256,-0.0716,-0.2835,0.1690,1.5925,0.3936
12.279,0.2739,-0.0452,-0.2869,0.2097,1.6116,0.4414
12.282,0.2233,-0.0210,-0.2928,0.2408,1.6164,0.4893
12.285,0.1764,-0.0015,-0.3008,0.3007,1.5901,0.5252
12.289,0.1241,0.0190,-0.3157,0.3438,1.5614,0.5252
12.292,0.0956,0.0302,-0.3290,0.3677,1.5542,0.5324
12.295,0.0764,0.0379,-0.3440,0.3893,1.5542,0.5133
12.298,0.0660,0.0432,-0.3586,0.4156,1.5470,0.4797
12.301,0.0631,0.0459,-0.3746,0.4204,1.5494,0.4606
12.304,0.0666,0.0470,-0.3906,0.4300,1.5518,0.4558
12.307,0.0735,0.0446,-0.4061,0.4419,1.5733,0.4869
12.310,0.0815,0.0368,-0.4207,0.4515,1.5925,0.5204
12.313,0.0919,0.0251,-0.4348,0.4395,1.6021,0.5588
12.316,0.1007,0.0081,-0.4487,0.4204,1.6308,0.5803
12.320,0.1113,-0.0178,-0.4657,0.3964,1.6547,0.5252
12.323,0.1180,-0.0351,-0.4783,0.3845,1.6859,0.4893
12.326,0.1225,-0.0492,-0.4900,0.3749,1.7074,0.4438
12.329,0.1252,-0.0602,-0.5004,0.3318,1.7146,0.4367
12.332,0.1257,-0.0695,-0.5084,0.2624,1.7170,0.4630
12.335,0.1244,-0.0775,-0.5148,0.1714,1.7290,0.4726
12.338,0.1204,-0.0847,-0.5177,0.0804,1.7553,0.4821
12.341,0.1153,-0.0913,-0.5182,0.0038,1.7936,0.4893
12.345,0.1073,-0.0988,-0.5145,-0.0872,1.8391,0.5157
12.348,0.1017,-0.1036,-0.5086,-0.1375,1.8678,0.5300
12.351,0.0972,-0.1060,-0.5009,-0.1734,1.8559,0.5181
12.354,0.0940,-0.1057,-0.4943,-0.1997,1.8367,0.4797
12.357,0.0927,-0.1020,-0.4871,-0.1877,1.8128,0.4534
12.360,0.0922,-0.0977,-0.4791,-0.1255,1.8080,0.4845
12.363,0.0810,-0.0983,-0.4639,-0.0585,1.8080,0.5133
12.366,0.0796,-0.0991,-0.4458,-0.0417,1.7433,0.4414
12.370,0.0959,-0.0985,-0.4332,0.0014,1.6691,0.4486
12.373,0.1089,-0.0932,-0.4346,0.0565,1.6739,0.4845
12.376,0.1175,-0.0836,-0.4434,0.1139,1.6978,0.5659
12.379,0.1161,-0.0727,-0.4596,0.2408,1.7649,0.6402
12.382,0.1047,-0.0609,-0.4772,0.3677,1.8223,0.7359
12.385,0.0863,-0.0522,-0.4913,0.4443,1.8199,0.8293
12.388,0.0652,-0.0490,-0.5041,0.5042,1.7960,0.8892
12.391,0.0450,-0.0530,-0.5148,0.5257,1.7744,0.8772
12.395,0.0269,-0.0633,-0.5262,0.5497,1.7649,0.8628
12.398,0.0186,-0.0743,-0.5332,0.5712,1.7912,0.8748
12.401,0.0125,-0.0865,-0.5372,0.5688,1.8199,0.8796
12.404,0.0080,-0.1036,-0.5401,0.5353,1.8247,0.8820
12.407,0.0064,-0.1209,-0.5420,0.5018,1.8247,0.8700
12.410,0.0061,-0.1382,-0.5454,0.4826,1.8104,0.8341
12.413,0.0082,-0.1526,-0.5499,0.4707,1.7864,0.8101
12.416,0.0109,-0.1627,-0.5569,0.4419,1.7553,0.7862
12.419,0.0119,-0.1691,-0.5665,0.4252,1.7242,0.7647
12.423,0.0082,-0.1734,-0.5822,0.4324,1.6907,0.7742
12.426,0.0005,-0.1718,-0.5952,0.4371,1.7026,0.8293
12.429,-0.0107,-0.1697,-0.6104,0.4324,1.7409,0.9562
12.432,-0.0264,-0.1675,-0.6251,0.3821,1.7816,1.0783
12.435,-0.0403,-0.1694,-0.6376,0.3126,1.7936,1.1477
12.438,-0.0480,-0.1742,-0.6488,0.2049,1.7912,1.1884
12.441,-0.0477,-0.1811,-0.6573,0.0900,1.7649,1.1932
12.444,-0.0387,-0.1918,-0.6643,-0.0297,1.7242,1.1980
12.447,-0.0152,-0.2118,-0.6717,-0.1973,1.6763,1.1908
12.451,0.0090,-0.2299,-0.6768,-0.3051,1.6212,1.1812
12.454,0.0383,-0.2507,-0.6818,-0.3817,1.5829,1.1142
12.457,0.0695,-0.2688,-0.6858,-0.4056,1.5446,1.0041
12.460,0.1009,-0.2824,-0.6869,-0.4008,1.5446,0.8724
12.463,0.1303,-0.2893,-0.6842,-0.3553,1.5638,0.7718
12.466,0.1556,-0.2906,-0.6786,-0.3170,1.6045,0.7144
12.469,0.1753,-0.2885,-0.6717,-0.3027,1.6212,0.6880
12.472,0.1865,-0.2848,-0.6635,-0.3218,1.6212,0.6617
12.476,0.1905,-0.2832,-0.6563,-0.3745,1.5685,0.6234
12.479,0.1862,-0.2837,-0.6533,-0.3553,1.4776,0.5875
12.482,0.1790,-0.2877,-0.6485,-0.3338,1.4249,0.4869
12.485,0.1681,-0.2893,-0.6472,-0.2859,1.4105,0.3409
12.488,0.1534,-0.2818,-0.6483,-0.2189,1.3770,0.2236
12.491,0.1348,-0.2685,-0.6528,-0.1710,1.3363,0.1517
12.494,0.1119,-0.2491,-0.6621,-0.1111,1.2860,0.1637
12.497,0.0831,-0.2291,-0.6754,-0.0776,1.2405,0.2523
12.500,0.0482,-0.2131,-0.6922,-0.0369,1.2214,0.3552
12.504,-0.0003,-0.1960,-0.7149,0.0397,1.2022,0.4893
12.507,-0.0336,-0.1905,-0.7295,0.0828,1.2022,0.5827
12.510,-0.0627,-0.1897,-0.7407,0.1115,1.2142,0.6138
12.513,-0.0850,-0.1936,-0.7487,0.1403,1.2214,0.6042
12.516,-0.0997,-0.1979,-0.7557,0.1618,1.2286,0.5899
12.519,-0.1064,-0.2027,-0.7594,0.2025,1.2118,0.5133
12.522,-0.1016,-0.2067,-0.7615,0.1929,1.1855,0.4654
12.525,-0.0901,-0.2123,-0.7636,0.1714,1.1903,0.4534
12.528,-0.0762,-0.2158,-0.7655,0.1834,1.2118,0.4055
12.532,-0.0555,-0.2152,-0.7652,0.1834,1.2788,0.3936
12.535,-0.0419,-0.2123,-0.7655,0.1522,1.3315,0.3864
12.538,-0.0304,-0.2067,-0.7652,0.1259,1.3866,0.3552
12.541,-0.0216,-0.2038,-0.7655,0.0421,1.4440,0.3505
12.544,-0.0171,-0.2022,-0.7671,-0.0441,1.4656,0.3337
12.547,-0.0152,-0.2040,-0.7687,-0.0968,1.4632,0.2834
12.550,-0.0155,-0.2048,-0.7676,-0.0632,1.4249,0.1900
12.553,-0.0182,-0.2035,-0.7618,-0.0417,1.3626,0.1278
12.556,-0.0294,-0.1974,-0.7506,0.0206,1.2693,0.0464
12.560,-0.0435,-0.1883,-0.7413,0.0373,1.2070,0.0464
12.563,-0.0635,-0.1787,-0.7365,0.0613,1.1615,0.0464
12.566,-0.0877,-0.1673,-0.7341,0.1067,1.0969,0.0727
12.569,-0.1176,-0.1598,-0.7354,0.1474,1.0107,0.1637
12.572,-0.1519,-0.1537,-0.7383,0.2121,0.9125,0.2403
12.575,-0.1887,-0.1521,-0.7405,0.2576,0.8335,0.3409
12.578,-0.2265,-0.1566,-0.7434,0.2935,0.7545,0.3864
12.581,-0.2630,-0.1635,-0.7453,0.3103,0.7018,0.4247
12.584,-0.3107,-0.1809,-0.7509,0.3270,0.6611,0.4965
12.588,-0.3438,-0.1968,-0.7570,0.3438,0.6372,0.5564
12.591,-0.3742,-0.2179,-0.7663,0.3462,0.5965,0.6186
12.594,-0.4021,-0.2437,-0.7775,0.3797,0.5702,0.6617
12.597,-0.4274,-0.2717,-0.7900,0.4108,0.5534,0.7096
12.600,-0.4501,-0.3008,-0.8034,0.4898,0.5797,0.7503
12.603,-0.4722,-0.3234,-0.8156,0.6000,0.6252,0.7647
12.606,-0.4914,-0.3383,-0.8252,0.7268,0.6492,0.7958
12.609,-0.5061,-0.3479,-0.8343,0.7987,0.6851,0.8556
12.612,-0.5212,-0.3535,-0.8508,0.8729,0.7018,0.9634
12.616,-0.5276,-0.3522,-0.8678,0.9160,0.7090,1.0591
12.619,-0.5295,-0.3469,-0.8881,0.9615,0.7282,1.1046
12.622,-0.5250,-0.3370,-0.9094,1.0046,0.7258,1.1166
12.625,-0.5124,-0.3234,-0.9313,1.0405,0.7234,1.1094
12.628,-0.4909,-0.3077,-0.9507,1.0309,0.7354,1.1046
12.631,-0.4605,-0.2901,-0.9664,1.0189,0.7497,1.0855
12.634,-0.4227,-0.2752,-0.9795,0.9687,0.7641,1.0903
12.637,-0.3813,-0.2637,-0.9904,0.9256,0.7713,1.1022
12.640,-0.3254,-0.2501,-1.0021,0.8968,0.7018,1.1142
12.644,-0.2878,-0.2405,-1.0064,0.9399,0.6348,1.1334
12.647,-0.2556,-0.2299,-1.0069,1.0165,0.5845,1.1669
12.650,-0.2303,-0.2171,-1.0053,1.0596,0.5797,1.2004
12.653,-0.2100,-0.2019,-1.0051,1.0836,0.6037,1.2435
12.656,-0.1954,-0.1854,-1.0035,1.1363,0.6396,1.3129
12.659,-0.1874,-0.1678,-0.9981,1.1746,0.6611,1.4039
12.662,-0.1852,-0.1521,-0.9888,1.1650,0.7066,1.4901
12.665,-0.1887,-0.1377,-0.9726,1.1243,0.7641,1.5356
12.669,-0.1895,-0.1332,-0.9568,1.0501,0.7952,1.5284
12.672,-0.1898,-0.1361,-0.9384,0.9734,0.8407,1.4781
12.675,-0.1882,-0.1401,-0.9158,0.9495,0.8886,1.4039
12.678,-0.1839,-0.1430,-0.8884,0.9375,0.9413,1.3177
12.681,-0.1786,-0.1476,-0.8572,0.9088,1.0035,1.2531
12.684,-0.1740,-0.1531,-0.8241,0.8633,1.0610,1.1884
12.687,-0.1687,-0.1587,-0.7916,0.7987,1.0801,1.1405
12.690,-0.1636,-0.1670,-0.7602,0.7364,1.0945,1.0807
12.693,-0.1583,-0.1755,-0.7202,0.7149,1.1184,1.0160
12.697,-0.1589,-0.1779,-0.6938,0.7604,1.1304,1.0184
12.700,-0.1647,-0.1761,-0.6709,0.8585,1.1544,1.0879
12.703,-0.1762,-0.1683,-0.6520,0.9758,1.1903,1.2267
12.706,-0.1954,-0.1566,-0.6373,1.0836,1.2286,1.4781
12.709,-0.2217,-0.1460,-0.6272,1.1817,1.2788,1.7271
12.712,-0.2500,-0.1396,-0.6187,1.2440,1.2836,1.9857
12.715,-0.2742,-0.1420,-0.6136,1.2703,1.2693,2.1988
12.718,-0.2892,-0.1491,-0.6115,1.2775,1.1998,2.3999
12.721,-0.2950,-0.1643,-0.6128,1.3134,1.0394,2.5220
12.725,-0.2838,-0.1707,-0.6152,1.3422,0.8838,2.5292
12.728,-0.2585,-0.1774,-0.6155,1.3637,0.7593,2.4837
12.731,-0.2215,-0.1825,-0.6115,1.4044,0.6468,2.4598
12.734,-0.1756,-0.1875,-0.6019,1.4236,0.5726,2.5028
12.737,-0.1274,-0.1947,-0.5875,1.4475,0.5390,2.6130
12.740,-0.0824,-0.2059,-0.5683,1.4834,0.5582,2.7375
12.743,-0.0440,-0.2195,-0.5443,1.4858,0.5917,2.8811
12.746,-0.0083,-0.2392,-0.5108,1.4834,0.6779,2.9961
12.749,0.0080,-0.2515,-0.4799,1.5050,0.7258,3.0248
12.753,0.0154,-0.2597,-0.4450,1.4954,0.7521,2.9673
12.756,0.0162,-0.2635,-0.4085,1.4882,0.7856,2.8452
12.759,0.0122,-0.2611,-0.3696,1.4834,0.8335,2.6728
12.762,0.0058,-0.2523,-0.3285,1.4595,0.8790,2.4957
12.765,-0.0027,-0.2389,-0.2853,1.4667,0.9221,2.3640
12.768,-0.0115,-0.2232,-0.2419,1.4762,0.9604,2.2443
12.771,-0.0214,-0.2070,-0.2006,1.4930,1.0322,2.1222
12.774,-0.0376,-0.1857,-0.1529,1.5792,1.1160,2.0025
12.777,-0.0531,-0.1659,-0.1225,1.6749,1.1831,1.9809
12.781,-0.0712,-0.1441,-0.0988,1.7204,1.2334,1.9857
12.784,-0.0896,-0.1244,-0.0839,1.7372,1.2669,1.9905
12.787,-0.1061,-0.1105,-0.0762,1.7324,1.2765,1.9833
12.790,-0.1191,-0.1036,-0.0700,1.7420,1.2477,1.9570
12.793,-0.1258,-0.1068,-0.0631,1.7420,1.2358,1.9426
12.796,-0.1271,-0.1201,-0.0573,1.7252,1.2118,1.9211
12.799,-0.1255,-0.1420,-0.0511,1.7372,1.2046,1.8995
12.802,-0.1184,-0.1763,-0.0426,1.7755,1.1807,1.8588
12.806,-0.1133,-0.2035,-0.0343,1.8521,1.1807,1.8229
12.809,-0.1088,-0.2299,-0.0247,1.9311,1.1783,1.8037
12.812,-0.1077,-0.2533,-0.0152,1.9814,1.1951,1.8253
12.815,-0.1133,-0.2741,-0.0058,2.0269,1.2142,1.9115
12.818,-0.1255,-0.2933,0.0008,2.0796,1.2405,1.9977
12.821,-0.1434,-0.3109,0.0043,2.1466,1.2765,2.1461
12.824,-0.1647,-0.3277,0.0054,2.2160,1.2956,2.2874
12.827,-0.1876,-0.3437,0.0035,2.2615,1.3172,2.4382
12.830,-0.2127,-0.3658,-0.0021,2.3094,1.3339,2.5675
12.833,-0.2217,-0.3847,-0.0066,2.3549,1.3291,2.6010
12.837,-0.2196,-0.4047,-0.0098,2.4004,1.3028,2.5842
12.840,-0.2065,-0.4244,-0.0114,2.4483,1.2693,2.5603
12.843,-0.1847,-0.4441,-0.0112,2.4794,1.2429,2.5124
12.846,-0.1546,-0.4638,-0.0096,2.4818,1.2238,2.4598
12.849,-0.1173,-0.4838,-0.0072,2.4938,1.1951,2.3712
12.852,-0.0749,-0.5038,-0.0034,2.5225,1.1903,2.2874
12.855,-0.0320,-0.5219,0.0014,2.5512,1.1855,2.1988
12.858,0.0231,-0.5406,0.0088,2.5824,1.1591,2.1294
12.861,0.0602,-0.5526,0.0131,2.5895,1.1520,2.0934
12.865,0.0930,-0.5635,0.0168,2.6063,1.1256,1.9881
12.868,0.1228,-0.5699,0.0211,2.6159,1.0921,1.8660
12.871,0.1481,-0.5736,0.0277,2.5847,1.0729,1.7367
12.874,0.1692,-0.5758,0.0341,2.5512,1.0514,1.6194
12.877,0.1844,-0.5779,0.0405,2.4722,1.0107,1.4829
12.880,0.1966,-0.5814,0.0440,2.3980,0.9820,1.3345
12.883,0.2046,-0.5816,0.0443,2.3262,0.9724,1.2363
12.886,0.2043,-0.5776,0.0429,2.3070,0.9868,1.2172
12.889,0.1790,-0.5520,0.0427,2.3429,1.0897,1.4638
12.892,0.1020,-0.4900,0.0376,2.2472,1.2358,2.0503
12.896,-0.0014,-0.4479,0.0323,2.3214,1.5374,2.0072
12.899,-0.0890,-0.4225,0.0368,2.3429,1.6739,1.8301
12.902,-0.1479,-0.4321,0.0416,2.3525,1.5997,1.6194
12.905,-0.1695,-0.4673,0.0472,2.4435,1.3196,1.4997
12.908,-0.1778,-0.4916,0.0517,2.4866,0.9532,1.6098
12.911,-0.1850,-0.4982,0.0557,2.4914,0.7832,1.5428
12.914,-0.1839,-0.4881,0.0597,2.4507,0.7856,1.3632
12.917,-0.1722,-0.4684,0.0608,2.3597,0.8670,1.2746
12.920,-0.1458,-0.4351,0.0557,2.3118,0.9173,1.4183
12.923,-0.1247,-0.4132,0.0504,2.2974,0.8790,1.6529
12.927,-0.1074,-0.4007,0.0456,2.3238,0.8216,1.9067
12.930,-0.0949,-0.3988,0.0448,2.3645,0.7928,2.1294
12.933,-0.0872,-0.4074,0.0504,2.4028,0.7761,2.2706
12.936,-0.0829,-0.4209,0.0627,2.4459,0.7737,2.3927
12.939,-0.0816,-0.4380,0.0789,2.4291,0.7713,2.5172
12.942,-0.0818,-0.4596,0.0965,2.4052,0.7593,2.6441
12.945,-0.0856,-0.4849,0.1130,2.3549,0.7473,2.7590
12.948,-0.0941,-0.5201,0.1362,2.2615,0.7282,2.8452
12.951,-0.1021,-0.5432,0.1535,2.1514,0.7234,2.8739
12.955,-0.1104,-0.5635,0.1703,2.0053,0.7306,2.8644
12.958,-0.1184,-0.5800,0.1855,1.8521,0.7186,2.8404
12.961,-0.1247,-0.5931,0.1991,1.6989,0.7473,2.8165
12.964,-0.1290,-0.6011,0.2143,1.5648,0.7737,2.7542
12.967,-0.1282,-0.6059,0.2319,1.4499,0.8048,2.6872
12.970,-0.1239,-0.6069,0.2537,1.3398,0.8383,2.6441
12.973,-0.1176,-0.6096,0.2801,1.2584,0.8742,2.6250
12.976,-0.1042,-0.6133,0.3230,1.1865,0.8982,2.5579
12.979,-0.0914,-0.6152,0.3590,1.1386,0.9317,2.4502
12.983,-0.0757,-0.6155,0.3984,1.0812,0.9580,2.3400
12.986,-0.0589,-0.6120,0.4376,1.0381,0.9580,2.1892
12.989,-0.0405,-0.6051,0.4727,0.9782,0.9197,1.9761
12.992,-0.0227,-0.5931,0.5023,0.9256,0.8527,1.7367
12.995,-0.0059,-0.5742,0.5255,0.9160,0.7689,1.4997
12.998,0.0066,-0.5486,0.5418,0.9543,0.6611,1.2626
13.001,0.0130,-0.5174,0.5516,1.0716,0.5558,1.0783
13.004,0.0106,-0.4809,0.5569,1.2679,0.4313,0.9370
13.007,-0.0099,-0.4305,0.5596,1.6295,0.3092,0.9299
13.010,-0.0432,-0.3994,0.5599,1.9000,0.2757,1.0951
13.014,-0.0930,-0.3796,0.5596,2.1658,0.2853,1.3776
13.017,-0.1567,-0.3748,0.5607,2.4076,0.3475,1.6960
13.020,-0.2324,-0.3839,0.5636,2.6494,0.4265,2.0432
13.023,-0.3150,-0.4031,0.5681,2.8481,0.5127,2.3736
13.026,-0.3971,-0.4303,0.5716,3.0205,0.5845,2.6537
13.029,-0.4722,-0.4633,0.5745,3.1594,0.6420,2.8716
13.032,-0.5340,-0.5030,0.5775,3.2647,0.6827,3.0822
13.035,-0.5897,-0.5616,0.5807,3.3844,0.6971,3.3217
13.038,-0.6124,-0.6083,0.5817,3.3940,0.7066,3.5276
13.041,-0.6220,-0.6562,0.5799,3.4419,0.6779,3.6473
13.045,-0.6142,-0.7005,0.5791,3.4467,0.6276,3.6473
13.048,-0.5817,-0.7391,0.5809,3.4155,0.5366,3.6090
13.051,-0.5335,-0.7737,0.5825,3.3413,0.4409,3.4988
13.054,-0.4679,-0.8009,0.5796,3.2527,0.3547,3.3193
13.057,-0.3907,-0.8214,0.5756,3.1617,0.2972,3.1038
13.060,-0.3062,-0.8337,0.5729,3.0444,0.2781,2.8955
13.063,-0.2212,-0.8414,0.5751,2.9175,0.2733,2.7207
13.066,-0.1162,-0.8470,0.5761,2.6614,0.2565,2.5340
13.069,-0.0536,-0.8417,0.5772,2.5081,0.1967,2.3400
13.073,-0.0014,-0.8244,0.5791,2.3334,0.0865,2.0958
13.076,0.0415,-0.7951,0.5785,2.1993,-0.0308,1.8301
13.079,0.0743,-0.7535,0.5775,2.0844,-0.1313,1.5571
13.082,0.0959,-0.7010,0.5769,2.0245,-0.2175,1.3105
13.085,0.1057,-0.6389,0.5761,1.9694,-0.3133,1.0472
13.088,0.1060,-0.5656,0.5772,1.9886,-0.3875,0.7599
13.091,0.0962,-0.4828,0.5785,2.0413,-0.4522,0.5181
13.094,0.0634,-0.3581,0.5777,2.1322,-0.5503,0.3457
13.097,0.0245,-0.2627,0.5740,2.2160,-0.6341,0.3337
13.100,-0.0256,-0.1745,0.5660,2.3190,-0.6820,0.4774
13.104,-0.0872,-0.0993,0.5532,2.4483,-0.6844,0.7623
13.107,-0.1581,-0.0423,0.5375,2.6135,-0.6198,1.1525
13.110,-0.2351,-0.0055,0.5218,2.7859,-0.5048,1.5811
13.113,-0.3105,0.0097,0.5068,2.9582,-0.3372,1.9785
13.116,-0.3752,0.0038,0.4946,3.1139,-0.1864,2.3209
13.119,-0.4245,-0.0223,0.4869,3.2264,-0.0858,2.6058
13.122,-0.4541,-0.0905,0.4813,3.2791,-0.0212,2.8692
13.125,-0.4472,-0.1627,0.4799,3.2671,-0.0188,2.9793
13.129,-0.4163,-0.2485,0.4786,3.2192,-0.0068,2.9817
13.132,-0.3640,-0.3386,0.4794,3.1929,0.0123,2.9051
13.135,-0.2950,-0.4273,0.4826,3.1809,0.0291,2.7638
13.138,-0.2143,-0.5091,0.4911,3.1354,0.0363,2.5675
13.141,-0.1263,-0.5798,0.5031,3.0396,0.0387,2.3400
13.144,-0.0360,-0.6394,0.5175,2.9223,0.0219,2.0815
13.147,0.0794,-0.6999,0.5346,2.7188,0.0075,1.7008
13.150,0.1553,-0.7287,0.5431,2.5704,-0.0284,1.4278
13.153,0.2166,-0.7426,0.5479,2.4770,-0.0739,1.1429
13.157,0.2616,-0.7383,0.5489,2.4004,-0.1242,0.8820
13.160,0.2896,-0.7164,0.5455,2.3477,-0.1816,0.6473
13.163,0.2989,-0.6783,0.5383,2.3070,-0.2295,0.4510
13.166,0.2907,-0.6256,0.5282,2.2472,-0.2630,0.3145
13.169,0.2667,-0.5584,0.5148,2.1490,-0.2678,0.2403
13.172,0.2296,-0.4806,0.5002,2.0772,-0.2367,0.2044
13.175,0.1852,-0.3948,0.4847,1.9766,-0.2127,0.2355
13.178,0.1175,-0.2715,0.4586,1.8114,-0.1625,0.4079
13.181,0.0642,-0.1755,0.4354,1.7085,-0.0954,0.5659
13.184,0.0133,-0.0809,0.4125,1.6103,0.0003,0.7407
13.188,-0.0307,0.0065,0.3920,1.5409,0.0937,0.9179
13.191,-0.0637,0.0843,0.3787,1.4690,0.1991,1.0520
13.194,-0.0842,0.1485,0.3747,1.4164,0.2948,1.1836
13.197,-0.0906,0.1973,0.3800,1.3589,0.3547,1.2914
13.200,-0.0829,0.2311,0.3899,1.3302,0.4193,1.3488
13.203,-0.0613,0.2521,0.4043,1.3278,0.4624,1.3943
13.206,-0.0280,0.2625,0.4216,1.3326,0.5055,1.3871
13.209,0.0303,0.2625,0.4410,1.3781,0.5630,1.3034
13.212,0.0807,0.2527,0.4552,1.4547,0.5989,1.2363
13.215,0.1295,0.2338,0.4679,1.5457,0.6420,1.1812
13.218,0.1700,0.2058,0.4802,1.6486,0.6923,1.1190
13.222,0.2019,0.1690,0.4925,1.7611,0.7258,1.0352
13.225,0.2243,0.1250,0.5052,1.8401,0.7330,0.8915
13.228,0.2387,0.0771,0.5178,1.8880,0.6995,0.6785
13.231,0.2483,0.0302,0.5298,1.9287,0.6564,0.4343
13.234,0.2531,-0.0135,0.5428,1.9910,0.5893,0.1589
13.237,0.2526,-0.0506,0.5537,2.0149,0.4888,-0.1284
13.240,0.2483,-0.0783,0.5588,2.0652,0.3714,-0.3510
13.243,0.2286,-0.0991,0.5553,2.1394,0.1991,-0.5234
13.246,0.2030,-0.1031,0.5457,2.2591,0.1320,-0.5785
13.249,0.1662,-0.1031,0.5364,2.3669,0.0578,-0.6072
13.253,0.1247,-0.0996,0.5228,2.4626,-0.0164,-0.6192
13.256,0.0810,-0.0900,0.5079,2.6183,-0.0547,-0.5857
13.259,0.0343,-0.0772,0.4959,2.7380,-0.0619,-0.5019
13.262,-0.0155,-0.0594,0.4847,2.8385,-0.0428,-0.3606
13.265,-0.0693,-0.0375,0.4733,2.9128,-0.0236,-0.1834
13.268,-0.1445,-0.0047,0.4607,2.9750,0.0243,0.0655
13.271,-0.1994,0.0187,0.4544,2.9630,0.0530,0.2260
13.274,-0.2471,0.0406,0.4477,2.9223,0.0339,0.3457
13.277,-0.2860,0.0611,0.4389,2.8720,-0.0140,0.4199
13.281,-0.3142,0.0821,0.4261,2.8242,-0.0523,0.4774
13.284,-0.3318,0.1061,0.4085,2.8122,-0.0787,0.5348
13.287,-0.3390,0.1330,0.3867,2.8218,-0.1074,0.6019
13.290,-0.3355,0.1589,0.3624,2.8266,-0.1218,0.6593
13.293,-0.3238,0.1807,0.3358,2.8313,-0.0906,0.7192
13.296,-0.2953,0.2060,0.3019,2.8840,-0.0930,0.7551
13.299,-0.2654,0.2194,0.2801,2.9223,-0.0787,0.7623
13.302,-0.2300,0.2284,0.2614,2.9606,-0.1122,0.7120
13.306,-0.1863,0.2319,0.2478,2.9798,-0.1529,0.6186
13.309,-0.1351,0.2319,0.2364,2.9846,-0.1840,0.5133
13.312,-0.0781,0.2290,0.2273,2.9439,-0.2151,0.3505
13.315,-0.0182,0.2279,0.2185,2.8529,-0.2463,0.1853
13.318,0.0397,0.2274,0.2100,2.7523,-0.2846,0.0296
13.321,0.0908,0.2263,0.2031,2.6446,-0.2917,-0.0589
13.324,0.1449,0.2231,0.1959,2.5273,-0.2702,-0.0518
13.327,0.1697,0.2151,0.1951,2.4387,-0.2463,0.0296
13.330,0.1820,0.2028,0.1980,2.3453,-0.2223,0.0751
13.333,0.1828,0.1869,0.2049,2.2472,-0.2175,0.1110
13.337,0.1753,0.1687,0.2159,2.1370,-0.2175,0.1541
13.340,0.1636,0.1496,0.2279,2.0269,-0.2175,0.1446
13.343,0.1492,0.1314,0.2444,1.9168,-0.2080,0.0871
13.346,0.1353,0.1170,0.2628,1.8258,-0.1816,0.0536
13.349,0.1257,0.1059,0.2801,1.6869,-0.2271,-0.0709
13.352,0.1265,0.0997,0.2942,1.5864,-0.2439,-0.1811
13.355,0.1268,0.1024,0.3035,1.5313,-0.2175,-0.2553
13.358,0.1260,0.1080,0.3099,1.4930,-0.1912,-0.3319
13.361,0.1268,0.1176,0.3115,1.4834,-0.1816,-0.3726
13.365,0.1273,0.1298,0.3107,1.4810,-0.1481,-0.3941
13.368,0.1276,0.1434,0.3086,1.4930,-0.1026,-0.4348
13.371,0.1300,0.1567,0.3070,1.5097,-0.0451,-0.4731
13.374,0.1321,0.1687,0.3049,1.5121,0.0171,-0.5115
13.377,0.1340,0.1778,0.3049,1.5026,0.0578,-0.5234
13.380,0.1345,0.1850,0.3049,1.5002,0.0817,-0.5522
13.383,0.1348,0.1922,0.3049,1.5026,0.1033,-0.6096
13.386,0.1335,0.1991,0.3038,1.5074,0.1177,-0.6886
13.389,0.1327,0.2092,0.3001,1.5552,0.1416,-0.7628
13.392,0.1337,0.2212,0.2950,1.5912,0.1536,-0.8347
13.396,0.1428,0.2338,0.2883,1.6438,0.1512,-0.9065
13.399,0.1569,0.2460,0.2801,1.6773,0.1368,-0.9376
13.402,0.1761,0.2567,0.2705,1.6989,0.1009,-0.9735
13.405,0.1998,0.2663,0.2590,1.7180,0.0626,-0.9759
13.408,0.2246,0.2748,0.2489,1.7516,0.0363,-0.9927
13.411,0.2480,0.2809,0.2430,1.7707,0.0243,-0.9903
13.414,0.2704,0.2865,0.2436,1.7947,0.0003,-0.9783
13.417,0.2781,0.2884,0.2508,1.8114,-0.0380,-0.9472
13.420,0.2752,0.2878,0.2598,1.8162,-0.0595,-0.8873
13.423,0.2590,0.2871,0.2686,1.8282,-0.1002,-0.8538
13.427,0.2320,0.2902,0.2750,1.8785,-0.1744,-0.8514
13.430,0.1969,0.2972,0.2788,1.9263,-0.2367,-0.8562
13.433,0.1556,0.3094,0.2793,2.0293,-0.2965,-0.8730
13.436,0.1105,0.3270,0.2788,2.1251,-0.3516,-0.8395
13.439,0.0618,0.3473,0.2774,2.2232,-0.3827,-0.7628
13.442,-0.0030,0.3713,0.2745,2.3262,-0.4115,-0.6144
13.445,-0.0480,0.3851,0.2742,2.4028,-0.4043,-0.4899
13.448,-0.0853,0.3958,0.2748,2.4722,-0.4067,-0.3678
13.451,-0.1133,0.4011,0.2756,2.5512,-0.3995,-0.2457
13.455,-0.1319,0.4038,0.2777,2.5991,-0.4019,-0.0949
13.458,-0.1402,0.4030,0.2793,2.6015,-0.4067,0.0775
13.461,-0.1389,0.3979,0.2798,2.5249,-0.4043,0.2188
13.464,-0.1274,0.3894,0.2801,2.4195,-0.4091,0.3361
13.467,-0.1082,0.3755,0.2801,2.3238,-0.4162,0.4965
13.470,-0.0717,0.3486,0.2843,2.2352,-0.3540,0.6928
13.473,-0.0381,0.3254,0.2929,2.1729,-0.2941,0.7694
13.476,-0.0003,0.3017,0.3057,2.1227,-0.2439,0.8197
13.479,0.0410,0.2788,0.3222,2.0676,-0.2080,0.8389
13.483,0.0834,0.2612,0.3406,2.0245,-0.1840,0.8892
13.486,0.0892,0.2892,0.3544,1.8737,-0.1457,1.6026
13.489,0.0407,0.3193,0.3544,1.7204,0.0554,1.5787
13.492,0.0175,0.3161,0.3704,1.9311,0.2517,0.9035
13.495,0.0189,0.3033,0.3936,1.8904,0.0578,0.6306
13.498,0.0445,0.2583,0.4109,1.9216,-0.2247,0.2667
13.501,0.0983,0.2122,0.4301,1.9718,-0.6006,0.0009
13.504,0.1292,0.2004,0.4410,1.9335,-0.6437,-0.1739
13.507,0.1548,0.2082,0.4509,1.8713,-0.4905,-0.3917
13.510,0.1796,0.2276,0.4565,1.7492,-0.3324,-0.5426
13.514,0.2030,0.2508,0.4554,1.6821,-0.2917,-0.6288
13.517,0.2254,0.2721,0.4501,1.6845,-0.3277,-0.6527
13.520,0.2422,0.2900,0.4453,1.7564,-0.3684,-0.6288
13.523,0.2480,0.3030,0.4437,1.8689,-0.3277,-0.4923
13.526,0.2400,0.3121,0.4474,1.9934,-0.2247,-0.3223
13.529,0.2201,0.3158,0.4533,2.0724,-0.1146,-0.1595
13.532,0.1852,0.3137,0.4629,2.1466,-0.0332,0.0344
13.535,0.1564,0.3076,0.4682,2.1921,-0.0212,0.1326
13.538,0.1284,0.2996,0.4714,2.1897,-0.0380,0.1924
13.541,0.1031,0.2916,0.4725,2.1825,-0.0499,0.2284
13.545,0.0799,0.2820,0.4722,2.1658,-0.0356,0.2762
13.548,0.0578,0.2689,0.4695,2.1466,-0.0068,0.3241
13.551,0.0405,0.2569,0.4698,2.1849,0.0099,0.3265
13.554,0.0317,0.2447,0.4725,2.1322,0.0674,0.4367
13.557,0.0170,0.2314,0.4746,2.1059,0.0961,0.5300
13.560,0.0029,0.2199,0.4805,2.0652,0.1033,0.5252
13.563,-0.0096,0.2090,0.4973,1.9239,0.1368,0.5157
13.566,-0.0192,0.1997,0.5143,1.8282,0.2062,0.5324
13.569,-0.0304,0.1898,0.5370,1.7300,0.2062,0.4031
13.572,-0.0278,0.1834,0.5609,1.6654,0.1272,0.1661
13.575,-0.0038,0.1850,0.5865,1.6319,0.0530,-0.0422
13.579,0.0357,0.1909,0.6116,1.5768,0.0267,-0.1930
13.582,0.0820,0.1983,0.6334,1.5313,0.0195,-0.3199
13.585,0.1311,0.2060,0.6513,1.4882,0.0458,-0.4037
13.588,0.1753,0.2119,0.6630,1.4786,0.0961,-0.4708
13.591,0.2115,0.2178,0.6713,1.5026,0.1703,-0.5378
13.594,0.2419,0.2239,0.6787,1.5576,0.2637,-0.6000
13.597,0.2531,0.2271,0.6827,1.6007,0.2996,-0.6671
13.600,0.2566,0.2263,0.6864,1.6486,0.3523,-0.7557
13.603,0.2510,0.2220,0.6910,1.7037,0.4098,-0.8514
13.606,0.2408,0.2162,0.6952,1.7444,0.4648,-0.9520
13.610,0.2246,0.2092,0.7000,1.8042,0.5462,-1.0262
13.613,0.2022,0.2015,0.7088,1.8737,0.6013,-1.1196
13.616,0.1830,0.1941,0.7197,1.8737,0.6588,-1.1962
13.619,0.1553,0.1826,0.7264,1.9335,0.6827,-1.2393
13.622,0.1329,0.1711,0.7408,2.0006,0.5893,-1.4596
13.625,0.1524,0.1506,0.7637,1.9263,0.4864,-1.6870
13.628,0.2011,0.1338,0.7746,1.9239,0.4744,-1.8498
13.631,0.2696,0.1237,0.7856,1.9287,0.6372,-1.6272
13.634,0.3123,0.1075,0.7941,1.9263,0.7042,-1.3327
13.637,0.3440,0.0853,0.7981,1.9575,0.6875,-1.1627
13.641,0.3722,0.0608,0.7928,2.0389,0.6372,-0.9903
13.644,0.3962,0.0398,0.7792,2.1993,0.6180,-0.8778
13.647,0.4188,0.0264,0.7626,2.3381,0.6707,-0.7365
13.650,0.4340,0.0182,0.7435,2.4411,0.7737,-0.5522
13.653,0.4391,0.0110,0.7248,2.5033,0.8766,-0.3295
13.656,0.4370,-0.0031,0.7067,2.5249,0.9604,-0.0901
13.659,0.4327,-0.0194,0.7014,2.5129,0.9868,0.0081
13.662,0.4311,-0.0380,0.7040,2.4770,1.0155,0.0871
13.665,0.4322,-0.0572,0.7131,2.4124,1.0107,0.0895
13.668,0.4359,-0.0745,0.7248,2.3286,1.0035,0.0655
13.672,0.4418,-0.0868,0.7365,2.2328,0.9820,0.0608
13.675,0.4473,-0.0932,0.7477,2.1251,0.9437,0.0727
13.678,0.4519,-0.0972,0.7571,1.9934,0.9054,0.0775
13.681,0.4537,-0.0996,0.7648,1.8880,0.8718,0.1063
13.684,0.4537,-0.1009,0.7717,1.8449,0.8551,0.1254
13.687,0.4497,-0.1025,0.7829,1.8737,0.8120,0.0847
13.690,0.4458,-0.0999,0.7925,1.9311,0.7497,-0.0542
13.693,0.4418,-0.0921,0.8016,2.0006,0.6731,-0.2122
13.696,0.4364,-0.0785,0.8093,2.0700,0.5654,-0.3151
13.699,0.4287,-0.0625,0.8149,2.0915,0.4720,-0.3798
13.703,0.4172,-0.0476,0.8157,2.0963,0.4313,-0.3917
13.706,0.4021,-0.0314,0.8119,2.1155,0.4074,-0.3726
13.709,0.3831,-0.0162,0.8055,2.1658,0.4002,-0.3391
13.712,0.3605,-0.0026,0.7970,2.2112,0.3954,-0.3008
13.715,0.3336,0.0105,0.7877,2.2831,0.3930,-0.2409
13.718,0.2923,0.0241,0.7765,2.3597,0.4026,-0.1284
13.721,0.2568,0.0315,0.7696,2.3812,0.4098,0.0057
13.724,0.2193,0.0355,0.7648,2.3693,0.4145,0.1254
13.727,0.1814,0.0368,0.7581,2.3453,0.4241,0.2068
13.730,0.1476,0.0376,0.7515,2.3166,0.4552,0.3002
13.734,0.1183,0.0363,0.7435,2.2759,0.4720,0.3768
13.737,0.0967,0.0352,0.7365,2.2256,0.4648,0.4319
13.740,0.0850,0.0323,0.7317,2.1897,0.4385,0.4750
13.743,0.0818,0.0286,0.7304,2.1322,0.4241,0.4678
13.746,0.0879,0.0238,0.7336,2.0796,0.4265,0.4486
13.749,0.1092,0.0169,0.7427,1.9958,0.4241,0.4319
13.752,0.1319,0.0107,0.7509,1.9287,0.4313,0.4175
13.755,0.1574,0.0038,0.7595,1.8785,0.4385,0.4055
13.758,0.1854,-0.0042,0.7666,1.8665,0.4193,0.4007
13.761,0.2139,-0.0109,0.7744,1.8761,0.4050,0.3959
13.764,0.2414,-0.0162,0.7818,1.8856,0.4098,0.3696
13.768,0.2670,-0.0188,0.7906,1.8928,0.4313,0.3936
13.771,0.2893,-0.0194,0.7992,1.8808,0.4528,0.4390
13.774,0.3085,-0.0191,0.8066,1.8425,0.4696,0.4893
13.777,0.3245,-0.0191,0.8122,1.7659,0.4744,0.5228
13.780,0.3394,-0.0199,0.8167,1.6917,0.4792,0.5300
13.783,0.3605,-0.0194,0.8239,1.6199,0.4792,0.4654
13.786,0.3775,-0.0154,0.8317,1.5864,0.4672,0.4055
13.789,0.3935,-0.0082,0.8391,1.5768,0.4696,0.3648
13.792,0.4066,0.0019,0.8482,1.5888,0.4672,0.3217
13.795,0.4156,0.0139,0.8586,1.5959,0.4983,0.2978
13.798,0.4199,0.0251,0.8708,1.6223,0.5534,0.2762
13.802,0.4199,0.0347,0.8847,1.6702,0.6109,0.2643
13.805,0.4146,0.0440,0.8993,1.7156,0.6564,0.2691
13.808,0.4047,0.0528,0.9127,1.7587,0.6923,0.2451
13.811,0.3930,0.0619,0.9244,1.8210,0.7018,0.2331
13.814,0.3778,0.0720,0.9321,1.8880,0.6995,0.2355
13.817,0.3562,0.0864,0.9382,1.9766,0.6899,0.2499
13.820,0.3392,0.0981,0.9388,2.0365,0.6947,0.2834
13.823,0.3224,0.1085,0.9366,2.0963,0.7138,0.3217
13.826,0.3051,0.1186,0.9332,2.1658,0.7449,0.4079
13.829,0.2877,0.1253,0.9295,2.2304,0.7473,0.4821
13.832,0.2704,0.1285,0.9271,2.2831,0.7282,0.5372
13.836,0.2531,0.1290,0.9255,2.3597,0.7042,0.5588
13.839,0.2366,0.1304,0.9241,2.4291,0.6923,0.5971
13.842,0.2206,0.1333,0.9209,2.4602,0.6875,0.6354
13.845,0.2049,0.1381,0.9159,2.4579,0.6899,0.6952
13.848,0.1894,0.1432,0.9089,2.4267,0.6971,0.7575
13.851,0.1750,0.1496,0.9033,2.3908,0.7090,0.8317
13.854,0.1574,0.1557,0.8993,2.3286,0.7354,0.9346
13.857,0.1460,0.1575,0.9001,2.2903,0.7641,1.0137
13.860,0.1372,0.1583,0.9044,2.2496,0.7785,1.0831
13.863,0.1308,0.1565,0.9119,2.1825,0.7737,1.1046
13.866,0.1271,0.1533,0.9217,2.1275,0.7689,1.1118
13.869,0.1268,0.1485,0.9343,2.0772,0.7593,1.1094
13.873,0.1292,0.1448,0.9484,2.0652,0.7569,1.1070
13.876,0.1345,0.1410,0.9641,2.0365,0.7497,1.0759
13.879,0.1412,0.1368,0.9811,2.0006,0.7521,1.0424
13.882,0.1476,0.1338,0.9971,1.9814,0.7425,1.0208
13.885,0.1566,0.1298,1.0161,1.9479,0.6947,0.9682
13.888,0.1628,0.1285,1.0270,1.9503,0.6611,0.9323
13.891,0.1697,0.1301,1.0360,1.9814,0.6492,0.8939
13.894,0.1761,0.1352,1.0422,2.0173,0.6396,0.8556
13.897,0.1817,0.1429,1.0462,2.0245,0.6228,0.8413
13.900,0.1865,0.1509,1.0480,2.0317,0.6085,0.8317
13.904,0.1905,0.1591,1.0483,2.0125,0.5965,0.8173
13.907,0.1931,0.1666,1.0483,2.0053,0.5797,0.7862
13.910,0.1950,0.1749,1.0504,2.0053,0.5726,0.7766
13.913,0.1961,0.1850,1.0550,2.0245,0.5726,0.7814
13.916,0.1950,0.1970,1.0624,2.0173,0.5869,0.7934
13.919,0.1921,0.2135,1.0741,1.9814,0.5845,0.8245
13.922,0.1918,0.2244,1.0824,1.9551,0.5773,0.8317
13.925,0.1931,0.2338,1.0907,1.9431,0.5702,0.8221
13.928,0.1985,0.2431,1.0989,1.9407,0.5558,0.7886
13.931,0.2067,0.2537,1.1064,1.9575,0.5319,0.7311
13.934,0.2193,0.2633,1.1130,1.9718,0.5055,0.6904
13.938,0.2344,0.2711,1.1192,1.9910,0.4840,0.6665
13.941,0.2520,0.2751,1.1245,2.0293,0.4672,0.6497
13.944,0.2694,0.2780,1.1312,2.0508,0.4959,0.6354
13.947,0.2856,0.2769,1.1378,2.0484,0.5271,0.6354
13.950,0.3045,0.2713,1.1477,2.0437,0.5510,0.6737
13.953,0.3160,0.2628,1.1554,2.0245,0.5462,0.6856
13.956,0.3245,0.2513,1.1634,2.0101,0.5271,0.6641
13.959,0.3328,0.2383,1.1711,1.9838,0.5247,0.6210
13.962,0.3405,0.2271,1.1786,1.9599,0.5079,0.5635
13.965,0.3474,0.2202,1.1855,1.9168,0.4864,0.5181
13.969,0.3522,0.2148,1.1909,1.8521,0.4696,0.4965
13.972,0.3552,0.2119,1.1964,1.7731,0.4744,0.4750
13.975,0.3576,0.2103,1.2036,1.7085,0.4959,0.4558
13.978,0.3589,0.2084,1.2122,1.6558,0.5271,0.4343
13.981,0.3586,0.2047,1.2295,1.6223,0.5797,0.4103
13.984,0.3570,0.2023,1.2457,1.5816,0.6109,0.4055
13.987,0.3554,0.1999,1.2631,1.5552,0.6372,0.4223
13.990,0.3541,0.1989,1.2801,1.5169,0.6540,0.4462
13.993,0.3522,0.1983,1.2961,1.4786,0.6659,0.4414
13.996,0.3514,0.1986,1.3105,1.4451,0.6564,0.4271
13.999,0.3533,0.2004,1.3249,1.3996,0.6468,0.4127
14.003,0.3581,0.2047,1.3395,1.3661,0.6300,0.3457
14.006,0.3639,0.2124,1.3542,1.3254,0.6085,0.2786
14.009,0.3719,0.2234,1.3691,1.2919,0.5917,0.1853
14.012,0.3786,0.2378,1.3819,1.2679,0.5534,0.1230
14.015,0.3853,0.2601,1.3971,1.2655,0.5055,0.1015
14.018,0.3853,0.2772,1.4062,1.2895,0.4840,0.1110
14.021,0.3805,0.2932,1.4157,1.3517,0.4744,0.1589
14.024,0.3711,0.3054,1.4261,1.4116,0.4720,0.2260
14.027,0.3573,0.3132,1.4368,1.4571,0.4959,0.3409
14.030,0.3400,0.3166,1.4472,1.5217,0.5343,0.4319
14.033,0.3210,0.3142,1.4584,1.5744,0.5462,0.5109
14.037,0.3019,0.3092,1.4682,1.5935,0.5750,0.5995
14.040,0.2835,0.3017,1.4773,1.6151,0.6085,0.6856
14.043,0.2680,0.2918,1.4858,1.6271,0.6396,0.7527
14.046,0.2576,0.2812,1.4949,1.6366,0.6851,0.7958
14.049,0.2526,0.2649,1.5079,1.6606,0.7114,0.8461
14.052,0.2555,0.2529,1.5173,1.6726,0.7210,0.8724
14.055,0.2640,0.2420,1.5263,1.6965,0.7354,0.9083
14.058,0.2760,0.2354,1.5349,1.7228,0.7378,0.9251
14.061,0.2912,0.2327,1.5413,1.7156,0.7258,0.9131
14.064,0.3099,0.2330,1.5476,1.7085,0.7162,0.8748
14.067,0.3312,0.2356,1.5524,1.7013,0.6947,0.8245
14.071,0.3541,0.2410,1.5575,1.7037,0.6827,0.7742
14.074,0.3778,0.2471,1.5631,1.7037,0.6851,0.7527
14.077,0.3994,0.2561,1.5695,1.7013,0.6899,0.7240
14.080,0.4188,0.2673,1.5748,1.7133,0.6899,0.7072
14.083,0.4386,0.2831,1.5812,1.7372,0.7018,0.7120
14.086,0.4492,0.2948,1.5844,1.7587,0.7114,0.7168
14.089,0.4561,0.3046,1.5879,1.7803,0.7186,0.7096
14.092,0.4596,0.3134,1.5911,1.8018,0.7138,0.6904
14.095,0.4609,0.3214,1.5959,1.8234,0.7090,0.6426
14.098,0.4596,0.3286,1.6012,1.8401,0.6971,0.6162
14.102,0.4569,0.3342,1.6071,1.8545,0.6947,0.6186
14.105,0.4524,0.3401,1.6124,1.8617,0.6875,0.6042
14.108,0.4447,0.3467,1.6172,1.8856,0.6875,0.6090
14.111,0.4356,0.3545,1.6215,1.9024,0.6875,0.6258
14.114,0.4210,0.3673,1.6252,1.9024,0.6923,0.6426
14.117,0.4084,0.3782,1.6268,1.8904,0.6827,0.6162
14.120,0.3959,0.3891,1.6273,1.8665,0.6755,0.6090
14.123,0.3829,0.3987,1.6279,1.8306,0.6707,0.6162
14.126,0.3690,0.4075,1.6292,1.8114,0.6707,0.6426
14.129,0.3549,0.4168,1.6308,1.7875,0.6659,0.6689
14.132,0.3418,0.4253,1.6332,1.7803,0.6659,0.7072
14.136,0.3290,0.4344,1.6364,1.7827,0.6755,0.7503
14.139,0.3168,0.4437,1.6385,1.8042,0.6971,0.8341
14.142,0.3059,0.4547,1.6406,1.8401,0.7042,0.9083
14.145,0.2944,0.4656,1.6420,1.8665,0.7042,0.9897
14.148,0.2832,0.4770,1.6441,1.9000,0.6995,1.0759
14.151,0.2781,0.4853,1.6446,1.9287,0.6947,1.1477
14.154,0.2773,0.4925,1.6452,1.9335,0.6803,1.1812
14.157,0.2797,0.4986,1.6462,1.9407,0.6540,1.1884
14.160,0.2843,0.5055,1.6468,1.9599,0.6276,1.2100
14.163,0.2915,0.5133,1.6476,1.9838,0.6204,1.2411
14.166,0.2997,0.5218,1.6489,2.0101,0.6037,1.2794
14.169,0.3083,0.5306,1.6497,2.0437,0.5941,1.3249
14.173,0.3165,0.5373,1.6526,2.0245,0.6061,1.3871
14.176,0.3253,0.5423,1.6558,2.0077,0.6133,1.4350
14.179,0.3325,0.5455,1.6606,1.9790,0.6157,1.4709
14.182,0.3426,0.5479,1.6678,1.9216,0.6180,1.4901
14.185,0.3488,0.5482,1.6721,1.9000,0.5989,1.4901
14.188,0.3549,0.5492,1.6763,1.8856,0.5773,1.4662
14.191,0.3615,0.5508,1.6803,1.8569,0.5606,1.4087
14.194,0.3690,0.5530,1.6841,1.8401,0.5438,1.3488
14.197,0.3759,0.5567,1.6870,1.8186,0.5534,1.3010
14.200,0.3834,0.5612,1.6899,1.8258,0.5343,1.2579
14.203,0.3890,0.5668,1.6931,1.8258,0.5319,1.2315
14.207,0.3941,0.5716,1.6942,1.8258,0.5199,1.2052
14.210,0.3965,0.5764,1.6953,1.8306,0.5127,1.1860
14.213,0.3973,0.5842,1.6955,1.8449,0.5438,1.1621
14.216,0.3962,0.5908,1.6955,1.8497,0.5678,1.1501
14.219,0.3919,0.5975,1.6963,1.8665,0.5917,1.1334
14.222,0.3869,0.6025,1.6969,1.8665,0.6180,1.1262
14.225,0.3802,0.6079,1.6969,1.8737,0.6204,1.1214
14.228,0.3725,0.6121,1.6963,1.9024,0.6276,1.1334
14.231,0.3645,0.6164,1.6963,1.9599,0.6300,1.1597
14.234,0.3557,0.6225,1.6969,2.0030,0.6372,1.1980
14.238,0.3464,0.6273,1.6987,2.0317,0.6468,1.2555
14.241,0.3357,0.6289,1.7009,2.0460,0.6492,1.2890
14.244,0.3253,0.6287,1.7046,2.0532,0.6588,1.3105
14.247,0.3139,0.6207,1.7134,2.0006,0.6851,1.3536
14.250,0.3075,0.6113,1.7200,1.9742,0.6899,1.3441
14.253,0.3045,0.6028,1.7267,1.9575,0.6803,1.3010
14.256,0.3048,0.5929,1.7320,1.9168,0.6683,1.2770
14.259,0.3072,0.5842,1.7355,1.9096,0.6444,1.2387
14.262,0.3107,0.5764,1.7398,1.9096,0.6204,1.2435
14.265,0.3149,0.5684,1.7435,1.8880,0.6061,1.2387
14.268,0.3189,0.5610,1.7472,1.8880,0.5797,1.1884
14.272,0.3245,0.5570,1.7528,1.8689,0.5654,1.1525
14.275,0.3306,0.5519,1.7603,1.8378,0.5821,1.1190
14.278,0.3368,0.5466,1.7725,1.8066,0.6085,1.0663
14.281,0.3410,0.5429,1.7856,1.7851,0.6348,1.0352
14.284,0.3442,0.5399,1.7984,1.7683,0.6516,1.0113
14.287,0.3466,0.5383,1.8093,1.7396,0.6444,0.9753
14.290,0.3474,0.5381,1.8181,1.7348,0.6540,0.9538
14.293,0.3480,0.5402,1.8253,1.7516,0.6635,0.9586
14.296,0.3482,0.5450,1.8301,1.7659,0.6803,0.9753
14.299,0.3488,0.5500,1.8314,1.7635,0.7234,1.0352
14.303,0.3506,0.5543,1.8309,1.7324,0.7641,1.0903
14.306,0.3525,0.5588,1.8285,1.7133,0.7809,1.0975
14.309,0.3565,0.5647,1.8258,1.6821,0.7809,1.0759
14.312,0.3663,0.5708,1.8176,1.6223,0.7785,1.0304
14.315,0.3759,0.5770,1.8192,1.6271,0.7569,0.9514
14.318,0.3882,0.5847,1.8229,1.6223,0.7282,0.8820
14.321,0.4007,0.5924,1.8266,1.6319,0.7066,0.8293
14.324,0.4122,0.6009,1.8304,1.6342,0.6755,0.7742
14.327,0.4223,0.6092,1.8325,1.6271,0.6468,0.7814
14.330,0.4290,0.6169,1.8328,1.6247,0.6444,0.7551
14.333,0.4319,0.6255,1.8322,1.6486,0.6468,0.7455
14.337,0.4295,0.6335,1.8306,1.6869,0.6468,0.7287
14.340,0.4247,0.6412,1.8288,1.7180,0.6683,0.7240
14.343,0.4119,0.6497,1.8245,1.7204,0.6779,0.7623
14.346,0.3991,0.6516,1.8184,1.7252,0.6659,0.7910
14.349,0.3850,0.6494,1.8192,1.7324,0.6707,0.7838
14.352,0.3709,0.6454,1.8205,1.7204,0.6731,0.7503
14.355,0.3562,0.6396,1.8213,1.6965,0.6851,0.6952
14.358,0.3413,0.6324,1.8178,1.6773,0.6995,0.6402
14.361,0.3280,0.6252,1.8165,1.6558,0.6995,0.5995
14.364,0.3152,0.6180,1.8178,1.6390,0.6875,0.5133
14.368,0.3027,0.6121,1.8184,1.6319,0.6899,0.4630
14.371,0.2901,0.6076,1.8144,1.6486,0.6995,0.4055
14.374,0.2765,0.6055,1.8128,1.6534,0.7234,0.3744
14.377,0.2571,0.6033,1.8130,1.6558,0.7593,0.3600
14.380,0.2414,0.6007,1.8082,1.6654,0.7976,0.3864
14.383,0.2259,0.5967,1.8096,1.6821,0.8192,0.4295
14.386,0.2107,0.5908,1.8080,1.6558,0.8479,0.4534
14.389,0.1955,0.5818,1.8040,1.6175,0.8838,0.4941
14.392,0.1806,0.5732,1.8000,1.6031,0.9101,0.4941
14.395,0.1678,0.5644,1.7973,1.5624,0.9317,0.4630
14.398,0.1574,0.5535,1.7899,1.5145,0.9437,0.4582
14.402,0.1478,0.5458,1.7832,1.5097,0.9365,0.4367
14.405,0.1407,0.5389,1.7773,1.4810,0.9221,0.4558
14.408,0.1324,0.5314,1.7693,1.4690,0.9197,0.4510
14.411,0.1284,0.5285,1.7653,1.4523,0.9030,0.4055
14.414,0.1268,0.5269,1.7629,1.4331,0.8718,0.3768
14.417,0.1260,0.5271,1.7619,1.4331,0.8407,0.3337
14.420,0.1263,0.5317,1.7619,1.4307,0.8048,0.2954
14.423,0.1260,0.5397,1.7603,1.4212,0.7856,0.2403
14.426,0.1257,0.5538,1.7584,1.4140,0.7641,0.2068
14.429,0.1228,0.5695,1.7542,1.3541,0.7497,0.2284
14.433,0.1167,0.5874,1.7478,1.3110,0.7402,0.2595
14.436,0.1076,0.6041,1.7408,1.2871,0.7378,0.2906
14.439,0.0911,0.6241,1.7307,1.2344,0.7306,0.4007
14.442,0.0759,0.6356,1.7227,1.2368,0.7162,0.4343
14.445,0.0588,0.6446,1.7153,1.2344,0.6995,0.4821
14.448,0.0389,0.6534,1.7091,1.2775,0.6827,0.5276
14.451,0.0191,0.6620,1.7043,1.3350,0.6707,0.5923
14.454,-0.0008,0.6689,1.7011,1.3900,0.6588,0.6521
14.457,-0.0187,0.6732,1.7009,1.4236,0.6492,0.7000
14.460,-0.0344,0.6740,1.7019,1.4355,0.6707,0.7311
14.464,-0.0483,0.6710,1.7030,1.4451,0.6851,0.7814
14.467,-0.0603,0.6633,1.7046,1.4283,0.6875,0.8101
14.470,-0.0712,0.6486,1.7070,1.4044,0.6923,0.8293
14.473,-0.0762,0.6351,1.7105,1.3829,0.6779,0.8317
14.476,-0.0794,0.6185,1.7145,1.3589,0.6588,0.8556
14.479,-0.0810,0.6009,1.7203,1.3589,0.6683,0.8580
14.482,-0.0816,0.5828,1.7286,1.3661,0.6971,0.8796
14.485,-0.0928,0.5791,1.7384,1.4260,0.7809,1.1884
14.488,-0.1517,0.6113,1.7438,1.2153,0.8503,1.7032
14.491,-0.2172,0.6127,1.7422,1.2009,1.0921,1.4997
14.495,-0.2588,0.6025,1.7504,1.3445,1.1759,1.2243
14.498,-0.2876,0.5687,1.7669,1.4116,0.9317,1.1501
14.501,-0.2897,0.5293,1.7760,1.4283,0.6851,1.0137
14.504,-0.2798,0.4949,1.7811,1.4283,0.4912,0.8868
14.507,-0.2646,0.4738,1.7829,1.3996,0.4241,0.7790
14.510,-0.2415,0.4656,1.7864,1.3374,0.4768,0.5899
14.513,-0.2076,0.4701,1.7853,1.2655,0.5175,0.3840
14.516,-0.1636,0.4816,1.7832,1.1961,0.4888,0.2882
14.519,-0.1149,0.4941,1.7787,1.1698,0.4026,0.3050
14.523,-0.0675,0.5045,1.7736,1.1889,0.3116,0.3936
14.526,-0.0251,0.5101,1.7696,1.2248,0.2805,0.4989
14.529,0.0162,0.5106,1.7680,1.2871,0.3451,0.6258
14.532,0.0362,0.5061,1.7701,1.3302,0.4098,0.7048
14.535,0.0482,0.4978,1.7768,1.3637,0.4720,0.7742
14.538,0.0533,0.4856,1.7827,1.3876,0.5223,0.8461
14.541,0.0530,0.4701,1.7936,1.3781,0.5486,0.9059
14.544,0.0490,0.4512,1.8016,1.3661,0.5582,0.9466
14.547,0.0426,0.4299,1.8061,1.3086,0.5630,0.9442
14.550,0.0351,0.4067,1.8133,1.2488,0.5630,0.9275
14.553,0.0293,0.3832,1.8218,1.1865,0.5726,0.8556
14.556,0.0247,0.3622,1.8304,1.1195,0.5678,0.7479
14.560,0.0239,0.3449,1.8445,1.0477,0.5678,0.6521
14.563,0.0258,0.3305,1.8535,0.9711,0.5510,0.5516
14.566,0.0301,0.3260,1.8621,0.9232,0.5486,0.4510
14.569,0.0354,0.3260,1.8669,0.8992,0.5582,0.3600
14.572,0.0421,0.3294,1.8722,0.8849,0.5845,0.2834
14.575,0.0503,0.3321,1.8786,0.8729,0.6276,0.2379
14.578,0.0586,0.3347,1.8850,0.8322,0.6420,0.1972
14.581,0.0663,0.3366,1.8906,0.7867,0.6683,0.1637
14.584,0.0738,0.3382,1.8956,0.7580,0.6755,0.1086
14.587,0.0818,0.3411,1.8978,0.7364,0.6444,0.0368
14.591,0.0903,0.3473,1.8972,0.7077,0.6013,-0.0398
14.594,0.1012,0.3590,1.8911,0.6766,0.5295,-0.1595
14.597,0.1071,0.3715,1.8802,0.6670,0.4744,-0.2098
14.600,0.1121,0.3862,1.8714,0.7029,0.4505,-0.2289
14.603,0.1119,0.4022,1.8634,0.7364,0.4409,-0.1882
14.606,0.1060,0.4184,1.8546,0.7747,0.4193,-0.0661
14.609,0.0940,0.4328,1.8450,0.8082,0.4193,0.1158
14.612,0.0762,0.4427,1.8320,0.8346,0.4050,0.3505
14.615,0.0527,0.4467,1.8189,0.8561,0.3906,0.5659
14.618,0.0263,0.4467,1.8085,0.8992,0.3619,0.7647
14.622,-0.0008,0.4432,1.8024,0.9423,0.3451,0.9490
14.625,-0.0347,0.4320,1.7979,1.0022,0.3260,1.2004
14.628,-0.0563,0.4195,1.7957,1.0429,0.3355,1.3680
14.631,-0.0731,0.4043,1.8003,1.0692,0.3499,1.5021
14.634,-0.0821,0.3875,1.8045,1.0788,0.3523,1.5835
14.637,-0.0837,0.3689,1.8056,1.0644,0.3523,1.6242
14.640,-0.0773,0.3510,1.8133,1.0429,0.3307,1.6146
14.643,-0.0624,0.3331,1.8224,1.0118,0.3092,1.6050
14.646,-0.0411,0.3142,1.8312,0.9591,0.2805,1.5547
14.650,-0.0144,0.2966,1.8477,0.8777,0.2661,1.4638
14.653,0.0269,0.2753,1.8687,0.7675,0.2541,1.3369
14.656,0.0607,0.2620,1.8829,0.6766,0.2278,1.2076
14.659,0.0967,0.2524,1.8954,0.5928,0.2206,1.0352
14.662,0.1332,0.2471,1.9050,0.5185,0.2086,0.8892
14.665,0.1689,0.2481,1.9114,0.4659,0.2039,0.7431
14.668,0.2014,0.2545,1.9156,0.4180,0.1895,0.5971
14.671,0.2320,0.2649,1.9170,0.3869,0.1608,0.4726
14.674,0.2579,0.2788,1.9154,0.3438,0.1296,0.3672
14.677,0.2792,0.2942,1.9108,0.3246,0.0961,0.2906
14.681,0.2955,0.3110,1.9036,0.3150,0.0698,0.2188
14.684,0.3088,0.3337,1.8924,0.3007,0.0410,0.1422
14.687,0.3120,0.3499,1.8839,0.3126,0.0339,0.1422
14.690,0.3104,0.3654,1.8767,0.3150,0.0123,0.1565
14.693,0.3056,0.3776,1.8650,0.3150,0.0027,0.1685
14.696,0.2984,0.3832,1.8567,0.3150,0.0003,0.1877
14.699,0.2877,0.3846,1.8498,0.2815,0.0099,0.2236
14.702,0.2749,0.3811,1.8442,0.2696,0.0075,0.2499
14.705,0.2587,0.3747,1.8408,0.2839,0.0075,0.3145
14.708,0.2398,0.3654,1.8384,0.2935,0.0243,0.3983
14.711,0.2179,0.3523,1.8352,0.3533,0.0387,0.4869
14.715,0.1937,0.3369,1.8336,0.3845,0.0315,0.6090
14.718,0.1585,0.3113,1.8328,0.3893,0.0051,0.7527
14.721,0.1311,0.2886,1.8336,0.3581,-0.0260,0.8389
14.724,0.1039,0.2628,1.8352,0.2983,-0.0643,0.9299
14.727,0.0772,0.2319,1.8384,0.2528,-0.0930,0.9993
14.730,0.0506,0.1997,1.8485,0.2193,-0.1122,1.0472
14.733,0.0255,0.1695,1.8567,0.1905,-0.1409,1.0831
14.736,0.0032,0.1424,1.8690,0.1498,-0.1888,1.1094
14.739,-0.0179,0.1181,1.8807,0.1020,-0.2295,1.1453
14.742,-0.0371,0.0955,1.8932,0.0253,-0.2702,1.1717
14.746,-0.0549,0.0760,1.9066,-0.0369,-0.3061,1.2124
14.749,-0.0757,0.0520,1.9266,-0.1039,-0.3181,1.2483
14.752,-0.0893,0.0371,1.9417,-0.1470,-0.3181,1.2698
14.755,-0.1013,0.0243,1.9567,-0.1830,-0.3037,1.3105
14.758,-0.1120,0.0145,1.9713,-0.1925,-0.2989,1.3249
14.761,-0.1213,0.0094,1.9844,-0.2021,-0.2941,1.3297
14.764,-0.1293,0.0089,1.9950,-0.1853,-0.3037,1.3177
14.767,-0.1351,0.0137,2.0030,-0.1686,-0.3013,1.3010
14.770,-0.1391,0.0246,2.0081,-0.1375,-0.2965,1.2890
14.774,-0.1423,0.0398,2.0100,-0.0992,-0.3013,1.2722
14.777,-0.1461,0.0640,2.0073,-0.0201,-0.2870,1.2770
14.780,-0.1506,0.0843,2.0028,0.0325,-0.2606,1.3369
14.783,-0.1559,0.1032,1.9961,0.0996,-0.2415,1.4159
14.786,-0.1634,0.1216,1.9881,0.1498,-0.2127,1.4973
14.789,-0.1730,0.1365,1.9780,0.1858,-0.1840,1.5931
14.792,-0.1831,0.1482,1.9657,0.1834,-0.1601,1.6888
14.795,-0.1951,0.1544,1.9511,0.2145,-0.1218,1.7678
14.798,-0.2081,0.1613,1.9372,0.2839,-0.0930,1.8373
14.802,-0.2220,0.1711,1.9274,0.3557,-0.0858,1.8780
14.805,-0.2367,0.1853,1.9196,0.4180,-0.0619,1.9330
14.808,-0.2463,0.1941,1.9148,0.3988,-0.0212,2.0025
14.811,-0.2529,0.1999,1.9106,0.3653,0.0363,2.0958
14.814,-0.2566,0.2039,1.9044,0.3103,0.0865,2.1581
14.817,-0.2556,0.2063,1.8986,0.2384,0.1296,2.1964
14.820,-0.2500,0.2076,1.8932,0.1618,0.1440,2.2060
14.823,-0.2388,0.2076,1.8826,0.0517,0.1296,2.1916
14.826,-0.2223,0.2079,1.8773,-0.0441,0.1081,2.1126
14.829,-0.1988,0.2084,1.8693,-0.1087,0.0698,2.0001
14.833,-0.1682,0.2114,1.8594,-0.1686,0.0458,1.8397
14.836,-0.1202,0.2204,1.8490,-0.2476,0.0339,1.5931
14.839,-0.0800,0.2290,1.8442,-0.2883,0.0291,1.3824
14.842,-0.0384,0.2402,1.8410,-0.3194,0.0267,1.1980
14.845,0.0021,0.2511,1.8392,-0.3577,0.0147,1.0663
14.848,0.0381,0.2620,1.8384,-0.3889,0.0171,0.9610
14.851,0.0682,0.2721,1.8392,-0.4056,0.0243,0.8844
14.854,0.0914,0.2807,1.8448,-0.4272,0.0482,0.8317
14.857,0.1079,0.2873,1.8503,-0.4559,0.0746,0.7934
14.860,0.1183,0.2905,1.8493,-0.4870,0.1105,0.7623
14.863,0.1239,0.2908,1.8538,-0.4894,0.1344,0.7575
14.867,0.1244,0.2855,1.8594,-0.5062,0.1967,0.7670
14.870,0.1212,0.2783,1.8658,-0.5301,0.2422,0.7694
14.873,0.1172,0.2692,1.8693,-0.5373,0.2709,0.7599
14.876,0.1140,0.2575,1.8751,-0.5828,0.3116,0.7431
14.879,0.1119,0.2455,1.8799,-0.6091,0.3260,0.7120
14.882,0.1092,0.2332,1.8837,-0.6618,0.3379,0.7120
14.885,0.1076,0.2228,1.8850,-0.7193,0.3379,0.6880
14.888,0.1073,0.2148,1.8863,-0.7647,0.3379,0.6210
14.891,0.1087,0.2090,1.8877,-0.8102,0.3355,0.5659
14.894,0.1111,0.2052,1.8893,-0.8342,0.3331,0.5348
14.898,0.1135,0.2028,1.8914,-0.8533,0.3643,0.5396
14.901,0.1132,0.2015,1.8943,-0.8342,0.4002,0.5635
14.904,0.1113,0.2010,1.8978,-0.8126,0.4409,0.5875
14.907,0.1092,0.2012,1.9034,-0.7983,0.4696,0.6114
14.910,0.1073,0.2012,1.9076,-0.8078,0.5007,0.6258
14.913,0.1047,0.2012,1.9095,-0.8007,0.5343,0.6761
14.916,0.1012,0.2018,1.9071,-0.7863,0.5845,0.7335
14.919,0.0978,0.2034,1.9034,-0.7528,0.6133,0.7694
14.922,0.0948,0.2050,1.8994,-0.7216,0.6659,0.7766
14.925,0.0932,0.2060,1.8959,-0.6905,0.7066,0.7982
14.929,0.0946,0.2044,1.8930,-0.6259,0.7569,0.7958
14.932,0.0985,0.2012,1.8914,-0.5924,0.7928,0.7910
14.935,0.1036,0.1965,1.8906,-0.5517,0.8240,0.7647
14.938,0.1103,0.1903,1.8917,-0.5134,0.8431,0.7551
14.941,0.1196,0.1839,1.8943,-0.4894,0.8694,0.7216
14.944,0.1303,0.1778,1.8962,-0.4679,0.8934,0.6809
14.947,0.1409,0.1727,1.8975,-0.4559,0.9077,0.6234
14.950,0.1508,0.1669,1.8980,-0.4463,0.9269,0.5971
14.953,0.1590,0.1621,1.8975,-0.4272,0.9604,0.5779
14.956,0.1657,0.1554,1.8967,-0.4272,0.9963,0.5588
14.960,0.1710,0.1458,1.8959,-0.4080,1.0490,0.5348
14.963,0.1729,0.1392,1.8954,-0.4056,1.0897,0.5492
14.966,0.1721,0.1314,1.8946,-0.4080,1.1232,0.5707
14.969,0.1694,0.1216,1.8932,-0.4200,1.1544,0.6162
14.972,0.1641,0.1123,1.8919,-0.4343,1.1855,0.6282
14.975,0.1588,0.1053,1.8901,-0.4152,1.2238,0.6354
14.978,0.1521,0.1000,1.8847,-0.3841,1.2717,0.6210
14.981,0.1473,0.0968,1.8821,-0.3362,1.3219,0.6162
14.984,0.1436,0.0952,1.8773,-0.2979,1.3555,0.5995
14.987,0.1422,0.0952,1.8757,-0.2644,1.3938,0.5803
14.991,0.1436,0.0971,1.8711,-0.2500,1.4249,0.6019
14.994,0.1473,0.0973,1.8682,-0.2715,1.4584,0.6162
14.997,0.1529,0.0976,1.8607,-0.2859,1.4871,0.6090
15.000,0.1590,0.0992,1.8575,-0.2907,1.5015,0.5923
15.003,0.1676,0.1013,1.8565,-0.3122,1.5398,0.5827
15.006,0.1777,0.1035,1.8525,-0.3362,1.5614,0.5588
15.009,0.1894,0.1067,1.8469,-0.3290,1.5829,0.5324
15.012,0.2022,0.1077,1.8424,-0.3170,1.6021,0.5133
15.015,0.2147,0.1077,1.8394,-0.2787,1.6188,0.4845
15.018,0.2265,0.1080,1.8373,-0.2428,1.6380,0.4414
15.022,0.2395,0.1085,1.8338,-0.2141,1.6643,0.3959
15.025,0.2480,0.1101,1.8298,-0.1973,1.6859,0.3672
15.028,0.2539,0.1120,1.8229,-0.2021,1.6907,0.3576
15.031,0.2576,0.1141,1.8112,-0.2021,1.7242,0.3313
15.034,0.2592,0.1181,1.8016,-0.1925,1.7601,0.3193
15.037,0.2590,0.1213,1.7920,-0.1949,1.7960,0.3313
15.040,0.2579,0.1258,1.7837,-0.2021,1.8295,0.3481
15.043,0.2571,0.1296,1.7744,-0.2213,1.8391,0.3481
15.046,0.2566,0.1325,1.7637,-0.2380,1.8056,0.3385
15.049,0.2552,0.1381,1.7475,-0.2356,1.7673,0.3145
15.053,0.2536,0.1424,1.7339,-0.2452,1.7625,0.3145
15.056,0.2518,0.1472,1.7200,-0.2524,1.7888,0.3433
15.059,0.2491,0.1517,1.7070,-0.2476,1.8223,0.3624
15.062,0.2456,0.1549,1.6947,-0.2356,1.8463,0.4175
15.065,0.2416,0.1565,1.6835,-0.2308,1.8630,0.4702
15.068,0.2371,0.1575,1.6726,-0.2045,1.8559,0.5181
15.071,0.2331,0.1594,1.6630,-0.1686,1.8487,0.5564
15.074,0.2286,0.1597,1.6553,-0.1542,1.8559,0.5971
15.077,0.2249,0.1589,1.6481,-0.1638,1.8774,0.6378
15.080,0.2222,0.1533,1.6382,-0.1782,1.9181,0.6473
15.084,0.2219,0.1472,1.6321,-0.1830,1.9229,0.6593
15.087,0.2225,0.1397,1.6265,-0.1925,1.9277,0.6928
15.090,0.2241,0.1325,1.6201,-0.2117,1.9349,0.7287
15.093,0.2278,0.1250,1.6127,-0.2189,1.9468,0.7527
15.096,0.2342,0.1173,1.6041,-0.2332,1.9660,0.7838
15.099,0.2427,0.1101,1.5919,-0.2524,1.9827,0.7958
15.102,0.2547,0.1019,1.5794,-0.2308,2.0043,0.8054
15.105,0.2694,0.0960,1.5674,-0.1638,2.0091,0.8078
15.108,0.2853,0.0939,1.5572,-0.1590,1.9971,0.8125
15.112,0.3083,0.0920,1.5431,-0.2404,1.9923,0.7790
15.115,0.3253,0.0851,1.5295,-0.3386,2.0139,0.7742
15.118,0.3405,0.0739,1.5127,-0.3027,2.0234,0.7575
15.121,0.3493,0.0733,1.5000,-0.2189,2.0115,0.7359
15.124,0.3578,0.0789,1.4912,-0.1327,1.9803,0.6809
15.127,0.3650,0.0899,1.4826,-0.0656,1.9468,0.6138
15.130,0.3730,0.1027,1.4720,-0.0608,1.9205,0.5516
15.133,0.3791,0.1146,1.4600,-0.0656,1.9396,0.5324
15.136,0.3847,0.1242,1.4448,-0.0656,1.9732,0.5252
15.139,0.3909,0.1333,1.4205,-0.0417,2.0163,0.5276
15.143,0.3919,0.1392,1.4030,-0.0082,2.0378,0.5635
15.146,0.3914,0.1410,1.3854,0.0038,2.0522,0.6042
15.149,0.3901,0.1408,1.3686,-0.0154,2.0594,0.6234
15.152,0.3890,0.1360,1.3523,-0.0441,2.0618,0.6378
15.155,0.3874,0.1274,1.3366,-0.0608,2.0546,0.6617
15.158,0.3861,0.1181,1.3238,-0.0872,2.0546,0.6689
15.161,0.3855,0.1085,1.3142,-0.1015,2.0641,0.6497
15.164,0.3853,0.1024,1.3065,-0.1351,2.0522,0.6354
15.167,0.3850,0.0955,1.2961,-0.1997,2.0426,0.6713
15.171,0.3837,0.0901,1.2876,-0.2476,2.0282,0.7048
15.174,0.3810,0.0853,1.2791,-0.2715,2.0115,0.7096
15.177,0.3773,0.0819,1.2716,-0.2787,2.0019,0.7072
15.180,0.3746,0.0821,1.2647,-0.2739,1.9995,0.6713
15.183,0.3722,0.0856,1.2585,-0.2811,1.9899,0.6569
15.186,0.3695,0.0923,1.2513,-0.2955,1.9516,0.6665
15.189,0.3674,0.1005,1.2412,-0.3242,1.9277,0.6880
15.192,0.3647,0.1085,1.2274,-0.3625,1.9013,0.7503
15.195,0.3594,0.1216,1.2034,-0.3482,1.9085,0.8293
15.198,0.3552,0.1336,1.1855,-0.2955,1.8966,0.8915
15.202,0.3520,0.1490,1.1690,-0.2476,1.8846,0.9634
15.205,0.3485,0.1647,1.1559,-0.2332,1.8798,1.0160
15.208,0.3464,0.1794,1.1458,-0.2189,1.8750,1.0472
15.211,0.3458,0.1938,1.1386,-0.2356,1.8750,1.0879
15.214,0.3466,0.2060,1.1341,-0.2667,1.8750,1.1070
15.217,0.3485,0.2180,1.1336,-0.2883,1.8606,1.1334
15.220,0.3530,0.2276,1.1357,-0.3098,1.8702,1.1669
15.223,0.3594,0.2351,1.1389,-0.3242,1.8726,1.1884
15.226,0.3717,0.2471,1.1424,-0.3242,1.8822,1.1812
15.230,0.3831,0.2569,1.1453,-0.3242,1.8750,1.1693
15.233,0.3962,0.2673,1.1472,-0.3338,1.8822,1.1429
15.236,0.4098,0.2761,1.1466,-0.3386,1.8774,1.1214
15.239,0.4228,0.2831,1.1453,-0.3410,1.8989,1.1358
15.242,0.4338,0.2873,1.1450,-0.3218,1.9325,1.1573
15.245,0.4426,0.2900,1.1456,-0.3027,1.9444,1.2004
15.248,0.4479,0.2905,1.1466,-0.2715,1.9349,1.2315
15.251,0.4511,0.2868,1.1501,-0.2739,1.9133,1.2411
15.254,0.4503,0.2833,1.1530,-0.2620,1.8463,1.2028
15.258,0.4484,0.2796,1.1559,-0.2596,1.7840,1.1573
15.261,0.4442,0.2783,1.1586,-0.2548,1.6907,1.0951
15.264,0.4364,0.2809,1.1605,-0.2141,1.6021,1.0567
15.267,0.4263,0.2868,1.1615,-0.1949,1.5326,1.0328
15.270,0.4138,0.2956,1.1618,-0.1614,1.4704,1.0184
15.273,0.3997,0.3062,1.1613,-0.1255,1.4369,1.0256
15.276,0.3842,0.3177,1.1586,-0.0656,1.4153,1.0520
15.279,0.3576,0.3358,1.1549,0.0804,1.4057,1.1262
15.282,0.3354,0.3515,1.1525,0.1905,1.3962,1.1717
15.286,0.3128,0.3665,1.1509,0.3007,1.4153,1.2219
15.289,0.2896,0.3795,1.1512,0.3893,1.4297,1.2579
15.292,0.2667,0.3907,1.1504,0.4731,1.4560,1.2794
15.295,0.2456,0.4016,1.1504,0.5569,1.4967,1.2770
15.298,0.2262,0.4128,1.1493,0.6263,1.5302,1.2674
15.301,0.2086,0.4248,1.1480,0.6718,1.5733,1.2579
15.304,0.1945,0.4365,1.1466,0.7292,1.6092,1.2339
15.307,0.1841,0.4464,1.1442,0.7771,1.6428,1.1956
15.310,0.1758,0.4549,1.1413,0.8250,1.6523,1.1501
15.313,0.1678,0.4685,1.1370,0.8992,1.6523,1.0639
15.317,0.1633,0.4797,1.1320,0.9663,1.6380,1.0256
15.320,0.1566,0.4909,1.1242,1.0381,1.6212,1.0113
15.323,0.1476,0.5032,1.1146,1.1267,1.5853,1.0089
15.326,0.1343,0.5159,1.1024,1.2296,1.5398,1.0137
15.329,0.1145,0.5293,1.0875,1.3374,1.5087,1.0544
15.332,0.0876,0.5431,1.0717,1.4355,1.4704,1.1453
15.335,0.0535,0.5535,1.0566,1.5169,1.4393,1.3057
15.338,0.0106,0.5580,1.0424,1.5768,1.4201,1.5164
15.341,-0.0581,0.5540,1.0264,1.6606,1.4033,1.8468
15.344,-0.1160,0.5439,1.0158,1.6749,1.4105,2.0839
15.348,-0.1759,0.5261,1.0081,1.6893,1.4321,2.3065
15.351,-0.2337,0.5008,1.0027,1.7061,1.4536,2.4981
15.354,-0.2873,0.4685,1.0011,1.7180,1.4536,2.6226
15.357,-0.3337,0.4317,1.0033,1.7420,1.4273,2.7183
15.360,-0.3707,0.3904,1.0089,1.7396,1.3866,2.8141
15.363,-0.3992,0.3454,1.0166,1.7204,1.3603,2.8739
15.366,-0.4184,0.2988,1.0272,1.6773,1.3219,2.9697
15.369,-0.4288,0.2473,1.0382,1.6366,1.2836,3.0583
15.372,-0.4317,0.1767,1.0528,1.5912,1.2190,3.1229
15.375,-0.4261,0.1245,1.0648,1.5552,1.1807,3.1158
15.379,-0.4133,0.0781,1.0749,1.5241,1.1280,3.0894
15.382,-0.3949,0.0347,1.0845,1.5050,1.0634,3.0607
15.385,-0.3720,-0.0037,1.0920,1.4595,0.9939,3.0296
15.388,-0.3451,-0.0370,1.0979,1.4164,0.9245,2.9841
15.391,-0.3142,-0.0660,1.1021,1.3517,0.8694,2.8931
15.394,-0.2801,-0.0881,1.1043,1.2847,0.7904,2.7590
15.397,-0.2439,-0.1017,1.1051,1.2248,0.6995,2.5938
15.400,-0.2068,-0.1054,1.1037,1.1770,0.5941,2.3855
15.403,-0.1581,-0.0916,1.1005,1.1291,0.4600,2.1581
15.406,-0.1277,-0.0671,1.0968,1.0932,0.3906,2.0432
15.410,-0.1042,-0.0324,1.0912,1.0644,0.3667,2.0001
15.413,-0.0898,0.0102,1.0840,1.0189,0.3738,1.9761
15.416,-0.0816,0.0584,1.0749,0.9878,0.4098,1.9282
15.419,-0.0800,0.1101,1.0646,0.9519,0.4648,1.8971
15.422,-0.0824,0.1653,1.0542,0.9351,0.5319,1.8325
15.425,-0.0840,0.2204,1.0448,0.9304,0.5750,1.7487
15.428,-0.0845,0.2735,1.0355,0.9423,0.6133,1.6122
15.431,-0.0821,0.3244,1.0275,0.9950,0.6588,1.4733
15.434,-0.0725,0.3862,1.0174,1.0525,0.7162,1.2794
15.438,-0.0605,0.4272,1.0110,1.0764,0.7856,1.1645
15.441,-0.0456,0.4613,1.0035,1.1003,0.8383,1.0591
15.444,-0.0302,0.4882,0.9955,1.1171,0.9054,0.9730
15.447,-0.0131,0.5077,0.9867,1.1410,0.9820,0.8963
15.450,0.0034,0.5213,0.9764,1.1602,1.0370,0.8101
15.453,0.0205,0.5282,0.9662,1.2081,1.0801,0.7024
15.456,0.0367,0.5306,0.9558,1.2440,1.1160,0.6066
15.459,0.0530,0.5290,0.9465,1.2608,1.1400,0.5157
15.462,0.0716,0.5221,0.9335,1.2703,1.1711,0.3936
15.465,0.0836,0.5138,0.9249,1.2512,1.1783,0.2810
15.468,0.0943,0.5053,0.9156,1.2153,1.1879,0.1877
15.472,0.1012,0.4986,0.9065,1.1602,1.1831,0.0823
15.475,0.1052,0.4946,0.8988,1.0979,1.1974,0.0057
15.478,0.1065,0.4922,0.8908,1.0333,1.2190,-0.0374
15.481,0.1057,0.4933,0.8842,0.9711,1.2358,-0.0973
15.484,0.1012,0.4944,0.8796,0.9160,1.2669,-0.1308
15.487,0.0946,0.4962,0.8786,0.8609,1.2980,-0.1475
15.490,0.0871,0.4968,0.8799,0.8011,1.3291,-0.1547
15.493,0.0786,0.4949,0.8847,0.7771,1.3746,-0.1643
15.496,0.0658,0.4917,0.8940,0.7580,1.3986,-0.1834
15.499,0.0559,0.4882,0.9036,0.7819,1.4105,-0.1978
15.503,0.0461,0.4837,0.9153,0.8035,1.4081,-0.2337
15.506,0.0362,0.4789,0.9257,0.8154,1.3938,-0.2433
15.509,0.0263,0.4749,0.9340,0.8489,1.3914,-0.2433
15.512,0.0154,0.4696,0.9398,0.8944,1.4129,-0.2337
15.515,0.0034,0.4640,0.9441,0.9615,1.4704,-0.1715
15.518,-0.0091,0.4587,0.9457,1.0309,1.5398,-0.0997
15.521,-0.0238,0.4539,0.9470,1.0884,1.6116,-0.0015
15.524,-0.0392,0.4475,0.9452,1.1339,1.6811,0.1015
15.527,-0.0547,0.4379,0.9436,1.1554,1.7481,0.1877
15.530,-0.0736,0.4208,0.9417,1.2105,1.7864,0.2930
15.533,-0.0850,0.4059,0.9422,1.2488,1.8151,0.3457
15.537,-0.0938,0.3899,0.9446,1.2943,1.8367,0.3912
15.540,-0.1013,0.3729,0.9486,1.3110,1.8535,0.4343
15.543,-0.1064,0.3555,0.9548,1.3206,1.8702,0.4558
15.546,-0.1104,0.3395,0.9609,1.3350,1.8678,0.4845
15.549,-0.1125,0.3254,0.9660,1.3757,1.8678,0.5276
15.552,-0.1146,0.3145,0.9702,1.4116,1.8582,0.5611
15.555,-0.1168,0.3073,0.9740,1.4547,1.8535,0.6138
15.558,-0.1184,0.3033,0.9758,1.5074,1.8630,0.6641
15.561,-0.1223,0.3004,0.9774,1.5768,1.8774,0.7503
15.564,-0.1250,0.2990,0.9774,1.6103,1.8942,0.8317
15.568,-0.1277,0.2961,0.9766,1.6151,1.9085,0.8868
15.571,-0.1293,0.2924,0.9737,1.6319,1.9157,0.9394
15.574,-0.1285,0.2881,0.9689,1.6271,1.9277,0.9251
15.577,-0.1253,0.2841,0.9625,1.6247,1.9349,0.9346
15.580,-0.1181,0.2817,0.9545,1.6223,1.9516,0.9275
15.583,-0.1085,0.2796,0.9452,1.5912,1.9540,0.8987
15.586,-0.0946,0.2769,0.9345,1.5361,1.9708,0.8796
15.589,-0.0776,0.2735,0.9249,1.4858,2.0067,0.8197
15.592,-0.0507,0.2655,0.9151,1.4044,2.0402,0.7503
15.595,-0.0280,0.2561,0.9108,1.3445,2.0641,0.6928
15.598,-0.0043,0.2449,0.9081,1.2751,2.0929,0.5851
15.602,0.0213,0.2324,0.9068,1.2057,2.1072,0.4414
15.605,0.0477,0.2204,0.9073,1.1482,2.1192,0.3122
15.608,0.0743,0.2076,0.9105,1.0908,2.1336,0.1493
15.611,0.1004,0.1949,0.9137,1.0165,2.1599,-0.0063
15.614,0.1249,0.1818,0.9172,0.9447,2.1934,-0.1691
15.617,0.1465,0.1685,0.9212,0.8992,2.2246,-0.3271
15.620,0.1644,0.1557,0.9257,0.8729,2.2724,-0.4875
15.623,0.1785,0.1432,0.9292,0.8537,2.3131,-0.6216
15.626,0.1902,0.1237,0.9329,0.8154,2.3610,-0.8012
15.629,0.1945,0.1093,0.9335,0.7939,2.3969,-0.9328
15.632,0.1939,0.0949,0.9316,0.7604,2.4424,-1.0549
15.636,0.1897,0.0811,0.9276,0.7460,2.4831,-1.1699
15.639,0.1817,0.0678,0.9217,0.7388,2.5143,-1.2153
15.642,0.1694,0.0571,0.9148,0.7580,2.5574,-1.2537
15.645,0.1534,0.0475,0.9076,0.7532,2.5981,-1.2369
15.648,0.1321,0.0406,0.8983,0.7412,2.6579,-1.2058
15.651,0.1057,0.0374,0.8874,0.7316,2.6986,-1.1316
15.654,0.0762,0.0334,0.8754,0.6909,2.7321,-1.0334
15.657,0.0322,0.0294,0.8575,0.6287,2.7992,-0.8778
15.660,-0.0006,0.0259,0.8434,0.5760,2.8255,-0.7557
15.663,-0.0333,0.0225,0.8317,0.5209,2.8566,-0.6503
15.667,-0.0640,0.0203,0.8245,0.5066,2.9045,-0.5378
15.670,-0.0917,0.0182,0.8205,0.5018,2.9285,-0.4061
15.673,-0.1149,0.0169,0.8186,0.4922,2.9572,-0.2816
15.676,-0.1341,0.0155,0.8186,0.4587,2.9715,-0.1523
15.679,-0.1490,0.0145,0.8191,0.4419,2.9787,-0.0254
15.682,-0.1586,0.0131,0.8194,0.4395,2.9931,0.1039
15.685,-0.1631,0.0107,0.8202,0.4252,3.0051,0.2667
15.688,-0.1613,0.0094,0.8223,0.4252,3.0051,0.3433
15.691,-0.1541,0.0078,0.8258,0.4252,2.9931,0.4127
15.694,-0.1431,0.0067,0.8314,0.3988,2.9763,0.4271
15.698,-0.1279,0.0049,0.8383,0.3533,2.9500,0.4223
15.701,-0.1098,0.0059,0.8447,0.2696,2.9189,0.3720
15.704,-0.0896,0.0091,0.8506,0.1953,2.8949,0.3169
15.707,-0.0693,0.0150,0.8538,0.1379,2.8710,0.2643
15.710,-0.0491,0.0243,0.8540,0.1163,2.8351,0.2284
15.713,-0.0318,0.0350,0.8530,0.0996,2.8231,0.1972
15.716,-0.0139,0.0491,0.8484,0.0924,2.8183,0.2044
15.719,-0.0056,0.0595,0.8447,0.0996,2.8303,0.2188
15.722,-0.0006,0.0664,0.8429,0.1163,2.8375,0.2619
15.726,0.0002,0.0701,0.8418,0.1235,2.8542,0.2786
