time,gyro x,gyro y,gyro z,accel x,accel y,accel z
86.111324,0.608467102,35.057628632,3.961059570,-0.039812256,-0.033468992,0.969502449
86.112090,0.608467102,35.057628632,3.961059570,-0.039812256,-0.033468992,0.969502449
86.112812,0.608467102,35.057628632,3.961059570,-0.039812256,-0.033468992,0.969502449
86.113549,0.608467102,35.057628632,3.961059570,-0.039812256,-0.033468992,0.969502449
86.114276,0.608467102,35.057628632,3.961059570,-0.039812256,-0.033468992,0.969502449
86.115013,0.608467102,35.057628632,3.961059570,-0.039812256,-0.033468992,0.969502449
86.153384,2.882026672,27.725780487,-0.708129883,0.055402588,-0.135763913,1.048481941
86.167765,-0.123954773,23.827159882,0.031921387,0.067731686,-0.172507077,1.065205574
86.183168,-4.243827820,12.138927460,1.817199707,0.086530514,-0.159567624,1.037129402
86.221766,-1.375175476,-45.539295197,-5.461242676,0.112043209,-0.017477782,1.000020027
86.275086,-1.657463074,-50.422107697,-3.294494629,-0.095476322,-0.067038327,0.977559090
86.289356,4.423164368,-25.519763947,-2.699401855,-0.079363041,-0.045553952,1.033711433
86.304972,2.157234192,-13.228809357,-4.995849609,-0.071916752,-0.090842038,1.066060066
86.343479,-7.364250183,33.417308807,-3.202941895,-0.048113037,-0.107077390,1.046650887
86.381990,-9.035087585,43.556774139,3.732177734,0.117902584,-0.012839111,1.022603035
86.396222,-5.212760925,30.815685272,-3.325012207,0.143903568,-0.041403562,1.036030769
86.411690,-7.104850769,7.797801971,-2.714660645,0.115094967,-0.175925046,1.062886238
86.450238,-5.693412781,-17.692005157,-6.903198242,0.121076412,-0.066794187,1.034932137
86.488699,-8.546806335,-42.304431915,-11.106994629,0.018415283,-0.101706296,1.016621590
86.502932,-9.607292175,-36.269580841,-12.274291992,-0.016252685,-0.125876218,1.004658699
86.518576,-12.056327820,-10.924732208,-6.315734863,-0.057878662,-0.080466062,0.949849129
86.557075,-7.951713562,31.349742889,-4.866149902,0.040265869,-0.187399656,0.979268074
86.595580,-8.851982117,53.291881561,-3.119018555,-0.005388428,-0.103781492,0.939839363
86.609807,-7.822013855,64.018814087,0.833007812,0.057966065,-0.159323484,0.948994637
86.625399,-7.318473816,61.279857635,2.175781250,0.102887936,-0.163595945,0.952168465
86.664004,-7.501579285,12.466991425,-4.789855957,0.128888920,-0.151266843,0.969746590
86.702486,-5.189872742,-10.672962189,-4.744079590,0.060529541,-0.139548093,0.931782722
86.716870,-5.609489441,-20.430957794,-6.056335449,0.054181885,-0.146506101,0.927876472
86.747945,-1.611686707,-21.293079376,-9.329345703,-0.038103271,-0.122946531,0.918721199
86.786572,-2.962089539,7.675731659,-4.133728027,-0.016740967,-0.120138913,0.934468269
86.825079,0.898384094,5.539501190,-6.338623047,0.004743408,-0.077292234,0.958760262
86.839333,0.890754700,5.951488495,-6.468322754,-0.008928467,-0.123556882,0.972920418
86.854945,2.508186340,7.149303436,-5.857971191,0.011335205,0.057717532,1.009419441
86.893453,-0.146842957,-8.300220490,-5.514648438,0.065290280,0.030373780,1.075581551
86.932037,-0.131584167,-8.895313263,-6.315734863,-0.051775146,-0.134299070,1.111104012
86.946324,-5.800224304,5.982006073,-1.028564453,-0.044450928,-0.097922117,1.082661629
86.977773,-3.602958679,9.102428436,-0.242736816,0.005719971,-0.078512937,1.075703621
87.016315,-1.504875183,11.437023163,1.237365723,-0.066179447,-0.056418210,1.057881355
87.054801,-1.085258484,9.064281464,-2.317932129,-0.004167724,-0.188498288,1.079731941
87.069043,-5.090690613,7.599437714,-1.333740234,-0.009294678,-0.200827390,1.076191902
87.084482,-8.272148132,8.560741425,-2.974060059,-0.032365967,-0.084860593,1.021992683
87.123022,-7.822013855,10.399425507,0.192138672,0.017804932,-0.017966064,0.969990730
87.161511,-7.936454773,-1.548206329,1.183959961,0.025617432,-0.143088132,0.949116707
87.175743,-5.128837585,-1.944934845,2.915832520,-0.018816162,-0.096457273,0.904683113
87.191346,-2.618766785,-1.754199982,4.006835938,-0.035173584,-0.065695554,0.909687996
87.192212,-2.618766785,-1.754199982,4.006835938,-0.035173584,-0.065695554,0.909687996
87.193002,-1.153923035,-2.379810333,2.557250977,-0.048357178,-0.066672117,0.921284676
87.193751,-1.153923035,-2.379810333,2.557250977,-0.048357178,-0.066672117,0.921284676
87.194479,-1.153923035,-2.379810333,2.557250977,-0.048357178,-0.066672117,0.921284676
87.195211,-1.153923035,-2.379810333,2.557250977,-0.048357178,-0.066672117,0.921284676
87.195940,-1.153923035,-2.379810333,2.557250977,-0.048357178,-0.066672117,0.921284676
87.196671,-1.153923035,-2.379810333,2.557250977,-0.048357178,-0.066672117,0.921284676
87.197394,-1.153923035,-2.379810333,2.557250977,-0.048357178,-0.066672117,0.921284676
87.198125,-1.153923035,-2.379810333,2.557250977,-0.048357178,-0.066672117,0.921284676
87.198844,-1.153923035,-2.379810333,2.557250977,-0.048357178,-0.066672117,0.921284676
87.199575,-1.153923035,-2.379810333,2.557250977,-0.048357178,-0.066672117,0.921284676
87.237974,-1.672721863,0.206554413,1.222106934,-0.079729252,-0.178732663,0.939717293
87.276433,-6.853080750,12.985790253,1.176330566,-0.071428470,-0.134176999,0.933003426
87.290668,-4.526115417,13.084972382,0.070068359,-0.057268310,-0.132468015,0.915547371
87.306305,-2.786613464,8.644664764,0.031921387,-0.022356201,-0.089133054,0.909077644
87.344619,-3.358818054,1.244152069,1.527282715,-0.036150146,-0.191916257,0.949116707
87.345457,-3.358818054,1.244152069,1.527282715,-0.036150146,-0.191916257,0.949116707
87.346190,-3.358818054,1.244152069,1.527282715,-0.036150146,-0.191916257,0.949116707
87.346911,-3.358818054,1.244152069,1.527282715,-0.036150146,-0.191916257,0.949116707
87.347620,-3.358818054,1.244152069,1.527282715,-0.036150146,-0.191916257,0.949116707
87.348336,-3.358818054,1.244152069,1.527282715,-0.036150146,-0.191916257,0.949116707
87.349175,-3.358818054,1.244152069,1.527282715,-0.036150146,-0.191916257,0.949116707
87.349836,-3.358818054,1.244152069,1.527282715,-0.036150146,-0.191916257,0.949116707
87.350537,-3.358818054,1.244152069,1.527282715,-0.036150146,-0.191916257,0.949116707
87.351259,-3.358818054,1.244152069,1.527282715,-0.036150146,-0.191916257,0.949116707
87.351967,-2.969718933,0.328624725,1.756164551,-0.023332763,-0.119894773,0.944722176
87.352689,-2.969718933,0.328624725,1.756164551,-0.023332763,-0.119894773,0.944722176
87.391046,-2.572990417,-6.408130646,2.183410645,0.028669190,-0.193136960,0.991475105
87.405271,-3.587699890,-12.740528107,5.799743652,0.063459225,-0.129050046,1.036763191
87.420766,-2.977348328,-16.974842072,6.028625488,0.056135010,-0.213766843,1.032368660
87.459306,-2.695060730,-27.038013458,9.522888184,0.035749268,-0.117697507,1.063496590
87.513862,-10.354972839,-11.329090118,12.925598145,-0.040788818,-0.024802001,1.092549324
87.528293,-5.212760925,-8.422290802,14.138671875,-0.034563232,0.002541749,1.075093269
87.543685,2.363227844,-13.091480255,12.032958984,0.011823487,0.149270266,1.035420418
87.582224,0.349067688,5.852306366,12.284729004,-0.066667728,-0.061911374,1.084004402
87.620686,1.104377747,11.658275604,12.528869629,-0.026384521,-0.053122312,1.059102058
87.634943,-1.344657898,8.308971405,10.514709473,-0.001726318,-0.127218992,1.061543465
87.650533,-0.780082703,1.648509979,7.905456543,0.008527588,-0.085837156,1.014302254
87.689059,-2.840019226,-4.432117462,6.112548828,-0.003069092,-0.086325437,0.993916512
87.743895,-0.574089050,-12.336170197,0.306579590,-0.009538818,-0.133688718,0.919575691
87.758187,-1.535392761,-9.696399689,0.550720215,-0.016618896,-0.129904538,0.914204597
87.773791,-3.015495300,-0.571643829,0.573608398,-0.005022217,-0.195090085,0.887715340
87.812122,-2.374626160,10.819042206,3.900024414,0.060895752,-0.165304929,0.850972176
87.850612,-0.886894226,-1.220142365,2.061340332,0.093732662,-0.226828367,0.864277840
87.865002,-2.222038269,-5.690967560,1.809570312,0.100934811,-0.184103757,0.868794441
87.880499,-0.291801453,-16.272937775,0.718566895,0.139753178,-0.037497312,0.824727058
87.919071,3.232978821,-28.258716583,2.320739746,0.083478756,-0.176901609,0.905049324
87.957564,5.300544739,-35.468494415,6.532165527,0.122907467,-0.157004148,0.915059090
87.971790,5.704902649,-48.568164825,-0.280883789,0.159406498,-0.241843015,0.974873543
87.987381,5.155586243,-56.746875763,-1.913574219,0.178571537,-0.185202390,0.993428230
88.025860,1.791023254,-70.510299683,2.404663086,0.106061764,-0.121603757,1.012715340
88.064201,5.430244446,-36.704456329,0.146362305,-0.027483154,-0.104635984,1.052144051
88.078625,5.407356262,-3.585254669,2.053710938,-0.021989990,-0.110617429,1.085347176
88.094177,2.950691223,14.099681854,3.358337402,0.000104736,-0.129172117,1.092793465
88.132764,3.858589172,54.298961639,8.172485352,0.126813725,-0.087546140,1.095112801
88.171243,0.387214661,20.447338104,0.771972656,0.204694584,-0.109762937,1.121479988
88.185479,3.881477356,8.179271698,2.694580078,0.192365482,0.031838626,1.101338387
88.201145,5.224250793,-7.621204376,0.878784180,0.108136959,-0.073752195,1.100605965
88.239627,-0.810600281,-1.487171173,3.800842285,-0.000871826,-0.042135984,1.069966316
88.277939,1.737617493,3.563488007,0.977966309,-0.026750732,-0.145407468,0.995381355
88.292333,1.035713196,4.623973846,-4.095581055,-0.026628662,-0.109640867,0.994282722
88.307801,-0.917411804,11.765087128,-3.973510742,-0.020891357,-0.179343015,0.986348152
88.346374,-5.083061218,20.958507538,-5.949523926,0.056623291,-0.128195554,0.921406746
88.384841,-2.687431335,12.550914764,-8.101013184,0.093488522,-0.140890867,0.911641121
88.399079,-4.526115417,6.142223358,-10.496643066,0.112409420,-0.156027585,0.917378426
88.426494,-6.692863464,5.257213593,-7.124450684,0.135846928,-0.141257077,0.883809090
88.465039,-1.878715515,-0.358020782,-2.401855469,0.153180912,-0.164938718,0.906392097
88.503505,-1.382804871,-7.232105255,-4.316833496,0.098981686,-0.161154538,0.920796394
88.517743,0.654243469,-1.563465118,-2.127197266,0.095319577,-0.151633054,0.931660652
88.533362,2.347969055,3.456676483,-0.219848633,0.097394772,-0.180929929,0.954121590
88.571693,-1.794792175,11.307323456,4.266235352,0.169172123,-0.187643796,1.036519051
88.610181,6.078742981,-3.264820099,12.185546875,0.163312748,-0.199850827,1.098896980
88.624578,0.906013489,-18.180286407,8.515808105,0.133771732,-0.111471921,1.083149910
88.639999,4.224800110,-19.820606232,11.331054688,0.099836178,-0.045431882,1.071675301
88.678668,9.817146301,-3.234302521,15.115234375,0.002790283,-0.052145749,1.076191902
88.717184,8.588813782,7.805431366,9.461853027,0.031843018,-0.015158447,1.052021980
88.731428,9.878181458,6.943309784,7.531616211,0.038068604,0.022561280,1.049946785
88.747010,11.159919739,7.225597382,5.219909668,0.053083252,-0.001242431,1.060688972
88.785517,6.811164856,-2.875720978,4.304382324,0.084089108,0.009255616,1.046406746
88.835918,3.133796692,-9.284412384,-0.624206543,0.040876221,-0.096335202,1.014790535
88.850181,0.692390442,-5.675708771,-1.554992676,0.040754151,-0.106344968,0.998066902
88.865625,-1.146293640,3.548229218,-0.387695312,0.041608643,-0.081442624,0.970112801
88.904284,-6.563163757,20.195568085,0.947448730,0.082746334,-0.113058835,0.957783699
88.942795,-8.478141785,16.335094452,4.044982910,0.118024655,-0.116354734,0.935566902
88.957197,-8.256889343,12.512767792,2.412292480,0.116071530,-0.132956296,0.935933113
88.972597,-7.722831726,7.187450409,3.694030762,0.106916256,-0.190329343,0.955952644
89.011138,-11.430717468,-2.051746368,5.769226074,0.082990475,-0.065451413,0.943989754
89.049622,-6.113029480,-4.104053497,1.725646973,0.038678955,-0.107077390,0.967427254
89.063860,-9.271598816,3.967845917,2.999755859,0.041486572,-0.157370359,0.979146004
89.091631,-10.637260437,14.450634003,7.623168945,0.049299072,-0.061423093,0.960835457
89.130198,-3.290153503,17.410839081,5.372497559,0.049177002,-0.095968992,1.007832527
89.168690,-4.190422058,9.384716034,6.852600098,0.091169186,-0.086691648,0.998677254
89.182939,1.989387512,-3.478443146,5.799743652,0.045514893,-0.061667234,0.994404793
89.198390,5.552314758,-9.864246368,2.976867676,0.019635987,0.008034913,1.008564949
89.236989,8.634590149,-12.015735626,2.297851562,-0.016496826,-0.051291257,1.044575691
89.275624,7.940315247,-8.231555939,4.403564453,-0.086198978,0.015114991,1.045796394
89.289881,4.911445618,-8.780872345,0.085327148,-0.118669681,0.035256594,1.008687019
89.305484,5.941413879,-7.117664337,0.359985352,-0.129778072,0.028908936,0.981587410
89.343998,6.231330872,8.041942596,-4.431274414,-0.144670650,-0.069113523,0.923970222
89.382505,7.009529114,21.790111542,-7.376220703,-0.069231205,-0.131857663,0.922261238
89.396751,6.391548157,18.295848846,-10.389831543,-0.040056396,-0.141012937,0.920918465
89.412211,5.445503235,8.888805389,-13.876464844,-0.010393310,-0.126974851,0.890156746
89.450775,7.329963684,4.494274139,-12.419250488,0.027936768,-0.176535398,0.928608894
89.489286,1.241706848,0.252330780,-13.281372070,0.046247315,-0.117209226,0.911519051
89.503684,2.752326965,-0.098621368,-13.372924805,0.048200440,-0.092306882,0.906636238
89.519095,5.285285950,3.059947968,-12.548950195,0.069074459,-0.133810788,0.941792488
89.519927,5.285285950,3.059947968,-12.548950195,0.069074459,-0.133810788,0.941792488
89.520680,5.285285950,3.059947968,-12.548950195,0.069074459,-0.133810788,0.941792488
89.521417,5.285285950,3.059947968,-12.548950195,0.069074459,-0.133810788,0.941792488
89.559830,-0.886894226,14.633739471,-3.080871582,0.113019772,-0.158957273,0.992329597
89.598331,3.988288879,15.007579803,2.030822754,0.134748295,-0.122458249,1.099751472
89.612569,2.607368469,11.704051971,4.319641113,0.151838139,-0.158957273,1.148823738
89.628017,-4.793144226,-1.861011505,8.866760254,0.141950443,-0.115988523,1.173604012
89.666528,-0.284172058,-27.594959259,5.601379395,0.028791260,0.038308352,1.109517097
89.717378,-2.679801941,3.464305878,9.705993652,-0.083147220,-0.010031493,1.106465340
89.731656,-1.016593933,11.032665253,9.408447266,-0.083757572,0.045998782,1.087910652
89.747097,4.766487122,17.548168182,4.258605957,-0.058366943,0.049905032,1.087056160
89.785635,4.491828918,18.028820038,0.329467773,0.009748291,-0.057760984,1.120381355
89.824131,-2.695060730,14.725292206,4.319641113,0.046491455,-0.030051025,1.080342293
89.838353,-2.061820984,6.401622772,2.717468262,0.047345947,0.047707766,1.042744637
89.853968,-1.054740906,1.480663300,0.665161133,0.045759033,0.028664796,1.027974129
89.892477,-3.404594421,-1.037036896,0.466796875,0.008283447,-0.077170163,0.995625496
89.930996,-6.502128601,9.163463593,3.533813477,0.022931885,-0.129416257,0.935933113
89.945227,-7.059074402,9.026134491,3.137084961,0.030134033,-0.152487546,0.929829597
89.960686,-8.928276062,7.164562225,4.479858398,0.035260987,-0.155539304,0.916768074
89.999244,-9.302116394,-4.928028107,4.617187500,0.002668213,-0.143576413,0.914937019
90.037725,-9.271598816,-5.500232697,0.291320801,-0.031633545,-0.169211179,0.906880379
90.052098,-9.370780945,-0.281726837,1.924011230,-0.031389404,-0.181906492,0.910298347
90.081221,-10.316825867,8.583629608,3.770324707,-0.014665771,-0.122946531,0.918599129
90.119843,-5.990959167,-0.770008087,-2.378967285,-0.011369873,-0.151755124,0.954609871
90.158387,-5.525566101,7.401073456,0.573608398,-0.031877685,-0.080099851,1.003926277
90.172623,-4.358268738,8.377635956,1.023742676,-0.023943115,-0.077536374,1.016865730
90.188240,-3.252006531,4.227245331,0.085327148,-0.006487060,-0.100241452,1.035908699
90.226782,1.256965637,-0.991260529,-3.340270996,-0.039934326,-0.133322507,1.019307137
90.265265,4.240058899,11.864269257,5.792114258,0.004987549,-0.129416257,1.052021980
90.279527,3.690742493,6.973827362,5.891296387,0.016706299,-0.129538327,1.047139168
90.295006,5.956672668,-10.856067657,0.878784180,-0.006853271,-0.077170163,1.031758308
90.333570,4.179023743,-18.973743439,0.886413574,-0.123186283,-0.076926023,0.999775887
90.385976,1.813911438,5.112255096,-0.113037109,-0.173601314,-0.095846921,0.910786629
90.400419,2.553962708,7.492626190,-1.493957520,-0.159197018,-0.104391843,0.895527840
90.415813,2.645515442,10.391796112,-3.241088867,-0.130266353,-0.120871335,0.869038582
90.454363,7.307075500,6.790721893,-7.864501953,-0.091692142,-0.086203367,0.834614754
90.492844,7.047676086,6.844127655,-12.716796875,-0.055559326,-0.181784421,0.897358894
90.507107,5.010627747,9.743297577,-11.465576172,-0.038103271,-0.189718992,0.898701668
90.522702,3.835700989,13.016307831,-8.490112305,0.006086182,-0.159201413,0.899800301
90.561185,4.903816223,4.555309296,-7.711914062,0.046369385,-0.126730710,0.943745613
90.599642,3.088020325,-8.170520782,-6.422546387,0.043561768,-0.132956296,0.995869637
90.614105,1.852058411,-4.287158966,-2.050903320,0.027570557,-0.098776609,1.011372566
90.629590,2.943061829,-1.197254181,-0.219848633,0.021955322,-0.094137937,1.027119637
90.668163,2.149604797,-0.777637482,4.975769043,0.031843018,-0.082297117,1.155293465
90.706640,-2.099967957,-14.075672150,7.356140137,0.034894776,-0.030783447,1.136860847
90.720881,1.180671692,-19.530689240,6.722900391,0.013410401,-0.084860593,1.130513191
90.736522,1.539253235,-20.339405060,7.462951660,-0.004900146,-0.115378171,1.139668465
90.775013,-0.413871765,-8.185779572,3.961059570,-0.056047607,0.007424561,1.071064949
90.813504,6.185554504,9.537303925,4.723999023,-0.000383545,-0.054220945,1.088887215
90.827738,4.545234680,9.789073944,4.662963867,0.014020752,-0.077902585,1.096943855
90.843210,-0.383354187,6.180370331,4.647705078,0.025739502,-0.077292234,1.070088387
90.844054,-0.383354187,6.180370331,4.647705078,0.025739502,-0.077292234,1.070088387
90.844797,-0.383354187,6.180370331,4.647705078,0.025739502,-0.077292234,1.070088387
90.845545,-0.383354187,6.180370331,4.647705078,0.025739502,-0.077292234,1.070088387
90.846278,-0.383354187,6.180370331,4.647705078,0.025739502,-0.077292234,1.070088387
90.847022,-0.383354187,6.180370331,4.647705078,0.025739502,-0.077292234,1.070088387
90.847747,-0.383354187,6.180370331,4.647705078,0.025739502,-0.077292234,1.070088387
90.886198,1.768135071,-8.056079865,0.405761719,0.002424072,0.023171632,0.992207527
90.924661,2.653144836,-10.657703400,-2.836730957,-0.023821045,-0.062155515,0.935811043
90.939076,2.050422668,-2.143299103,-2.943542480,-0.025530029,-0.135031492,0.911885262
90.954491,1.028083801,3.082836151,-2.890136719,-0.013200928,-0.156882077,0.902607918
90.993026,-1.924491882,15.808666229,1.679870605,0.073224850,-0.174093992,0.891743660
91.048956,-3.419853210,-10.390674591,0.779602051,0.066388912,-0.125754148,0.917622566
91.063238,-4.259086609,-12.565052032,1.168701172,0.052961182,-0.133078367,0.923237801
91.078809,-7.104850769,-11.695301056,1.901123047,0.029767822,-0.143088132,0.915425301
91.117304,-4.304862976,-6.019031525,3.663513184,0.012189697,-0.072653562,0.906636238
91.155772,-2.222038269,-3.646289825,-1.585510254,-0.005022217,-0.135275632,0.977559090
91.170013,-2.389884949,1.793468475,-0.929382324,-0.012468506,-0.090231687,0.995259285
91.185434,-1.291252136,5.318248749,-0.723388672,-0.015031982,-0.080343992,1.008320808
91.223981,-1.573539734,10.155284882,0.565979004,0.022443604,-0.168112546,1.105610847
91.277309,5.743049622,-7.178699493,0.115844727,-0.019914795,0.008645264,1.069966316
91.291720,6.559394836,-7.064258575,0.039550781,-0.024919678,-0.020407470,1.078267097
91.307128,6.795906067,-5.858814240,-0.235107422,-0.041032959,-0.005881103,1.075215340
91.345636,9.534858704,-4.920398712,-0.387695312,-0.066545658,0.022927491,1.067524910
91.384232,8.108161926,-1.075183868,0.520202637,-0.087663822,-0.065817624,1.052388191
91.398534,6.574653625,-0.914966583,0.047180176,-0.090959720,-0.076926023,1.006123543
91.414146,6.963752747,-1.342212677,-0.624206543,-0.097795658,-0.074118406,0.988057137
91.452635,5.079292297,0.450695038,-7.620361328,-0.100114994,-0.123923093,0.964497566
91.491117,2.050422668,15.389049530,-6.804016113,-0.034197021,-0.117087156,0.921772957
91.505352,2.027534485,16.541088104,-6.918457031,-0.016985107,-0.129416257,0.938618660
91.520821,-1.390434265,11.894786835,-8.093383789,0.016218018,-0.133200437,0.971333504
91.559401,-6.372428894,-1.098072052,-8.001831055,0.051130127,-0.088400632,0.928486824
91.560162,-6.372428894,-1.098072052,-8.001831055,0.051130127,-0.088400632,0.928486824
91.560874,-6.372428894,-1.098072052,-8.001831055,0.051130127,-0.088400632,0.928486824
91.561603,-6.372428894,-1.098072052,-8.001831055,0.051130127,-0.088400632,0.928486824
91.562316,-6.372428894,-1.098072052,-8.001831055,0.051130127,-0.088400632,0.928486824
91.563043,-6.372428894,-1.098072052,-8.001831055,0.051130127,-0.088400632,0.928486824
91.563746,-6.372428894,-1.098072052,-8.001831055,0.051130127,-0.088400632,0.928486824
91.564482,-6.372428894,-1.098072052,-8.001831055,0.051130127,-0.088400632,0.928486824
91.602835,-6.776786804,-2.906238556,-4.179504395,0.045636963,-0.151877195,0.960591316
91.617221,-8.348442078,-1.952564240,-3.706481934,0.054670166,-0.156515867,0.963398933
91.632645,-8.302665710,-1.410877228,-1.699951172,0.059064697,-0.148459226,0.963398933
91.671198,-7.112480164,-2.997791290,3.671142578,0.042707276,-0.102316648,1.018940926
91.709664,-5.563713074,-15.815174103,2.488586426,-0.014055420,0.036111087,1.013813972
91.723929,-1.825309753,-17.188465118,1.214477539,-0.028459717,0.010232178,1.006245613
91.755317,1.455329895,-1.120960236,5.624267578,-0.068620853,-0.117331296,1.072041512
91.793866,5.094551086,5.264842987,-1.348999023,-0.051164795,0.052468508,1.051777840
91.832371,6.498359680,9.468639374,-3.508117676,-0.033464599,-0.045920163,1.094014168
91.846599,0.837348938,17.189586639,-1.066711426,-0.005998779,-0.043844968,1.101216316
91.862086,-1.321769714,19.119823456,1.069519043,0.012189697,0.016457764,1.088154793
91.900646,3.484748840,-2.974903107,-3.538635254,0.036115479,0.108254641,1.012227058
91.939111,3.095649719,-11.176502228,-6.559875488,0.004987549,-0.061667234,0.953022957
91.953486,2.607368469,2.602184296,-3.256347656,-0.006242920,-0.066672117,0.925923347
91.968906,1.935981750,9.491527557,-2.493408203,0.005353760,-0.077170163,0.914692879
92.007452,3.034614563,20.271862030,1.878234863,0.100568600,-0.069845945,0.885029793
92.045960,1.668952942,5.806529999,5.601379395,0.123884030,-0.117209226,0.923848152
92.060179,1.112007141,-0.853931427,5.486938477,0.110334225,-0.100973874,0.925557137
92.075628,0.547431946,-12.282764435,4.716369629,0.083478756,-0.114401609,0.930195808
92.114171,-3.015495300,-15.166675568,6.570312500,0.012677979,-0.103537351,0.955708504
92.152651,-3.114677429,-5.759632111,8.157226562,-0.036150146,-0.007223876,0.970845222
92.167125,-2.328849792,-4.706775665,7.447692871,-0.043596435,-0.021750243,0.993916512
92.182577,-2.801872253,-4.043018341,6.379577637,-0.065935306,-0.002341064,1.041646004
92.221097,-4.281974792,-0.152027130,2.061340332,-0.094865970,-0.063986570,1.082417488
92.221875,-4.281974792,-0.152027130,2.061340332,-0.094865970,-0.063986570,1.082417488
92.222582,-4.281974792,-0.152027130,2.061340332,-0.094865970,-0.063986570,1.082417488
92.223313,-4.281974792,-0.152027130,2.061340332,-0.094865970,-0.063986570,1.082417488
92.224010,-4.281974792,-0.152027130,2.061340332,-0.094865970,-0.063986570,1.082417488
92.224731,-4.281974792,-0.152027130,2.061340332,-0.094865970,-0.063986570,1.082417488
92.295102,0.028633118,6.706798553,-1.448181152,-0.085710697,-0.000510009,1.058979988
92.310620,2.096199036,6.355846405,-2.180603027,-0.065080814,0.022195069,1.039082527
92.324905,3.988288879,5.035961151,-2.241638184,-0.057024170,0.022683350,1.030659676
92.363402,7.665657043,-1.639759064,-3.325012207,-0.080095463,-0.044943601,1.063984871
92.401889,3.141426086,-3.936206818,-2.378967285,-0.077287845,-0.019064697,1.024922371
92.416124,3.980659485,-5.294239044,-1.974609375,-0.078630619,-0.012472900,1.015522957
92.431719,3.469490051,-9.383594513,-3.050354004,-0.095720463,-0.025046142,1.014546394
92.486618,2.286933899,-3.623401642,-9.161499023,-0.101701908,-0.048483640,0.918965340
92.525171,-0.047660828,11.292064667,-7.902648926,-0.036028076,-0.139670163,0.936909676
92.539390,-2.954460144,11.253917694,-8.680847168,0.003522705,-0.089865476,0.927876472
92.554984,-2.527214050,9.399974823,-8.032348633,0.021467041,-0.063376218,0.920186043
92.593489,-0.627494812,-2.868091583,-6.903198242,0.062604733,-0.082663327,0.928853035
92.631998,-2.496696472,-12.130176544,-5.102661133,0.030500244,-0.077902585,0.942158699
92.646222,-1.985527039,-12.572681427,-5.018737793,0.023176026,-0.076071531,0.943501472
92.661666,-1.283622742,-9.848987579,-3.744628906,0.013654541,-0.066061765,0.958027840
92.662479,-1.283622742,-9.848987579,-3.744628906,0.013654541,-0.066061765,0.958027840
92.663210,-1.283622742,-9.848987579,-3.744628906,0.013654541,-0.066061765,0.958027840
92.663934,-1.283622742,-9.848987579,-3.744628906,0.013654541,-0.066061765,0.958027840
92.664636,-1.283622742,-9.848987579,-3.744628906,0.013654541,-0.066061765,0.958027840
92.665353,-1.283622742,-9.848987579,-3.744628906,0.013654541,-0.066061765,0.958027840
92.666066,-1.283622742,-9.848987579,-3.744628906,0.013654541,-0.066061765,0.958027840
92.666778,-1.283622742,-9.848987579,-3.744628906,0.013654541,-0.066061765,0.958027840
92.667495,-1.283622742,-9.848987579,-3.744628906,0.013654541,-0.066061765,0.958027840
92.668206,-0.825859070,-7.163440704,-2.615478516,0.015119385,-0.068259031,0.975728035
92.668925,-0.825859070,-7.163440704,-2.615478516,0.015119385,-0.068259031,0.975728035
92.669638,-0.825859070,-7.163440704,-2.615478516,0.015119385,-0.068259031,0.975728035
92.670359,-0.825859070,-7.163440704,-2.615478516,0.015119385,-0.068259031,0.975728035
92.671206,-0.825859070,-7.163440704,-2.615478516,0.015119385,-0.068259031,0.975728035
92.671893,-0.825859070,-7.163440704,-2.615478516,0.015119385,-0.068259031,0.975728035
92.710129,-2.710319519,-1.670276642,2.480957031,0.022077393,-0.021139892,1.028828621
92.748617,0.234626770,-9.276782990,-1.417663574,-0.008073974,-0.019186767,1.040059090
92.762998,1.226448059,-8.239185333,-2.127197266,-0.013445068,-0.063010007,1.045308113
92.778421,0.822090149,-0.098621368,0.504943848,-0.017717529,-0.124655515,1.067769051
92.816968,-1.153923035,13.214672089,3.838989258,-0.000261475,0.006447999,1.053975105
92.855465,7.047676086,4.608715057,-0.273254395,0.022931885,0.063943118,1.047871590
92.869707,8.077644348,1.198375702,-1.997497559,0.018903565,-0.003683837,1.055195808
92.885350,7.360481262,3.075206757,-1.226928711,0.015973877,-0.035910398,1.055928230
92.923670,6.719612122,10.620677948,2.610656738,0.026471924,0.060525149,1.020527840
92.962179,7.596992493,0.900829315,-4.057434082,0.037214112,-0.018454345,1.019429207
92.976558,5.491279602,5.264842987,-2.104309082,0.050397705,-0.068869382,1.004902840
92.991996,4.194282532,8.576000214,-0.471618652,0.059064697,-0.079489499,0.997212410
92.992817,4.194282532,8.576000214,-0.471618652,0.059064697,-0.079489499,0.997212410
92.993535,4.194282532,8.576000214,-0.471618652,0.059064697,-0.079489499,0.997212410
92.994271,4.194282532,8.576000214,-0.471618652,0.059064697,-0.079489499,0.997212410
92.994982,4.194282532,8.576000214,-0.471618652,0.059064697,-0.079489499,0.997212410
92.995706,4.194282532,8.576000214,-0.471618652,0.059064697,-0.079489499,0.997212410
92.996420,3.103279114,11.406505585,1.336547852,0.070783444,-0.086081296,0.990742683
92.997157,3.103279114,11.406505585,1.336547852,0.070783444,-0.086081296,0.990742683
93.047460,-1.100517273,7.362926483,6.097290039,0.113752194,-0.054343015,0.950215340
93.085993,-1.726127625,-9.841358185,7.157775879,0.096784420,-0.056051999,0.930806160
93.100354,-2.130485535,-12.473499298,7.539245605,0.085798092,-0.052634031,0.927266121
93.115788,-1.649833679,-13.434803009,9.316894531,0.061017822,-0.060690671,0.933613777
93.166305,-2.672172546,-10.238086700,11.125061035,-0.002702881,-0.063986570,0.957783699
93.204837,-3.633476257,-11.718189240,6.638977051,-0.043596435,-0.122458249,0.985249519
93.219223,-4.556632996,-10.795032501,5.540344238,-0.049577881,-0.129904538,0.989888191
93.234657,-4.945732117,-7.422840118,5.860778809,-0.058122803,-0.115988523,1.005024910
93.273187,-7.150627136,-5.332386017,3.915283203,-0.089739017,-0.053610593,1.040791512
93.311677,-5.983329773,-4.432117462,-2.356079102,-0.083269291,-0.064352781,1.020039558
93.325923,-3.076530457,0.313365936,-2.752807617,-0.061418701,-0.090353757,1.012349129
93.341401,-2.145744324,3.182018280,-1.806762695,-0.052873779,-0.102804929,1.015522957
93.379975,2.416633606,4.143321991,-3.798034668,-0.006242920,0.000100343,1.014424324
93.380755,2.416633606,4.143321991,-3.798034668,-0.006242920,0.000100343,1.014424324
93.381442,2.416633606,4.143321991,-3.798034668,-0.006242920,0.000100343,1.014424324
93.419862,8.001350403,-2.295886993,-5.369689941,0.020490479,-0.011252197,1.025654793
93.434247,8.199714661,-2.059375763,-3.332641602,0.026349854,-0.009787353,1.019917488
93.449663,8.955024719,-1.861011505,-2.043273926,0.023542237,-0.000143798,1.019307137
93.488180,8.863471985,-7.193958282,-1.509216309,-0.020769287,-0.000265868,1.054463387
93.526668,6.711982727,-4.264270782,-2.905395508,-0.037614990,-0.047140867,1.032246590
93.540919,5.506538391,-1.128589630,-2.523925781,-0.034074951,-0.070944577,1.026875496
93.556399,3.026985168,3.647411346,-1.997497559,-0.020403076,-0.061667234,1.013691902
93.594971,0.669502258,3.990734100,-4.042175293,0.000715088,-0.055441648,0.999531746
93.633481,-4.960990906,1.907909393,-2.447631836,0.026105713,-0.096701413,0.998188972
93.647871,-5.990959167,-0.296985626,-2.317932129,0.026471924,-0.085104734,0.987202644
93.663295,-6.357170105,-5.347644806,-2.913024902,0.026716065,-0.075949460,0.968403816
93.664111,-6.357170105,-5.347644806,-2.913024902,0.026716065,-0.075949460,0.968403816
93.664848,-6.357170105,-5.347644806,-2.913024902,0.026716065,-0.075949460,0.968403816
93.665589,-6.357170105,-5.347644806,-2.913024902,0.026716065,-0.075949460,0.968403816
93.666297,-6.357170105,-5.347644806,-2.913024902,0.026716065,-0.075949460,0.968403816
93.667035,-6.357170105,-5.347644806,-2.913024902,0.026716065,-0.075949460,0.968403816
93.705421,-6.799674988,-8.391773224,-1.814392090,0.001569580,-0.073263913,0.938862801
93.706213,-6.799674988,-8.391773224,-1.814392090,0.001569580,-0.073263913,0.938862801
93.706934,-6.799674988,-8.391773224,-1.814392090,0.001569580,-0.073263913,0.938862801
93.707666,-6.799674988,-8.391773224,-1.814392090,0.001569580,-0.073263913,0.938862801
93.708363,-6.799674988,-8.391773224,-1.814392090,0.001569580,-0.073263913,0.938862801
93.709092,-6.799674988,-8.391773224,-1.814392090,0.001569580,-0.073263913,0.938862801
93.709783,-6.799674988,-8.391773224,-1.814392090,0.001569580,-0.073263913,0.938862801
93.710523,-6.799674988,-8.391773224,-1.814392090,0.001569580,-0.073263913,0.938862801
93.711220,-6.799674988,-8.391773224,-1.814392090,0.001569580,-0.073263913,0.938862801
93.711962,-6.654716492,-7.102405548,-1.455810547,-0.004900146,-0.079001218,0.936177254
93.750344,-5.876518250,-1.540576935,-1.669433594,-0.004900146,-0.091330320,0.934224129
93.778244,-4.098869324,5.531871796,-1.448181152,0.010236572,-0.112448484,0.954365730
93.792528,-4.594779968,9.232128143,-0.593688965,0.043561768,-0.163107663,0.993550301
93.830951,-6.532646179,2.693737030,7.226440430,0.061506104,-0.063376218,1.036396980
93.869437,-4.663444519,-19.149219513,2.656433105,0.013898682,-0.032980710,1.031758308
93.883671,-1.749015808,-24.733936310,-0.853088379,-0.031389404,-0.082663327,1.016011238
93.911783,-1.558280945,-7.277881622,2.053710938,-0.059465576,-0.112936765,1.016255379
93.950450,2.820991516,12.260997772,1.603576660,-0.011491943,0.029397218,0.993672371
93.988937,8.367561340,5.676830292,-2.615478516,0.013166260,0.016457764,1.015767097
94.003159,7.642768860,3.403270721,-3.714111328,0.017927002,-0.042380124,1.029072762
94.018620,6.948493958,4.662120819,-2.966430664,0.022199463,-0.058859617,1.027241707
94.057217,3.286384583,6.043041229,-0.097778320,0.039045166,0.005837647,1.002339363
94.095697,6.193183899,-0.663196564,-5.613830566,0.040754151,0.016579835,0.963398933
94.110073,5.453132629,4.372203827,-4.683044434,0.050885987,-0.038229734,0.954487801
94.125477,4.575752258,8.476818085,-3.531005859,0.061750244,-0.062277585,0.947529793
94.164024,2.958320618,15.060985565,2.496215820,0.118879147,-0.053854734,0.919697762
94.202529,2.103828430,-1.136219025,3.442260742,0.126203373,-0.091452390,0.943745613
94.216762,1.264595032,-4.256641388,4.693481445,0.110944577,-0.100241452,0.943013191
94.232223,-0.482536316,-9.505664825,6.516906738,0.082258053,-0.089865476,0.934224129
94.270791,1.646064758,-16.929065704,3.961059570,0.007917237,-0.053366452,0.940449715
94.309294,-0.162101746,-6.575977325,3.350708008,-0.026994873,-0.094382077,0.957905769
94.323663,-0.810600281,-2.768909454,3.495666504,-0.023576904,-0.101462156,0.958149910
94.339078,0.089668274,2.846324921,2.595397949,-0.006853271,-0.089377195,0.969868660
94.377595,-2.305961609,2.228343964,2.206298828,0.004499268,-0.081442624,1.038716316
94.429887,-0.497795105,-3.348743439,-2.371337891,-0.029680420,-0.005026611,1.056782722
94.444166,-0.101066589,-1.342212677,-2.493408203,-0.030901123,-0.017843993,1.062153816
94.459756,0.967048645,4.761302948,-1.753356934,-0.021257568,-0.014670165,1.074971199
94.498244,4.377388000,5.661571503,-2.928283691,0.023542237,0.015969483,1.096211433
94.536749,4.591011047,2.762401581,-0.410583496,0.053815674,-0.058737546,1.073506355
94.550981,5.079292297,1.923168182,0.100585938,0.051496338,-0.058371335,1.068379402
94.566546,6.124519348,-1.586353302,0.047180176,0.044538330,-0.072775632,1.072407722
94.605106,3.530525208,-10.871326447,-0.868347168,0.011213135,-0.004538329,1.070210457
94.643596,3.240608215,-10.619556427,-2.562072754,-0.042619873,0.026589600,1.031147957
94.657977,2.828620911,-4.073535919,-1.753356934,-0.044695068,-0.039572507,1.012227058
94.673374,1.768135071,-0.678455353,-1.616027832,-0.041521240,-0.073752195,1.005879402
94.711912,-1.527763367,6.111705780,-3.416564941,0.005842041,-0.070212156,0.969014168
94.750406,-2.824760437,1.770580292,-3.805664062,0.054181885,-0.069601804,0.944844246
94.764730,-2.923942566,1.022899628,-3.378417969,0.056012940,-0.060568601,0.939839363
94.780232,-3.442741394,-0.083362579,-2.546813965,0.059186768,-0.081686765,0.936055183
94.818787,-4.068351746,-0.144397736,-0.761535645,0.058210205,-0.065085202,0.932759285
94.857279,-4.022575378,-3.219043732,1.954528809,0.055890869,-0.076437742,0.923848152
94.871670,-3.694511414,-4.615222931,1.962158203,0.047468018,-0.070700437,0.927144051
94.887085,-2.145744324,-5.614673615,1.847717285,0.029157471,-0.070822507,0.940449715
94.925622,-3.541923523,0.649059296,4.060241699,0.018659424,-0.146750242,1.002583504
94.977963,-4.747367859,-1.532947540,5.433532715,-0.005388428,0.007668702,1.048115730
94.993803,-3.396965027,-7.087146759,3.190490723,-0.016130615,0.007790772,1.040913582
95.008062,-1.916862488,-8.223926544,1.573059082,-0.021257568,-0.014792236,1.036396980
95.046539,-0.680900574,4.295909882,2.709838867,-0.032732178,-0.097800046,1.060322762
95.099216,2.538703918,11.772716522,0.359985352,0.040021729,0.052224368,1.004048347
95.113478,6.528877258,9.110057831,0.985595703,0.049787354,0.068215579,1.012959480
95.129135,7.688545227,7.523143768,0.024291992,0.053327393,0.047707766,1.022358894
95.167623,5.697273254,8.057201385,2.274963379,0.069928952,-0.067648679,1.042622566
95.206062,3.896736145,4.593456268,1.283142090,0.073102780,0.070412844,0.991597176
95.220274,4.957221985,3.174388885,1.359436035,0.077985592,0.076394290,0.984883308
95.235729,6.231330872,1.396739960,2.625915527,0.079084225,0.018777100,0.988667488
95.289298,1.874946594,-0.953113556,5.204650879,0.058454346,-0.081564695,0.976460457
95.327645,-0.658012390,0.244701385,8.630249023,0.036969971,-0.065329343,0.974995613
95.342049,-2.481437683,-3.684436798,8.210632324,0.016218018,-0.063132077,0.983418465
95.357496,-3.129936218,-6.133472443,7.279846191,0.002424072,-0.061911374,0.981221199
95.396043,-3.717399597,-7.300769806,4.060241699,-0.039568115,-0.058493406,0.965840340
95.434505,-6.792045593,1.213634491,2.328369141,-0.040666748,-0.092551023,0.974873543
95.448728,-6.509757996,2.800548553,1.237365723,-0.035661865,-0.089255124,0.970356941
95.464333,-6.242729187,4.662120819,-0.235107422,-0.017351318,-0.101340085,0.966206551
95.502835,-6.105400085,3.853404999,-2.241638184,0.020124268,-0.112692624,0.976948738
95.541178,-5.762077332,-0.594532013,-1.608398438,0.007062744,-0.039938718,1.005757332
95.555688,-5.250907898,-2.501880646,-3.027465820,-0.000383545,-0.024069579,1.006489754
95.571150,-2.366996765,-4.462635040,-4.759338379,0.002057861,0.009255616,1.003560066
95.571993,-2.366996765,-4.462635040,-4.759338379,0.002057861,0.009255616,1.003560066
95.572760,-2.366996765,-4.462635040,-4.759338379,0.002057861,0.009255616,1.003560066
95.573516,-2.366996765,-4.462635040,-4.759338379,0.002057861,0.009255616,1.003560066
95.574250,-2.366996765,-4.462635040,-4.759338379,0.002057861,0.009255616,1.003560066
95.612705,0.654243469,4.891002655,-3.225830078,0.012311768,-0.072165281,1.032124519
95.651156,5.437873840,7.889354706,-0.654724121,0.044294190,0.007302491,1.043599129
95.665396,6.711982727,5.119884491,-0.952270508,0.045759033,-0.033835202,1.059712410
95.681022,5.659126282,-0.754749298,-1.753356934,0.037702393,-0.048605710,1.076802254
95.719517,6.155036926,-2.135669708,0.619384766,0.015851807,-0.005636962,1.059224129
95.758015,4.797004700,-4.432117462,1.222106934,-0.013200928,0.015969483,1.061299324
95.772246,4.133247375,-4.691516876,-0.372436523,-0.034319092,0.001321046,1.045308113
95.803612,3.797554016,-0.968372345,-1.188781738,-0.012712646,-0.066672117,1.021382332
95.842207,-0.978446960,0.320995331,-2.363708496,-0.003679443,-0.104391843,1.015034676
95.880678,-3.648735046,2.503002167,-4.400756836,0.007306885,-0.082663327,0.998677254
95.894930,-4.480339050,4.372203827,-3.546264648,0.013288330,-0.084250242,0.999409676
95.910387,-8.096672058,6.989086151,-2.279785156,0.028302979,-0.117697507,0.991475105
95.948994,-13.345695496,18.700206757,-2.630737305,0.005353760,-0.088034421,0.932637215
95.987500,-5.548454285,8.492076874,-0.143554688,0.028669190,-0.052756101,0.939961433
96.001813,-5.754447937,7.256114960,1.168701172,0.013044190,-0.160666257,0.947041512
96.017477,-9.065605164,4.578197479,-0.334289551,0.034772705,-0.080343992,0.907368660
96.055998,-3.801322937,2.701366425,3.396484375,0.011945557,-0.192282468,0.945210457
96.094487,-7.532096863,3.189647675,3.762695312,-0.031877685,-0.154440671,0.975972176
96.108785,-6.532646179,4.593456268,5.799743652,-0.041399170,-0.050802976,0.964863777
96.124287,-5.563713074,3.021800995,5.601379395,-0.037126709,-0.044333249,0.970845222
96.162830,-2.252555847,-14.449512482,0.207397461,-0.052995849,-0.075583249,1.008931160
96.201321,-2.008415222,-12.389575958,1.443359375,-0.074358158,-0.079855710,1.001729012
96.215553,-0.307060242,-9.971057892,2.633544922,-0.070940189,-0.056296140,1.001240730
96.231155,2.241157532,-8.651172638,0.375244141,-0.061418701,-0.034689695,1.004902840
96.231927,2.241157532,-8.651172638,0.375244141,-0.061418701,-0.034689695,1.004902840
96.232643,2.241157532,-8.651172638,0.375244141,-0.061418701,-0.034689695,1.004902840
96.233360,2.241157532,-8.651172638,0.375244141,-0.061418701,-0.034689695,1.004902840
96.234055,2.241157532,-8.651172638,0.375244141,-0.061418701,-0.034689695,1.004902840
96.234769,2.241157532,-8.651172638,0.375244141,-0.061418701,-0.034689695,1.004902840
96.235468,2.241157532,-8.651172638,0.375244141,-0.061418701,-0.034689695,1.004902840
96.236186,3.492378235,-8.925830841,-0.883605957,-0.052629638,-0.015524657,0.999287605
96.236888,3.492378235,-8.925830841,-0.883605957,-0.052629638,-0.015524657,0.999287605
96.291289,11.152290344,-2.532398224,-5.056884766,-0.062395263,0.007180421,0.978901863
96.329813,9.862922668,12.253368378,-2.348449707,0.012677979,-0.092062742,1.022603035
96.344059,10.206245422,11.093700409,-0.212219238,0.027692627,-0.037863523,1.023091316
96.359663,10.252021790,2.007091522,-4.667785645,0.027326416,0.004128663,1.010762215
96.398186,8.779548645,-6.423389435,-9.169128418,-0.020525146,-0.075461179,1.013936043
96.452882,2.172492981,18.135631561,-0.334289551,0.038801026,-0.092184812,0.972798347
96.467191,2.607368469,14.076793671,0.276062012,0.072126217,-0.078879148,0.991963387
96.482783,0.272773743,8.598888397,1.000854492,0.084577389,-0.091574460,0.999775887
96.521262,1.318000793,-8.239185333,1.290771484,0.052472901,-0.032858640,0.907734871
96.559777,1.935981750,-8.376514435,1.107666016,-0.002580811,-0.026022704,0.935811043
96.574021,0.814460754,-6.843006134,-1.890686035,-0.027116943,-0.108298093,0.944966316
96.589469,0.455879211,-4.455005646,-3.164794922,-0.031023193,-0.093283445,0.942402840
96.628014,2.485298157,8.972728729,-0.853088379,-0.024431396,-0.107687742,0.998799324
96.666494,0.539802551,5.493724823,0.741455078,0.030988526,-0.002218993,1.001729012
96.680731,0.455879211,2.106273651,-1.661804199,0.011945557,0.021828858,1.006123543
96.696350,1.989387512,-3.783618927,-5.804565430,-0.023454834,-0.079123288,1.028340340
96.734831,1.516365051,5.058849335,-0.151184082,-0.008318115,-0.023093017,1.036396980
96.773287,2.080940247,-2.494251251,-3.813293457,-0.001482178,-0.021750243,1.033345222
96.787527,3.248237610,-2.875720978,-3.775146484,-0.006975342,0.027199952,1.025288582
96.802981,7.513069153,-0.281726837,-2.729919434,-0.011491943,-0.002218993,1.032124519
96.841525,8.390449524,3.655040741,-1.097229004,-0.013200928,-0.003805907,1.063862801
96.842289,7.879280090,3.143871307,-1.371887207,-0.008928467,0.017068116,1.068013191
96.842978,7.879280090,3.143871307,-1.371887207,-0.008928467,0.017068116,1.068013191
96.843693,7.879280090,3.143871307,-1.371887207,-0.008928467,0.017068116,1.068013191
96.844379,7.879280090,3.143871307,-1.371887207,-0.008928467,0.017068116,1.068013191
96.845090,7.879280090,3.143871307,-1.371887207,-0.008928467,0.017068116,1.068013191
96.845770,7.879280090,3.143871307,-1.371887207,-0.008928467,0.017068116,1.068013191
96.846489,7.879280090,3.143871307,-1.371887207,-0.008928467,0.017068116,1.068013191
96.847188,7.879280090,3.143871307,-1.371887207,-0.008928467,0.017068116,1.068013191
96.847908,7.879280090,3.143871307,-1.371887207,-0.008928467,0.017068116,1.068013191
96.886246,7.604621887,-2.364551544,0.886413574,-0.029680420,0.047341555,1.068257332
96.900619,7.436775208,-4.577075958,0.283691406,-0.037492920,0.026101319,1.065205574
96.916026,5.834602356,-8.506214142,-0.830200195,-0.045305420,-0.037619382,1.056660652
96.954565,1.493476868,-3.341114044,-1.730468750,-0.061906982,-0.029806884,1.014790535
96.993029,-2.321220398,5.241954803,-2.195861816,-0.039812256,-0.064352781,1.018086433
97.007255,-3.725028992,4.234874725,-3.004577637,-0.029802490,-0.047262937,1.009541512
97.022869,-4.564262390,0.954235077,-4.950073242,-0.019182373,-0.055197507,0.985859871
97.061219,-6.006217957,1.762950897,-4.049804688,-0.019060303,-0.076559812,0.977559090
97.099849,-7.883049011,1.442516327,-2.821472168,0.004987549,-0.070334226,0.968281746
97.114272,-8.386589050,-1.761829376,-2.516296387,0.011823487,-0.082419187,0.956196785
97.129689,-8.584953308,-3.463184357,-2.188232422,0.010724854,-0.065573484,0.952534676
97.184634,-7.249809265,-1.838123322,-1.928833008,0.008893799,-0.072653562,0.960957527
97.223182,-7.623649597,4.410350800,2.419921875,0.038923096,-0.081076413,0.990132332
97.237570,-8.226371765,4.616344452,3.846618652,0.036847901,-0.036886960,0.991230965
97.252997,-6.303764343,2.739513397,5.700561523,0.029645752,0.014870850,0.997700691
97.291521,-3.671623230,0.320995331,3.152343750,0.007184815,-0.023337157,0.991230965
97.329977,-0.787712097,-1.243030548,7.279846191,0.019269776,-0.096091062,1.011128426
97.344203,-0.726676941,-2.555286407,7.073852539,0.015241455,-0.082175046,1.011860847
97.371703,1.615547180,-6.705677032,4.510375977,-0.006364990,0.015847413,0.995381355
97.410209,6.452583313,-2.318775177,2.755615234,-0.029192138,-0.021384032,0.990498543
97.448673,4.087471008,6.973827362,4.479858398,0.003888916,0.004983155,0.974873543
97.462882,4.911445618,5.852306366,3.694030762,0.009015869,0.057473391,0.963154793
97.478367,8.710884094,-0.510608673,1.344177246,0.018537354,0.063088626,0.954487801
97.479177,8.710884094,-0.510608673,1.344177246,0.018537354,0.063088626,0.954487801
97.479923,8.710884094,-0.510608673,1.344177246,0.018537354,0.063088626,0.954487801
97.480652,8.710884094,-0.510608673,1.344177246,0.018537354,0.063088626,0.954487801
97.481375,8.710884094,-0.510608673,1.344177246,0.018537354,0.063088626,0.954487801
97.519788,8.001350403,-5.187427521,-0.937011719,-0.032121826,-0.071310788,0.939595222
97.558087,6.467842102,18.311107635,2.076599121,-0.034441162,-0.122092038,0.956196785
97.572540,4.575752258,22.408092499,3.686401367,-0.018449951,-0.123312742,0.963032722
97.588002,2.439521790,22.705638885,4.136535645,0.000348877,-0.085837156,0.972920418
97.626562,1.005195618,8.293712616,2.503845215,0.016462158,-0.055807859,0.983418465
97.664843,-1.199699402,-9.139453888,-0.555541992,-0.006120849,-0.068747312,0.982441902
97.679133,-2.191520691,-9.513294220,0.833007812,-0.016252685,-0.038840085,0.971821785
97.694955,-1.543022156,-8.986865997,0.337097168,-0.023454834,-0.047262937,0.972920418
97.733480,-3.511405945,-1.830493927,-2.066162109,-0.033342529,-0.075583249,0.970234871
97.771952,-3.137565613,10.124767303,-0.555541992,0.021711182,-0.085104734,0.999653816
97.786190,-4.083610535,8.652294159,1.359436035,0.043927979,-0.072775632,1.019551277
97.801814,-3.328300476,5.272472382,1.718017578,0.038556885,-0.037741452,1.022969246
97.802592,-3.328300476,5.272472382,1.718017578,0.038556885,-0.037741452,1.022969246
97.803306,-3.328300476,5.272472382,1.718017578,0.038556885,-0.037741452,1.022969246
97.804026,-3.328300476,5.272472382,1.718017578,0.038556885,-0.037741452,1.022969246
97.804727,-3.328300476,5.272472382,1.718017578,0.038556885,-0.037741452,1.022969246
97.805448,-3.328300476,5.272472382,1.718017578,0.038556885,-0.037741452,1.022969246
97.806156,-2.283073425,0.504100800,0.558349609,0.026471924,-0.043112546,1.029438972
97.806881,-2.283073425,0.504100800,0.558349609,0.026471924,-0.043112546,1.029438972
97.807583,-2.283073425,0.504100800,0.558349609,0.026471924,-0.043112546,1.029438972
97.808312,-2.283073425,0.504100800,0.558349609,0.026471924,-0.043112546,1.029438972
97.809028,-2.283073425,0.504100800,0.558349609,0.026471924,-0.043112546,1.029438972
97.809745,-2.283073425,0.504100800,0.558349609,0.026471924,-0.043112546,1.029438972
97.810462,-2.283073425,0.504100800,0.558349609,0.026471924,-0.043112546,1.029438972
97.811187,-2.283073425,0.504100800,0.558349609,0.026471924,-0.043112546,1.029438972
97.811896,-2.283073425,0.504100800,0.558349609,0.026471924,-0.043112546,1.029438972
97.812611,-2.283073425,0.504100800,0.558349609,0.026471924,-0.043112546,1.029438972
97.850996,-0.787712097,-8.826648712,-2.386596680,-0.014177490,-0.054465085,1.043232918
97.889440,0.837348938,-1.349842072,0.619384766,-0.053850342,0.052102298,1.030049324
97.903663,2.393745422,-1.525318146,-0.006225586,-0.057634521,0.053445071,1.024067879
97.919268,6.322883606,-2.707874298,-3.218200684,-0.056535888,0.008401124,1.015889168
97.969680,6.460212708,6.699169159,-0.181701660,-0.008684326,0.005715577,1.027363777
98.008187,10.000251770,-8.994495392,-1.410034180,-0.010271240,0.104836673,0.998799324
98.022413,11.632942200,-13.305103302,-2.340820312,-0.029070068,0.086770266,0.994648933
98.038012,13.013862610,-13.770496368,-3.408935547,-0.060197998,-0.007101806,0.999653816
98.076573,9.229682922,2.426708221,-1.219299316,-0.048357178,-0.069357663,1.005757332
98.077523,9.229682922,2.426708221,-1.219299316,-0.048357178,-0.069357663,1.005757332
98.078201,9.229682922,2.426708221,-1.219299316,-0.048357178,-0.069357663,1.005757332
98.078879,9.229682922,2.426708221,-1.219299316,-0.048357178,-0.069357663,1.005757332
98.079584,9.229682922,2.426708221,-1.219299316,-0.048357178,-0.069357663,1.005757332
98.130224,4.407905579,-1.136219025,-5.117919922,0.001203369,-0.085104734,1.038716316
98.144509,0.822090149,-4.546558380,-4.965332031,0.009382080,-0.081076413,1.031514168
98.159976,-0.589347839,-5.698596954,-4.606750488,0.005964112,-0.063864499,1.024922371
98.198503,-5.067802429,-8.193408966,-4.362609863,0.006086182,-0.043722898,1.011982918
98.236972,-7.699943542,-6.537830353,-3.851440430,0.020246338,-0.046164304,0.996846199
98.251363,-7.905937195,-4.699146271,-3.012207031,0.023420166,-0.033835202,0.994526863
98.266775,-7.516838074,-1.357471466,-0.593688965,0.036481690,-0.019919189,0.995747566
98.305289,-8.485771179,-1.166736603,1.077148438,0.044660401,-0.087912351,1.030415535
98.343847,-10.736442566,1.656139374,6.783935547,0.005964112,-0.049826413,1.029805183
98.358129,-9.965873718,1.373851776,5.364868164,0.015241455,0.015481202,1.029072762
98.373593,-8.867240906,-3.905689240,7.668945312,0.011701416,0.011330811,1.029561043
98.412239,-3.778434753,-8.963977814,3.541442871,-0.039690185,-0.053976804,1.014058113
98.413045,-3.778434753,-8.963977814,3.541442871,-0.039690185,-0.053976804,1.014058113
98.413741,-3.778434753,-8.963977814,3.541442871,-0.039690185,-0.053976804,1.014058113
98.414471,-3.778434753,-8.963977814,3.541442871,-0.039690185,-0.053976804,1.014058113
98.415159,-3.778434753,-8.963977814,3.541442871,-0.039690185,-0.053976804,1.014058113
98.415875,-3.778434753,-8.963977814,3.541442871,-0.039690185,-0.053976804,1.014058113
98.454232,0.196479797,8.461559296,4.296752930,-0.040422607,-0.007712157,1.016865730
98.468604,1.287483215,10.330760956,3.571960449,-0.030168701,0.024148194,1.018940926
98.484035,3.614448547,10.277355194,2.496215820,-0.012956787,0.033425540,1.021138191
98.522587,7.383369446,7.530773163,-0.296142578,-0.004900146,-0.016257079,1.031392097
98.561057,2.233528137,7.408702850,1.405212402,0.025983643,0.007180421,1.032246590
98.575281,1.867317200,5.516613007,1.122924805,0.026716065,0.050637454,1.016865730
98.590906,3.232978821,0.473583221,-1.226928711,0.033307862,0.076394290,0.988545418
98.629416,3.507637024,-4.241382599,-1.150634766,0.031720947,0.020486085,0.970845222
98.667730,1.348518372,1.175487518,2.274963379,0.014386963,-0.070700437,0.941304207
98.682125,-0.040031433,3.761852264,3.404113770,0.014997315,-0.085837156,0.931782722
98.709947,-2.260185242,4.257762909,4.472229004,0.011457276,-0.077292234,0.933247566
98.748613,-3.404594421,-0.037586212,4.739257812,-0.001970459,-0.047018796,0.935444832
98.787202,-4.510856628,-5.095874786,0.886413574,-0.028093506,-0.063498288,0.930439949
98.801601,-4.991508484,-1.113330841,1.740905762,-0.026140381,-0.071188718,0.922871590
98.817036,-4.533744812,1.091564178,2.221557617,-0.026994873,-0.064352781,0.923970222
98.855590,-4.098869324,1.747692108,-2.279785156,-0.011980224,-0.059103757,0.943989754
98.894074,-2.183891296,1.862133026,-1.043823242,0.001691650,-0.056418210,1.002583504
98.908311,-2.031303406,1.579845428,-0.975158691,-0.005144287,-0.032370359,1.017354012
98.923931,-2.305961609,-0.014698029,-1.822021484,-0.027605224,-0.020041259,1.035054207
98.962276,0.272773743,3.754222870,-3.859069824,-0.036394287,0.018777100,1.034810066
99.000798,3.255867004,6.226146698,-2.707031250,-0.019914795,0.046609133,1.064106941
99.015160,3.988288879,6.836498260,-1.448181152,-0.010393310,0.038552493,1.069966316
99.030577,5.903266907,6.348217010,0.398132324,0.004865479,-0.001242431,1.074116707
99.082926,2.996467590,-7.491504669,-1.257446289,-0.034685303,-0.023703368,1.054951668
99.121518,6.139778137,-7.598316193,-0.532653809,-0.080705814,0.066262454,1.010518074
99.135922,6.528877258,-7.392322540,-0.891235352,-0.088030033,0.020608155,1.006978035
99.151318,5.872749329,-6.247913361,-4.148986816,-0.092058353,-0.027487548,0.990132332
99.189849,4.858039856,5.516613007,-5.896118164,-0.059465576,-0.062765867,0.972187996
99.228345,0.532173157,6.348217010,-7.269409180,0.010968994,-0.061423093,0.959980965
99.242559,-0.184989929,4.547679901,-6.445434570,0.023786377,-0.056906492,0.954854012
99.258024,-1.291252136,-0.152027130,-5.362060547,0.033185791,-0.041037351,0.962178230
99.310611,-6.593681335,-10.535633087,-4.187133789,0.020978760,-0.061423093,0.941670418
99.349129,-6.875968933,-7.392322540,-2.607849121,0.015241455,-0.056540281,0.928486824
99.363353,-6.601310730,-6.080066681,-2.653625488,0.019758057,-0.060812742,0.931416512
99.393125,-5.640007019,-0.777637482,-1.135375977,0.027448487,-0.060568601,0.948750496
99.431678,-5.228019714,6.149852753,2.732727051,0.053449463,-0.085959226,0.997822762
99.470038,-3.778434753,-4.073535919,6.120178223,0.031843018,0.003640382,1.037129402
99.484446,-3.152824402,-8.834278107,5.433532715,0.021833252,0.014260499,1.041646004
99.499913,-0.543571472,-14.792835236,3.945800781,-0.000749756,0.011819093,1.043599129
99.538463,0.288032532,-5.988513947,5.784484863,-0.050676513,-0.050314695,1.062153816
99.576984,3.911994934,8.118236542,5.296203613,-0.037126709,0.043679446,1.052510262
99.591217,4.621528625,8.682811737,4.273864746,-0.034197021,0.056863040,1.053608894
99.606837,6.132148743,6.699169159,0.459167480,-0.034441162,0.051125735,1.039570808
99.645323,8.382820129,10.078990936,-0.303771973,-0.000261475,-0.061545163,1.042378426
99.646089,8.382820129,10.078990936,-0.303771973,-0.000261475,-0.061545163,1.042378426
99.646786,8.382820129,10.078990936,-0.303771973,-0.000261475,-0.061545163,1.042378426
99.647526,8.382820129,10.078990936,-0.303771973,-0.000261475,-0.061545163,1.042378426
99.648227,8.382820129,10.078990936,-0.303771973,-0.000261475,-0.061545163,1.042378426
99.648970,8.382820129,10.078990936,-0.303771973,-0.000261475,-0.061545163,1.042378426
99.649665,8.382820129,10.078990936,-0.303771973,-0.000261475,-0.061545163,1.042378426
99.650405,8.382820129,10.078990936,-0.303771973,-0.000261475,-0.061545163,1.042378426
99.651103,8.382820129,10.078990936,-0.303771973,-0.000261475,-0.061545163,1.042378426
99.651835,8.382820129,10.078990936,-0.303771973,-0.000261475,-0.061545163,1.042378426
99.652536,8.382820129,10.078990936,-0.303771973,-0.000261475,-0.061545163,1.042378426
99.653273,8.382820129,10.078990936,-0.303771973,-0.000261475,-0.061545163,1.042378426
99.653974,6.971382141,11.726940155,0.558349609,0.006574463,-0.042380124,1.045796394
99.654713,6.971382141,11.726940155,0.558349609,0.006574463,-0.042380124,1.045796394
99.692949,5.239509583,6.714427948,0.413391113,0.027814697,0.079812258,1.013691902
99.707390,7.253669739,-3.241931915,-4.110839844,0.030011963,0.078835696,0.988545418
99.722853,7.825874329,-6.949817657,-5.331542969,0.025739502,0.053445071,0.979756355
99.761406,5.422615051,2.434337616,-3.599670410,0.003156494,-0.050558835,0.957051277
99.799910,0.051521301,14.648998260,2.885314941,0.067853756,-0.085715085,0.982197762
99.814286,-2.473808289,7.973278046,3.640625000,0.074567623,-0.087301999,0.980244637
99.829710,-3.717399597,3.105724335,3.541442871,0.071760006,-0.085470945,0.976826668
99.868252,-6.570793152,-10.802661896,3.556701660,0.013898682,-0.066183835,0.978291512
99.906765,-10.049797058,-7.163440704,2.145263672,-0.024065185,-0.053488523,0.942891121
99.920997,-9.599662781,-4.493152618,1.885864258,-0.029192138,-0.049460202,0.936665535
99.936637,-7.791496277,2.426708221,0.878784180,-0.038347412,-0.043356687,0.943257332
99.974985,-9.088493347,16.594493866,1.580688477,0.010236572,-0.068869382,0.984272957
99.975806,-9.088493347,16.594493866,1.580688477,0.010236572,-0.068869382,0.984272957
99.976515,-9.088493347,16.594493866,1.580688477,0.010236572,-0.068869382,0.984272957
99.977343,-9.088493347,16.594493866,1.580688477,0.010236572,-0.068869382,0.984272957
99.978042,-9.088493347,16.594493866,1.580688477,0.010236572,-0.068869382,0.984272957
99.978727,-9.088493347,16.594493866,1.580688477,0.010236572,-0.068869382,0.984272957
99.979450,-9.088493347,16.594493866,1.580688477,0.010236572,-0.068869382,0.984272957
99.980151,-9.088493347,16.594493866,1.580688477,0.010236572,-0.068869382,0.984272957
99.980863,-9.088493347,16.594493866,1.580688477,0.010236572,-0.068869382,0.984272957
99.981560,-9.088493347,16.594493866,1.580688477,0.010236572,-0.068869382,0.984272957
99.982280,-8.790946960,16.647899628,2.404663086,0.024274658,-0.047385007,0.989521980
100.035648,-3.374076843,-6.827747345,-0.326660156,-0.014299560,-0.000143798,1.028584480
100.067092,-2.794242859,-7.140552521,-2.531555176,-0.050798584,-0.094137937,1.035054207
100.081347,-2.588249207,2.281749725,-0.700500488,-0.058000732,-0.039084226,1.026509285
100.119794,3.469490051,11.688793182,0.413391113,-0.036272217,0.041726321,1.039204597
100.158273,5.491279602,6.073558807,-2.073791504,0.007062744,-0.043844968,1.073506355
100.172526,4.293464661,2.342784882,0.863525391,0.019513916,-0.038962156,1.085591316
100.187989,2.592109680,-0.876819611,2.030822754,0.017438721,-0.010397704,1.081562996
100.226539,3.316902161,-20.255481720,-1.883056641,-0.030046631,0.041726321,0.999897957
100.227320,3.316902161,-20.255481720,-1.883056641,-0.030046631,0.041726321,0.999897957
100.228007,3.316902161,-20.255481720,-1.883056641,-0.030046631,0.041726321,0.999897957
100.228726,3.316902161,-20.255481720,-1.883056641,-0.030046631,0.041726321,0.999897957
100.229408,3.316902161,-20.255481720,-1.883056641,-0.030046631,0.041726321,0.999897957
100.230124,3.316902161,-20.255481720,-1.883056641,-0.030046631,0.041726321,0.999897957
100.230887,4.095100403,-21.544849396,-1.837280273,-0.046281982,0.019387452,0.983784676
100.231571,4.095100403,-21.544849396,-1.837280273,-0.046281982,0.019387452,0.983784676
100.232247,4.095100403,-21.544849396,-1.837280273,-0.046281982,0.019387452,0.983784676
100.270501,2.088569641,-2.959644318,0.596496582,-0.067644291,-0.072775632,0.955464363
100.284906,1.432441711,2.869213104,1.695129395,-0.056413818,-0.054343015,0.949238777
100.300332,1.729988098,7.614696503,2.046081543,-0.026018310,-0.032980710,0.953389168
100.338864,-1.375175476,-1.288806915,-0.593688965,-0.001360107,-0.106711179,0.961567879
100.377378,-4.930473328,-12.862598419,-0.471618652,-0.028337646,-0.094748288,0.955952644
100.391597,-7.471061707,-12.504016876,-1.707580566,-0.059221435,-0.072897702,0.948018074
100.407207,-8.157707214,-10.627185822,-2.409484863,-0.061662842,-0.064841062,0.939839363
100.445663,-8.050895691,0.107372284,-1.776245117,-0.040056396,-0.063010007,0.922871590
100.484195,-6.570793152,6.088817596,-0.975158691,-0.009172607,-0.059592038,0.961445808
100.498417,-6.029106140,5.890453339,-0.715759277,0.001691650,-0.077780515,0.976460457
100.513868,-6.715751648,3.975475311,-0.418212891,0.021467041,-0.133200437,1.000996590
100.552400,-6.570793152,-4.409229279,3.053161621,0.019147705,-0.032858640,1.021748543
100.553168,-6.570793152,-4.409229279,3.053161621,0.019147705,-0.032858640,1.021748543
100.553867,-6.570793152,-4.409229279,3.053161621,0.019147705,-0.032858640,1.021748543
100.554600,-6.570793152,-4.409229279,3.053161621,0.019147705,-0.032858640,1.021748543
100.555299,-6.570793152,-4.409229279,3.053161621,0.019147705,-0.032858640,1.021748543
100.556026,-6.570793152,-4.409229279,3.053161621,0.019147705,-0.032858640,1.021748543
100.556717,-6.570793152,-4.409229279,3.053161621,0.019147705,-0.032858640,1.021748543
100.557456,-6.570793152,-4.409229279,3.053161621,0.019147705,-0.032858640,1.021748543
100.558149,-6.570793152,-4.409229279,3.053161621,0.019147705,-0.032858640,1.021748543
100.558868,-5.929924011,-7.674610138,3.434631348,0.007795166,-0.010885986,1.021016121
100.559562,-5.929924011,-7.674610138,3.434631348,0.007795166,-0.010885986,1.021016121
100.560289,-5.929924011,-7.674610138,3.434631348,0.007795166,-0.010885986,1.021016121
100.560979,-5.929924011,-7.674610138,3.434631348,0.007795166,-0.010885986,1.021016121
100.561711,-5.929924011,-7.674610138,3.434631348,0.007795166,-0.010885986,1.021016121
100.600069,0.692390442,-9.025012970,-0.944641113,-0.040178467,-0.111593992,1.014302254
100.614457,0.722908020,-3.837024689,0.024291992,-0.036028076,-0.134787351,1.020527840
100.629861,2.103828430,8.751476288,2.107116699,-0.026872803,-0.068014890,1.037251472
100.668421,5.773567200,15.595043182,2.770874023,0.042341065,0.036843508,1.079121590
100.722840,6.933235168,-8.498584747,0.321838379,0.059064697,-0.053488523,1.071553230
100.737127,4.133247375,-8.040821075,2.847167969,0.041608643,-0.063010007,1.067769051
100.752728,2.065681458,-5.637561798,5.151245117,0.034772705,-0.035177976,1.059590340
100.807359,3.400825500,-11.420642853,2.488586426,0.002790283,0.068581790,0.937520027
100.845885,5.712532043,-4.866992950,3.602478027,-0.027361084,-0.032248288,0.930928230
100.860138,4.194282532,2.434337616,4.762145996,-0.031023193,-0.110373288,0.936177254
100.875733,3.133796692,4.776561737,5.639526367,-0.024309326,-0.122580320,0.934956551
100.876504,2.340339661,5.379283905,6.043884277,-0.023454834,-0.135397702,0.931660652
100.877233,2.340339661,5.379283905,6.043884277,-0.023454834,-0.135397702,0.931660652
100.877947,2.340339661,5.379283905,6.043884277,-0.023454834,-0.135397702,0.931660652
100.878659,2.340339661,5.379283905,6.043884277,-0.023454834,-0.135397702,0.931660652
100.879374,2.340339661,5.379283905,6.043884277,-0.023454834,-0.135397702,0.931660652
100.880080,2.340339661,5.379283905,6.043884277,-0.023454834,-0.135397702,0.931660652
100.880797,2.340339661,5.379283905,6.043884277,-0.023454834,-0.135397702,0.931660652
100.881512,2.340339661,5.379283905,6.043884277,-0.023454834,-0.135397702,0.931660652
100.919932,1.585029602,-4.638111115,2.328369141,-0.050188232,-0.103659421,0.946553230
100.958423,-3.854728699,-1.647388458,-3.332641602,-0.080095463,-0.105856687,0.955464363
100.972649,-4.991508484,3.929698944,-2.745178223,-0.073991947,-0.098288327,0.947896004
100.988104,-5.289054871,14.389598846,-0.998046875,-0.041277099,-0.089987546,0.942891121
101.026657,-7.318473816,10.017955780,-4.812744141,0.020124268,-0.107077390,0.964375496
101.065181,-4.045463562,5.066478729,-3.180053711,0.024640869,-0.058737546,0.992207527
101.079560,-3.908134460,5.356395721,-1.745727539,0.015363526,-0.037375242,1.011860847
101.094976,-3.747917175,4.189098358,-1.677062988,-0.004656006,0.000954835,1.044697762
101.133512,-2.969718933,1.289928436,-4.370239258,-0.007585693,-0.035177976,1.053853035
101.134290,-2.969718933,1.289928436,-4.370239258,-0.007585693,-0.035177976,1.053853035
101.134997,-1.756645203,2.106273651,-4.492309570,-0.004533935,-0.060812742,1.056416512
101.135687,-1.756645203,2.106273651,-4.492309570,-0.004533935,-0.060812742,1.056416512
101.136390,-1.756645203,2.106273651,-4.492309570,-0.004533935,-0.060812742,1.056416512
101.137083,-1.756645203,2.106273651,-4.492309570,-0.004533935,-0.060812742,1.056416512
101.137768,-1.756645203,2.106273651,-4.492309570,-0.004533935,-0.060812742,1.056416512
101.138477,-1.756645203,2.106273651,-4.492309570,-0.004533935,-0.060812742,1.056416512
101.139167,-1.756645203,2.106273651,-4.492309570,-0.004533935,-0.060812742,1.056416512
101.139855,-1.756645203,2.106273651,-4.492309570,-0.004533935,-0.060812742,1.056416512
101.178217,-2.153373718,8.926952362,-0.059631348,-0.006609131,0.026711671,1.073506355
101.192445,0.005744934,7.813060760,-1.051452637,-0.011247803,0.054177493,1.077290535
101.208034,1.546882629,2.548778534,-3.103759766,-0.014055420,-0.014548095,1.086201668
101.208813,1.546882629,2.548778534,-3.103759766,-0.014055420,-0.014548095,1.086201668
101.209533,1.546882629,2.548778534,-3.103759766,-0.014055420,-0.014548095,1.086201668
101.210224,1.546882629,2.548778534,-3.103759766,-0.014055420,-0.014548095,1.086201668
101.210943,1.546882629,2.548778534,-3.103759766,-0.014055420,-0.014548095,1.086201668
101.211634,1.546882629,2.548778534,-3.103759766,-0.014055420,-0.014548095,1.086201668
101.212333,1.546882629,2.548778534,-3.103759766,-0.014055420,-0.014548095,1.086201668
101.213040,1.546882629,2.548778534,-3.103759766,-0.014055420,-0.014548095,1.086201668
101.251420,0.082038879,-1.037036896,-3.675964355,-0.039690185,-0.049704343,1.066304207
101.289916,0.371955872,2.190196991,-2.172973633,-0.018816162,0.045266360,0.995259285
101.304142,2.965950012,-1.998340607,-4.469421387,-0.031267334,0.014016358,0.979023933
101.319576,3.599189758,-3.974353790,-4.309204102,-0.031633545,-0.015402587,0.974629402
101.358130,2.744697571,2.625072479,-7.109191895,-0.009660888,-0.085593015,0.938618660
101.413038,3.065132141,1.442516327,-4.805114746,0.055646729,-0.052756101,0.941182137
101.427482,2.477668762,-3.364002228,-5.468872070,0.060407471,-0.068625242,0.940327644
101.454716,1.600288391,-10.833179474,-3.798034668,0.039045166,-0.119406492,0.952534676
101.493347,-5.166984558,-6.644641876,-0.402954102,0.000226807,-0.109762937,0.967305183
101.531850,-5.220390320,-8.262073517,-1.577880859,-0.003313232,-0.056418210,0.951069832
101.546219,-3.625846863,-6.484424591,-2.180603027,-0.015154053,-0.057150632,0.954243660
101.561610,-3.351188660,-3.577625275,-1.608398438,-0.016740967,-0.068991452,0.963887215
101.600286,-4.953361511,8.911693573,0.314208984,0.012067627,-0.124655515,0.996235847
101.638801,-2.061820984,2.243602753,3.900024414,0.049787354,-0.058981687,1.029438972
101.653034,-1.008964539,-8.445178986,1.885864258,0.024396729,-0.045920163,1.031392097
101.668620,0.852607727,-12.839710236,-0.898864746,0.006330322,-0.083761960,1.027729988
101.706960,3.675483704,-0.342761993,-0.242736816,-0.032610107,-0.051291257,1.035664558
101.707808,3.675483704,-0.342761993,-0.242736816,-0.032610107,-0.051291257,1.035664558
101.708515,3.675483704,-0.342761993,-0.242736816,-0.032610107,-0.051291257,1.035664558
101.709241,3.675483704,-0.342761993,-0.242736816,-0.032610107,-0.051291257,1.035664558
101.710082,3.675483704,-0.342761993,-0.242736816,-0.032610107,-0.051291257,1.035664558
101.710756,3.675483704,-0.342761993,-0.242736816,-0.032610107,-0.051291257,1.035664558
101.711448,5.018257141,6.836498260,1.489135742,-0.029924560,-0.005026611,1.051655769
101.712148,5.018257141,6.836498260,1.489135742,-0.029924560,-0.005026611,1.051655769
101.712840,5.018257141,6.836498260,1.489135742,-0.029924560,-0.005026611,1.051655769
101.713564,5.018257141,6.836498260,1.489135742,-0.029924560,-0.005026611,1.051655769
101.714261,5.018257141,6.836498260,1.489135742,-0.029924560,-0.005026611,1.051655769
101.714979,5.018257141,6.836498260,1.489135742,-0.029924560,-0.005026611,1.051655769
101.715677,5.018257141,6.836498260,1.489135742,-0.029924560,-0.005026611,1.051655769
101.716394,5.018257141,6.836498260,1.489135742,-0.029924560,-0.005026611,1.051655769
101.717096,5.018257141,6.836498260,1.489135742,-0.029924560,-0.005026611,1.051655769
101.755520,5.758308411,17.014110565,-0.410583496,0.017804932,0.035989016,1.092427254
101.769745,4.858039856,14.511669159,-0.937011719,0.037336182,0.011208741,1.084858894
101.785235,5.483650208,8.141124725,-1.356628418,0.062726803,0.023781983,1.069478035
101.823800,1.890205383,-1.952564240,0.779602051,0.061994385,-0.047995359,1.070332527
101.862286,-0.818229675,-6.400501251,0.619384766,0.042096924,-0.021017822,0.992451668
101.876530,-0.658012390,-5.568897247,1.069519043,0.035505127,-0.021017822,0.976094246
101.892133,-0.024772644,-2.074634552,2.351257324,0.040021729,-0.021384032,0.958271980
101.930608,0.120185852,-0.022327423,5.082580566,0.050031494,-0.037375242,0.947529793
101.969112,0.768684387,-4.493152618,5.471679688,0.042096924,-0.077292234,0.937275887
101.983442,-0.093437195,-4.874622345,6.486389160,0.029767822,-0.089255124,0.940449715
101.998991,-0.146842957,-4.043018341,6.997558594,0.022321533,-0.101095945,0.945698738
102.049665,-3.190971375,-4.027759552,5.731079102,-0.021257568,-0.125387937,0.956807137
102.088041,-4.854179382,0.420177460,5.403015137,-0.031023193,-0.102194577,0.975117683
102.102464,-5.784965515,2.617443085,5.364868164,-0.025285888,-0.134665281,0.989399910
102.117917,-6.280876160,2.182567596,4.090759277,-0.024431396,-0.149801999,0.996113777
102.156464,-7.524467468,-0.792896271,2.435180664,-0.047014404,-0.055075437,1.035786629
102.194978,-8.653617859,0.732982635,0.321838379,-0.085710697,0.011452882,1.030781746
102.209201,-5.479789734,5.638683319,-1.318481445,-0.098772220,0.080666751,0.989399910
102.224825,-2.008415222,9.377086639,-3.096130371,-0.097307377,0.072121829,0.975605965
102.263314,2.668403625,27.687633514,0.016662598,-0.028581787,-0.032858640,1.000142097
102.301655,10.122322083,19.180858612,0.787231445,0.029767822,0.000100343,1.029683113
102.316072,11.495613098,13.237560272,0.985595703,0.034894776,-0.036642820,1.050190926
102.331508,8.543037415,-0.808155060,2.450439453,0.035138916,-0.054343015,1.069844246
102.370047,8.985542297,-22.529041290,0.871154785,-0.054704834,0.004739014,1.035420418
102.420784,1.455329895,-10.383045197,1.199218750,-0.114275150,-0.043112546,1.028584480
102.435193,0.974678040,-6.621753693,0.108215332,-0.107317142,-0.037985593,1.015278816
102.450576,0.432991028,-0.182544708,0.321838379,-0.081804447,-0.020041259,1.002949715
102.489094,-4.838920593,2.976024628,-0.158813477,-0.037248779,-0.169577390,1.021748543
102.527603,-5.838371277,-8.986865997,-0.570800781,-0.009660888,-0.107565671,0.958271980
102.541844,-5.311943054,-11.809741974,0.222656250,-0.015031982,-0.131369382,0.963154793
102.557444,-6.334281921,-14.869129181,0.848266602,-0.042619873,-0.114523679,0.975972176
102.595821,-6.059623718,-9.253894806,-0.937011719,-0.095842533,-0.068625242,0.992207527
102.634355,-6.990409851,1.091564178,-0.257995605,-0.081926517,-0.111349851,1.036274910
102.648727,-9.103752136,3.830516815,-0.555541992,-0.070329838,-0.119040281,1.055317879
102.664163,-8.737541199,3.296459198,-0.769165039,-0.065447025,-0.079855710,1.063862801
102.715095,-10.774589539,-1.273548126,-2.562072754,-0.072893314,-0.006613525,1.108540535
102.753650,-12.132621765,-0.197803497,-3.302124023,-0.068987064,-0.042013913,1.073262215
102.768068,-11.629081726,5.432689667,-2.867248535,-0.068376713,-0.029074462,1.046284676
102.783496,-10.637260437,8.942211151,-2.600219727,-0.060320068,-0.005026611,1.038472176
102.822038,-6.082511902,16.914928436,-2.645996094,0.015119385,-0.009299072,1.022480965
102.860544,-3.107048035,8.713329315,-1.760986328,0.055524658,-0.092673093,1.024922371
102.874768,-3.213859558,1.244152069,-0.875976562,0.051496338,-0.059225827,1.013691902
102.890371,-3.152824402,-2.005970001,-1.036193848,0.040387940,-0.029196532,1.003193855
102.928985,-0.139213562,-5.195056915,-3.241088867,0.018537354,-0.017477782,0.962178230
102.967507,0.219367981,-5.233203888,-0.830200195,0.053327393,-0.083517820,0.921650887
102.981872,0.509284973,-7.239734650,-0.319030762,0.049177002,-0.099264890,0.918599129
102.997316,0.074409485,-10.581409454,-0.814941406,0.019147705,-0.122214109,0.917622566
103.035861,-4.564262390,-11.779224396,0.314208984,-0.004045654,-0.162741452,0.893818855
103.036645,-4.564262390,-11.779224396,0.314208984,-0.004045654,-0.162741452,0.893818855
103.037365,-4.564262390,-11.779224396,0.314208984,-0.004045654,-0.162741452,0.893818855
103.075774,-4.549003601,-12.168323517,-2.798583984,-0.035417724,-0.102804929,0.853047371
103.090026,-5.098320007,-10.032093048,-3.889587402,-0.039201904,-0.099753171,0.855000496
103.105689,-4.610038757,-2.150928497,-4.599121094,-0.034319092,-0.082907468,0.857197762
103.144026,-4.426933289,14.740550995,-2.157714844,0.027570557,-0.106100827,0.854390144
103.182535,1.661323547,15.396678925,-2.287414551,0.074567623,-0.143210202,0.907368660
103.196923,1.409553528,14.160717010,-1.371887207,0.084943600,-0.156637937,0.929707527
103.212369,0.120185852,9.598339081,2.358886719,0.098981686,-0.149924070,0.958516121
103.250917,2.286933899,-7.583057404,2.206298828,0.066144772,-0.037131101,0.983296394
103.289420,4.613899231,-15.975391388,-0.669982910,-0.023576904,-0.120505124,1.046772957
103.303658,0.349067688,-6.156360626,2.961608887,-0.051653076,-0.149435788,1.048115730
103.333129,4.201911926,6.508434296,1.382324219,-0.046159912,-0.026388915,1.017231941
103.371657,7.810615540,8.560741425,-0.456359863,-0.021135498,-0.068014890,1.042866707
103.410153,10.374092102,8.125865936,-0.448730469,-0.003313232,-0.084616452,1.043354988
103.424371,10.618232727,6.203258514,1.252624512,-0.004045654,-0.026877197,1.042622566
103.439818,11.472724915,4.013622284,1.901123047,-0.009782959,-0.029196532,1.045063972
103.478377,10.564826965,-6.041919708,-1.143005371,-0.034197021,-0.086691648,1.041157722
103.516848,6.162666321,-3.623401642,-0.494506836,-0.042986084,-0.122214109,1.020405769
103.531225,3.896736145,-2.196704865,-2.050903320,-0.036760498,-0.125632077,1.008320808
103.546651,2.981208801,-1.517688751,-2.691772461,-0.030290771,-0.108053952,1.004414558
103.585187,-1.924491882,-1.761829376,-2.478149414,-0.005754638,-0.113547117,0.993306160
103.623680,-4.800773621,-7.445728302,-2.180603027,0.016828369,-0.096335202,0.961689949
103.653308,-5.998588562,-11.130725861,-1.463439941,-0.004045654,-0.107565671,0.957539558
103.667573,-6.837821960,-10.657703400,-1.654174805,-0.013200928,-0.115500242,0.952290535
103.706014,-6.090141296,-2.929126740,0.077697754,-0.011614013,-0.079733640,0.929585457
103.744509,-1.962638855,4.852855682,0.382873535,-0.003069092,-0.159201413,0.976948738
103.758735,-1.985527039,9.544933319,2.946350098,0.010480713,-0.166281492,1.009175301
103.774218,-2.305961609,9.796703339,4.373046875,0.020856690,-0.131491452,1.025166512
103.775057,-2.305961609,9.796703339,4.373046875,0.020856690,-0.131491452,1.025166512
103.775807,-2.305961609,9.796703339,4.373046875,0.020856690,-0.131491452,1.025166512
103.776545,-2.305961609,9.796703339,4.373046875,0.020856690,-0.131491452,1.025166512
103.777268,-2.305961609,9.796703339,4.373046875,0.020856690,-0.131491452,1.025166512
103.778000,-2.038932800,7.782543182,5.143615723,0.026227783,-0.102682859,1.040181160
103.778721,-2.038932800,7.782543182,5.143615723,0.026227783,-0.102682859,1.040181160
103.779585,-2.038932800,7.782543182,5.143615723,0.026227783,-0.102682859,1.040181160
103.780290,-2.038932800,7.782543182,5.143615723,0.026227783,-0.102682859,1.040181160
103.780998,-2.038932800,7.782543182,5.143615723,0.026227783,-0.102682859,1.040181160
103.781736,-2.038932800,7.782543182,5.143615723,0.026227783,-0.102682859,1.040181160
103.782456,-2.038932800,7.782543182,5.143615723,0.026227783,-0.102682859,1.040181160
103.783205,-2.038932800,7.782543182,5.143615723,0.026227783,-0.102682859,1.040181160
103.821438,-0.123954773,-7.338916779,2.305480957,-0.006120849,-0.029196532,1.044819832
103.859958,0.928901672,4.433238983,4.800292969,-0.053484131,-0.182760984,1.066304207
103.874317,-0.619865417,9.132946014,4.136535645,-0.052873779,-0.166769773,1.065083504
103.889733,-0.314689636,16.640270233,3.838989258,-0.030779053,-0.063010007,1.044087410
103.928269,5.201362610,12.260997772,3.808471680,0.016706299,-0.013083251,1.049214363
103.980997,4.217170715,-5.378162384,1.260253906,0.001081299,-0.084250242,1.051289558
103.995428,2.988838196,-6.064807892,2.000305176,-0.009294678,-0.054343015,1.039692879
104.010819,2.874397278,-6.431018829,0.848266602,-0.028093506,0.010354249,1.002583504
104.049358,3.934883118,-0.266468048,-1.959350586,-0.031755615,-0.053610593,0.969258308
104.087848,0.989936829,11.887157440,-0.006225586,0.018659424,-0.116965085,0.939595222
104.102101,0.631355286,12.871349335,1.443359375,0.032819580,-0.105490476,0.937397957
104.117581,0.509284973,9.453380585,3.060791016,0.051862549,-0.082785398,0.941426277
104.156119,-0.329948425,-6.675159454,2.458068848,0.046857666,-0.109030515,0.927754402
104.194614,-0.337577820,-10.123645782,3.694030762,-0.009294678,-0.085837156,0.921528816
104.209002,-0.360466003,-7.605945587,1.740905762,-0.039934326,-0.121237546,0.941426277
104.224386,-1.550651550,-4.889881134,0.611755371,-0.044084717,-0.133688718,0.946431160
104.262908,-1.955009460,11.826122284,2.694580078,-0.029680420,-0.082541257,0.953999519
104.316270,-3.305412292,-2.913867950,0.901672363,0.010968994,-0.089255124,1.050435066
104.332107,-2.710319519,-8.223926544,-0.364807129,-0.011247803,-0.076315671,1.057881355
104.346359,-3.519035339,-13.862049103,-3.859069824,-0.046159912,-0.087424070,1.065327644
104.384791,-3.953910828,2.441967010,-3.592041016,-0.037004638,-0.071310788,1.039448738
104.423288,-1.604057312,14.847362518,-0.647094727,0.023908447,0.003396241,1.028584480
104.437530,1.577400208,13.184154510,0.123474121,0.064801998,-0.017233642,1.026143074
104.452999,2.988838196,10.223949432,0.268432617,0.081281491,-0.041159421,1.029316902
104.491585,3.744148254,-5.401050568,3.091308594,0.079084225,-0.088278562,1.016255379
104.530069,7.810615540,-18.622791290,6.494018555,0.018781494,-0.006613525,1.007832527
104.544473,7.619880676,-22.056018829,5.807373047,-0.020769287,-0.048849851,0.998555183
104.559886,7.055305481,-21.865283966,5.868408203,-0.040910888,-0.069723874,0.986226082
104.598463,7.703804016,-8.368885040,5.700561523,-0.085466556,-0.080832273,0.965474129
104.599232,7.703804016,-8.368885040,5.700561523,-0.085466556,-0.080832273,0.965474129
104.669226,1.836799622,-2.646839142,0.192138672,-0.072893314,-0.110251218,1.000142097
104.683516,-2.138114929,-6.011402130,-1.860168457,-0.060197998,-0.115378171,0.998921394
104.698983,-3.549552917,-6.873523712,-1.577880859,-0.054704834,-0.089987546,0.989888191
104.737542,-3.198600769,-10.169422150,-1.608398438,-0.070818119,-0.074484617,0.976338387
104.776158,-6.486869812,-9.581958771,-6.430175781,-0.072649173,-0.120993406,0.976948738
104.790411,-6.692863464,-6.286060333,-6.536987305,-0.069841556,-0.111105710,0.971455574
104.806003,-4.960990906,2.838695526,-4.431274414,-0.063249759,-0.125143796,0.982197762
104.844504,-6.753898621,11.070812225,-3.744628906,0.006940674,-0.175558835,1.055928230
104.845275,-6.753898621,11.070812225,-3.744628906,0.006940674,-0.175558835,1.055928230
104.845989,-6.753898621,11.070812225,-3.744628906,0.006940674,-0.175558835,1.055928230
104.846721,-6.753898621,11.070812225,-3.744628906,0.006940674,-0.175558835,1.055928230
104.847439,-6.753898621,11.070812225,-3.744628906,0.006940674,-0.175558835,1.055928230
104.848167,-6.753898621,11.070812225,-3.744628906,0.006940674,-0.175558835,1.055928230
104.848875,-6.753898621,11.070812225,-3.744628906,0.006940674,-0.175558835,1.055928230
104.849611,-6.753898621,11.070812225,-3.744628906,0.006940674,-0.175558835,1.055928230
104.850324,-6.753898621,11.070812225,-3.744628906,0.006940674,-0.175558835,1.055928230
104.851057,-6.753898621,11.070812225,-3.744628906,0.006940674,-0.175558835,1.055928230
104.851765,-8.645988464,9.041393280,-1.860168457,0.022809815,-0.157492429,1.067891121
104.852496,-8.645988464,9.041393280,-1.860168457,0.022809815,-0.157492429,1.067891121
104.853206,-8.645988464,9.041393280,-1.860168457,0.022809815,-0.157492429,1.067891121
104.891670,-6.463981628,-11.107837677,-2.478149414,-0.002580811,-0.032004148,1.027485847
104.905936,-3.953910828,-14.586841583,-4.820373535,-0.022112060,-0.049460202,1.019551277
104.921523,-0.040031433,-10.268604279,-6.285217285,-0.038957763,-0.120627195,1.033101082
104.959859,-0.894523621,12.413585663,-1.196411133,-0.026750732,-0.115011960,1.061299324
104.998366,6.773017883,16.235912323,-1.432922363,0.044050049,0.032448977,1.053608894
105.012749,9.214424133,7.492626190,-3.363159180,0.053205322,-0.015524657,1.097187996
105.028203,8.581184387,3.853404999,-3.592041016,0.048444580,-0.058249265,1.113423347
105.066746,1.646064758,-2.433216095,-1.822021484,0.015241455,-0.044577390,1.073872566
105.105223,0.097297668,-3.829395294,-5.423095703,-0.000505615,-0.034933835,1.033833504
105.119464,-1.512504578,2.411449432,-4.858520508,0.004499268,-0.058249265,1.007710457
105.135062,-2.397514343,5.745494843,-3.904846191,0.012922119,-0.066183835,0.997090340
105.173578,-3.885246277,9.445751190,-1.692321777,0.049299072,-0.138571531,0.985249519
105.174347,-3.885246277,9.445751190,-1.692321777,0.049299072,-0.138571531,0.985249519
105.175051,-3.885246277,9.445751190,-1.692321777,0.049299072,-0.138571531,0.985249519
105.175768,-3.885246277,9.445751190,-1.692321777,0.049299072,-0.138571531,0.985249519
105.176472,-3.885246277,9.445751190,-1.692321777,0.049299072,-0.138571531,0.985249519
105.177190,-3.885246277,9.445751190,-1.692321777,0.049299072,-0.138571531,0.985249519
105.177889,-3.885246277,9.445751190,-1.692321777,0.049299072,-0.138571531,0.985249519
105.178606,-3.885246277,9.445751190,-1.692321777,0.049299072,-0.138571531,0.985249519
105.179312,-5.922294617,7.805431366,-1.066711426,0.052717041,-0.156515867,0.982808113
105.180027,-5.922294617,7.805431366,-1.066711426,0.052717041,-0.156515867,0.982808113
105.180729,-5.922294617,7.805431366,-1.066711426,0.052717041,-0.156515867,0.982808113
105.181449,-5.922294617,7.805431366,-1.066711426,0.052717041,-0.156515867,0.982808113
105.182146,-5.922294617,7.805431366,-1.066711426,0.052717041,-0.156515867,0.982808113
105.182858,-5.922294617,7.805431366,-1.066711426,0.052717041,-0.156515867,0.982808113
105.183555,-5.922294617,7.805431366,-1.066711426,0.052717041,-0.156515867,0.982808113
105.222002,-8.172966003,-6.316577911,-0.296142578,0.051740479,-0.096579343,0.945088387
105.253651,-9.759880066,-14.487659454,-0.959899902,0.006086182,-0.106222898,0.933003426
105.268159,-10.499931335,-14.022266388,-1.165893555,-0.008684326,-0.113425046,0.924092293
105.322926,-10.675407410,7.111156464,-2.729919434,-0.005876709,-0.178732663,0.905415535
105.361491,-8.783317566,16.571605682,-0.731018066,0.058332276,-0.131125242,0.917012215
105.375730,-7.768608093,15.251720428,0.283691406,0.068586178,-0.133200437,0.933613777
105.391352,-6.708122253,7.164562225,-0.082519531,0.074933834,-0.099020749,0.969746590
105.429833,-4.823661804,-9.856616974,-1.631286621,0.040876221,-0.096701413,1.000752449
105.430608,-4.823661804,-9.856616974,-1.631286621,0.040876221,-0.096701413,1.000752449
105.431281,-4.823661804,-9.856616974,-1.631286621,0.040876221,-0.096701413,1.000752449
105.469531,-0.696159363,-4.165088654,-2.119567871,0.001447510,-0.101584226,1.010396004
105.483926,-0.444389343,-0.144397736,-1.127746582,0.003278564,-0.143332273,1.016987801
105.499381,-1.413322449,8.583629608,-1.219299316,0.017682862,-0.086569577,1.023457527
105.537973,1.684211731,21.965587616,3.961059570,0.078718014,-0.162009031,1.052144051
105.576491,-2.336479187,14.183605194,7.668945312,0.094220944,-0.114645749,1.066304207
105.590814,-4.220939636,0.618541718,9.828063965,0.078595944,-0.061789304,1.042012215
105.606489,-2.336479187,-15.441333771,9.049865723,0.026593994,0.041115969,0.986226082
105.607288,-2.336479187,-15.441333771,9.049865723,0.026593994,0.041115969,0.986226082
105.657514,3.225349426,-21.315967560,5.944702148,-0.108293705,-0.142721921,0.932637215
105.696077,7.772468567,5.364025116,2.946350098,-0.131609127,-0.142355710,0.912251472
105.710319,7.932685852,10.391796112,2.191040039,-0.113542728,-0.159689695,0.928853035
105.725882,6.734870911,14.244640350,-0.113037109,-0.068620853,-0.209860593,0.971699715
105.764215,0.486396790,7.744396210,-1.600769043,-0.028093506,-0.203390867,0.977192879
105.802727,-3.435112000,-9.597217560,-3.401306152,-0.019792724,-0.180319577,0.984150887
105.817102,-5.571342468,-15.296375275,-4.881408691,-0.043718506,-0.137717038,0.972065926
105.832491,-5.952812195,-15.044605255,-5.133178711,-0.054704834,-0.139792234,0.964253426
105.871004,-7.127738953,0.282848358,-4.942443848,-0.065202884,-0.155539304,0.965474129
105.909497,-6.723381042,16.052806854,-3.454711914,0.024152588,-0.156760007,0.980000496
105.923721,-6.166435242,18.227184296,-1.341369629,0.049177002,-0.175558835,0.997334480
105.939324,-8.043266296,17.059886932,3.556701660,0.081281491,-0.182150632,1.028096199
105.989795,-3.625846863,-15.532886505,2.931091309,0.076520748,-0.077902585,1.015767097
106.028330,-2.168632507,-21.331226349,3.488037109,-0.020769287,-0.202902585,1.032002449
106.042559,-2.206779480,-17.264759064,3.144714355,-0.030779053,-0.138815671,1.020527840
106.058013,1.867317200,-6.041919708,5.212280273,-0.035173584,-0.035544187,0.998921394
106.096568,6.170295715,3.021800995,4.662963867,-0.031999756,-0.037863523,1.034565926
106.135062,5.514167786,1.724803925,0.977966309,-0.009294678,-0.117453367,1.032979012
106.149425,4.690193176,1.541698456,2.053710938,0.001203369,-0.100973874,1.027119637
106.164930,4.385017395,-1.227771759,1.275512695,0.000348877,-0.066061765,1.000874519
106.203487,6.269477844,-6.308948517,-3.881958008,-0.027849365,-0.114523679,0.974873543
106.241988,1.829170227,4.540050507,-3.370788574,-0.014421631,-0.141012937,0.944722176
106.256216,1.699470520,13.062084198,-0.914123535,0.003400635,-0.113180906,0.914570808
106.271718,2.347969055,16.419017792,0.268432617,0.002546143,-0.123801023,0.913716316
106.310270,-0.093437195,19.035900116,0.527832031,0.036115479,-0.202536374,0.969014168
106.348795,-4.098869324,1.801097870,-0.853088379,0.054181885,-0.100973874,0.939229012
106.363158,-2.237297058,-6.972705841,-1.173522949,0.041730713,-0.119040281,0.944355965
106.378572,-1.886344910,-10.024463654,-1.074340820,0.030256104,-0.123312742,0.956074715
106.417086,-4.838920593,-9.810840607,-2.783325195,-0.011369873,-0.159689695,0.945698738
106.417868,-4.838920593,-9.810840607,-2.783325195,-0.011369873,-0.159689695,0.945698738
106.468539,-3.145195007,4.219615936,1.168701172,0.016218018,-0.132468015,0.990376472
106.482792,-2.283073425,3.365123749,2.671691895,0.021222901,-0.089499265,1.009419441
106.498378,-1.207328796,0.725353241,3.182861328,0.013898682,-0.073385984,1.017598152
106.536847,1.661323547,-9.231006622,-0.822570801,-0.027849365,-0.156760007,1.053975105
106.575340,4.888557434,3.120983124,-3.103759766,-0.084367923,-0.025046142,1.037251472
106.589586,6.147407532,9.132946014,-2.569702148,-0.087541752,-0.073019773,1.047627449
106.605034,6.269477844,19.043529510,-3.454711914,-0.064226322,-0.121237546,1.069844246
106.656030,4.423164368,15.541637421,1.565429688,0.021955322,-0.091208249,1.025532722
106.694677,7.932685852,-8.704578400,1.595947266,-0.019914795,-0.064963132,1.007832527
106.708936,7.772468567,-14.586841583,0.550720215,-0.038835693,-0.096823484,0.997334480
106.724385,7.108711243,-18.111621857,-0.502136230,-0.082170658,-0.152121335,0.964985847
106.762930,5.926155090,-1.342212677,-1.303222656,-0.119646244,-0.127707273,0.920308113
106.801411,3.057502747,11.795604706,-3.653076172,-0.048845459,-0.141745359,0.945088387
106.815635,1.264595032,12.024486542,-3.843811035,-0.029802490,-0.153586179,0.945942879
106.831242,-0.314689636,10.132396698,-2.951171875,0.003644775,-0.137717038,0.940449715
106.869722,-3.885246277,-3.699695587,-1.677062988,0.040143799,-0.186056882,0.928730965
106.908201,-2.244926453,-14.388477325,-1.242187500,-0.021745849,-0.145651609,0.931294441
106.922428,-2.054191589,-13.221179962,-2.279785156,-0.037370849,-0.144308835,0.943867683
106.937905,-2.199150085,-10.215198517,-1.814392090,-0.040300537,-0.133566648,0.958027840
106.976477,-2.412773132,4.570568085,0.611755371,-0.029436279,-0.172629148,1.011616707
107.014980,-2.809501648,5.982006073,2.168151855,0.007795166,-0.095846921,1.070088387
107.029200,-2.504325867,3.182018280,2.496215820,0.018781494,-0.124533445,1.095112801
107.044779,-3.122306824,1.320446014,2.900573730,0.021467041,-0.130026609,1.096821785
107.083285,2.614997864,-10.070240021,4.884216309,0.022443604,-0.030173095,1.101826668
107.121776,1.813911438,-17.913257599,0.146362305,-0.011614013,0.028786866,1.092549324
107.136003,2.958320618,-13.701831818,0.352355957,-0.016863037,0.042458743,1.070576668
107.151449,6.391548157,-0.770008087,2.305480957,-0.019304443,0.001321046,1.057759285
107.189995,0.928901672,9.934032440,4.807922363,0.020978760,-0.099875242,1.076313972
107.228504,3.034614563,-5.011951447,-0.647094727,0.028180908,-0.043600827,0.990010262
107.242722,3.347419739,-7.384693146,-0.738647461,0.027082276,-0.068259031,0.980488777
107.272125,1.722358704,-7.316028595,0.260803223,-0.006487060,-0.100851804,0.953633308
107.310684,0.783943176,0.946605682,-0.479248047,-0.012590576,-0.124167234,0.919575691
107.349197,0.188850403,9.506786346,1.725646973,-0.001482178,-0.147116452,0.914814949
107.363421,-0.253654480,9.834850311,1.702758789,0.004621338,-0.158102781,0.921040535
107.379015,-0.864006042,6.477916718,-0.227478027,0.026471924,-0.166647702,0.937520027
107.417530,-2.565361023,-0.029956818,-0.021484375,0.015851807,-0.137106687,0.959858894
107.456021,-4.602409363,1.114452362,-2.546813965,0.016095947,-0.151510984,0.969868660
107.470238,-4.274345398,1.938426971,-1.890686035,0.023664307,-0.146384031,0.975728035
107.485680,-3.969169617,3.563488007,-1.654174805,0.027082276,-0.146994382,1.004902840
107.524214,-5.830741882,0.786388397,1.252624512,0.022199463,-0.050192624,1.059224129
107.562692,-4.243827820,-14.739429474,-2.111938477,0.009504151,-0.059469968,1.090474129
107.576934,-3.915763855,-20.270740509,-3.630187988,-0.005388428,-0.124655515,1.088032722
107.592535,-4.411674500,-19.645130157,-2.478149414,-0.015398193,-0.139426023,1.086689949
107.593318,-4.411674500,-19.645130157,-2.478149414,-0.015398193,-0.139426023,1.086689949
107.594059,-4.938102722,-17.402088165,-2.272155762,-0.026506592,-0.147970945,1.078145027
107.594789,-4.938102722,-17.402088165,-2.272155762,-0.026506592,-0.147970945,1.078145027
107.595512,-4.938102722,-17.402088165,-2.272155762,-0.026506592,-0.147970945,1.078145027
107.647928,0.295661926,-4.660999298,-2.050903320,-0.010637451,-0.071554929,1.048848152
107.686476,2.630256653,4.898632050,-1.333740234,-0.015642334,-0.133322507,1.056660652
107.700720,1.546882629,7.271373749,-0.349548340,-0.010027099,-0.148947507,1.054463387
107.716344,-0.253654480,8.415782928,1.595947266,-0.002702881,-0.114157468,1.040059090
107.754835,1.791023254,-2.890979767,1.450988770,-0.034685303,-0.058981687,1.008809090
107.793323,-1.878715515,-8.086597443,-4.087951660,-0.066179447,-0.133322507,0.958271980
107.807544,-2.618766785,-5.736743927,-3.721740723,-0.065080814,-0.110983640,0.934956551
107.823007,-1.260734558,1.190746307,-3.355529785,-0.058611084,-0.079001218,0.908589363
107.861600,-0.810600281,4.631603241,-5.224731445,-0.020647217,-0.136618406,0.913594246
107.914272,-2.603507996,2.434337616,-6.231811523,0.039289307,-0.177878171,0.903340340
107.928694,-2.931571960,3.319347382,-4.858520508,0.049787354,-0.160177976,0.910298347
107.944101,-4.152275085,2.495372772,-3.073242188,0.065412350,-0.156393796,0.912739754
107.982774,-1.344657898,-4.432117462,-1.715209961,0.069562741,-0.109640867,0.918599129
108.021273,-2.572990417,-5.576526642,0.970336914,0.061261963,-0.160544187,0.992817879
108.035522,-3.129936218,-3.783618927,2.244445801,0.056501221,-0.156515867,1.000752449
108.051111,-3.465629578,0.465953827,6.417724609,0.044782471,-0.113913327,1.019307137
108.089618,-2.435661316,-3.447925568,6.516906738,0.038678955,-0.094504148,1.072896004
108.127948,-3.366447449,-8.918201447,7.951232910,-0.009050537,-0.107321531,1.055562019
108.142343,-2.016044617,-6.514942169,8.058044434,-0.033098388,-0.056662351,1.030537605
108.157779,0.310920715,-5.378162384,7.211181641,-0.038225342,-0.041769773,1.017964363
108.196318,7.390998840,2.243602753,1.664611816,-0.041643310,-0.020895751,0.986470222
108.234813,10.381721497,12.070262909,-0.929382324,-0.003191162,-0.105612546,1.011738777
108.249050,9.717964172,11.238658905,-2.005126953,0.015485596,-0.087301999,1.011494637
108.264631,9.000801086,7.187450409,-2.813842773,0.045392822,-0.072775632,0.992939949
108.303153,8.626960754,-1.403247833,-3.553894043,0.058332276,-0.075217038,0.971577644
108.341649,6.475471497,1.183116913,-0.807312012,0.067121334,-0.076926023,0.937153816
108.355880,6.376289368,3.494823456,1.199218750,0.070173092,-0.078512937,0.938252449
108.371356,4.667304993,5.882823944,3.709289551,0.073957272,-0.118429929,0.943745613
108.409932,2.233528137,-2.761280060,3.877136230,0.069196530,-0.115256101,0.938984871
108.448422,0.371955872,-1.922046661,4.441711426,0.040387940,-0.145651609,0.946553230
108.462657,-0.238395691,1.343334198,4.838439941,0.039289307,-0.144797117,0.950337410
108.478296,-2.153373718,6.332958221,5.341979980,0.056135010,-0.158713132,0.956929207
108.516814,-1.878715515,5.280101776,5.784484863,0.066755123,-0.088522702,0.967549324
108.570229,-1.710868835,6.180370331,6.616088867,0.032575440,-0.128317624,1.047871590
108.584526,-2.145744324,5.020702362,7.462951660,0.029157471,-0.112814695,1.057881355
108.600145,-0.925041199,-2.723133087,4.380676270,0.002912353,-0.094992429,1.081318855
108.638626,-2.550102234,-8.330738068,2.099487305,-0.043962646,-0.101828367,1.105366707
108.676960,-1.367546082,-3.280078888,0.482055664,-0.061296631,-0.035177976,1.063862801
108.691364,3.255867004,-0.281726837,-2.073791504,-0.047868896,-0.044455320,1.040913582
108.706819,6.406806946,4.555309296,-1.036193848,-0.016985107,-0.049704343,1.039082527
108.745386,9.199165344,7.340038300,0.024291992,0.016462158,-0.050192624,1.033223152
108.783870,8.878730774,1.625621796,1.412841797,0.039655518,-0.092673093,1.039937019
108.798103,7.474922180,-0.388538361,3.205749512,0.033429932,-0.096701413,1.037129402
108.813740,5.720161438,-1.334583282,4.167053223,0.028425049,-0.099631101,1.030171394
108.852221,3.187202454,-9.642993927,6.112548828,-0.010637451,-0.078146726,1.001484871
108.890549,-1.275993347,-11.603748322,4.090759277,-0.062029053,-0.094748288,0.974141121
108.904960,-1.871086121,-10.413562775,3.129455566,-0.070085697,-0.082297117,0.963032722
108.920424,-2.222038269,-7.911121368,1.374694824,-0.075334720,-0.095724851,0.953511238
108.974719,-3.770805359,-5.980884552,-2.119567871,-0.053362060,-0.111471921,0.955098152
109.013094,-6.639457703,-5.301868439,-4.751708984,-0.027483154,-0.153830320,0.968281746
109.027480,-7.600761414,-2.646839142,-3.057983398,-0.004289795,-0.154318601,0.968770027
109.042921,-7.776237488,-2.051746368,-2.592590332,0.001935791,-0.143576413,0.973042488
109.081484,-7.791496277,-2.433216095,-5.186584473,0.030500244,-0.171530515,0.997700691
109.119998,-11.224723816,8.980358124,3.838989258,0.080426998,-0.170553952,1.031514168
109.134223,-11.713005066,5.669200897,8.088562012,0.090192623,-0.098410398,1.040913582
109.149802,-11.125541687,-0.609790802,8.157226562,0.089948483,-0.067526609,1.037617683
109.188438,-3.648735046,-27.038013458,1.801940918,0.024274658,-0.116110593,1.005635262
109.242932,2.073310852,-3.112232208,3.152343750,-0.042253662,-0.112570554,1.010273933
109.257222,2.477668762,5.600536346,2.191040039,-0.010027099,-0.056662351,1.013447762
109.272840,3.286384583,6.386363983,1.199218750,0.002668213,-0.017721923,1.008198738
109.311153,8.581184387,1.518810272,-3.569152832,0.012800049,-0.064596921,1.015889168
109.349657,1.890205383,5.119884491,-2.249267578,0.027204346,-0.070578367,0.997578621
109.364060,4.163764954,2.998912811,-4.782226562,0.040265869,0.001809327,0.947041512
109.379592,6.437324524,1.633251190,-6.330993652,0.047956299,0.007180421,0.941670418
109.418191,5.315803528,5.447948456,-5.667236328,0.066999264,-0.106589109,0.950581551
109.456693,4.285835266,15.175426483,-3.195312500,0.097638912,-0.105856687,0.934834480
109.470935,3.438972473,16.754711151,-1.410034180,0.112043209,-0.122946531,0.939473152
109.486584,1.836799622,16.449535370,3.343078613,0.118390866,-0.117087156,0.958027840
109.525092,-2.702690125,0.626171112,1.794311523,0.081281491,-0.128317624,0.952168465
109.563430,-4.388786316,-2.990161896,2.961608887,0.037336182,-0.133688718,0.950337410
109.577838,-4.640556335,-1.517688751,3.022644043,0.022199463,-0.109518796,0.948262215
109.593311,-3.801322937,1.862133026,1.702758789,0.004987549,-0.101462156,0.950459480
109.631857,-4.343009949,7.027233124,-0.402954102,0.015729737,-0.125265867,0.974019051
109.632634,-4.343009949,7.027233124,-0.402954102,0.015729737,-0.125265867,0.974019051
109.633326,-4.343009949,7.027233124,-0.402954102,0.015729737,-0.125265867,0.974019051
109.634035,-4.343009949,7.027233124,-0.402954102,0.015729737,-0.125265867,0.974019051
109.634730,-4.343009949,7.027233124,-0.402954102,0.015729737,-0.125265867,0.974019051
109.635442,-4.343009949,7.027233124,-0.402954102,0.015729737,-0.125265867,0.974019051
109.636128,-4.343009949,7.027233124,-0.402954102,0.015729737,-0.125265867,0.974019051
109.636835,-4.343009949,7.027233124,-0.402954102,0.015729737,-0.125265867,0.974019051
109.637528,-4.343009949,7.027233124,-0.402954102,0.015729737,-0.125265867,0.974019051
109.638235,-4.343009949,7.027233124,-0.402954102,0.015729737,-0.125265867,0.974019051
109.638937,-4.343009949,7.027233124,-0.402954102,0.015729737,-0.125265867,0.974019051
109.639637,-4.343009949,7.027233124,-0.402954102,0.015729737,-0.125265867,0.974019051
109.640330,-4.343009949,7.027233124,-0.402954102,0.015729737,-0.125265867,0.974019051
109.678759,-2.611137390,7.469738007,0.123474121,-0.009050537,-0.079855710,1.023945808
109.693129,-3.320671082,4.929149628,-2.615478516,-0.020036865,-0.087301999,1.046406746
109.708549,-3.381706238,3.441417694,-4.293945312,-0.020158935,-0.094870359,1.046772957
109.747226,-1.703239441,7.843578339,-6.559875488,0.001081299,-0.134054929,1.033467293
109.785739,2.592109680,21.050060272,-2.180603027,0.058210205,-0.016623290,1.030781746
109.799967,6.704353333,18.410289764,-0.441101074,0.085187741,-0.054220945,1.045430183
109.815448,7.589363098,15.137279510,0.237915039,0.093122311,-0.094015867,1.056538582
109.870205,4.804634094,-6.461536407,5.097839355,0.038312744,-0.103659421,1.038472176
109.908747,5.437873840,-11.161243439,6.333801270,-0.032365967,-0.032126218,0.994893074
109.922979,6.727241516,-13.427173615,3.648254395,-0.071062259,-0.058981687,0.976216316
109.938450,6.689094543,-12.679492950,2.221557617,-0.083757572,-0.062155515,0.964375496
109.993535,6.292366028,4.715526581,0.268432617,-0.094133548,-0.083395749,0.935933113
110.032069,1.623176575,3.006542206,-3.317382812,-0.048235107,-0.183615476,0.953145027
110.046376,0.494026184,1.808727264,-2.989318848,-0.039446045,-0.156760007,0.955220222
110.061874,-1.413322449,-3.379261017,-3.141906738,-0.018327881,-0.154440671,0.961934090
110.100443,-2.351737976,-17.196094513,-5.308654785,-0.054582763,-0.063132077,0.959614754
110.139003,-3.961540222,-4.523670197,-7.299926758,-0.072649173,-0.109396726,0.954854012
110.153241,-3.793693542,2.571666718,-6.727722168,-0.060564209,-0.121115476,0.960957527
110.168829,-3.854728699,15.198314667,-6.361511230,-0.006609131,-0.158102781,0.994648933
110.207316,-7.173515320,17.975414276,0.588867188,0.098981686,-0.110617429,1.050557137
110.208176,-7.173515320,17.975414276,0.588867188,0.098981686,-0.110617429,1.050557137
110.208970,-7.173515320,17.975414276,0.588867188,0.098981686,-0.110617429,1.050557137
110.209772,-7.173515320,17.975414276,0.588867188,0.098981686,-0.110617429,1.050557137
110.210570,-7.173515320,17.975414276,0.588867188,0.098981686,-0.110617429,1.050557137
110.211381,-7.173515320,17.975414276,0.588867188,0.098981686,-0.110617429,1.050557137
110.212159,-7.173515320,17.975414276,0.588867188,0.098981686,-0.110617429,1.050557137
110.212981,-7.173515320,17.975414276,0.588867188,0.098981686,-0.110617429,1.050557137
110.213766,-7.173515320,17.975414276,0.588867188,0.098981686,-0.110617429,1.050557137
110.214570,-7.173515320,17.975414276,0.588867188,0.098981686,-0.110617429,1.050557137
110.215367,-7.173515320,17.975414276,0.588867188,0.098981686,-0.110617429,1.050557137
110.216173,-7.173515320,17.975414276,0.588867188,0.098981686,-0.110617429,1.050557137
110.216952,-7.173515320,17.975414276,0.588867188,0.098981686,-0.110617429,1.050557137
110.217774,-6.875968933,13.184154510,0.489685059,0.105207272,-0.072409421,1.058613777
110.218530,-6.875968933,13.184154510,0.489685059,0.105207272,-0.072409421,1.058613777
110.257009,-3.671623230,-13.434803009,0.466796875,0.093732662,-0.043600827,1.056904793
110.271248,-3.259635925,-18.126880646,0.955078125,0.086164303,-0.093649656,1.051411629
110.286854,-2.328849792,-20.369922638,3.953430176,0.043195557,-0.137472898,1.038594246
110.325233,0.753425598,-8.757984161,3.594848633,0.005597901,-0.064841062,1.016987801
110.363729,6.261848450,9.178722382,6.074401855,0.036969971,0.004372803,1.042744637
110.378111,8.367561340,8.537853241,5.067321777,0.043927979,-0.044821531,1.058247566
110.393503,8.085273743,7.057750702,5.425903320,0.042463135,-0.086447507,1.067280769
110.432032,3.568672180,-0.548755646,6.814453125,0.016584229,-0.036276609,1.057881355
110.470512,5.308174133,-10.657703400,0.268432617,-0.058611084,-0.007590087,0.999043465
110.484738,5.331062317,-9.963428497,-1.364257812,-0.067766361,-0.022116454,0.989644051
110.500465,4.316352844,-3.318225861,-2.913024902,-0.069109134,-0.072165281,0.971211433
110.550816,-0.513053894,17.838085175,0.947448730,0.018781494,-0.143454343,0.928730965
110.589347,-2.527214050,4.929149628,2.191040039,0.066510983,-0.109274656,0.925923347
110.603569,-2.649284363,-1.029407501,1.809570312,0.060407471,-0.099753171,0.924092293
110.619158,-3.236747742,-12.320911407,0.260803223,0.031232666,-0.114401609,0.912739754
110.657719,-2.031303406,-13.503467560,-2.378967285,-0.031633545,-0.105978757,0.893330574
110.696221,-1.573539734,5.928600311,-0.616577148,-0.004656006,-0.125387937,0.924336433
110.710614,-1.718498230,8.507335663,0.092956543,0.003278564,-0.124899656,0.936787605
110.726027,-1.504875183,7.774913788,-2.317932129,0.017438721,-0.157370359,0.967305183
110.764576,-2.870536804,-3.165637970,-2.752807617,0.020368408,-0.049582273,0.995991707
110.803079,0.448249817,-13.053333282,-4.156616211,-0.020281006,-0.044211179,1.036641121
110.817312,0.234626770,-14.640247345,-7.559326172,-0.048601318,-0.094015867,1.037617683
110.832959,0.417732239,-12.450611115,-8.451965332,-0.053606201,-0.084494382,1.030903816
110.871315,6.536506653,10.109508514,-8.009460449,-0.014055420,-0.076437742,1.014546394
110.921915,10.404609680,20.790660858,-4.553344727,0.085676022,-0.077048093,1.041768074
110.936170,10.023139954,15.915477753,-2.424743652,0.118390866,-0.093283445,1.051289558
110.951642,9.931587219,12.398326874,-0.303771973,0.126203373,-0.093527585,1.053120613
110.990180,9.328865051,-13.533985138,1.222106934,0.079084225,0.004983155,1.029072762
111.028695,10.000251770,-19.530689240,2.053710938,-0.029314209,-0.079367429,1.014912605
111.043031,6.513618469,-10.779773712,2.694580078,-0.072527103,-0.111227781,1.007100105
111.058674,4.758857727,-5.385791779,2.419921875,-0.082658939,-0.083761960,0.994648933
111.097180,4.224800110,10.788524628,1.550170898,-0.039446045,-0.076926023,0.990254402
111.135701,-2.687431335,1.289928436,-0.753906250,-0.008806396,-0.109030515,1.004048347
111.149938,-3.801322937,-3.470813751,-1.638916016,-0.009294678,-0.096823484,0.991108894
111.165400,-4.495597839,-11.283313751,-2.195861816,-0.025896240,-0.058859617,0.971821785
111.216260,-4.838920593,-8.086597443,-5.819824219,-0.086076908,-0.090964109,0.979878426
111.254819,-5.647636414,9.415233612,-7.475402832,-0.031023193,-0.133444577,0.992817879
111.269050,-5.334831238,13.550365448,-6.613281250,-0.005632568,-0.139670163,1.007344246
111.284500,-5.754447937,18.265331268,-3.775146484,0.038678955,-0.146506101,1.050801277
111.323040,-7.913566589,2.007091522,-2.836730957,0.094831295,-0.057150632,1.091084480
111.361543,-3.122306824,-16.829883575,-1.982238770,0.060407471,-0.103903562,1.073384285
111.375787,-3.938652039,-15.700733185,0.100585938,0.040632080,-0.129416257,1.076802254
111.391554,-5.510307312,-8.605396271,0.703308105,0.014997315,-0.076193601,1.061299324
111.430052,-0.169731140,7.576549530,3.282043457,0.030744385,0.035134524,1.027241707
111.468550,2.058052063,8.682811737,1.244995117,0.051374268,-0.004904540,1.023457527
111.482783,2.599739075,7.782543182,2.809020996,0.064679928,-0.073508054,1.025288582
111.498250,2.294563293,6.569469452,4.083129883,0.067853756,-0.081564695,1.027974129
111.536793,0.867866516,-9.528553009,1.779052734,0.039777588,0.022561280,0.986470222
111.537573,0.867866516,-9.528553009,1.779052734,0.039777588,0.022561280,0.986470222
111.538269,0.867866516,-9.528553009,1.779052734,0.039777588,0.022561280,0.986470222
111.538990,1.974128723,-13.373767853,0.153991699,0.027204346,0.023171632,0.970234871
111.577363,2.935432434,-11.062061310,-1.890686035,-0.018083740,-0.031515867,0.944722176
111.591587,2.103828430,0.115001678,-0.372436523,-0.020647217,-0.061545163,0.932759285
111.607163,1.501106262,6.134593964,0.443908691,-0.011980224,-0.084128171,0.924946785
111.645655,0.463508606,13.802135468,3.053161621,0.052839112,-0.109274656,0.922139168
111.684191,0.127815247,1.717174530,3.091308594,0.063825436,-0.118429929,0.943257332
111.698423,-1.756645203,-4.859363556,3.480407715,0.045514893,-0.141257077,0.954121590
111.713858,-2.847648621,-7.529651642,2.885314941,0.030866455,-0.138449460,0.951191902
111.752400,-3.358818054,-3.432666779,0.352355957,-0.010515381,-0.120627195,0.931416512
111.790892,-4.831291199,6.882274628,1.878234863,0.024640869,-0.098288327,0.963276863
111.818935,-3.694511414,1.770580292,0.405761719,0.041242432,-0.130270749,0.997090340
111.833201,-4.114128113,-0.579273224,1.023742676,0.036847901,-0.097067624,1.008931160
111.871616,-0.635124207,-7.087146759,0.291320801,-0.016985107,-0.065451413,1.074238777
111.910129,-4.419303894,-2.921497345,-2.470520020,-0.037248779,-0.050314695,1.057637215
111.924364,-2.702690125,-0.022327423,-2.272155762,-0.033952881,-0.023459228,1.043110847
111.953726,1.379035950,6.439769745,-0.326660156,-0.001970459,0.003884522,1.018208504
111.992291,8.657478333,-0.808155060,0.138732910,0.014753174,0.006203858,0.995625496
112.030811,11.106513977,-2.562915802,0.337097168,-0.038103271,-0.073019773,1.012227058
112.045063,9.908699036,-0.266468048,0.680419922,-0.049455810,-0.070700437,1.016255379
112.060633,8.474372864,3.288829803,1.611206055,-0.063738041,-0.038107663,1.016133308
112.098942,7.360481262,-1.021778107,-1.402404785,-0.068132572,-0.094992429,1.014302254
112.137437,2.676033020,-3.997241974,-6.773498535,-0.077654056,-0.094870359,0.971943855
112.167042,2.584480286,0.984752655,-10.038879395,-0.051897217,-0.083029538,0.967305183
112.181323,2.180122375,2.701366425,-10.588195801,-0.032488037,-0.076193601,0.974141121
112.219748,-0.696159363,5.142772675,-10.084655762,0.034162354,-0.101828367,0.987080574
112.258250,-3.702140808,0.938976288,-6.918457031,0.077375241,-0.092062742,1.004536629
112.272669,-4.075981140,-1.136219025,-6.361511230,0.082135983,-0.097189695,1.006733894
112.288095,-5.243278503,-4.836475372,-5.278137207,0.084577389,-0.104880124,1.010273933
112.326643,-6.967521667,-1.456653595,-0.502136230,0.080182858,-0.122702390,1.036885262
112.365124,-10.530448914,1.640880585,4.868957520,0.088849850,-0.095724851,1.062031746
112.379364,-10.759330750,0.809276581,6.906005859,0.086408444,-0.080099851,1.065693855
112.394980,-11.140800476,-4.119312286,9.973022461,0.064069577,-0.003927978,1.074482918
112.433339,-7.974601746,-16.555225372,5.563232422,-0.013689209,-0.098044187,1.057393074
112.486145,-4.259086609,3.548229218,7.958862305,-0.052141357,-0.017721923,1.023823738
112.500431,-2.191520691,5.913341522,6.509277344,-0.040544678,0.005349366,1.020039558
112.515865,0.783943176,6.828868866,5.380126953,-0.022722412,0.034157962,1.025044441
112.554431,4.003547668,0.702465057,0.398132324,-0.036394287,-0.076437742,1.040669441
112.592921,-1.359916687,3.464305878,0.489685059,-0.019426513,-0.063132077,1.018086433
112.607274,-1.527763367,2.945507050,0.001403809,-0.013078857,-0.030417236,0.999531746
112.622669,-0.055290222,-0.632678986,-3.202941895,-0.006120849,-0.004294189,0.966938972
112.661189,0.562690735,-0.487720490,-5.491760254,0.004865479,-0.063132077,0.938984871
112.699674,-0.894523621,9.041393280,-1.028564453,0.054426026,-0.125510007,0.924458504
112.713913,-2.290702820,8.606517792,0.733825684,0.068952389,-0.138693601,0.919575691
112.729355,-2.717948914,7.011974335,1.023742676,0.074567623,-0.132468015,0.916401863
112.730207,-2.717948914,7.011974335,1.023742676,0.074567623,-0.132468015,0.916401863
112.730962,-2.717948914,7.011974335,1.023742676,0.074567623,-0.132468015,0.916401863
112.731711,-3.046012878,5.043590546,1.397583008,0.078351803,-0.131857663,0.914570808
112.732434,-3.046012878,5.043590546,1.397583008,0.078351803,-0.131857663,0.914570808
112.733173,-3.046012878,5.043590546,1.397583008,0.078351803,-0.131857663,0.914570808
112.734018,-3.046012878,5.043590546,1.397583008,0.078351803,-0.131857663,0.914570808
112.734709,-3.046012878,5.043590546,1.397583008,0.078351803,-0.131857663,0.914570808
112.735419,-3.046012878,5.043590546,1.397583008,0.078351803,-0.131857663,0.914570808
112.736151,-3.046012878,5.043590546,1.397583008,0.078351803,-0.131857663,0.914570808
112.736862,-3.046012878,5.043590546,1.397583008,0.078351803,-0.131857663,0.914570808
112.737600,-3.046012878,5.043590546,1.397583008,0.078351803,-0.131857663,0.914570808
112.738315,-3.046012878,5.043590546,1.397583008,0.078351803,-0.131857663,0.914570808
112.776764,-3.541923523,-4.432117462,3.228637695,0.065046139,-0.106344968,0.916157722
112.815097,-4.129386902,-10.672962189,1.832458496,0.014875244,-0.117575437,0.914814949
112.829495,-3.946281433,-9.414112091,1.428100586,0.004621338,-0.115744382,0.916646004
112.844919,-3.915763855,-3.592884064,1.145812988,-0.004656006,-0.146506101,0.927510262
112.883464,-3.938652039,7.263744354,1.656982422,0.018781494,-0.136984617,0.969502449
112.921986,-3.412223816,-0.464832306,1.603576660,0.025007080,-0.079245359,1.031636238
112.936204,-3.046012878,-4.241382599,0.840637207,0.014997315,-0.083273679,1.045796394
112.951794,-2.763725281,-9.482776642,-0.708129883,-0.013567138,-0.083029538,1.063984871
112.990273,-3.610588074,-0.190174103,-1.860168457,-0.034929443,-0.117087156,1.062886238
113.028769,-0.352836609,11.810863495,0.466796875,-0.006609131,-0.031515867,1.048115730
113.043005,2.447151184,11.559093475,2.267333984,0.010236572,-0.031271726,1.056538582
113.058462,3.164314270,8.667552948,2.618286133,0.011945557,-0.031271726,1.061665535
113.059297,3.164314270,8.667552948,2.618286133,0.011945557,-0.031271726,1.061665535
113.112637,2.996467590,-10.840808868,-1.616027832,-0.079485111,-0.102438718,1.032734871
113.166996,2.203010559,3.212535858,-4.210021973,-0.136003658,-0.106833249,0.981099129
113.181256,0.730537415,10.635936737,-6.277587891,-0.103777103,-0.132712156,0.956440926
113.196703,0.501655579,13.313854218,-6.254699707,-0.078264408,-0.137839109,0.947285652
113.235244,0.005744934,7.416332245,-9.665039062,-0.017717529,-0.053244382,0.918965340
113.273857,1.165412903,-2.387439728,-12.808349609,0.024030518,-0.130759031,0.917134285
113.288259,-0.696159363,-2.753650665,-10.038879395,0.037946533,-0.153830320,0.916279793
113.303670,-1.222587585,-3.356372833,-9.153869629,0.038190674,-0.141867429,0.917866707
113.342205,-1.451469421,-9.940540314,-9.245422363,0.042829346,-0.141989499,0.948628426
113.380697,-2.794242859,-10.169422150,-7.879760742,0.037824463,-0.165549070,0.967915535
113.394939,-3.274894714,-8.788501740,-8.032348633,0.033552002,-0.160666257,0.973286629
113.426359,-4.892326355,-0.548755646,-8.467224121,0.055158447,-0.160544187,0.996724129
113.465035,-4.426933289,11.467540741,-0.555541992,0.101789303,-0.127585202,1.044087410
113.503589,-4.899955750,2.480113983,2.633544922,0.118512936,-0.060812742,1.062275887
113.517835,-2.504325867,-6.339466095,2.435180664,0.103864498,-0.107199460,1.050312996
113.533299,-1.573539734,-8.994495392,2.717468262,0.091779537,-0.133688718,1.051533699
113.571861,-0.055290222,-6.820117950,5.937072754,0.036359619,-0.057883054,1.036274910
113.610389,7.253669739,1.694286346,4.586669922,0.011701416,-0.016745361,1.027485847
113.624768,8.115791321,3.479564667,3.503295898,0.011701416,-0.047629148,1.039082527
113.640170,6.902717590,7.164562225,2.793762207,0.015485596,-0.111227781,1.050679207
113.641005,6.902717590,7.164562225,2.793762207,0.015485596,-0.111227781,1.050679207
113.641737,6.902717590,7.164562225,2.793762207,0.015485596,-0.111227781,1.050679207
113.642477,6.902717590,7.164562225,2.793762207,0.015485596,-0.111227781,1.050679207
113.643193,6.902717590,7.164562225,2.793762207,0.015485596,-0.111227781,1.050679207
113.643930,6.902717590,7.164562225,2.793762207,0.015485596,-0.111227781,1.050679207
113.644638,6.902717590,7.164562225,2.793762207,0.015485596,-0.111227781,1.050679207
113.645374,6.902717590,7.164562225,2.793762207,0.015485596,-0.111227781,1.050679207
113.646083,6.170295715,8.919322968,2.709838867,0.020856690,-0.122336179,1.051655769
113.646817,6.170295715,8.919322968,2.709838867,0.020856690,-0.122336179,1.051655769
113.647530,6.170295715,8.919322968,2.709838867,0.020856690,-0.122336179,1.051655769
113.648264,6.170295715,8.919322968,2.709838867,0.020856690,-0.122336179,1.051655769
113.648977,6.170295715,8.919322968,2.709838867,0.020856690,-0.122336179,1.051655769
113.649712,6.170295715,8.919322968,2.709838867,0.020856690,-0.122336179,1.051655769
113.650424,6.170295715,8.919322968,2.709838867,0.020856690,-0.122336179,1.051655769
113.688867,1.890205383,8.476818085,4.571411133,0.057233643,-0.056662351,1.023335457
113.727379,4.949592590,-8.140003204,-1.394775391,0.036969971,-0.038107663,0.988179207
113.741605,4.308723450,-8.193408966,-2.066162109,0.024152588,-0.068503171,0.978169441
113.757214,3.561042786,0.565135956,-0.784423828,0.012555908,-0.109274656,0.960591316
113.811865,-2.725578308,20.943248749,5.822631836,0.095319577,-0.169089109,0.946553230
113.850432,-4.320121765,4.509532928,7.783386230,0.106794186,-0.094992429,0.929463387
113.864655,-3.213859558,-5.553638458,7.989379883,0.086652584,-0.073141843,0.918232918
113.880282,-2.283073425,-8.788501740,8.553955078,0.070661373,-0.079489499,0.920186043
113.918801,-2.550102234,-9.421741486,6.570312500,-0.007829834,-0.144919187,0.930317879
113.957136,-2.328849792,4.433238983,6.738159180,-0.011980224,-0.151633054,0.964497566
113.971532,-2.778984070,6.661022186,7.150146484,-0.005022217,-0.165060788,0.979146004
113.987001,-4.312492371,7.019603729,5.227539062,0.006818604,-0.183981687,1.002461433
114.025672,-5.090690613,0.443065643,4.601928711,0.012433838,-0.064841062,1.033833504
114.064208,-4.411674500,-9.848987579,2.374145508,-0.030046631,-0.112326413,1.077778816
114.096284,-5.105949402,-7.079517365,-1.150634766,-0.046159912,-0.090597898,1.037861824
114.110551,-4.106498718,-3.150379181,-0.898864746,-0.040544678,-0.076803952,1.021016121
114.148972,2.279304504,8.766735077,3.442260742,-0.019792724,-0.031760007,1.012837410
114.187476,7.406257629,3.830516815,2.473327637,-0.000383545,-0.144064695,1.028828621
114.201714,6.742500305,3.006542206,3.533813477,0.001081299,-0.158713132,1.030171394
114.217290,5.468391418,1.114452362,5.799743652,-0.013811279,-0.117331296,1.023579597
114.255811,7.192634583,-7.552539825,1.534912109,-0.069475345,-0.084006101,1.005146980
114.256578,7.192634583,-7.552539825,1.534912109,-0.069475345,-0.084006101,1.005146980
114.257281,7.192634583,-7.552539825,1.534912109,-0.069475345,-0.084006101,1.005146980
114.257993,7.192634583,-7.552539825,1.534912109,-0.069475345,-0.084006101,1.005146980
114.258700,7.192634583,-7.552539825,1.534912109,-0.069475345,-0.084006101,1.005146980
114.259424,7.192634583,-7.552539825,1.534912109,-0.069475345,-0.084006101,1.005146980
114.260116,7.192634583,-7.552539825,1.534912109,-0.069475345,-0.084006101,1.005146980
114.260836,7.192634583,-7.552539825,1.534912109,-0.069475345,-0.084006101,1.005146980
114.261540,7.192634583,-7.552539825,1.534912109,-0.069475345,-0.084006101,1.005146980
114.262255,6.383918762,-7.773792267,-0.471618652,-0.072771244,-0.134054929,1.000996590
114.300637,3.210090637,-0.670825958,0.863525391,-0.069231205,-0.122824460,0.982319832
114.314851,2.531074524,3.189647675,-0.235107422,-0.065080814,-0.094504148,0.983174324
114.330276,1.760505676,3.120983124,-1.768615723,-0.058244873,-0.080832273,0.983052254
114.368808,0.150703430,-2.082263947,-4.866149902,-0.002458740,-0.106711179,0.959980965
114.407301,-1.779533386,-8.841907501,-3.653076172,0.005842041,-0.123434812,0.968647957
114.421527,-3.717399597,-11.313831329,-3.630187988,0.001203369,-0.112692624,0.966450691
114.437130,-3.953910828,-11.176502228,-3.241088867,-0.004045654,-0.110617429,0.962056160
114.487427,-4.922843933,-0.815784454,-1.944091797,-0.010515381,-0.150900632,0.967305183
114.526021,-5.655265808,5.623424530,-0.868347168,0.017560791,-0.146628171,0.994526863
114.540258,-5.655265808,7.027233124,0.237915039,0.030256104,-0.169089109,1.018818855
114.555865,-6.593681335,6.813610077,1.107666016,0.041242432,-0.179953367,1.030049324
114.594386,-7.326103210,-2.585803986,3.800842285,0.053693604,-0.059225827,1.012104988
114.632707,-2.687431335,-11.397754669,3.533813477,-0.004411865,-0.144064695,1.005635262
114.647126,-2.672172546,-9.032642365,3.617736816,-0.020281006,-0.128073484,0.996479988
114.662594,0.249885559,-1.410877228,5.395385742,-0.031511474,-0.060690671,0.969380379
114.701163,9.275459290,6.470287323,2.130004883,-0.037004638,-0.062155515,1.007954597
114.739659,10.320686340,11.665904999,-1.234558105,-0.036394287,-0.102804929,1.049092293
114.753917,9.740852356,12.611949921,-1.303222656,-0.020158935,-0.125143796,1.065815926
114.769565,5.170845032,10.880077362,-1.440551758,0.013654541,-0.164206296,1.082295418
114.808068,1.424812317,-0.434314728,-1.303222656,0.011091065,-0.026266845,1.058857918
114.846584,1.806282043,-11.649524689,-7.208374023,-0.033098388,-0.021994384,1.007100105
114.860825,0.158332825,-3.318225861,-6.308105469,-0.033220459,-0.087790281,0.975483894
114.876304,-0.406242371,2.495372772,-4.995849609,-0.026506592,-0.091574460,0.961689949
114.914842,-1.626945496,14.969432831,-2.409484863,0.042341065,-0.120505124,0.942646980
114.915624,-1.626945496,14.969432831,-2.409484863,0.042341065,-0.120505124,0.942646980
114.916318,-1.626945496,14.969432831,-2.409484863,0.042341065,-0.120505124,0.942646980
114.917043,-1.626945496,14.969432831,-2.409484863,0.042341065,-0.120505124,0.942646980
114.917745,-1.733757019,13.611400604,-2.081420898,0.056867432,-0.112570554,0.940205574
114.918472,-1.733757019,13.611400604,-2.081420898,0.056867432,-0.112570554,0.940205574
114.919160,-1.733757019,13.611400604,-2.081420898,0.056867432,-0.112570554,0.940205574
114.919889,-1.733757019,13.611400604,-2.081420898,0.056867432,-0.112570554,0.940205574
114.920587,-1.733757019,13.611400604,-2.081420898,0.056867432,-0.112570554,0.940205574
114.971060,-0.406242371,-5.416309357,-0.463989258,0.047590088,-0.097433835,0.944722176
114.985468,-0.497795105,-9.017383575,-1.646545410,0.028669190,-0.110007077,0.948628426
115.000859,-1.420951843,-11.825000763,-0.959899902,-0.012834717,-0.127218992,0.955220222
115.039402,-2.679801941,-5.767261505,-5.583312988,-0.063249759,-0.151633054,0.954976082
115.077893,-3.404594421,11.406505585,-4.377868652,-0.031023193,-0.144064695,1.007954597
115.105791,-5.578971863,8.865917206,-5.461242676,-0.013811279,-0.094870359,1.032246590
115.120074,-4.007316589,-0.564014435,-8.383300781,-0.020036865,-0.042258054,1.043965340
115.158514,-4.411674500,-7.827198029,-13.083007812,-0.060686279,-0.104880124,1.055317879
115.197133,-4.678703308,8.545482635,-11.595275879,-0.010637451,-0.074484617,0.997456551
115.211391,-2.374626160,10.826671600,-9.398010254,0.007795166,-0.044333249,0.992939949
115.226954,0.356697083,7.111156464,-8.284118652,0.021344971,-0.065207273,0.997700691
115.265291,4.621528625,-7.445728302,-12.182739258,0.005231690,-0.067160398,0.991353035
115.303773,6.498359680,1.846874237,-10.382202148,-0.046037842,-0.153708249,1.025166512
115.318166,4.003547668,11.643016815,-7.467773438,-0.029680420,-0.104513913,1.022603035
115.333705,3.606819153,13.123119354,-8.116271973,-0.012102295,-0.078512937,1.011494637
115.372273,6.963752747,6.653392792,-7.902648926,0.020002197,-0.038107663,0.988423347
115.410793,2.340339661,3.204906464,-6.994750977,0.031232666,-0.106344968,0.984150887
115.425035,1.020454407,1.732433319,-5.224731445,0.034528565,-0.125265867,0.960713387
115.440644,0.562690735,0.816905975,-4.591491699,0.027814697,-0.100119382,0.955830574
115.478985,-1.726127625,-6.400501251,-3.996398926,-0.006487060,-0.051657468,0.974141121
115.517492,-3.389335632,-10.856067657,-4.164245605,-0.042375732,-0.105856687,0.935078621
115.531867,-3.091789246,-9.833728790,-4.164245605,-0.054216553,-0.126120359,0.927266121
115.547311,-3.030754089,-6.804859161,-5.980041504,-0.066179447,-0.134299070,0.922749519
115.548152,-3.030754089,-6.804859161,-5.980041504,-0.066179447,-0.134299070,0.922749519
115.548895,-3.030754089,-6.804859161,-5.980041504,-0.066179447,-0.134299070,0.922749519
115.549631,-3.030754089,-6.804859161,-5.980041504,-0.066179447,-0.134299070,0.922749519
115.550356,-3.030754089,-6.804859161,-5.980041504,-0.066179447,-0.134299070,0.922749519
115.551085,-3.030754089,-6.804859161,-5.980041504,-0.066179447,-0.134299070,0.922749519
115.551809,-3.030754089,-6.804859161,-5.980041504,-0.066179447,-0.134299070,0.922749519
115.552541,-3.030754089,-6.804859161,-5.980041504,-0.066179447,-0.134299070,0.922749519
115.553266,-3.030754089,-6.804859161,-5.980041504,-0.066179447,-0.134299070,0.922749519
115.554000,-3.061271667,-4.409229279,-6.849792480,-0.065691166,-0.151266843,0.921772957
