time,gyro x,gyro y,gyro z,accel x,accel y,accel z
25.771577,2.403289795,13.303993225,-2.852241516,-0.229110107,0.085180663,-1.074747443
25.772282,1.052886963,12.708900452,-3.050605774,-0.226668701,0.083471678,-1.076334357
25.772907,-0.366180420,12.586830139,-3.142158508,-0.234114990,0.084692381,-1.074625373
25.773532,-1.983612061,12.274024963,-3.363410950,-0.234359130,0.084326170,-1.074869514
25.774157,-3.562896729,12.228248596,-3.439704895,-0.234114990,0.082373045,-1.076944709
25.774782,-4.699676514,11.717079163,-3.363410950,-0.236068115,0.076513670,-1.078043342
25.775407,-5.836456299,11.556861877,-3.676216125,-0.237044677,0.075659178,-1.077677131
25.776032,-6.980865479,11.274574280,-3.554145813,-0.236922607,0.070776366,-1.076334357
25.776658,-8.247344971,10.702369690,-3.638069153,-0.236434326,0.064916991,-1.075113654
25.777283,-9.185760498,10.504005432,-3.783027649,-0.235213622,0.060400389,-1.074503303
25.777910,-10.238616943,10.328529358,-3.927986145,-0.235335693,0.057470702,-1.074503303
25.778537,-11.215179443,10.267494202,-3.866950989,-0.235335693,0.053808592,-1.070841193
25.779162,-12.031524658,9.870765686,-4.103462219,-0.234481201,0.050634764,-1.071695685
25.779787,-12.992828369,9.351966858,-3.996650696,-0.235823974,0.048315428,-1.073770881
25.781559,-15.235870361,8.535621643,-4.492561340,-0.233992919,0.029638672,-1.069010139
25.782184,-15.686004639,8.428810120,-4.233161926,-0.236800537,0.026953125,-1.069498420
25.782809,-15.914886475,8.123634338,-4.629890442,-0.237410888,0.018041993,-1.069132209
25.783434,-16.357391357,7.658241272,-4.484931946,-0.236068115,0.015112305,-1.069986701
25.784060,-16.685455322,7.185218811,-4.530708313,-0.234359130,0.007788086,-1.070474982
25.792447,-14.221160889,3.523109436,-4.965583801,-0.234725341,-0.049707033,-1.058756232
25.793072,-14.022796631,3.217933655,-4.812995911,-0.234725341,-0.053735353,-1.056803107
25.793698,-13.275115967,3.134010315,-5.026618958,-0.239119872,-0.053491212,-1.054361701
25.794324,-12.817352295,2.859352112,-5.087654114,-0.239364013,-0.054956056,-1.056681037
25.794950,-12.214630127,2.424476624,-4.828254700,-0.237655029,-0.054467775,-1.054239631
25.795576,-11.543243408,2.043006897,-4.919807434,-0.238875732,-0.059228517,-1.055460334
25.796202,-10.917633057,1.890419006,-4.881660461,-0.239119872,-0.057641603,-1.054117560
25.796828,-10.269134521,1.585243225,-4.851142883,-0.239974365,-0.063378908,-1.050455451
25.797454,-9.689300537,1.333473206,-4.843513489,-0.238753662,-0.064721681,-1.052286506
25.798079,-9.033172607,1.348731995,-4.866401672,-0.238143310,-0.066430666,-1.050333381
25.798705,-8.621185303,0.929115295,-4.759590149,-0.238021240,-0.067285158,-1.048990607
25.799331,-7.820098877,0.601051331,-4.751960754,-0.240584716,-0.070214845,-1.047891974
25.799958,-7.141082764,0.578163147,-4.668037415,-0.237288818,-0.071435548,-1.050211310
25.800584,-6.515472412,0.219581604,-4.736701965,-0.238021240,-0.072534181,-1.048868537
25.801210,-5.950897217,0.204322815,-4.721443176,-0.235457763,-0.073022462,-1.046182990
25.802881,-4.226654053,-0.337364197,-4.599372864,-0.233016357,-0.074731447,-1.043497443
25.803507,-3.387420654,-0.673057556,-4.584114075,-0.231673583,-0.072778322,-1.040201545
25.804132,-2.960174561,-0.962974548,-4.507820129,-0.230697021,-0.074853517,-1.038858771
25.804757,-2.418487549,-1.100303650,-4.332344055,-0.227401122,-0.073144533,-1.035684943
25.805382,-1.693695068,-0.886680603,-4.500190735,-0.225081787,-0.075708009,-1.037638068
25.806009,-1.289337158,-1.252891541,-4.362861633,-0.225692138,-0.075952150,-1.038370490
25.806636,-0.884979248,-1.580955505,-4.271308899,-0.223372802,-0.072900392,-1.039347053
25.807263,-0.350921631,-1.626731873,-4.301826477,-0.225814208,-0.078393556,-1.033487678
25.807888,0.381500244,-1.825096130,-4.111091614,-0.220198974,-0.076440431,-1.037882209
25.808515,0.518829346,-2.000572205,-4.111091614,-0.218978271,-0.077294923,-1.034220099
25.809141,1.281768799,-2.191307068,-4.072944641,-0.221175537,-0.077783205,-1.033731818
25.809766,1.670867920,-2.221824646,-3.958503723,-0.218734130,-0.079736330,-1.032144904
25.810393,1.998931885,-2.527000427,-3.981391907,-0.219344482,-0.079858400,-1.031534553
25.824290,15.350372314,-5.395652771,-2.516548157,-0.190413818,-0.102075197,-1.030557990
25.825005,15.937835693,-5.578758240,-2.600471497,-0.186385497,-0.104028322,-1.028849006
25.825631,16.700775146,-5.944969177,-2.577583313,-0.185164794,-0.105493166,-1.032266974
25.826257,17.478973389,-5.983116150,-2.333442688,-0.185653076,-0.105737306,-1.031412482
25.826884,18.371612549,-5.868675232,-2.249519348,-0.185286865,-0.107568361,-1.028849006
25.827510,19.310028076,-6.211997986,-2.264778137,-0.185408935,-0.107446291,-1.027140021
25.828136,19.821197510,-6.349327087,-2.119819641,-0.184432372,-0.104516603,-1.026773810
25.828761,20.797760010,-6.334068298,-2.234260559,-0.182845458,-0.105981447,-1.026773810
25.829387,21.629364014,-6.562950134,-2.241889954,-0.180648193,-0.107568361,-1.026407599
25.830012,22.361785889,-6.662132263,-2.165596008,-0.179549560,-0.105737306,-1.024088264
25.830638,23.063690186,-6.585838318,-1.951972961,-0.181746826,-0.108544923,-1.022501349
25.831263,23.986846924,-6.845237732,-1.959602356,-0.178328857,-0.107934572,-1.022257209
25.831888,24.681121826,-6.829978943,-1.692573547,-0.177962646,-0.107690431,-1.024332404
25.832513,25.367767334,-7.051231384,-1.738349915,-0.175521240,-0.104882814,-1.022013068
25.834250,26.802093506,-7.005455017,-1.601020813,-0.172103271,-0.106347658,-1.024210334
25.834877,27.633697510,-7.188560486,-1.417915344,-0.173812255,-0.106469728,-1.021280646
25.835503,28.152496338,-6.929161072,-1.349250793,-0.174788818,-0.105126955,-1.019937873
25.836129,28.976470947,-6.944419861,-1.379768372,-0.171737060,-0.101464845,-1.020304084
25.836756,29.296905518,-6.952049255,-1.189033508,-0.175399169,-0.101831056,-1.022257209
25.837381,30.090362549,-7.005455017,-1.211921692,-0.173201904,-0.101342775,-1.019205451
25.838006,30.395538330,-7.097007751,-1.158515930,-0.175032958,-0.099877931,-1.021524787
25.838632,30.929595947,-6.967308044,-0.929634094,-0.174788818,-0.096826173,-1.021036506
25.839258,31.364471436,-6.967308044,-0.937263489,-0.173934326,-0.093530275,-1.023477912
25.839885,31.692535400,-7.043601990,-0.807563782,-0.173201904,-0.096459962,-1.022989631
25.840512,32.165557861,-6.982566833,-0.632087708,-0.173446044,-0.089746095,-1.025064826
25.841138,32.287628174,-7.135154724,-0.510017395,-0.172225341,-0.088281251,-1.028604865
25.841765,32.684356689,-7.028343201,-0.822822571,-0.173079833,-0.085473634,-1.027384162
25.842390,32.905609131,-6.891014099,-0.487129211,-0.177474365,-0.083398439,-1.027017951
25.843015,33.149749756,-7.226707458,-0.441352844,-0.177230224,-0.077539064,-1.028116584
25.844693,33.142120361,-6.990196228,-0.113288887,-0.178084716,-0.074243166,-1.033487678
25.845319,33.042938232,-7.074119568,-0.021736152,-0.178695068,-0.068261720,-1.037760139
25.845944,33.035308838,-6.990196228,0.237663269,-0.180159912,-0.067529298,-1.041422248
25.846569,32.920867920,-7.180931091,0.275810242,-0.181258544,-0.062036134,-1.041544318
25.847195,32.554656982,-7.180931091,0.085075371,-0.178695068,-0.060083009,-1.046671271
25.847821,32.363922119,-7.127525330,0.397880554,-0.182235107,-0.059228517,-1.048746467
25.848447,32.066375732,-7.013084412,0.466545105,-0.182845458,-0.052270509,-1.051554084
25.849074,31.654388428,-7.203819275,0.413139343,-0.176986083,-0.051049806,-1.051920295
25.849701,31.402618408,-7.158042908,0.580986023,-0.183577880,-0.051049806,-1.049356818
25.850327,31.089813232,-7.219078064,0.794609070,-0.183455810,-0.047875978,-1.051432014
25.850952,30.616790771,-7.089378357,0.710685730,-0.187117919,-0.042871095,-1.054117560
25.851578,30.105621338,-7.158042908,0.985343933,-0.184920654,-0.039453126,-1.050211310
25.852203,29.640228271,-7.356407166,0.947196960,-0.188582763,-0.038598634,-1.052896857
25.852829,28.968841553,-7.188560486,1.031120300,-0.190047607,-0.034326173,-1.052652717
25.853455,28.259307861,-7.150413513,1.206596375,-0.195174560,-0.032006837,-1.057291389
25.855149,26.176483154,-7.669212341,1.450737000,-0.199935302,-0.024438476,-1.055826545
25.855775,25.222808838,-7.615806580,1.160820007,-0.198470458,-0.018701172,-1.057291389
25.869552,-0.808685303,-12.155296326,2.457817078,-0.229476318,0.008032227,-1.071695685
25.870245,-2.510040283,-12.696983337,2.625663757,-0.225447997,0.004248047,-1.066812873
25.870872,-3.936737061,-12.956382751,2.618034363,-0.222762451,0.000830078,-1.065958381
25.871498,-5.233734131,-12.765647888,2.587516785,-0.224715576,-0.001611328,-1.065714240
25.872124,-6.744354248,-13.299705505,2.816398621,-0.222640380,-0.000268554,-1.060221076
25.872749,-8.102386475,-13.429405212,2.640922546,-0.221907958,-0.003198242,-1.060221076
25.873374,-9.292572021,-13.742210388,2.991874695,-0.218001708,-0.005639648,-1.054849982
25.874001,-10.566680908,-13.879539490,2.961357117,-0.221663818,-0.006494140,-1.053995490
25.874628,-11.726348877,-14.276268005,2.900321960,-0.220565185,-0.010522461,-1.053140998
25.875253,-13.107269287,-14.497520447,3.121574402,-0.219832763,-0.014794922,-1.049112678
25.875879,-14.244049072,-14.611961365,3.350456238,-0.218001708,-0.016503906,-1.042642951
25.876504,-15.220611572,-14.672996521,3.472526550,-0.219100341,-0.023095703,-1.041178107
25.877129,-16.113250732,-15.054466248,3.182609558,-0.214583740,-0.025048828,-1.036417365
25.877755,-17.150848389,-14.886619568,3.297050476,-0.214461669,-0.027368164,-1.031168342
25.879532,-19.485443115,-15.374900818,3.831108093,-0.213485107,-0.041040041,-1.018717170
25.880157,-20.019500732,-15.329124451,3.617485046,-0.214949951,-0.044824220,-1.011026740
25.880782,-20.645111084,-15.573265076,3.846366882,-0.215194091,-0.043237306,-1.010782599
25.881408,-21.408050537,-15.718223572,4.029472351,-0.216781005,-0.046533205,-1.007364631
25.882034,-21.789520264,-15.619041443,3.937919617,-0.215560302,-0.049584962,-1.000650764
25.882661,-22.163360596,-15.947105408,4.052360535,-0.212996826,-0.053613283,-0.996988654
25.883286,-22.438018799,-16.137840271,4.235466003,-0.212630615,-0.055322267,-0.990885139
25.883913,-22.491424561,-15.771629333,4.021842957,-0.212996826,-0.058984376,-0.986978889
25.884540,-22.651641846,-15.977622986,4.342277527,-0.212386474,-0.060205080,-0.983194709
25.885166,-22.644012451,-15.924217224,4.288871765,-0.210189208,-0.061303712,-0.981485724
25.885792,-22.659271240,-15.931846619,4.388053894,-0.213851318,-0.061547853,-0.974283576
25.886418,-22.888153076,-15.878440857,4.388053894,-0.213240966,-0.061547853,-0.970377326
25.887044,-22.766082764,-15.680076599,4.761894226,-0.211531982,-0.066674806,-0.965128303
25.887669,-22.682159424,-15.748741150,4.685600281,-0.211409912,-0.071923830,-0.963053107
25.888294,-22.682159424,-15.634300232,4.662712097,-0.208602294,-0.070336916,-0.955240607
25.889968,-22.132843018,-14.840843201,5.067070007,-0.217025146,-0.067529298,-0.942301154
25.890594,-21.942108154,-15.199424744,5.074699402,-0.221541747,-0.069848634,-0.936319709
25.891219,-21.842926025,-14.779808044,5.143363953,-0.221663818,-0.072778322,-0.929727912
25.891844,-21.499603271,-14.344932556,5.379875183,-0.224715576,-0.072778322,-0.926676154
25.892470,-21.339385986,-14.093162537,5.379875183,-0.224227294,-0.065698244,-0.924356818
25.893096,-20.988433838,-13.902427673,5.517204285,-0.221541747,-0.066186525,-0.920450568
25.893722,-20.645111084,-13.643028259,5.486686707,-0.222274169,-0.064721681,-0.918497443
25.894348,-20.637481689,-13.597251892,5.654533386,-0.224959716,-0.063012697,-0.911295295
25.894973,-20.240753174,-12.941123962,5.562980652,-0.228255615,-0.059350587,-0.907389045
25.895599,-20.202606201,-12.841941833,5.662162781,-0.228133544,-0.058496095,-0.906534553
25.896224,-19.744842529,-12.483360291,5.768974304,-0.230941162,-0.055444337,-0.903971076
25.896849,-19.576995850,-12.017967224,5.753715515,-0.228988037,-0.053491212,-0.895426154
25.897475,-19.416778564,-11.644126892,5.906303406,-0.230941162,-0.054711916,-0.892740607
25.898102,-18.966644287,-11.132957458,5.929191589,-0.227401122,-0.056054689,-0.891153693
25.898727,-18.745391846,-10.797264099,5.997856140,-0.228255615,-0.054345705,-0.884806037
25.900408,-18.188446045,-9.401084900,6.112297058,-0.225814208,-0.055078126,-0.876993537
25.901034,-17.539947510,-9.065391541,6.135185242,-0.224227294,-0.053247072,-0.875894904
25.901659,-17.539947510,-9.065391541,6.135185242,-0.224227294,-0.053247072,-0.875894904
25.915467,3.273040771,5.178688049,8.454521179,-0.208480224,-0.114282228,-0.853556037
25.916147,4.959136963,5.750892639,8.492668152,-0.211043701,-0.110131837,-0.857218146
25.916773,6.683380127,6.368873596,8.500297546,-0.212752685,-0.110009767,-0.861978889
25.917399,8.323699951,6.719825745,8.652885437,-0.217025146,-0.109643556,-0.868204474
25.918033,10.208160400,7.444618225,8.996208191,-0.219222412,-0.106835939,-0.874307990
25.918659,11.825592041,7.848976135,8.912284851,-0.222030029,-0.104882814,-0.883951545
25.919284,13.633758545,8.116004944,9.080131531,-0.223006591,-0.106713869,-0.890665412
25.919910,15.373260498,8.825538635,9.354789734,-0.226180419,-0.109765626,-0.896646857
25.920536,17.288238525,9.222267151,9.286125183,-0.226180419,-0.106347658,-0.906168342
25.921162,19.180328369,9.588478088,9.522636414,-0.224837646,-0.108789064,-0.913248420
25.921787,21.080047607,9.786842346,9.560783386,-0.216903076,-0.109521486,-0.919474006
25.922414,23.330718994,10.442970276,9.751518250,-0.207259521,-0.110986330,-0.927408576
25.923039,25.352508545,10.839698792,9.721000671,-0.193099365,-0.105615236,-0.929972053
25.923664,27.511627197,11.389015198,10.071952820,-0.185897216,-0.099511720,-0.931681037
25.925432,32.959014893,13.242958069,10.178764343,-0.208480224,-0.063134767,-0.947428107
25.926059,34.469635010,13.632057190,10.346611023,-0.220198974,-0.054101564,-0.950601935
25.926685,35.789520264,13.990638733,10.232170105,-0.228988037,-0.048852541,-0.955850959
25.927312,36.857635498,14.509437561,10.316093445,-0.228011474,-0.043969728,-0.959635139
25.927937,37.963897705,14.852760315,10.468681335,-0.228499755,-0.038964845,-0.965372443
25.928563,39.001495361,15.074012756,10.384757996,-0.224471435,-0.030908203,-0.966226935
25.929188,40.039093018,15.074012756,10.461051941,-0.224471435,-0.019067382,-0.971964240
25.929814,40.473968506,14.936683655,10.461051941,-0.223006591,-0.010278320,-0.980997443
25.930440,41.198760986,15.127418518,10.453422546,-0.225814208,-0.002099609,-0.996256232
25.931065,41.671783447,15.119789124,10.575492859,-0.226912841,0.004248047,-1.006021857
25.931692,42.480499268,15.531776428,10.491569519,-0.231917724,0.011083985,-1.018839240
25.932318,42.800933838,15.920875549,10.689933777,-0.235335693,0.015234375,-1.029337287
25.932943,42.976409912,15.798805237,10.544975281,-0.226668701,0.020239258,-1.039713264
25.933569,43.426544189,15.753028870,10.461051941,-0.225692138,0.024023438,-1.051432014
25.934196,43.769866943,16.073463440,10.438163757,-0.224959716,0.030004883,-1.062052131
25.935902,44.464141846,15.760658264,10.369499207,-0.223128662,0.047338866,-1.079630256
25.936527,44.326812744,16.081092834,10.384757996,-0.223494872,0.059423827,-1.084757209
25.937154,44.174224854,16.065834045,10.308464050,-0.222518310,0.067724608,-1.095255256
25.937780,43.708831787,15.928504944,10.285575867,-0.224593505,0.074926756,-1.096964240
25.938406,43.441802979,16.126869202,10.178764343,-0.221907958,0.087255858,-1.101969123
25.939033,42.869598389,15.966651917,10.155876160,-0.216170654,0.094580077,-1.108560920
25.939659,42.449981689,15.493629456,9.988029480,-0.218367919,0.096899413,-1.113932014
25.940286,41.442901611,15.424964905,9.957511902,-0.216781005,0.102270506,-1.121500373
25.940913,40.962249756,15.127418518,10.110099792,-0.213851318,0.114721678,-1.121012092
25.941539,39.863616943,14.692543030,9.774406433,-0.212508544,0.121435545,-1.130167365
25.942164,38.833648682,14.463661194,9.698112488,-0.209212646,0.128759772,-1.135660529
25.942791,37.826568604,14.280555725,9.568412781,-0.204940185,0.133520514,-1.140299201
25.943418,36.582977295,13.906715393,9.553153992,-0.200911865,0.137915045,-1.146036506
25.944044,35.156280518,13.235328674,9.247978210,-0.193099365,0.140600592,-1.149698615
25.944669,34.034759521,13.143775940,9.209831238,-0.187728271,0.143041998,-1.155802131
25.946334,29.960662842,12.022254944,8.744438171,-0.185775146,0.152075201,-1.172647834
25.946959,28.617889404,11.564491272,8.607109070,-0.186263427,0.157568365,-1.177164435
25.947585,27.122528076,11.091468811,8.248527527,-0.183455810,0.164526373,-1.186319709
25.961338,-10.848968506,3.637550354,4.105766296,-0.148055419,0.136450201,-1.174478889
25.962002,-12.176483154,3.385780334,3.922660828,-0.144271240,0.134252936,-1.172769904
25.962627,-13.404815674,3.362892151,3.716667175,-0.143050537,0.129492193,-1.172281623
25.963252,-14.663665771,2.928016663,3.579338074,-0.138778076,0.128515631,-1.173014045
25.963877,-15.487640381,2.744911194,3.464897156,-0.136092529,0.118383788,-1.169962287
25.964503,-16.410797119,2.722023010,3.449638367,-0.134383544,0.112646483,-1.170328498
25.965129,-17.311065674,2.409217834,3.098686218,-0.132430419,0.105688475,-1.169718146
25.965755,-18.203704834,2.477882385,2.968986511,-0.133406982,0.097143553,-1.168131232
25.966380,-18.547027588,2.096412659,2.991874695,-0.130599365,0.093481444,-1.168131232
25.967006,-19.073455811,2.104042053,3.045280457,-0.130477294,0.081396483,-1.168497443
25.967631,-19.363372803,1.692054749,2.686698914,-0.131331787,0.076879881,-1.167642951
25.968256,-19.752471924,1.623390198,2.450187683,-0.133529052,0.074316405,-1.162638068
25.968883,-19.844024658,1.257179260,2.579887390,-0.126693115,0.069311522,-1.162149787
25.969510,-19.775360107,1.096961975,2.305229187,-0.129012451,0.064306639,-1.157877326
25.970136,-19.798248291,1.089332581,2.236564636,-0.124129638,0.062109374,-1.157511115
25.971843,-19.432037354,0.700233459,1.862724304,-0.124739990,0.051367186,-1.145914435
25.972470,-19.309967041,0.753639221,2.083976746,-0.118026122,0.047094725,-1.146158576
25.973096,-19.126861572,0.356910706,1.763542175,-0.119124755,0.045385741,-1.143473029
25.973721,-18.943756104,0.356910706,1.618583679,-0.118636474,0.040747069,-1.135294318
25.974347,-18.196075439,0.318763733,1.603324890,-0.117049560,0.039404295,-1.132364631
25.974972,-18.302886963,0.066993713,1.580436707,-0.116561279,0.034887694,-1.131632209
25.975598,-17.448394775,0.211952209,1.229484558,-0.109847412,0.034521483,-1.128580451
25.976224,-17.326324463,0.089881897,1.191337585,-0.107406005,0.031713866,-1.125650764
25.976850,-16.624420166,-0.032188416,0.970085144,-0.104354247,0.029150391,-1.120890021
25.977475,-16.151397705,0.089881897,1.054008484,-0.100203857,0.029028321,-1.117472053
25.978101,-15.411346436,0.097511292,0.878532410,-0.098372802,0.028173828,-1.116739631
25.978728,-14.686553955,0.166175842,0.619132996,-0.093734130,0.022924805,-1.111124396
25.979355,-14.289825439,0.112770081,0.588615417,-0.095931396,0.021459961,-1.108316779
25.979981,-13.519256592,0.494239807,0.703056335,-0.093001708,0.021337891,-1.106607795
25.980608,-12.939422607,0.478981018,0.214775085,-0.092025146,0.021215821,-1.102701545
25.982287,-11.047332764,0.929115295,0.291069031,-0.089339599,0.012670899,-1.094278693
25.982914,-10.070770264,1.432655334,0.054557793,-0.086409912,0.013647461,-1.089884162
25.983540,-9.529083252,1.646278381,0.146110535,-0.084822997,0.014501953,-1.085733771
25.984167,-9.094207764,1.692054749,-0.059883125,-0.079818115,0.007421875,-1.087198615
25.984794,-8.483856201,1.920936584,-0.082771309,-0.073348388,0.009497071,-1.084146857
25.985419,-7.514923096,2.073524475,-0.052253731,-0.063948974,0.002416993,-1.081705451
25.986044,-6.622283936,2.500770569,-0.426094055,-0.063094482,0.006323243,-1.080606818
25.986670,-5.912750244,2.821205139,-0.494758606,-0.067977294,0.012182618,-1.084757209
25.987297,-5.332916260,3.042457581,-0.395576477,-0.075057372,0.012670899,-1.086588264
25.987922,-4.569976807,3.484962463,-0.433723450,-0.075667724,0.011450196,-1.088053107
25.988548,-3.677337646,3.957984924,-0.433723450,-0.082015380,0.003515625,-1.086222053
25.989174,-2.708404541,4.545448303,-0.357429504,-0.081282958,0.002294922,-1.084879279
25.989800,-1.914947510,5.171058655,-0.433723450,-0.077987060,-0.003930664,-1.082315803
25.990426,-0.854461670,5.735633850,-0.815193176,-0.075545654,-0.008203125,-1.080240607
25.991052,0.190765381,6.139991760,-0.647346497,-0.072493896,-0.015771484,-1.077677131
25.992721,3.990203857,7.246253967,-0.784675598,-0.079940185,-0.022607422,-1.073770881
25.993346,5.287200928,7.894752502,-0.807563782,-0.080062255,-0.027368164,-1.070963264
25.993971,6.713897705,8.291481018,-0.914375305,-0.084456787,-0.022973632,-1.077066779
26.007783,47.691375732,15.920875549,-2.089302063,-0.034163818,-0.025781250,-1.190348029
26.008541,49.331695557,15.798805237,-2.196113586,-0.029525146,-0.020410156,-1.193277717
26.009166,51.155120850,16.134498596,-2.356330872,-0.027449951,-0.010156250,-1.201090217
26.009793,52.650482178,16.134498596,-2.638618469,-0.023787841,-0.003808593,-1.205728889
26.010418,54.122955322,16.271827698,-2.661506653,-0.021224365,0.004980469,-1.217813849
26.011045,55.328399658,16.439674377,-2.737800598,-0.014632568,0.011328125,-1.224893928
26.011671,56.434661865,16.615150452,-2.798835754,-0.013289794,0.021582032,-1.233072639
26.012296,57.403594971,16.714332581,-3.256599426,-0.016341552,0.028173828,-1.240885139
26.012921,57.952911377,16.599891663,-3.416816711,-0.014388427,0.035498045,-1.248209357
26.013546,58.639556885,16.668556213,-3.577033997,-0.015364990,0.040747069,-1.259683967
26.014173,59.219390869,16.676185608,-3.470222473,-0.013656005,0.046362303,-1.264810920
26.014798,59.562713623,16.531227112,-3.729621887,-0.016097412,0.048803709,-1.273477912
26.015424,59.989959717,16.500709534,-3.935615540,-0.009993896,0.054296874,-1.287515998
26.016051,60.173065186,16.569374084,-4.210273743,-0.011214599,0.064916991,-1.296549201
26.017768,60.226470947,15.882728577,-4.942695618,0.000137940,0.085180663,-1.323282599
26.018395,60.165435791,15.524147034,-5.156318665,0.003189698,0.094824217,-1.334757209
26.019020,59.852630615,15.203712463,-5.347053528,0.005631104,0.102270506,-1.344156623
26.019645,59.249908447,14.997718811,-5.644599915,0.004532471,0.105932616,-1.356485724
26.020272,58.532745361,14.730690002,-5.926887512,0.011490479,0.112646483,-1.367594123
26.020898,57.693511963,14.189002991,-6.308357239,0.009171143,0.118505858,-1.375528693
26.021525,57.174713135,13.509986877,-6.476203918,0.012833253,0.122900389,-1.384683967
26.022150,56.289703369,12.937782288,-6.460945129,0.018326417,0.130590826,-1.394205451
26.022776,55.343658447,12.388465881,-7.101814270,0.017838135,0.129003912,-1.405313849
26.023401,54.267913818,11.656044006,-7.338325500,0.023697510,0.133642584,-1.415689826
26.024034,53.222686768,11.060951233,-7.666389465,0.028214112,0.139501959,-1.424723029
26.024659,52.146942139,10.397193909,-8.078376770,0.030045167,0.142309576,-1.433756232
26.025286,50.796539307,9.771583557,-8.734504700,0.030411378,0.148779303,-1.442301154
26.025913,49.415618896,8.817909241,-8.795539856,0.039444581,0.149511725,-1.450479865
26.026539,47.782928467,7.902381897,-9.245674133,0.038834229,0.148046881,-1.462198615
26.028254,44.502288818,6.292579651,-9.749214172,0.043106690,0.152685553,-1.474039435
26.028879,42.633087158,5.369422913,-10.153572083,0.045181885,0.155126959,-1.480265021
26.029504,41.015655518,4.553077698,-10.496894836,0.041519776,0.157080084,-1.486734748
26.030131,38.848907471,3.523109436,-11.015693665,0.039200440,0.159887701,-1.488565803
26.030756,36.811859131,2.958534241,-11.130134583,0.036759034,0.163305670,-1.493448615
26.031383,32.691986084,0.730751038,-11.870185852,0.028824463,0.165502936,-1.498819709
26.032009,32.691986084,0.730751038,-11.870185852,0.028824463,0.165502936,-1.498819709
26.032634,27.885467529,-1.161338806,-12.450019836,0.026627198,0.167089850,-1.497843146
26.033261,25.192291260,-2.298118591,-12.984077454,0.025772706,0.167700201,-1.500772834
26.033887,22.537261963,-3.213645935,-13.159553528,0.020401612,0.168676764,-1.503580451
26.034512,19.638092041,-4.289390564,-13.495246887,0.020767823,0.165502936,-1.499674201
26.054964,-68.557708740,-26.628257751,-14.822761536,-0.074202880,-0.075830080,-1.341837287
26.055742,-71.441619873,-27.139427185,-14.258186340,-0.093367919,-0.093896486,-1.321573615
26.056368,-72.647064209,-27.292015076,-14.090339661,-0.099105224,-0.105981447,-1.309488654
26.056995,-73.615997314,-27.681114197,-13.869087219,-0.098250732,-0.122338869,-1.291666389
26.057621,-74.272125244,-27.864219666,-13.617317200,-0.095321044,-0.138085932,-1.280069709
26.058246,-74.989288330,-28.634788513,-13.556282043,-0.093612060,-0.153955072,-1.268717170
26.058871,-75.843780518,-28.680564880,-13.068000793,-0.096419677,-0.165185541,-1.261637092
26.070915,-57.785003662,-29.161216736,-5.972663879,-0.092147216,-0.313012689,-1.084268928
26.071631,-55.587738037,-29.000999451,-5.575935364,-0.087142333,-0.313134760,-1.076822639
26.072256,-53.733795166,-28.901817322,-5.064765930,-0.085067138,-0.314721674,-1.067179084
26.072882,-51.284759521,-28.627159119,-4.652778625,-0.077742919,-0.323754877,-1.061685920
26.073507,-48.652618408,-28.321983337,-4.347602844,-0.078841552,-0.324121088,-1.054483771
26.074134,-46.119659424,-27.917625427,-4.072944641,-0.077254638,-0.328149408,-1.046671271
26.074760,-43.685882568,-27.894737244,-3.721992493,-0.067855224,-0.325097650,-1.040689826
26.075385,-40.985076904,-27.627708435,-3.599922180,-0.062972412,-0.330346674,-1.036051154
26.076012,-38.322418213,-27.345420837,-2.829353333,-0.054793701,-0.331201166,-1.029093146
26.076639,-35.453765869,-27.093650818,-2.638618469,-0.044783935,-0.327539057,-1.023355842
26.077264,-32.455413818,-26.391746521,-2.188484192,-0.037215576,-0.330224603,-1.011515021
26.077890,-29.777496338,-26.017906189,-1.944343567,-0.026107177,-0.323632807,-1.002970099
26.078516,-27.252166748,-25.659324646,-1.669685364,-0.020125732,-0.324243158,-0.996622443
26.079143,-24.414031982,-25.102378845,-1.372138977,-0.018416747,-0.323632807,-0.988809943
26.080892,-15.769927979,-23.919822693,-0.250617981,0.010147706,-0.322290033,-0.965982795
26.081517,-13.008087158,-23.301841736,-0.189582825,0.003311768,-0.301660150,-0.968057990
26.082143,-10.391204834,-23.179771423,-0.006477363,0.004288331,-0.292626947,-0.966104865
26.082768,-8.071868896,-23.370506287,0.596244812,0.017960206,-0.302026361,-0.964273810
26.083395,-5.119293213,-22.386314392,0.985343933,0.036026612,-0.309716791,-0.954019904
26.084020,-2.334564209,-21.142723083,1.595695496,0.046524659,-0.298730463,-0.951212287
26.084645,0.724822998,-20.555259705,1.389701843,0.048233643,-0.292382807,-0.950601935
26.085271,2.952606201,-20.303489685,1.359184265,0.051529542,-0.277124017,-0.950479865
26.085897,5.249053955,-19.616844177,1.923759460,0.057266846,-0.271874994,-0.949137092
26.086523,8.155853271,-19.090415955,2.251823425,0.063126221,-0.273461908,-0.942545295
26.087150,10.871917725,-18.274070740,2.244194031,0.064835206,-0.267114252,-0.940592170
26.087775,13.618499756,-17.503501892,2.412040710,0.061417237,-0.258569330,-0.939981818
26.088401,15.907318115,-16.900779724,2.824028015,0.067642823,-0.250878900,-0.933756232
26.089031,17.646820068,-16.275169373,2.930839539,0.071060792,-0.239038080,-0.934366584
26.089656,19.630462646,-15.672447205,3.197868347,0.077408448,-0.236718744,-0.931681037
26.091334,26.252777100,-13.124229431,3.777702332,0.091446534,-0.222192377,-0.920572639
26.091959,27.793914795,-12.262107849,3.960807800,0.092911378,-0.209497064,-0.917154670
26.092585,29.525787354,-11.331321716,4.121025085,0.094376221,-0.207666010,-0.910196662
26.093210,31.074554443,-10.553123474,4.327018738,0.091202393,-0.200097650,-0.914835334
26.093836,32.897979736,-9.927513123,4.380424500,0.089005128,-0.194604486,-0.913126349
26.094463,34.423858643,-9.332420349,4.418571472,0.087052003,-0.186669916,-0.915079474
26.095088,35.629302979,-8.607627869,4.662712097,0.090347901,-0.185571283,-0.917154670
26.095715,37.048370361,-7.776023865,4.624565125,0.088516846,-0.172387689,-0.919474006
26.096340,38.177520752,-7.211448669,5.067070007,0.086563721,-0.166772455,-0.924845099
26.096965,39.527923584,-6.784202576,4.731376648,0.091812745,-0.162133783,-0.932535529
26.097591,40.527374268,-6.196739197,5.051811218,0.091690674,-0.158837885,-0.936441779
26.098218,41.740447998,-5.571128845,5.379875183,0.091934815,-0.153710932,-0.948038459
26.098843,42.785675049,-4.747154236,5.143363953,0.094132081,-0.149438471,-0.953653693
26.099469,43.930084229,-4.274131775,5.303581238,0.094864503,-0.149194330,-0.962198615
26.100095,44.853240967,-3.778221130,5.562980652,0.094132081,-0.141870111,-0.970743537
26.101761,47.218353271,-2.862693787,5.501945496,0.093277588,-0.130883783,-0.986734748
26.102387,48.088104248,-2.336265564,5.830009460,0.094742432,-0.129296869,-0.995279670
26.116207,49.629241943,-1.748802185,6.768424988,0.041519776,-0.009912109,-1.118692756
26.116943,49.270660400,-2.252342224,7.035453796,0.040543213,-0.004663086,-1.120523810
26.117568,48.690826416,-2.717735291,6.959159851,0.038590088,-0.003930664,-1.122232795
26.118195,48.110992432,-2.832176208,6.928642273,0.038590088,-0.000878906,-1.124552131
26.118821,47.691375732,-3.320457458,6.989677429,0.037125245,0.002539063,-1.128946662
26.119447,47.225982666,-3.618003845,6.844718933,0.033951417,0.004980469,-1.130899787
26.120073,46.615631104,-3.953697205,6.814201355,0.032730713,0.007788086,-1.130289435
26.120700,45.791656494,-4.548789978,6.646354675,0.029923096,0.009985352,-1.132486701
26.121327,45.433074951,-4.915000916,6.715019226,0.028458253,0.008398438,-1.134317756
26.121952,44.609100342,-5.479576111,6.684501648,0.027725831,0.012548828,-1.136148810
26.122578,44.395477295,-5.944969177,6.615837097,0.026383057,0.011572266,-1.136759162
26.123205,43.930084229,-6.379844666,6.684501648,0.025162354,0.019018555,-1.139932990
26.123830,42.923004150,-6.631614685,6.722648621,0.024429932,0.020727539,-1.142008185
26.124456,42.549163818,-7.249595642,6.577690125,0.022843018,0.021093750,-1.142862678
26.126173,40.901214600,-8.210899353,6.127555847,0.024796143,0.027929688,-1.143961310
26.126799,40.145904541,-8.279563904,6.142814636,0.024674073,0.031347655,-1.144327521
26.127425,39.382965088,-8.836509705,6.348808289,0.026016846,0.034765624,-1.139932990
26.128050,38.429290771,-9.217979431,5.990226746,0.022598878,0.036230467,-1.136148810
26.128675,37.574798584,-9.423973083,6.203849792,0.023941651,0.039648436,-1.132852912
26.129301,35.568267822,-10.110618591,5.944450378,0.025650635,0.044042967,-1.125894904
26.129928,35.568267822,-10.110618591,5.944450378,0.025650635,0.044042967,-1.125894904
26.130555,33.081085205,-10.545494080,5.959709167,0.025406495,0.051977538,-1.113077521
26.131180,31.715423584,-10.713340759,5.845268250,0.026260987,0.056127928,-1.109171271
26.131806,30.410797119,-10.942222595,5.891044617,0.024063721,0.059912108,-1.103311896
26.132431,29.006988525,-10.942222595,5.906303406,0.026260987,0.063452147,-1.095011115
26.133056,27.404815674,-11.102439880,5.738456726,0.026993409,0.066503905,-1.087808967
26.133683,25.642425537,-11.506797791,5.700309753,0.028458253,0.070532225,-1.084635139
26.134308,23.742706299,-11.506797791,5.494316101,0.024796143,0.072485350,-1.078165412
26.134933,21.659881592,-11.377098083,5.418022156,0.026627198,0.074804686,-1.073038459
26.136664,18.150360107,-11.758567810,5.387504578,0.025650635,0.080175780,-1.064249396
26.137289,16.464263916,-11.377098083,5.189140320,0.024307862,0.082128905,-1.059976935
26.137915,14.228851318,-11.773826599,5.135734558,0.022720948,0.082373045,-1.054239631
26.138541,12.123138428,-11.766197205,4.983146667,0.021378174,0.081884764,-1.050821662
26.139168,9.826690674,-11.628868103,4.983146667,0.018204346,0.081762694,-1.049600959
26.139795,7.827789307,-11.613609314,5.082328796,0.021011963,0.080175780,-1.043253303
26.140422,5.653411865,-11.377098083,4.975517273,0.017960206,0.084814452,-1.043985724
26.141047,3.601104736,-11.453392029,5.044181824,0.016617432,0.079443358,-1.040445685
26.141674,1.716644287,-11.277915955,4.914482117,0.018936768,0.076513670,-1.033731818
26.142299,-0.564544678,-11.270286560,4.807670593,0.015274659,0.074804686,-1.028238654
26.142926,-2.540557861,-11.232139587,4.548271179,0.015640870,0.075659178,-1.025186896
26.143551,-4.486053467,-10.797264099,4.761894226,0.015030518,0.074438475,-1.022379279
26.144177,-6.629913330,-10.705711365,4.685600281,0.011856690,0.070898436,-1.019571662
26.144804,-8.537261963,-10.751487732,4.548271179,0.010513917,0.070288084,-1.013712287
26.145429,-10.490386963,-10.507347107,4.494865417,0.003800049,0.067236327,-1.010904670
26.147150,-16.708343506,-10.545494080,4.296501160,-0.006575927,0.059912108,-0.999552131
26.147775,-18.508880615,-10.652305603,4.296501160,-0.005721435,0.050634764,-0.997965217
26.148401,-20.225494385,-10.392906189,4.121025085,-0.003402099,0.043066405,-0.993936896
26.149033,-21.507232666,-10.293724060,4.365165710,-0.005721435,0.034277342,-0.989542365
26.162803,-26.573150635,-5.212547302,4.166801453,-0.031478271,-0.109399416,-0.867227912
26.163487,-25.421112061,-5.014183044,4.349906921,-0.031356201,-0.109643556,-0.862955451
26.164114,-24.002044678,-4.396202087,4.212577820,-0.034041747,-0.114282228,-0.859781623
26.164741,-22.605865479,-3.961326599,4.159172058,-0.030623779,-0.117700197,-0.853189826
26.165367,-21.522491455,-3.587486267,4.319389343,-0.040755615,-0.120751955,-0.847086310
26.165992,-20.027130127,-3.091575623,4.388053894,-0.041854247,-0.122827150,-0.842203498
26.166619,-18.379180908,-2.748252869,4.349906921,-0.044051513,-0.124291994,-0.839640021
26.167245,-17.021148682,-2.511741638,4.395683289,-0.044661865,-0.124902345,-0.835733771
26.167870,-15.380828857,-1.802207947,4.563529968,-0.043074951,-0.126367182,-0.833658576
26.168495,-13.969390869,-1.268150330,4.494865417,-0.044783935,-0.126977533,-0.827555060
26.169120,-12.496917725,-0.734092712,4.708488464,-0.048690185,-0.125634760,-0.822550178
26.169745,-11.024444580,-0.161888123,4.716117859,-0.049422607,-0.124902345,-0.818033576
26.170371,-9.399383545,0.463722229,4.594047546,-0.051741943,-0.123071291,-0.816324592
26.170997,-7.667510986,0.753639221,4.754264832,-0.051986083,-0.122094728,-0.811319709
26.172772,-3.326385498,2.447364807,4.868705750,-0.062239990,-0.117700197,-0.805460334
26.173398,-1.815765381,2.874610901,4.632194519,-0.063338622,-0.112695314,-0.804483771
26.174031,-0.358551025,3.439186096,4.777153015,-0.067733154,-0.108789064,-0.802286506
26.174658,1.029998779,4.087684631,4.853446960,-0.070296630,-0.103540041,-0.799600959
26.175284,2.082855225,4.720924377,4.677970886,-0.073226318,-0.101953126,-0.800211310
26.175909,3.440887451,5.041358948,4.784782410,-0.074080810,-0.096826173,-0.798014045
26.176535,4.600555420,5.583045959,4.693229675,-0.075057372,-0.097070314,-0.801554084
26.177162,5.767852783,6.170509338,4.777153015,-0.077376708,-0.090478517,-0.801554084
26.177787,6.958038330,6.658790588,5.112846375,-0.078719482,-0.083520509,-0.802042365
26.178413,7.888824463,7.276771545,5.013664246,-0.081160888,-0.077294923,-0.801798224
26.179039,8.911163330,7.841346741,4.830558777,-0.084945068,-0.074975587,-0.802164435
26.179666,9.918243408,8.505104065,5.021293640,-0.085799560,-0.064233400,-0.804239631
26.180293,10.490447998,8.596656799,4.845817566,-0.092391357,-0.058862306,-0.805216193
26.180919,11.245758057,9.153602600,4.754264832,-0.094344482,-0.052392580,-0.808145881
26.181544,11.871368408,9.512184143,4.967887878,-0.094710693,-0.045434572,-0.809366584
26.183241,13.328582764,10.969398499,4.784782410,-0.104476318,-0.027368164,-0.818521857
26.183868,13.542205811,11.480567932,4.655082703,-0.111190185,-0.022485351,-0.817911506
26.184493,13.877899170,11.701820374,4.586418152,-0.111800537,-0.014306640,-0.820841193
26.185119,13.862640381,12.228248596,4.342277527,-0.122054443,-0.008935547,-0.828897834
26.185744,14.335662842,12.533424377,4.006584167,-0.124739990,-0.007714843,-0.830118537
26.186369,14.160186768,12.983558655,4.182060242,-0.123519287,-0.000878906,-0.831217170
26.186996,13.931304932,13.281105042,4.243095398,-0.124129638,0.004492188,-0.833902717
26.187622,13.946563721,13.288734436,4.014213562,-0.132552490,0.005468750,-0.836222053
26.188248,13.801605225,13.845680237,3.884513855,-0.137435302,0.010473633,-0.841593146
26.188874,13.595611572,14.204261780,3.853996277,-0.139388427,0.011938477,-0.844278693
26.189501,13.481170654,14.463661194,3.724296570,-0.143660888,0.015844727,-0.845865607
26.190127,13.175994873,14.929054260,3.678520203,-0.147933349,0.018774414,-0.848673224
26.190752,12.863189697,15.043495178,3.426750183,-0.151961669,0.019873047,-0.851969123
26.191379,12.596160889,14.967201233,3.655632019,-0.151229247,0.027441407,-0.851480842
26.192004,12.245208740,15.600440979,3.579338074,-0.157088622,0.030859375,-0.855020881
26.193677,10.726959229,16.157386780,2.930839539,-0.163680419,0.036108397,-0.861490607
26.194302,10.170013428,16.424415588,2.877433777,-0.166365966,0.041235350,-0.858194709
26.194928,9.468109131,16.561744690,2.762992859,-0.171370849,0.043310545,-0.861124396
26.208722,-2.037017822,17.790077209,-0.067512520,-0.229598388,0.045996092,-0.903604865
26.209431,-2.601593018,17.523048401,-0.403205872,-0.227889404,0.044775389,-0.904947639
26.210057,-3.074615479,17.515419006,-0.525276184,-0.229476318,0.046484374,-0.905191779
26.210683,-3.181427002,17.317054749,-0.853340149,-0.232406005,0.043066405,-0.909220099
26.211309,-3.662078857,17.263648987,-0.754158020,-0.232528076,0.041967772,-0.905557990
26.211935,-4.119842529,17.156837463,-1.066963196,-0.231795654,0.043676756,-0.909708381
26.212562,-4.554718018,16.927955627,-1.127998352,-0.232283935,0.041967772,-0.910929084
26.213188,-4.714935303,16.767738342,-1.318733215,-0.234847412,0.037329100,-0.910074592
26.213814,-5.294769287,16.493080139,-1.349250793,-0.232894287,0.039892577,-0.912271857
26.214440,-5.653350830,16.386268616,-1.448432922,-0.233992919,0.042456053,-0.913980842
26.215065,-6.027191162,16.371009827,-1.585762024,-0.234114990,0.039160155,-0.913858771
26.215691,-6.530731201,16.126869202,-1.753608704,-0.233748779,0.036352538,-0.916056037
26.216317,-7.034271240,15.783546448,-1.776496887,-0.231795654,0.033300780,-0.912393928
26.216943,-7.400482178,15.882728577,-2.005378723,-0.232283935,0.030981446,-0.913370490
26.218687,-8.537261963,15.074012756,-2.280036926,-0.232161865,0.029882813,-0.913614631
26.219313,-9.094207764,15.005348206,-2.241889954,-0.231917724,0.028784180,-0.910684943
26.219938,-9.391754150,14.440773010,-2.592842102,-0.233870849,0.028417969,-0.911905646
26.220564,-9.925811768,14.707801819,-2.638618469,-0.230697021,0.024633789,-0.915079474
26.221191,-10.543792725,14.303443909,-2.493659973,-0.232894287,0.023413086,-0.909708381
26.221817,-10.826080322,13.891456604,-2.722541809,-0.230941162,0.023413086,-0.912760139
26.222444,-11.283843994,13.822792053,-2.760688782,-0.233504638,0.021948243,-0.907999396
26.223069,-11.779754639,13.693092346,-2.882759094,-0.231063232,0.022192383,-0.910074592
26.223696,-12.168853760,13.334510803,-2.920906067,-0.228011474,0.021215821,-0.905802131
26.224322,-12.840240479,13.128517151,-2.806465149,-0.226790771,0.019384766,-0.907755256
26.224947,-13.061492920,12.930152893,-3.096382141,-0.230208740,0.019995118,-0.900675178
26.225574,-13.565032959,12.457130432,-3.027717590,-0.232039794,0.016699219,-0.898111701
26.226201,-13.969390869,12.403724670,-3.180305481,-0.228133544,0.018286133,-0.899698615
26.226826,-14.656036377,12.403724670,-3.287117004,-0.226790771,0.017553711,-0.898844123
26.227452,-15.090911865,11.923072815,-3.569404602,-0.225570068,0.015966797,-0.896036506
26.229125,-16.632049561,11.533973694,-3.493110657,-0.220809326,0.015356446,-0.890665412
26.229751,-17.135589600,11.045692444,-3.676216125,-0.218856201,0.017309571,-0.887247443
26.230377,-17.745941162,11.183021545,-3.592292786,-0.217025146,0.015478516,-0.880777717
26.231004,-18.424957275,10.992286682,-3.699104309,-0.216048583,0.017797852,-0.877725959
26.231629,-19.042938232,10.526893616,-3.927986145,-0.214339599,0.015234375,-0.876871467
26.232255,-19.721954346,10.610816956,-3.943244934,-0.213973388,0.015966797,-0.872110724
26.232881,-20.248382568,10.679481506,-3.905097961,-0.211531982,0.017797852,-0.870767951
26.233508,-20.790069580,10.709999084,-3.821174622,-0.210921630,0.016455078,-0.866861701
26.234134,-21.507232666,10.404823303,-3.882209778,-0.212752685,0.017309571,-0.862345099
26.234760,-22.239654541,10.137794495,-4.179756165,-0.212752685,0.017797852,-0.859171271
26.235385,-22.888153076,10.389564514,-3.981391907,-0.212508544,0.019140625,-0.852335334
26.236010,-23.757904053,10.275123596,-4.095832825,-0.212142333,0.015356446,-0.848062873
26.236637,-24.291961670,10.168312073,-4.286567688,-0.214827880,0.017431641,-0.845743537
26.237262,-25.115936279,10.282752991,-4.126350403,-0.213240966,0.022558594,-0.844522834
26.237887,-25.871246338,9.824989319,-4.362861633,-0.216170654,0.025122071,-0.841349006
26.239564,-27.900665283,9.405372620,-4.530708313,-0.224227294,0.028295899,-0.842325568
26.240189,-29.220550537,9.054420471,-4.492561340,-0.222396240,0.017431641,-0.842569709
26.240814,-29.930084229,9.100196838,-4.355232239,-0.213240966,0.006567383,-0.840128303
26.254555,-39.710968018,11.961219788,-5.011360168,-0.124617919,-0.075585939,-0.745767951
26.255248,-39.688079834,12.159584045,-4.614631653,-0.118392333,-0.082177736,-0.739786506
26.255874,-39.184539795,12.762306213,-5.011360168,-0.112166747,-0.093408205,-0.736734748
26.256499,-38.635223389,13.166664124,-4.866401672,-0.107528076,-0.100244142,-0.730997443
26.257124,-38.299530029,13.433692932,-4.866401672,-0.100325927,-0.112207033,-0.725748420
26.257749,-37.452667236,14.082191467,-4.858772278,-0.098128662,-0.118920900,-0.720987678
26.258374,-36.796539307,14.501808167,-4.713813782,-0.091903076,-0.130639642,-0.719644904
26.259000,-35.720794678,14.974830627,-4.729072571,-0.086287841,-0.137231439,-0.712076545
26.259626,-34.652679443,15.539405823,-4.729072571,-0.082137451,-0.145043939,-0.707437873
26.260253,-33.454864502,16.363380432,-4.553596497,-0.083602294,-0.152368158,-0.705118537
26.260879,-32.173126221,16.546485901,-4.446784973,-0.077620849,-0.160424799,-0.701334357
26.261504,-31.143157959,17.431495667,-4.324714661,-0.077010497,-0.165429682,-0.700479865
26.262130,-29.525726318,18.072364807,-4.324714661,-0.073104247,-0.171411127,-0.695597053
26.262756,-27.816741943,18.362281799,-4.233161926,-0.072249755,-0.183984369,-0.694376349
26.264532,-22.560089111,20.376441956,-3.683845520,-0.070296630,-0.203271478,-0.692423224
26.265159,-20.904510498,21.238563538,-3.676216125,-0.072738037,-0.209497064,-0.692423224
26.265784,-18.730133057,21.826026917,-3.485481262,-0.073226318,-0.218530267,-0.690470099
26.266409,-16.532867432,22.566078186,-3.546516418,-0.073226318,-0.222802728,-0.694010139
26.267034,-14.320343018,23.504493713,-3.172676086,-0.077498779,-0.233300775,-0.692911506
26.267661,-11.886566162,24.099586487,-2.859870911,-0.077254638,-0.239038080,-0.692667365
26.268288,-9.620635986,24.732826233,-2.997200012,-0.083236083,-0.240136713,-0.701090217
26.268913,-7.141082764,25.327919006,-2.768318176,-0.084212646,-0.247338861,-0.704630256
26.269539,-4.737823486,26.144264221,-2.447883606,-0.083968505,-0.253198236,-0.710977912
26.270164,-2.059906006,26.655433655,-2.440254211,-0.090072021,-0.257470697,-0.713541389
26.270789,0.892669678,27.433631897,-2.371589661,-0.093856201,-0.262841791,-0.721964240
26.271415,3.395111084,27.975318909,-2.074043274,-0.098128662,-0.262719721,-0.725626349
26.272040,6.134063721,28.524635315,-1.883308411,-0.101180419,-0.263574213,-0.735391974
26.272666,8.651763916,29.096839905,-1.677314758,-0.102401122,-0.266015619,-0.740152717
26.273291,11.352569580,29.630897522,-1.616279602,-0.107894287,-0.269067377,-0.746622443
26.274925,19.638092041,31.141517639,-0.853340149,-0.111556396,-0.267968744,-0.773233771
26.275551,22.430450439,31.271217346,-0.517646790,-0.111068115,-0.267846674,-0.782633185
26.276177,24.856597900,31.660316467,-0.410835266,-0.113021240,-0.265161127,-0.789347053
26.276802,27.442962646,32.049415588,-0.288764954,-0.113387451,-0.262963861,-0.797769904
26.277428,30.075103760,32.209632874,-0.120918281,-0.116195068,-0.259301752,-0.809488654
26.278054,32.341033936,32.301185608,0.085075371,-0.117904052,-0.255029291,-0.819010139
26.278680,34.553558350,32.537696838,0.527580261,-0.117171630,-0.250634760,-0.829752326
26.279307,36.972076416,32.423255920,0.558097839,-0.118514404,-0.244775385,-0.841226935
26.279932,39.024383545,32.545326233,0.802238464,-0.118026122,-0.242456049,-0.852823615
26.280559,41.069061279,32.758949280,0.878532410,-0.118514404,-0.233911127,-0.864420295
26.281186,42.861968994,32.675025940,1.260002136,-0.119002685,-0.229150385,-0.876505256
26.281812,44.891387939,32.629249573,1.504142761,-0.118026122,-0.220727533,-0.887247443
26.282439,46.554595947,32.568214417,1.664360046,-0.119002685,-0.215112299,-0.897745490
26.283064,48.133880615,32.247779846,1.816947937,-0.117659912,-0.204858392,-0.908243537
26.283690,49.430877686,32.163856506,2.015312195,-0.119490966,-0.198388666,-0.922281623
26.285329,52.993804932,31.187294006,2.610404968,-0.118148193,-0.174829096,-0.953287482
26.292500,53.947479248,26.060340881,4.296501160,-0.124007568,-0.079370119,-1.037515998
26.293126,53.146392822,25.480506897,4.296501160,-0.121932372,-0.068383791,-1.042032599
26.307045,9.445220947,11.167762756,5.891044617,-0.100325927,0.007055664,-1.101724982
26.307790,7.331878662,10.709999084,6.081779480,-0.098739013,0.010839844,-1.098184943
26.308416,5.073577881,10.130165100,6.432731628,-0.096297607,0.009863282,-1.101724982
26.309041,2.464324951,9.512184143,6.180961609,-0.098006591,0.007910157,-1.097696662
26.309666,0.541717529,8.939979553,6.196220398,-0.092147216,0.006079102,-1.095011115
26.310291,-1.701324463,8.703468323,6.394584656,-0.091536865,0.002294922,-1.097208381
26.310917,-3.784149170,7.963417053,6.653984070,-0.091170654,0.001562500,-1.095743537
26.311543,-5.920379639,7.398841858,6.646354675,-0.089949951,-0.002587890,-1.093180060
26.312169,-7.934539795,7.017372131,6.486137390,-0.089339599,-0.004174804,-1.094156623
26.312795,-9.689300537,6.468055725,6.753166199,-0.091048583,-0.007714843,-1.091471076
26.313422,-11.802642822,5.850074768,6.753166199,-0.085067138,-0.015039062,-1.091104865
26.314047,-13.465850830,5.346534729,6.867607117,-0.082259521,-0.017358398,-1.084757209
26.314673,-15.182464600,5.209205627,6.913383484,-0.083358154,-0.022363281,-1.084757209
26.315299,-16.738861084,4.484413147,7.188041687,-0.088118896,-0.022485351,-1.084146857
26.317015,-20.187347412,3.408668518,7.302482605,-0.093367919,-0.028588867,-1.084146857
26.317641,-21.591156006,2.859352112,7.287223816,-0.091781005,-0.035791017,-1.081827521
26.318267,-22.529571533,2.424476624,7.523735046,-0.089461669,-0.038476564,-1.079752326
26.318893,-23.628204346,1.745460510,7.386405945,-0.086287841,-0.040307619,-1.077677131
26.319519,-24.581878662,1.394508362,7.493217468,-0.084090576,-0.047753908,-1.077188849
26.320144,-25.276153564,0.906227112,7.615287781,-0.084212646,-0.048608400,-1.075846076
26.320770,-26.290863037,0.196693420,7.600028992,-0.086409912,-0.053613283,-1.074991584
26.321396,-27.259796143,-0.222923279,7.645805359,-0.086654052,-0.057885744,-1.073160529
26.322022,-28.305023193,-1.138450623,7.836540222,-0.094588622,-0.061181642,-1.070841193
26.322647,-29.014556885,-1.695396423,7.737358093,-0.095321044,-0.061791994,-1.070841193
26.323273,-29.602020264,-2.237083435,7.928092957,-0.096541747,-0.070458986,-1.068765998
26.323898,-29.746978760,-2.862693787,7.889945984,-0.093856201,-0.075952150,-1.062906623
26.324524,-29.937713623,-3.373863220,7.989128113,-0.096053466,-0.081689455,-1.067179084
26.325149,-29.952972412,-3.961326599,7.973869324,-0.096053466,-0.082910158,-1.063761115
26.325776,-30.059783936,-4.472496033,8.103569031,-0.095931396,-0.086572267,-1.063394904
26.327501,-29.952972412,-5.716087341,8.263786316,-0.098250732,-0.086694337,-1.056681037
26.328126,-29.968231201,-5.983116150,8.210380554,-0.095076904,-0.089501955,-1.054605842
26.328751,-29.617279053,-6.692649841,8.370597839,-0.093612060,-0.091821291,-1.052530646
26.329377,-29.640167236,-6.799461365,8.576591492,-0.094710693,-0.091088869,-1.047281623
26.330002,-29.197662354,-7.386924744,8.500297546,-0.093612060,-0.091577150,-1.044474006
26.330629,-28.892486572,-8.126976013,8.637626648,-0.095198974,-0.093652345,-1.041788459
26.331254,-28.640716553,-8.310081482,8.645256042,-0.094954833,-0.091333009,-1.036905646
26.331880,-28.198211670,-9.004356384,8.736808777,-0.096175537,-0.093041994,-1.031656623
26.332505,-28.236358643,-9.492637634,8.820732117,-0.092147216,-0.089501955,-1.025431037
26.333131,-27.557342529,-10.148765564,8.599479675,-0.097152099,-0.090722658,-1.022135139
26.333756,-27.214019775,-10.637046814,8.897026062,-0.095931396,-0.086938478,-1.018717170
26.334383,-26.733367920,-10.736228943,8.935173035,-0.094344482,-0.081323244,-1.016886115
26.335009,-26.618927002,-11.316062927,8.881767273,-0.095076904,-0.083276369,-1.010782599
26.335636,-26.092498779,-12.132408142,8.858879089,-0.091048583,-0.084008791,-1.012125373
26.336263,-25.894134521,-12.506248474,8.935173035,-0.089217529,-0.081323244,-1.009073615
26.337993,-24.856536865,-13.559104919,9.133537292,-0.086654052,-0.075219728,-0.996500373
26.338618,-24.459808350,-13.894798279,9.087760925,-0.082625732,-0.073266603,-0.993448615
26.339245,-24.162261963,-14.131309509,8.866508484,-0.083480224,-0.072534181,-0.989298224
26.352998,-19.699066162,-16.587974548,9.171684265,-0.043807372,-0.041894533,-0.885172248
26.353717,-19.432037354,-16.275169373,9.103019714,-0.040633544,-0.042260744,-0.881021857
26.354343,-18.974273682,-16.343833923,9.057243347,-0.040877685,-0.044946291,-0.877603889
26.354968,-18.691986084,-16.092063904,9.133537292,-0.038192138,-0.043115236,-0.872476935
26.355594,-18.341033936,-15.710594177,8.919914246,-0.043807372,-0.045678712,-0.870401740
26.356219,-17.959564209,-15.664817810,8.996208191,-0.040145263,-0.041162111,-0.867105842
26.356844,-17.967193604,-15.390159607,9.087760925,-0.039046630,-0.043725587,-0.865763068
26.357470,-17.394989014,-15.268089294,8.988578796,-0.038558349,-0.045800783,-0.865030646
26.358096,-17.295806885,-15.054466248,9.118278503,-0.039656982,-0.044091798,-0.858194709
26.358721,-16.693084717,-14.566184998,9.019096375,-0.040267333,-0.048974611,-0.859903693
26.359347,-16.601531982,-14.329673767,8.919914246,-0.039901122,-0.044213869,-0.856119514
26.359973,-16.044586182,-13.940574646,8.652885437,-0.038314208,-0.046044923,-0.853189826
26.360599,-15.457122803,-13.559104919,8.980949402,-0.043807372,-0.046044923,-0.852823615
26.361226,-15.304534912,-13.375999451,8.759696960,-0.042586669,-0.048364259,-0.849649787
26.362994,-13.679473877,-12.422325134,8.721549988,-0.049666747,-0.046899416,-0.846353889
26.363619,-13.114898682,-11.926414490,8.706291199,-0.052108154,-0.047265626,-0.845621467
26.364245,-12.443511963,-11.499168396,8.736808777,-0.054061279,-0.048608400,-0.847086310
26.364871,-11.978118896,-11.285545349,8.927543640,-0.055281982,-0.047631837,-0.848673224
26.365497,-11.428802490,-10.904075623,8.774955750,-0.056990966,-0.048974611,-0.849893928
26.366123,-10.612457275,-10.568382263,8.767326355,-0.059554443,-0.045190431,-0.850870490
26.366748,-9.803741455,-10.286094666,8.813102722,-0.062239990,-0.044946291,-0.852091193
26.367375,-9.559600830,-9.835960388,8.485038757,-0.065291747,-0.044946291,-0.848795295
26.368000,-8.888214111,-9.698631287,8.759696960,-0.068343505,-0.046655275,-0.852335334
26.368626,-8.155792236,-9.416343689,8.607109070,-0.068831787,-0.045556642,-0.856607795
26.369251,-7.629364014,-9.019615173,8.584220886,-0.072860107,-0.041772462,-0.858560920
26.369876,-7.072418213,-8.760215759,8.431632996,-0.082137451,-0.040063478,-0.864176154
26.370501,-6.240814209,-8.729698181,8.576591492,-0.079696044,-0.038842775,-0.869913459
26.371127,-5.828826904,-8.622886658,8.538444519,-0.084578857,-0.033105470,-0.874430060
26.371753,-5.271881104,-8.546592712,8.431632996,-0.089339599,-0.032006837,-0.878214240
26.373434,-3.829925537,-8.691551208,8.294303894,-0.095931396,-0.023706054,-0.895304084
26.374059,-3.379791260,-8.516075134,8.378227234,-0.099837646,-0.021386718,-0.901773810
26.374686,-2.998321533,-8.599998474,8.263786316,-0.099471435,-0.019555664,-0.910440803
26.375312,-2.433746338,-8.592369080,8.248527527,-0.102645263,-0.014062500,-0.916910529
26.375938,-2.044647217,-8.775474548,8.012016296,-0.099837646,-0.011621093,-0.923624396
26.376564,-1.419036865,-8.981468201,8.027275085,-0.104476318,-0.010278320,-0.927286506
26.377189,-0.991790771,-9.042503357,7.935722351,-0.105086669,-0.005761718,-0.934854865
26.377816,-0.762908936,-8.973838806,7.874687195,-0.107406005,-0.002954101,-0.936563849
26.378441,-0.450103760,-9.309532166,7.813652039,-0.106063232,0.003271485,-0.940958381
26.379067,-0.190704346,-9.492637634,7.783134460,-0.106063232,0.004736328,-0.944498420
26.379694,0.083953857,-9.637596130,7.744987488,-0.106307372,0.011328125,-0.947306037
26.380319,0.297576904,-9.919883728,7.844169617,-0.109481201,0.016088868,-0.942911506
26.380946,0.244171143,-9.996177673,7.676322937,-0.106307372,0.019506836,-0.941812873
26.381571,0.297576904,-10.164024353,7.447441101,-0.107406005,0.025244141,-0.943765998
26.382196,0.144989014,-10.469200134,7.348258972,-0.105941162,0.028906250,-0.945230842
26.383843,-0.602691650,-11.010887146,7.065971375,-0.109359130,0.049658202,-0.942057014
26.384469,-1.197784424,-11.125328064,6.875236511,-0.110091552,0.054418944,-0.942179084
26.398264,-17.684906006,-15.771629333,2.930839539,-0.119735107,0.074926756,-0.944376349
26.398979,-18.226593018,-15.939476013,2.801139832,-0.123397216,0.071142577,-0.943888068
26.399606,-19.218414307,-16.443016052,2.419670105,-0.126571044,0.066870116,-0.944498420
26.400233,-19.905059814,-16.420127869,2.274711609,-0.129012451,0.065039061,-0.946207404
26.400858,-20.484893799,-16.992332458,1.946647644,-0.129012451,0.060156249,-0.944742560
26.401484,-21.003692627,-17.068626404,1.801689148,-0.127547607,0.057958983,-0.948160529
26.402109,-21.644561768,-17.289878845,1.702507019,-0.133162841,0.055395506,-0.945597053
26.402734,-22.018402100,-17.442466736,1.595695496,-0.133529052,0.055883788,-0.943888068
26.403359,-22.712677002,-17.678977966,1.397331238,-0.130233154,0.048803709,-0.947061896
26.403984,-23.109405518,-17.976524353,1.153190613,-0.135115966,0.045019530,-0.945963264
26.404610,-23.452728271,-18.014671326,0.817497253,-0.133895263,0.041845702,-0.947428107
26.405236,-24.040191650,-18.357994080,0.764091492,-0.135360107,0.038793944,-0.944132209
26.405863,-24.307220459,-18.724205017,0.657279968,-0.136580810,0.036596678,-0.940225959
26.406489,-24.681060791,-18.777610779,0.558097839,-0.137801513,0.031469725,-0.939981818
26.408232,-25.703399658,-19.632102966,0.062187187,-0.140975341,0.020239258,-0.929727912
26.408857,-26.229827881,-19.510032654,-0.189582825,-0.140487060,0.021948243,-0.927530646
26.409483,-26.069610596,-19.899131775,0.092704765,-0.141951904,0.018041993,-0.923624396
26.410109,-26.840179443,-20.219566345,-0.334541321,-0.143538818,0.017919922,-0.920084357
26.410736,-26.740997314,-20.250083923,-0.517646790,-0.142440185,0.016210938,-0.918253303
26.411362,-27.015655518,-20.532371521,-0.586311340,-0.143172607,0.011083985,-0.912515998
26.411988,-27.282684326,-20.723106384,-0.693122864,-0.144393310,0.009619141,-0.909586310
26.412613,-27.526824951,-21.028282166,-0.746528625,-0.143294677,0.004736328,-0.909220099
26.413238,-27.786224365,-21.020652771,-0.891487122,-0.145736083,0.000708008,-0.904703498
26.413863,-27.938812256,-21.447898865,-1.066963196,-0.145980224,-0.002587890,-0.905069709
26.414489,-27.976959229,-21.478416443,-1.135627747,-0.147322997,-0.002343750,-0.901407599
26.415114,-28.068511963,-21.569969177,-1.349250793,-0.144759521,-0.005273437,-0.900675178
26.415740,-28.259246826,-22.004844666,-1.456062317,-0.149031982,-0.009179687,-0.899332404
26.416366,-28.282135010,-21.859886169,-1.288215637,-0.146468505,-0.015161132,-0.895548224
26.416992,-28.228729248,-22.004844666,-1.623908997,-0.148421630,-0.015039062,-0.891519904
26.418668,-28.083770752,-21.959068298,-1.715461731,-0.148421630,-0.021630859,-0.886759162
26.419293,-27.839630127,-21.989585876,-1.799385071,-0.149031982,-0.026025390,-0.885294318
26.419920,-27.900665283,-22.119285583,-2.005378723,-0.150496826,-0.026391601,-0.881754279
26.420545,-27.580230713,-22.042991638,-2.020637512,-0.150740966,-0.028344726,-0.879923224
26.421171,-27.420013428,-22.088768005,-1.944343567,-0.153914794,-0.028710937,-0.875772834
26.421796,-27.290313721,-22.256614685,-2.081672668,-0.155623779,-0.031518556,-0.872843146
26.422421,-27.099578857,-22.081138611,-2.165596008,-0.161605224,-0.033837892,-0.865274787
26.423047,-26.878326416,-22.325279236,-2.188484192,-0.159896240,-0.036279298,-0.861978889
26.423673,-26.603668213,-22.142173767,-2.173225403,-0.163558349,-0.034814455,-0.859659553
26.424298,-26.466339111,-22.065879822,-2.165596008,-0.162947997,-0.040673830,-0.853800178
26.424923,-26.290863037,-21.844627380,-2.493659973,-0.167220458,-0.041284181,-0.852945685
26.425549,-25.894134521,-22.050621033,-2.417366028,-0.168685302,-0.045922853,-0.848062873
26.426174,-25.634735107,-21.623374939,-2.547065735,-0.168319091,-0.047631837,-0.843668342
26.426799,-25.367706299,-21.760704041,-2.447883606,-0.172469482,-0.049096681,-0.838785529
26.427424,-25.047271729,-21.615745544,-2.630989075,-0.176009521,-0.048242189,-0.837808967
26.429098,-24.009674072,-21.180870056,-2.630989075,-0.180159912,-0.059350587,-0.828043342
26.429725,-23.597686768,-21.096946716,-2.646247864,-0.175643310,-0.062158205,-0.820108771
26.443485,-3.257720947,-11.888267517,-1.997749329,-0.157576904,-0.134301752,-0.761881232
26.444151,-1.533477783,-11.277915955,-1.990119934,-0.157698974,-0.134423822,-0.763590217
26.444776,-0.228851318,-10.720970154,-1.776496887,-0.155989990,-0.135766596,-0.763224006
26.445403,1.457244873,-10.171653748,-1.837532043,-0.154769287,-0.137353510,-0.760416389
26.446031,3.059417725,-9.423973083,-1.654426575,-0.155989990,-0.138452142,-0.760050178
26.446658,4.737884521,-8.844139099,-1.684944153,-0.153548583,-0.140771478,-0.761515021
26.447285,6.217987061,-8.165122986,-1.562873840,-0.154525146,-0.141137689,-0.759928107
26.447911,7.934600830,-7.348777771,-1.341621399,-0.151717529,-0.144555658,-0.762247443
26.448536,9.628326416,-6.692649841,-1.417915344,-0.152449951,-0.145288080,-0.762003303
26.449162,11.543304443,-5.845787048,-1.318733215,-0.151961669,-0.145898432,-0.765299201
26.449788,12.954742432,-5.273582458,-1.318733215,-0.150008544,-0.145654291,-0.764932990
26.450413,14.831573486,-4.976036072,-1.204292297,-0.150252685,-0.142480463,-0.766886115
26.451039,16.494781494,-4.029991150,-1.173774719,-0.150496826,-0.139672846,-0.770914435
26.451665,18.188507080,-3.457786560,-1.074592590,-0.150496826,-0.140405267,-0.773111701
26.452291,20.149261475,-3.198387146,-1.021186829,-0.152205810,-0.136865228,-0.777506232
26.453925,25.047332764,-1.352073669,-0.944892883,-0.149154052,-0.133813471,-0.792887092
26.454551,26.580841064,-0.970603943,-0.792304993,-0.149642333,-0.127465814,-0.799723029
26.455176,28.175384521,-0.482322693,-0.609199524,-0.144271240,-0.127343744,-0.805338264
26.455801,29.785186768,0.356910706,-0.578681946,-0.147322997,-0.122949220,-0.809122443
26.456428,31.356842041,0.814674377,-0.922004700,-0.145247802,-0.118676759,-0.816080451
26.457053,33.195526123,1.325843811,-0.311653137,-0.142562255,-0.115258791,-0.823648810
26.457680,34.660369873,1.943824768,-0.639717102,-0.141097412,-0.106103517,-0.826700568
26.458305,36.087066650,2.348182678,-0.670234680,-0.140120849,-0.099023439,-0.833048224
26.458932,37.406951904,3.042457581,-0.357429504,-0.142928466,-0.090112306,-0.840372443
26.459558,38.650543213,3.362892151,-0.517646790,-0.138778076,-0.083276369,-0.843302131
26.460183,39.756805420,3.820655823,-0.517646790,-0.140731201,-0.074487306,-0.847818732
26.460809,40.649444580,4.339454651,-0.723640442,-0.143660888,-0.064599611,-0.855142951
26.461435,41.740447998,4.797218323,-0.601570129,-0.147933349,-0.059350587,-0.860514045
26.462062,42.427093506,5.346534729,-0.540534973,-0.144393310,-0.046411134,-0.865030646
26.462688,42.861968994,5.903480530,-0.578681946,-0.144759521,-0.037255861,-0.868936896
26.464336,43.594390869,6.956336975,-0.883857727,-0.140242919,-0.010278320,-0.885904670
26.464962,43.449432373,7.261512756,-1.097480774,-0.146346435,-0.001123047,-0.888956428
26.465589,43.350250244,7.360694885,-1.089851379,-0.143538818,0.012548828,-0.898233771
26.466215,43.151885986,8.009193420,-1.166145325,-0.140609130,0.017431641,-0.906168342
26.466841,42.655975342,8.085487366,-1.189033508,-0.142806396,0.024511719,-0.912760139
26.467466,42.198211670,8.489845276,-1.364509583,-0.146712646,0.033666991,-0.918497443
26.468092,41.175872803,8.962867737,-1.425544739,-0.143050537,0.039038084,-0.927164435
26.468718,40.779144287,9.405372620,-1.608650208,-0.143050537,0.045874022,-0.931070685
26.469343,39.703399658,9.725807190,-1.623908997,-0.149154052,0.056005858,-0.939737678
26.469968,38.688690186,9.947059631,-1.944343567,-0.148421630,0.061987303,-0.949015021
26.470594,37.643463135,10.221717834,-1.845161438,-0.149520263,0.068823241,-0.953287482
26.471219,36.186248779,10.328529358,-2.119819641,-0.155013427,0.075292967,-0.961222053
26.471845,34.843475342,10.725257874,-2.211372375,-0.158309326,0.083959959,-0.970255256
26.472472,33.493072510,11.060951233,-2.196113586,-0.158919677,0.089331053,-0.969278693
26.473098,31.486541748,11.274574280,-2.638618469,-0.159285888,0.094091795,-0.971964240
26.474769,28.297454834,11.564491272,-2.852241516,-0.162825927,0.100683592,-0.982706428
26.475395,26.519805908,11.877296448,-3.081123352,-0.165145263,0.103857420,-0.991373420
26.489158,-19.813507080,10.252235413,-6.537239075,-0.177840576,0.056372069,-1.085245490
26.489880,-21.591156006,10.053871155,-6.758491516,-0.176986083,0.050268553,-1.084146857
26.490505,-23.040740967,9.779212952,-6.811897278,-0.174300537,0.045751952,-1.084757209
26.491130,-24.475067139,9.535072327,-7.040779114,-0.169906005,0.040136717,-1.086710334
26.491755,-25.924652100,9.634254456,-6.850044250,-0.173079833,0.030737305,-1.086344123
26.492380,-27.351348877,9.390113831,-6.895820618,-0.170150146,0.023413086,-1.086954474
26.493006,-28.663604736,9.039161682,-6.941596985,-0.171248779,0.018774414,-1.088541389
26.493631,-30.036895752,8.901832581,-7.010261536,-0.174666747,0.016577149,-1.085855842
26.494258,-31.005828857,8.627174377,-7.200996399,-0.170638427,0.006079102,-1.089395881
26.494883,-32.218902588,8.703468323,-7.078926086,-0.169783935,0.000219727,-1.088419318
26.495508,-32.997100830,8.375404358,-7.155220032,-0.169906005,-0.007836914,-1.088663459
26.496135,-33.920257568,8.283851624,-7.010261536,-0.168685302,-0.013330078,-1.085245490
26.496760,-34.835784912,8.367774963,-7.246772766,-0.167464599,-0.021264648,-1.085367560
26.497386,-35.728424072,8.085487366,-7.391731262,-0.166732177,-0.028955078,-1.083292365
26.499132,-36.529510498,7.841346741,-7.277290344,-0.168929443,-0.043847658,-1.079874396
26.499757,-37.193267822,7.642982483,-7.132331848,-0.168319091,-0.047265626,-1.076334357
26.500382,-37.498443604,7.299659729,-7.132331848,-0.165389404,-0.054589845,-1.078653693
26.501007,-37.933319092,7.559059143,-7.056037903,-0.165511474,-0.062280275,-1.076700568
26.501634,-38.032501221,7.169960022,-7.147590637,-0.166243896,-0.069238283,-1.073160529
26.502259,-38.429229736,7.215736389,-7.086555481,-0.168807372,-0.077661134,-1.069864631
26.502885,-38.238494873,6.948707581,-6.987373352,-0.165023193,-0.086450197,-1.072306037
26.503510,-38.185089111,6.826637268,-6.956855774,-0.166854247,-0.093774416,-1.070719123
26.504135,-38.177459717,6.872413635,-6.811897278,-0.162337646,-0.096582033,-1.068277717
26.504761,-37.849395752,6.750343323,-6.850044250,-0.163558349,-0.103051759,-1.068643928
26.505388,-37.368743896,6.712196350,-6.598274231,-0.164046630,-0.103784181,-1.066812873
26.506013,-36.689727783,6.811378479,-6.514350891,-0.160628662,-0.110253908,-1.062296271
26.506639,-36.125152588,6.658790588,-6.392280579,-0.155867919,-0.114770509,-1.063150764
26.507264,-35.636871338,6.834266663,-6.438056946,-0.157943115,-0.116967775,-1.060343146
26.507889,-35.049407959,6.635902405,-6.262580872,-0.156234130,-0.117700197,-1.056925178
26.509617,-34.004180908,6.841896057,-5.972663879,-0.155989990,-0.126367182,-1.048868537
26.510242,-33.248870850,6.704566956,-6.026069641,-0.157454833,-0.127343744,-1.048868537
26.510868,-32.379119873,6.651161194,-5.965034485,-0.156234130,-0.132348627,-1.050455451
26.511494,-31.867950439,6.674049377,-5.682746887,-0.158553466,-0.135278314,-1.050089240
26.512121,-31.127899170,6.742713928,-5.698005676,-0.157454833,-0.138574213,-1.046915412
26.512747,-30.227630615,6.811378479,-5.423347473,-0.157454833,-0.143090814,-1.045694709
26.513373,-29.655426025,7.025001526,-5.553047180,-0.155867919,-0.142114252,-1.044474006
26.513998,-28.503387451,7.192848206,-5.385200500,-0.158675537,-0.144311517,-1.042032599
26.514623,-27.763336182,7.238624573,-5.171577454,-0.152816162,-0.148828119,-1.040201545
26.515250,-26.878326416,7.292030334,-4.942695618,-0.155745849,-0.148828119,-1.042154670
26.515876,-25.939910889,7.406471252,-4.935066223,-0.157943115,-0.149560541,-1.037638068
26.516503,-25.238006592,7.322547913,-4.874031067,-0.160628662,-0.146997064,-1.038614631
26.517130,-24.406402588,7.589576721,-4.378120422,-0.157454833,-0.150170892,-1.038736701
26.517755,-23.490875244,7.589576721,-4.576484680,-0.154769287,-0.148339838,-1.040811896
26.518381,-22.529571533,7.726905823,-4.294197083,-0.152327880,-0.150292963,-1.040323615
26.520049,-20.545928955,8.253334045,-3.859321594,-0.145858154,-0.148583978,-1.039347053
26.520674,-19.821136475,8.726356506,-3.859321594,-0.147445068,-0.148095697,-1.037027717
26.521300,-18.943756104,8.764503479,-3.523628235,-0.144759521,-0.148828119,-1.035074592
26.534990,1.312286377,17.706153870,0.962455750,-0.111678466,-0.164575189,-1.028726935
26.535642,2.525360107,18.591163635,1.160820007,-0.110091552,-0.162866205,-1.030069709
26.542820,17.677337646,24.763343811,3.297050476,-0.058944091,-0.117089845,-1.071573615
26.543446,18.608123779,25.137184143,3.373344421,-0.060897216,-0.108178712,-1.079752326
26.545155,20.027191162,25.938270569,3.503044128,-0.054061279,-0.096582033,-1.094400764
26.545780,20.896942139,26.167152405,3.503044128,-0.052474365,-0.092187501,-1.102091193
26.546405,21.965057373,26.716468811,3.625114441,-0.049178466,-0.084375001,-1.107706428
26.547033,22.430450439,26.983497620,3.770072937,-0.044539794,-0.078149416,-1.118814826
26.547658,23.071319580,27.578590393,3.731925964,-0.041365966,-0.070336916,-1.122965217
26.548285,23.620635986,27.601478577,3.876884460,-0.038070068,-0.058129884,-1.134073615
26.548912,23.895294189,27.761695862,3.869255066,-0.036605224,-0.051416017,-1.141153693
26.549539,24.208099365,28.150794983,3.739555359,-0.030745849,-0.042626955,-1.150064826
26.550166,24.383575439,28.478858948,3.823478699,-0.035384521,-0.037500001,-1.157266974
26.550793,24.467498779,28.509376526,3.876884460,-0.031234130,-0.026391601,-1.164957404
26.551419,24.284393311,28.837440491,3.785331726,-0.030623779,-0.021020507,-1.175333381
26.552046,24.147064209,29.096839905,3.678520203,-0.026229247,-0.013574218,-1.178140998
26.552672,24.002105713,28.845069885,3.853996277,-0.029281005,-0.002221679,-1.186930060
26.553297,23.254425049,28.951881409,3.571708679,-0.030013427,0.005712891,-1.196207404
26.553923,22.789031982,29.104469299,3.503044128,-0.026595458,0.015478516,-1.207559943
26.555637,20.576507568,28.883216858,3.403862000,-0.027327880,0.039648436,-1.230753303
26.556262,19.363433838,28.829811096,3.327568054,-0.028914794,0.045385741,-1.231485724
26.556888,18.066436768,28.631446838,3.327568054,-0.032821044,0.051733397,-1.244058967
26.557513,16.792327881,28.532264709,3.274162292,-0.035384521,0.058447264,-1.250650764
26.558139,15.647918701,28.288124084,3.274162292,-0.036483154,0.063085936,-1.260416389
26.558764,14.190704346,28.188941956,3.030021667,-0.037825927,0.064184569,-1.269327521
26.559391,12.733489990,28.005836487,3.342826843,-0.041365966,0.070776366,-1.275186896
26.560016,11.505157471,27.914283752,2.885063171,-0.046614990,0.075659178,-1.280557990
26.560641,9.971649170,27.364967346,2.816398621,-0.043319091,0.080053709,-1.288370490
26.561267,8.827239990,27.288673401,2.656181335,-0.045150146,0.083349608,-1.292887092
26.561892,7.362396240,27.036903381,2.701957703,-0.046859130,0.086157225,-1.297037482
26.562519,5.683929443,26.518104553,2.549369812,-0.046981201,0.091284178,-1.302408576
26.563144,4.058868408,26.434181213,2.389152527,-0.046004638,0.098486327,-1.302530646
26.563770,2.395660400,26.251075745,2.343376160,-0.047835693,0.101049803,-1.310099006
26.564395,0.663787842,25.961158752,2.213676453,-0.048201904,0.105444334,-1.305460334
26.566094,-4.760711670,25.137184143,1.824577332,-0.044173583,0.102758788,-1.307047248
26.566719,-6.355255127,24.832008362,1.542289734,-0.045394287,0.109350584,-1.312174201
26.567344,-8.270233154,24.465797424,1.427848816,-0.041976318,0.106298827,-1.312296271
26.567970,-10.147064209,23.893592834,1.237113953,-0.040877685,0.106542967,-1.309976935
26.568595,-11.756866455,24.061439514,1.015861511,-0.040389404,0.106542967,-1.313639045
26.569220,-13.641326904,23.527381897,1.046379089,-0.039901122,0.105566405,-1.317667365
26.569847,-15.159576416,23.191688538,0.954826355,-0.039168701,0.101782225,-1.317301154
26.570474,-16.784637451,23.214576721,0.680168152,-0.039290771,0.098852538,-1.322794318
26.571099,-18.600433350,22.825477600,0.451286316,-0.035628662,0.093969725,-1.322306037
26.571725,-19.920318604,22.489784241,0.237663269,-0.036361083,0.087866209,-1.326090217
26.572351,-21.118133545,22.337196350,0.336845398,-0.037093505,0.077612303,-1.326700568
26.572976,-22.506683350,21.963356018,0.336845398,-0.035262451,0.076513670,-1.331705451
26.573601,-23.429840088,21.772621155,-0.021736152,-0.034652099,0.072851561,-1.332193732
26.588220,-25.802581787,14.120338440,-1.501838684,-0.042464599,-0.041894533,-1.359293342
26.588977,-24.703948975,13.380287170,-1.562873840,-0.039779052,-0.046777345,-1.357706428
26.589603,-24.139373779,12.701271057,-1.616279602,-0.040511474,-0.048364259,-1.358438849
26.590230,-23.414581299,12.327430725,-1.486579895,-0.033919677,-0.047509767,-1.356485724
26.590855,-22.796600342,11.991737366,-1.585762024,-0.030135497,-0.048608400,-1.355387092
26.591480,-22.216766357,11.686561584,-1.349250793,-0.027816162,-0.048608400,-1.350015998
26.592105,-21.636932373,11.259315491,-1.471321106,-0.025985107,-0.050561525,-1.348307014
26.592730,-21.003692627,10.961769104,-1.486579895,-0.020858154,-0.054223634,-1.349161506
26.593355,-20.591705322,10.168312073,-1.379768372,-0.013900146,-0.052270509,-1.346720099
26.593981,-19.912689209,9.977577209,-1.364509583,-0.010238037,-0.055078126,-1.349771857
26.594607,-19.439666748,9.588478088,-1.288215637,-0.005843505,-0.058251955,-1.347940803
26.595233,-19.042938232,9.054420471,-1.211921692,-0.003280029,-0.059228517,-1.341959357
26.595858,-18.363922119,8.810279846,-1.364509583,0.004654542,-0.059106447,-1.340006232
26.596483,-17.868011475,8.604286194,-1.204292297,0.009049073,-0.060327150,-1.337442756
26.598197,-16.883819580,7.932899475,-1.112739563,0.020035401,-0.061181642,-1.333048224
26.598822,-16.700714111,7.742164612,-1.044075012,0.026993409,-0.065576173,-1.329630256
26.599447,-16.204803467,7.566688538,-0.883857727,0.033463135,-0.063012697,-1.328043342
26.600073,-15.762298584,7.536170959,-0.822822571,0.039810792,-0.062768556,-1.325846076
26.600699,-15.556304932,7.284400940,-0.632087708,0.045792237,-0.065698244,-1.321695685
26.601326,-15.243499756,6.727455139,-0.723640442,0.049088135,-0.064965822,-1.315714240
26.601952,-15.060394287,6.971595764,-0.746528625,0.054947510,-0.066064455,-1.312662482
26.602577,-14.709442139,6.666419983,-0.540534973,0.060196534,-0.068139650,-1.310099006
26.603202,-14.526336670,6.651161194,-0.464241028,0.065323487,-0.066674806,-1.310465217
26.603828,-14.213531494,6.468055725,-0.479499817,0.068863526,-0.068261720,-1.307779670
26.604454,-13.984649658,6.368873596,-0.128547668,0.074967042,-0.070092775,-1.306436896
26.605081,-13.854949951,6.109474182,-0.159065247,0.082291260,-0.068261720,-1.304849982
26.605706,-13.481109619,6.139991760,-0.288764954,0.082657471,-0.067773439,-1.301798224
26.606331,-13.580291748,5.964515686,-0.281135559,0.088028565,-0.071435548,-1.300089240
26.606958,-13.267486572,5.605934143,-0.067512520,0.092301026,-0.075585939,-1.300943732
26.608675,-12.077301025,5.430458069,0.336845398,0.105118409,-0.085107423,-1.297891974
26.609302,-11.688201904,5.048988342,0.283439636,0.109879151,-0.083886720,-1.295206428
26.609927,-11.367767334,5.064247131,0.512321472,0.111832276,-0.089624025,-1.298502326
26.610556,-10.841339111,4.980323792,0.657279968,0.119522706,-0.092553712,-1.296305060
26.611182,-10.391204834,5.079505920,0.603874207,0.126968995,-0.093896486,-1.296427131
26.611808,-10.169952393,4.858253479,0.855644226,0.131119385,-0.098657228,-1.293497443
26.612433,-9.498565674,4.606483459,0.924308777,0.132340088,-0.102929689,-1.291422248
26.613060,-8.613555908,4.888771057,1.061637878,0.138321534,-0.100000001,-1.290811896
26.613686,-7.995574951,4.659889221,1.061637878,0.142227784,-0.104150392,-1.289591193
26.614312,-7.690399170,4.545448303,1.069267273,0.144791260,-0.107446291,-1.288736701
26.614939,-6.950347900,4.293678284,1.267631531,0.148941651,-0.108178712,-1.286783576
26.615565,-6.301849365,4.072425842,1.328666687,0.155899659,-0.112939455,-1.288492560
26.616192,-5.607574463,4.102943420,1.435478210,0.154556885,-0.114404298,-1.283609748
26.616819,-5.142181396,4.087684631,1.488883972,0.157120362,-0.116357423,-1.286417365
26.617445,-4.142730713,3.698585510,1.893241882,0.159561768,-0.117700197,-1.283243537
26.619091,-2.120941162,3.607032776,2.190788269,0.171768799,-0.120874025,-1.280313849
26.619716,-1.243560791,3.545997620,2.404411316,0.172135010,-0.123803712,-1.278726935
26.620342,-0.465362549,3.370521545,2.442558289,0.183487549,-0.127221674,-1.277140021
26.633993,8.094818115,1.554725647,6.272514343,0.226212159,-0.087304689,-1.294840217
26.634682,7.843048096,1.569984436,6.409843445,0.226090088,-0.084497072,-1.294718146
26.635307,7.682830811,1.440284729,6.554801941,0.225723878,-0.081201173,-1.301187873
26.635932,7.453948975,1.241920471,6.943901062,0.222183838,-0.075952150,-1.305460334
26.636559,6.828338623,0.807044983,6.959159851,0.222550049,-0.077661134,-1.310099006
26.637185,6.645233154,0.807044983,7.172782898,0.218765870,-0.072290041,-1.314493537
26.637810,6.187469482,0.578163147,7.203300476,0.218521729,-0.068994142,-1.313761115
26.638435,5.615264893,0.288246155,7.645805359,0.215225831,-0.064477541,-1.320474982
26.639061,5.081207275,-0.024559021,7.653434753,0.214127198,-0.063256837,-1.318399787
26.639687,4.623443604,-0.337364197,7.928092957,0.211685792,-0.055688478,-1.322183967
26.640314,3.875762939,-0.627281189,8.004386902,0.211563721,-0.055810548,-1.323892951
26.640939,3.288299561,-0.879051208,8.233268738,0.210343018,-0.050561525,-1.326700568
26.641566,2.265960693,-1.298667908,8.362968445,0.204849854,-0.048242189,-1.325724006
26.642192,1.457244873,-1.535179138,8.485038757,0.203507081,-0.045556642,-1.327066779
26.642818,0.694305420,-1.893760681,8.851249695,0.202530518,-0.042260744,-1.327799201
26.644496,-1.869171143,-3.122093201,9.255607605,0.191422120,-0.036035158,-1.330850959
26.645122,-2.746551514,-3.671409607,9.438713074,0.188736573,-0.039575197,-1.334146857
26.645749,-3.601043701,-4.197837830,9.629447937,0.186539307,-0.036157228,-1.332071662
26.646374,-4.539459229,-4.518272400,9.644706726,0.183853760,-0.034692384,-1.330240607
26.647000,-5.210845947,-5.067588806,9.873588562,0.181778565,-0.031152343,-1.334390998
26.647625,-6.141632080,-5.388023376,10.262687683,0.181778565,-0.029931640,-1.334513068
26.648251,-7.118194580,-6.120445251,10.163505554,0.176773682,-0.030175781,-1.334757209
26.648878,-7.873504639,-6.562950134,10.674674988,0.176285401,-0.030664062,-1.335001349
26.649504,-8.644073486,-6.891014099,10.667045593,0.174576417,-0.027612304,-1.330973029
26.650130,-9.384124756,-7.318260193,10.651786804,0.169571534,-0.030297851,-1.328165412
26.650756,-10.208099365,-7.730247498,11.025627136,0.170792237,-0.031030273,-1.326944709
26.651381,-10.856597900,-8.134605408,11.086662292,0.168472901,-0.026269531,-1.323770881
26.652008,-11.398284912,-8.691551208,11.300285339,0.166153565,-0.026635742,-1.318765998
26.652634,-12.016265869,-9.179832458,11.498649597,0.162247315,-0.028466797,-1.311319709
26.653261,-12.290924072,-9.477378845,11.567314148,0.163101807,-0.026147461,-1.309244514
26.654968,-13.687103271,-10.171653748,11.956413269,0.158096924,-0.021752929,-1.300455451
26.655595,-14.068572998,-10.583641052,11.811454773,0.154678956,-0.021264648,-1.293497443
26.656222,-14.274566650,-11.079551697,12.208183289,0.152847901,-0.018945312,-1.288614631
26.656849,-14.694183350,-11.361839294,12.307365417,0.154434815,-0.017724609,-1.281168342
26.657475,-15.151947021,-11.796714783,12.482841492,0.148697510,-0.014428711,-1.281168342
26.658102,-15.281646729,-12.033226013,12.437065125,0.147598878,-0.014062500,-1.275797248
26.658729,-15.762298584,-12.361289978,12.711723328,0.147598878,-0.013574218,-1.270792365
26.659355,-15.830963135,-12.780906677,12.711723328,0.143692628,-0.008691406,-1.264810920
26.659980,-15.907257080,-12.956382751,12.582023621,0.142227784,-0.009790039,-1.265299201
26.660605,-15.891998291,-13.368370056,12.658317566,0.140274659,-0.007836914,-1.259073615
26.661232,-16.166656494,-13.917686462,13.001640320,0.135880128,-0.005761718,-1.259317756
26.661858,-16.021697998,-14.024497986,12.673576355,0.136368409,-0.004296875,-1.253092170
26.662484,-16.006439209,-14.230491638,12.726982117,0.132828370,-0.004052734,-1.255045295
26.663110,-15.747039795,-14.665367126,12.940605164,0.128311768,-0.001000976,-1.254434943
26.663736,-15.731781006,-14.962913513,12.849052429,0.123795167,-0.000146484,-1.251749396
26.665462,-15.144317627,-16.351463318,12.940605164,0.119766846,-0.003564453,-1.245523810
26.666089,-14.480560303,-16.465904236,12.986381531,0.122330323,-0.003076172,-1.242716193
26.666716,-14.106719971,-16.610862732,13.161857605,0.124405518,0.003759766,-1.236978889
26.680505,-7.476776123,-19.456626892,11.330802917,0.082535401,0.058325194,-1.149332404
26.681265,-7.186859131,-19.502403259,11.246879578,0.080093995,0.058203124,-1.148233771
26.681891,-6.652801514,-19.616844177,11.170585632,0.078262940,0.062719725,-1.144693732
26.682517,-6.515472412,-19.853355408,10.796745300,0.076553956,0.064794920,-1.142130256
26.683142,-6.179779053,-19.731285095,10.903556824,0.075821534,0.064916991,-1.141275764
26.683767,-5.950897217,-19.929649353,10.697563171,0.077042237,0.066381834,-1.139322639
26.684393,-5.691497803,-19.998313904,10.422904968,0.071182862,0.071020506,-1.134928107
26.685018,-5.470245361,-19.876243591,10.384757996,0.069840088,0.071508788,-1.134928107
26.685643,-5.142181396,-20.005943298,10.392387390,0.068741456,0.072119139,-1.130777717
26.686268,-5.020111084,-20.211936951,10.117729187,0.069840088,0.072119139,-1.129801154
26.686894,-4.745452881,-19.990684509,9.988029480,0.068375245,0.072973631,-1.129801154
26.687519,-4.577606201,-20.501853943,10.033805847,0.067886963,0.071264647,-1.127970099
26.688144,-4.440277100,-20.486595154,9.820182800,0.067886963,0.072119139,-1.122110724
26.688769,-4.386871338,-20.578147888,9.759147644,0.069473878,0.070043944,-1.123697639
26.690491,-4.005401611,-20.898582458,9.568412781,0.070694581,0.074438475,-1.113443732
26.691117,-3.608673096,-20.822288513,9.423454285,0.064468995,0.070288084,-1.115030646
26.691742,-3.517120361,-21.104576111,9.202201843,0.065567628,0.073461913,-1.113687873
26.692369,-3.486602783,-21.135093689,9.186943054,0.059708253,0.073217772,-1.105875373
26.692994,-3.318756104,-21.157981873,9.064872742,0.060928956,0.070654295,-1.104044318
26.693620,-3.227203369,-21.531822205,9.087760925,0.060196534,0.069433592,-1.104776740
26.694246,-3.112762451,-21.524192810,8.835990906,0.061051026,0.070898436,-1.099161506
26.694873,-2.952545166,-21.638633728,8.843620300,0.057755128,0.066259764,-1.096353889
26.695500,-2.998321533,-21.775962830,8.668144226,0.058243409,0.067480467,-1.097086310
26.696125,-2.899139404,-21.867515564,8.546073914,0.058731690,0.068579100,-1.089640021
26.696750,-2.883880615,-22.050621033,8.546073914,0.059097901,0.069433592,-1.093546271
26.697375,-2.609222412,-22.180320740,8.469779968,0.057633057,0.063574217,-1.089151740
26.698001,-2.616851807,-22.355796814,8.256156921,0.056778565,0.064062499,-1.087198615
26.698628,-2.616851807,-22.523643494,8.210380554,0.050675049,0.062841795,-1.083170295
26.699253,-2.616851807,-22.424461365,8.279045105,0.051651612,0.063574217,-1.083048224
26.700973,-2.105682373,-23.217918396,8.012016296,0.047989503,0.060766600,-1.077677131
26.701599,-2.021759033,-23.263694763,7.966239929,0.050919190,0.055029295,-1.076090217
26.702224,-1.823394775,-23.523094177,7.844169617,0.050919190,0.052465819,-1.070597053
26.702849,-1.655548096,-23.660423279,7.790763855,0.048111573,0.051489256,-1.070474982
26.703475,-1.594512939,-23.751976013,7.867057800,0.049210206,0.050512694,-1.068521857
26.704100,-1.258819580,-23.988487244,7.760246277,0.047989503,0.046606444,-1.063883185
26.704726,-0.839202881,-24.156333923,7.615287781,0.049088135,0.047460936,-1.063150764
26.705353,-0.709503174,-24.400474548,7.836540222,0.045792237,0.048193358,-1.059000373
26.705980,-0.556915283,-24.308921814,7.622917175,0.045670167,0.044653319,-1.056314826
26.706607,-0.251739502,-24.492027283,7.584770203,0.045548096,0.042578124,-1.053385139
26.707233,0.038177490,-24.705650330,7.516105652,0.044815674,0.041601561,-1.048624396
26.707860,0.144989014,-24.812461853,7.577140808,0.044693604,0.043920897,-1.044962287
26.708487,0.144989014,-25.026084900,7.409294128,0.040543213,0.040624999,-1.041178107
26.709113,0.236541748,-25.186302185,7.508476257,0.039322510,0.042333983,-1.035318732
26.709738,0.434906006,-25.377037048,7.577140808,0.035904542,0.042333983,-1.030680060
26.711438,0.854522705,-25.773765564,7.714469910,0.031510010,0.036962889,-1.026407599
26.712064,0.778228760,-26.040794373,7.287223816,0.030289307,0.035986327,-1.024332404
26.712690,1.060516357,-26.246788025,7.523735046,0.027847901,0.038549803,-1.019937873
26.726515,0.045806885,-27.749778748,7.935722351,0.007706299,0.037573241,-0.922891974
26.727240,-0.503509521,-27.581932068,7.867057800,0.008560792,0.037329100,-0.920450568
26.727866,-0.678985596,-27.482749939,8.088310242,0.007828370,0.036108397,-0.915567756
26.728493,-1.045196533,-27.604820251,8.149345398,0.007095948,0.032934569,-0.909830451
26.729119,-1.213043213,-27.475120544,8.210380554,0.007584229,0.036108397,-0.907633185
26.729744,-1.693695068,-27.330162048,8.080680847,0.009537354,0.031591795,-0.902628303
26.730370,-1.945465088,-27.055503845,8.355339050,0.004410401,0.035375975,-0.899454474
26.730997,-2.128570557,-27.017356873,8.111198425,0.005997315,0.033422850,-0.895304084
26.731623,-2.479522705,-26.849510193,8.576591492,0.001480713,0.037451170,-0.892496467
26.732248,-2.632110596,-26.796104431,8.233268738,-0.000106201,0.034521483,-0.893106818
26.732873,-2.990692139,-26.529075623,8.462150574,0.000260010,0.033300780,-0.886515021
26.733500,-3.036468506,-26.361228943,8.507926941,-0.002547607,0.036352538,-0.880655646
26.734127,-3.364532471,-26.300193787,8.691032410,-0.006331787,0.036596678,-0.876261115
26.734754,-3.707855225,-26.162864685,8.500297546,-0.007918701,0.035253905,-0.873209357
26.736494,-4.928558350,-25.552513123,8.866508484,-0.011824951,0.039038084,-0.860514045
26.737120,-4.859893799,-25.323631287,8.629997253,-0.015609130,0.037695311,-0.857828498
26.737745,-5.126922607,-25.293113708,8.813102722,-0.014876708,0.036230467,-0.855509162
26.738370,-5.660980225,-25.163414001,8.744438171,-0.017440185,0.037329100,-0.853311896
26.738995,-5.744903564,-24.904014587,8.935173035,-0.020736083,0.038183592,-0.849161506
26.739621,-6.164520264,-24.736167908,8.935173035,-0.020491943,0.039892577,-0.843790412
26.740247,-6.607025146,-24.347068787,9.103019714,-0.021956787,0.040747069,-0.837076545
26.740874,-6.927459717,-24.171592712,9.034355164,-0.024276122,0.039526366,-0.833292365
26.741499,-7.049530029,-23.820640564,9.095390320,-0.028304443,0.043920897,-0.829752326
26.742125,-7.583587646,-23.843528748,9.255607605,-0.027572021,0.044287108,-0.825357795
26.742752,-7.820098877,-23.660423279,9.232719421,-0.033431396,0.045507811,-0.822916389
26.743377,-8.636444092,-23.370506287,9.202201843,-0.035262451,0.046118163,-0.815836310
26.744004,-8.918731689,-23.156883240,9.301383972,-0.036849365,0.048437499,-0.813394904
26.744630,-9.262054443,-22.851707458,9.194572449,-0.041976318,0.050878905,-0.807291389
26.745256,-9.727447510,-22.599937439,9.461601257,-0.042342529,0.045385741,-0.804117560
26.746952,-11.100738525,-21.707298279,9.484489441,-0.048079833,0.047338866,-0.788858771
26.747577,-11.291473389,-21.295310974,9.530265808,-0.048079833,0.046728514,-0.788370490
26.748204,-11.543243408,-20.875694275,9.682853699,-0.046492919,0.047338866,-0.782022834
26.748830,-12.069671631,-20.532371521,9.461601257,-0.049666747,0.048803709,-0.778604865
26.749457,-12.390106201,-20.166160583,9.705741882,-0.054305419,0.050146483,-0.775431037
26.750083,-12.977569580,-19.899131775,9.652336121,-0.050032958,0.052709959,-0.769693732
26.750708,-13.023345947,-19.540550232,9.629447937,-0.052230224,0.048559569,-0.765299201
26.751335,-13.427703857,-18.823387146,9.797294617,-0.052596435,0.053076170,-0.763468146
26.751962,-13.908355713,-18.518211365,9.911735535,-0.053572997,0.050756834,-0.760172248
26.752587,-14.106719971,-18.312217712,9.812553406,-0.056624755,0.051611327,-0.751139045
26.753214,-14.503448486,-17.656089783,9.675224304,-0.060286865,0.052465819,-0.750772834
26.753840,-14.984100342,-17.587425232,10.003288269,-0.054061279,0.051367186,-0.745157599
26.754465,-15.068023682,-16.938926697,9.759147644,-0.061751708,0.053320311,-0.744425178
26.755092,-15.411346436,-16.702415466,10.087211609,-0.065780029,0.053808592,-0.742716193
26.755717,-15.518157959,-16.229393005,9.865959167,-0.065413818,0.053808592,-0.734903693
26.757418,-16.006439209,-14.932395935,10.056694031,-0.067977294,0.050390624,-0.726480842
26.758044,-16.120880127,-14.497520447,9.881217957,-0.066390380,0.049536131,-0.726236701
26.758670,-15.930145264,-14.192344666,9.926994324,-0.072982177,0.048315428,-0.723062873
26.772472,-9.429901123,-3.839256287,9.858329773,-0.106185302,0.066748045,-0.681803107
26.773174,-8.850067139,-3.648521423,9.713371277,-0.107772216,0.068334959,-0.685099006
26.773799,-8.308380127,-2.969505310,9.675224304,-0.109359130,0.073706053,-0.680948615
26.774424,-7.705657959,-2.732994080,9.545524597,-0.108382568,0.073339842,-0.681070685
26.775051,-7.423370361,-2.122642517,9.408195496,-0.111068115,0.074194334,-0.678873420
26.775678,-6.973236084,-1.550437927,9.400566101,-0.110579833,0.075537108,-0.679849982
26.776305,-6.179779053,-1.123191833,9.301383972,-0.110823974,0.074438475,-0.676554084
26.776932,-5.798309326,-0.383140564,9.225090027,-0.112777099,0.083227538,-0.678263068
26.777557,-5.165069580,-0.039817810,9.133537292,-0.113143310,0.084204100,-0.677530646
26.778183,-4.760711670,0.387428284,8.965690613,-0.112899169,0.088110350,-0.674600959
26.778810,-4.272430420,1.066444397,8.706291199,-0.117659912,0.089819334,-0.673136115
26.779436,-3.768890381,1.302955627,8.942802429,-0.117415771,0.092626952,-0.671549201
26.780062,-3.387420654,1.760719299,8.752067566,-0.122420654,0.096533202,-0.670816779
26.780687,-2.876251221,2.226112366,8.584220886,-0.121566162,0.097143553,-0.674356818
26.782441,-1.846282959,3.584144592,8.424003601,-0.127181396,0.102636717,-0.671671271
26.783068,-1.449554443,4.133460999,8.134086609,-0.129744872,0.104833983,-0.673868537
26.783693,-0.961273193,4.476783752,7.928092957,-0.127181396,0.108740233,-0.673136115
26.784318,-0.701873779,4.881141663,8.118827820,-0.132430419,0.112036131,-0.675211310
26.784945,-0.419586182,5.338905334,7.806022644,-0.133406982,0.111303709,-0.677286506
26.785570,-0.022857666,5.628822327,7.638175964,-0.133529052,0.114965819,-0.679972053
26.793989,5.485565186,10.061500549,5.448539734,-0.167830810,0.139135748,-0.705240607
26.794614,5.798370361,10.404823303,5.089958191,-0.171370849,0.138281256,-0.705362678
26.795240,6.324798584,10.351417542,5.089958191,-0.168441162,0.143041998,-0.708292365
26.795866,6.546051025,10.870216370,4.731376648,-0.171370849,0.140356451,-0.709146857
26.796492,7.125885010,11.038063049,4.708488464,-0.172347412,0.142675787,-0.715494514
26.797119,7.347137451,10.915992737,4.265983582,-0.173812255,0.143041998,-0.717935920
26.797744,7.911712646,11.251686096,4.052360535,-0.175277099,0.145727545,-0.716837287
26.798370,8.125335693,11.373756409,4.014213562,-0.173812255,0.143530279,-0.721353889
26.798996,8.918792725,11.541603088,3.625114441,-0.174300537,0.142187506,-0.721231818
26.799623,9.414703369,11.900184631,3.426750183,-0.173201904,0.144995123,-0.723062873
26.800248,9.529144287,12.006996155,3.327568054,-0.171492919,0.143041998,-0.724405646
26.800873,10.116607666,12.129066467,3.129203796,-0.167586669,0.149755865,-0.725504279
26.801498,10.353118896,12.251136780,2.564628601,-0.172225341,0.149877936,-0.729288459
26.802123,10.719329834,12.708900452,2.488334656,-0.170882568,0.150122076,-0.726602912
26.802750,11.070281982,12.686012268,2.640922546,-0.170760497,0.152685553,-0.725015998
26.804398,11.840850830,13.212440491,1.549919128,-0.165023193,0.157690436,-0.728556037
26.805031,12.016326904,13.380287170,1.420219421,-0.163558349,0.158056647,-0.727701545
26.805657,12.268096924,13.654945374,1.160820007,-0.164656982,0.162207037,-0.729776740
26.806282,12.374908447,13.807533264,0.893791199,-0.160384521,0.158544928,-0.726602912
26.806907,12.458831787,13.960121155,0.588615417,-0.159896240,0.161596686,-0.729410529
26.807532,12.603790283,14.280555725,0.428398132,-0.160750732,0.161596686,-0.728922248
26.808158,12.565643311,14.547584534,0.237663269,-0.157943115,0.163427740,-0.730997443
26.808784,12.504608154,14.852760315,-0.166694641,-0.157943115,0.167944342,-0.730509162
26.809409,12.588531494,15.020606995,-0.273506165,-0.156966552,0.166235358,-0.731119514
26.810034,12.329132080,15.142677307,-0.593940735,-0.157332763,0.165747076,-0.734537482
26.810661,12.435943604,15.478370667,-0.807563782,-0.154158935,0.166967779,-0.736368537
26.811286,12.046844482,15.768287659,-1.013557434,-0.151229247,0.168798834,-0.737223029
26.811911,11.932403564,15.936134338,-1.295845032,-0.151961669,0.170874029,-0.740030646
26.825618,-4.699676514,21.574256897,-5.705635071,-0.130355224,0.152441412,-0.792276740
26.826290,-5.699127197,21.642921448,-5.881111145,-0.130111083,0.155004889,-0.792154670
26.826916,-6.637542725,22.009132385,-6.003181458,-0.130477294,0.155371100,-0.792154670
26.827543,-7.865875244,22.054908752,-6.117622375,-0.132430419,0.152929693,-0.797525764
26.828168,-9.033172607,22.115943909,-6.239692688,-0.130843505,0.152075201,-0.798258185
26.828793,-10.215728760,22.352455139,-6.102363586,-0.128280029,0.145605475,-0.802652717
26.829418,-11.619537354,22.489784241,-6.506721497,-0.129989013,0.139990240,-0.804849982
26.830043,-12.924163818,22.581336975,-6.666938782,-0.129500732,0.138647467,-0.812906623
26.830669,-13.931243896,22.527931213,-6.758491516,-0.125106201,0.138037115,-0.812418342
26.831295,-15.251129150,22.947547913,-6.689826965,-0.122664794,0.129980475,-0.817789435
26.831920,-16.189544678,22.817848206,-6.979743958,-0.123397216,0.122778319,-0.820474982
26.832545,-17.288177490,22.878883362,-6.972114563,-0.121322021,0.116796874,-0.824991584
26.833172,-18.371551514,22.932289124,-7.254402161,-0.120467529,0.110083006,-0.832193732
26.833797,-19.371002197,22.794960022,-7.223884583,-0.123275146,0.103002928,-0.835855842
26.834422,-20.385711670,23.184059143,-7.124702454,-0.121444091,0.099584959,-0.838175178
26.836087,-22.422760010,23.191688538,-7.231513977,-0.124984130,0.076757811,-0.843424201
26.836712,-23.117034912,23.054359436,-7.445137024,-0.124373779,0.070532225,-0.850504279
26.837338,-23.826568604,23.061988831,-7.300178528,-0.123031005,0.068212889,-0.851480842
26.837963,-24.360626221,22.993324280,-7.231513977,-0.124984130,0.062963866,-0.854288459
26.838589,-25.192230225,22.909400940,-7.475654602,-0.126448974,0.058203124,-0.855509162
26.839215,-25.688140869,23.138282776,-7.368843079,-0.125838622,0.052343749,-0.854044318
26.839840,-26.138275146,22.863624573,-7.345954895,-0.124739990,0.046362303,-0.858438849
26.840466,-26.702850342,22.855995178,-7.429878235,-0.126571044,0.041357420,-0.856363654
26.841093,-27.183502197,22.741554260,-7.139961243,-0.127303466,0.037695311,-0.856974006
26.841719,-27.770965576,22.543190002,-7.185737610,-0.124984130,0.030615235,-0.857340217
26.842344,-28.289764404,22.398231506,-7.414619446,-0.127425537,0.023901368,-0.861246467
26.842969,-28.541534424,22.184608459,-7.017890930,-0.125838622,0.015966797,-0.859293342
26.843594,-28.709381104,21.932838440,-7.078926086,-0.123641357,0.014990235,-0.865885139
26.844219,-28.984039307,21.803138733,-7.178108215,-0.120833740,0.005468750,-0.868082404
26.844845,-29.212921143,21.726844788,-6.941596985,-0.123763427,-0.004663086,-0.871134162
26.846520,-29.212921143,21.490333557,-6.926338196,-0.114730224,-0.017480468,-0.874307990
26.847145,-29.205291748,21.482704163,-6.712715149,-0.110335693,-0.023339843,-0.871866584
26.847771,-28.938262939,21.147010803,-6.621162415,-0.106795654,-0.030053711,-0.876261115
26.848396,-28.785675049,21.116493225,-6.659309387,-0.101180419,-0.035180666,-0.875650764
26.849022,-28.572052002,21.238563538,-6.590644836,-0.103011474,-0.045434572,-0.874552131
26.849648,-28.282135010,20.887611389,-6.277839661,-0.097030029,-0.047021486,-0.874307990
26.850275,-28.144805908,20.696876526,-6.102363586,-0.092025146,-0.053491212,-0.873697639
26.850901,-27.763336182,20.681617737,-5.942146301,-0.090316162,-0.059228517,-0.874674201
26.851527,-27.381866455,20.574806213,-5.873481750,-0.088363037,-0.064965822,-0.874674201
26.852152,-26.786773682,20.445106506,-5.728523254,-0.085799560,-0.068139650,-0.876505256
26.852779,-26.153533936,20.300148010,-5.720893860,-0.081649169,-0.072534181,-0.876627326
26.853404,-25.794952393,20.071266174,-5.522529602,-0.080306396,-0.078393556,-0.874552131
26.854034,-24.459808350,19.598243713,-5.247871399,-0.071639404,-0.085229494,-0.877970099
26.854661,-23.780792236,19.506690979,-4.935066223,-0.068953857,-0.090722658,-0.876749396
26.855286,-22.949188232,19.575355530,-4.866401672,-0.068587646,-0.095239259,-0.881143928
26.856968,-21.392791748,18.942115784,-4.401008606,-0.060775146,-0.097192384,-0.882486701
26.870753,6.256134033,15.745399475,-0.059883125,-0.048201904,-0.117456056,-0.917032599
26.871456,7.919342041,15.287635803,-0.044624336,-0.045272216,-0.114404298,-0.920694709
26.872081,9.185821533,15.104530334,0.283439636,-0.045760497,-0.110253908,-0.925943732
26.872707,10.726959229,15.218971252,0.359733582,-0.047103271,-0.108789064,-0.925089240
26.873333,12.329132080,14.791725159,0.359733582,-0.049910888,-0.105981447,-0.930460334
26.873960,13.771087646,14.700172424,0.397880554,-0.047103271,-0.103173830,-0.932901740
26.874586,15.319854736,14.486549377,0.817497253,-0.048201904,-0.097070314,-0.933878303
26.875211,16.731292725,14.318702698,0.878532410,-0.050521240,-0.095727541,-0.936685920
26.875837,18.241912842,13.952491760,0.878532410,-0.053084716,-0.091210939,-0.942057014
26.876462,19.378692627,13.990638733,0.947196960,-0.048812255,-0.086328126,-0.942423224
26.877088,20.843536377,13.921974182,1.160820007,-0.052474365,-0.080102541,-0.944986701
26.877715,22.285491943,13.693092346,1.473625183,-0.051864013,-0.077539064,-0.948038459
26.878340,23.345977783,13.448951721,1.389701843,-0.050765380,-0.074487306,-0.948404670
26.878967,24.520904541,13.471839905,1.786430359,-0.053695068,-0.069726564,-0.950968146
26.880736,27.809173584,13.014076233,1.816947937,-0.049422607,-0.052148439,-0.959513068
26.881361,28.656036377,12.792823792,1.877983093,-0.052596435,-0.045922853,-0.959879279
26.881988,29.624969482,12.785194397,2.106864929,-0.049056396,-0.047021486,-0.961832404
26.882615,30.555755615,12.609718323,2.091606140,-0.050399169,-0.036645509,-0.968302131
26.883241,31.120330811,12.647865295,2.106864929,-0.055526122,-0.030908203,-0.973307014
26.883867,31.944305420,12.350318909,2.267082214,-0.055159912,-0.023950195,-0.973429084
26.884493,32.409698486,12.235877991,2.343376160,-0.056868896,-0.018212890,-0.977457404
26.885118,32.806427002,11.907814026,2.175529480,-0.058944091,-0.012841797,-0.981363654
26.885745,33.294708252,12.045143127,2.480705261,-0.059432372,-0.011743164,-0.985147834
26.886371,33.775360107,11.610267639,2.450187683,-0.061019287,-0.002832031,-0.991251349
26.886997,33.752471924,11.556861877,2.282341003,-0.062972412,-0.000024414,-0.995279670
26.887624,34.034759521,11.320350647,2.412040710,-0.064803466,0.005712891,-0.999185920
26.888250,34.347564697,11.305091858,2.442558289,-0.067000732,0.012792969,-1.004923224
26.888877,34.294158936,10.885475159,2.503593445,-0.072005615,0.016088868,-1.009683967
26.889502,34.454376221,10.717628479,2.633293152,-0.071273193,0.020361328,-1.014078498
26.891219,34.088165283,9.969947815,2.808769226,-0.081771240,0.037695311,-1.031290412
26.891844,33.706695557,9.680030823,2.808769226,-0.087874755,0.044287108,-1.034220099
26.892469,33.332855225,9.100196838,2.473075867,-0.086043701,0.047094725,-1.041910529
26.893094,32.669097900,9.054420471,2.480705261,-0.090682372,0.052832030,-1.049356818
26.893719,32.363922119,8.604286194,2.480705261,-0.094222412,0.056982420,-1.055338264
26.894345,31.600982666,8.444068909,2.747734070,-0.094588622,0.060034178,-1.062052131
26.894970,30.929595947,8.100746155,2.801139832,-0.098372802,0.064428709,-1.059976935
26.895597,30.784637451,7.642982483,2.656181335,-0.103865966,0.064428709,-1.067545295
26.896223,29.624969482,7.322547913,2.549369812,-0.109725341,0.072119139,-1.070963264
26.896848,28.846771240,6.735084534,2.457817078,-0.111556396,0.077490233,-1.077799201
26.897475,28.030426025,6.292579651,2.297599792,-0.113997802,0.079199217,-1.078653693
26.898101,27.435333252,5.834815979,2.511222839,-0.117904052,0.082373045,-1.082071662
26.898726,26.397735596,5.445716858,2.564628601,-0.120223388,0.085668944,-1.085977912
26.899352,25.413543701,5.003211975,2.480705261,-0.124251708,0.090063475,-1.091471076
26.899979,24.223358154,4.377601624,2.518852234,-0.129744872,0.091040038,-1.094522834
26.901686,21.026641846,2.668617249,2.297599792,-0.141585693,0.102636717,-1.104288459
26.902312,19.813568115,2.271888733,2.129753113,-0.141463622,0.103369139,-1.109781623
26.902937,18.371612549,1.669166565,2.129753113,-0.145247802,0.102880858,-1.107950568
26.903562,17.227203369,1.066444397,1.961906433,-0.147811279,0.105688475,-1.112100959
26.917238,-13.679473877,-10.926963806,1.252372742,-0.166732177,0.087499999,-1.101236701
26.918075,-15.029876709,-11.201622009,1.343925476,-0.166610107,0.084326170,-1.103800178
26.918700,-16.067474365,-11.575462341,1.099784851,-0.165145263,0.081152342,-1.102335334
26.919325,-17.097442627,-12.284996033,1.244743347,-0.163802490,0.078344725,-1.099161506
26.919951,-18.341033936,-12.750389099,1.206596375,-0.166121826,0.074072264,-1.097940803
26.920576,-19.309967041,-13.253929138,1.244743347,-0.167830810,0.072363280,-1.095621467
26.921201,-19.905059814,-13.620140076,1.206596375,-0.165877685,0.064062499,-1.093302131
26.921826,-20.927398682,-13.993980408,1.244743347,-0.166488037,0.063818358,-1.089151740
26.922451,-21.728485107,-14.352561951,1.176078796,-0.164656982,0.054541014,-1.086954474
26.923077,-22.293060303,-14.825584412,1.061637878,-0.164046630,0.049169920,-1.085855842
26.923703,-22.911041260,-15.214683533,1.191337585,-0.165511474,0.046850584,-1.082071662
26.924329,-23.467987061,-15.840293884,1.191337585,-0.163924560,0.040624999,-1.083170295
26.924954,-23.765533447,-15.916587830,1.198966980,-0.162703857,0.038793944,-1.078165412
26.925579,-24.124114990,-16.519309998,1.290519714,-0.160262451,0.032080077,-1.074259162
26.927281,-24.597137451,-17.740013123,1.321037292,-0.160018310,0.018164063,-1.064981818
26.927908,-24.757354736,-18.220664978,1.343925476,-0.159530029,0.007543946,-1.063639045
26.928535,-24.505584717,-18.258811951,1.191337585,-0.154403076,0.004858399,-1.058756232
26.929160,-24.406402588,-18.731834412,1.321037292,-0.157821044,0.001196289,-1.059000373
26.929786,-24.406402588,-19.082786560,1.237113953,-0.156356201,-0.002954101,-1.051920295
26.930412,-23.902862549,-19.563438416,1.511772156,-0.157088622,-0.006494140,-1.049845099
26.931039,-23.750274658,-19.929649353,1.366813660,-0.157088622,-0.013208007,-1.045084357
26.931665,-23.109405518,-20.089866638,1.412590027,-0.154403076,-0.018334961,-1.042765021
26.932291,-22.613494873,-20.517112732,1.504142761,-0.157698974,-0.021997070,-1.039835334
26.932916,-22.056549072,-20.730735779,1.473625183,-0.152205810,-0.023217773,-1.037638068
26.933541,-21.751373291,-21.188499451,1.404960632,-0.155013427,-0.030297851,-1.031900764
26.934166,-20.942657471,-21.661521912,1.671989441,-0.151839599,-0.034082033,-1.032022834
26.934792,-20.271270752,-21.882774353,1.725395203,-0.152694091,-0.037255861,-1.025797248
26.935417,-19.485443115,-22.119285583,1.679618835,-0.152816162,-0.040063478,-1.026285529
26.936042,-18.714874268,-22.332908630,1.977165222,-0.154769287,-0.040185548,-1.019571662
26.937744,-16.082733154,-23.217918396,2.152641296,-0.155135497,-0.046166994,-1.007364631
26.938369,-15.060394287,-23.416282654,2.297599792,-0.155501708,-0.047753908,-1.006510139
26.938994,-14.411895752,-23.690940857,2.152641296,-0.155013427,-0.048730470,-1.004434943
26.939621,-13.381927490,-23.957969666,2.091606140,-0.156478271,-0.053002931,-1.002481818
26.940246,-12.130706787,-24.087669373,2.343376160,-0.159285888,-0.053491212,-0.998941779
26.940871,-11.253326416,-24.247886658,2.488334656,-0.156356201,-0.052270509,-0.993936896
26.941498,-10.475128174,-24.598838806,2.610404968,-0.156478271,-0.052880861,-0.992105842
26.942124,-9.658782959,-24.835350037,2.618034363,-0.160872802,-0.045434572,-0.991495490
26.942749,-8.705108643,-25.163414001,2.801139832,-0.159407958,-0.049584962,-0.988809943
26.943376,-7.568328857,-25.018455505,2.930839539,-0.148177490,-0.061791994,-0.975992560
26.944002,-6.439178467,-24.743797302,3.144462585,-0.151229247,-0.064721681,-0.971842170
26.944628,-5.439727783,-24.781944275,3.297050476,-0.151351318,-0.059838869,-0.971231818
26.945255,-4.653900146,-24.728538513,3.281791687,-0.155257568,-0.058496095,-0.963663459
26.945881,-3.829925537,-25.338890076,3.335197449,-0.153792724,-0.059228517,-0.957315803
26.946506,-2.571075439,-25.254966736,3.472526550,-0.146346435,-0.065087892,-0.955362678
26.948185,0.015289307,-25.499107361,3.564079285,-0.149276122,-0.062646486,-0.947061896
26.948811,1.235992432,-25.354148865,3.716667175,-0.148055419,-0.063256837,-0.941202521
26.962558,35.308868408,-21.966697693,5.891044617,-0.139754638,-0.016259765,-0.918497443
26.963277,36.781341553,-21.608116150,6.074150085,-0.139998779,-0.016503906,-0.917765021
26.963903,38.208038330,-21.524192810,5.845268250,-0.135604247,-0.009545898,-0.913370490
26.964528,39.634735107,-21.608116150,6.196220398,-0.138289794,-0.008081054,-0.914713264
26.965154,41.023284912,-21.180870056,6.127555847,-0.139144287,-0.001367187,-0.918985724
26.965779,42.266876221,-21.219017029,6.226737976,-0.136702880,0.000463868,-0.918985724
26.966404,43.655426025,-20.929100037,6.142814636,-0.132186279,0.005102539,-0.920450568
26.967033,45.043975830,-20.692588806,6.226737976,-0.126448974,0.010107422,-0.923746467
26.967659,46.386749268,-20.334007263,6.325920105,-0.125838622,0.014868164,-0.922647834
26.968284,47.431976318,-20.326377869,6.165702820,-0.120467529,0.025122071,-0.924234748
26.968910,48.599273682,-19.906761169,6.264884949,-0.117049560,0.029516602,-0.927042365
26.969536,49.430877686,-19.189598083,6.272514343,-0.115706787,0.040502928,-0.926065803
26.970162,50.277740479,-19.082786560,6.158073425,-0.113143310,0.047949217,-0.924600959
26.970789,51.063568115,-18.480064392,6.287773132,-0.112655029,0.058203124,-0.920328498
26.972528,52.658111572,-17.472984314,5.982597351,-0.105452880,0.078955077,-0.914347053
26.973153,53.138763428,-17.244102478,5.959709167,-0.102767333,0.090917967,-0.919840217
26.973780,53.291351318,-16.618492126,5.746086121,-0.099349365,0.097875975,-0.918985724
26.974407,53.184539795,-16.534568787,5.639274597,-0.095931396,0.105932616,-0.919107795
26.975032,53.222686768,-16.427757263,5.654533386,-0.094344482,0.113745116,-0.919229865
26.975659,53.169281006,-15.863182068,5.479057312,-0.089339599,0.119238280,-0.923624396
26.976285,53.039581299,-15.573265076,5.257804871,-0.084090576,0.128393561,-0.928507209
26.976912,52.825958252,-15.382530212,5.089958191,-0.079451904,0.131567389,-0.929727912
26.977539,52.505523682,-14.932395935,5.051811218,-0.070784912,0.137182623,-0.936685920
26.978165,52.291900635,-14.688255310,4.670341492,-0.065169677,0.142919928,-0.938761115
26.978792,51.918060303,-14.245750427,4.761894226,-0.061751708,0.147436529,-0.944986701
26.979417,51.651031494,-13.887168884,4.548271179,-0.058333740,0.154638678,-0.950113654
26.980042,51.139862061,-13.589622498,4.151542664,-0.050032958,0.156103522,-0.954996467
26.980667,50.910980225,-13.063194275,3.930290222,-0.046737060,0.166479498,-0.959146857
26.981292,50.155670166,-12.658836365,3.899772644,-0.043929443,0.170874029,-0.963053107
26.982968,48.690826416,-11.949302673,3.251274109,-0.037947997,0.186987311,-0.971109748
26.983594,47.699005127,-11.438133240,3.075798035,-0.036483154,0.190161139,-0.972818732
26.984219,46.798736572,-11.186363220,3.022392273,-0.031844482,0.201269537,-0.975626349
26.984845,45.341522217,-11.049034119,2.450187683,-0.031234130,0.203588873,-0.976602912
26.985470,44.250518799,-10.530235291,2.198417664,-0.028426513,0.207983404,-0.975260139
26.986096,42.923004150,-10.247947693,2.160270691,-0.027938232,0.212133795,-0.979776740
26.986721,41.450531006,-9.820701599,1.763542175,-0.026229247,0.217871100,-0.981363654
26.987346,39.825469971,-9.584190369,1.427848816,-0.026961669,0.224340826,-0.984049201
26.987973,37.956268311,-9.416343689,1.321037292,-0.030379638,0.221533209,-0.989542365
26.988599,36.415130615,-8.836509705,1.046379089,-0.025252685,0.224951178,-0.991251349
26.989224,34.622222900,-8.836509705,0.710685730,-0.027694091,0.228857428,-0.993204474
26.989851,32.608062744,-8.500816345,0.275810242,-0.025130615,0.228979498,-0.998697639
26.990476,30.891448975,-8.371116638,-0.014106758,-0.023421630,0.232397467,-1.001383185
26.991101,29.045135498,-8.004905701,-0.151435852,-0.025008544,0.232641608,-1.008341193
26.991728,27.160675049,-7.737876892,-0.395576477,-0.025008544,0.230932623,-1.012003303
26.993411,21.209747314,-7.165672302,-1.326362610,-0.014876708,0.232275397,-1.022989631
26.994036,19.195587158,-6.974937439,-1.730720520,-0.018905029,0.230078131,-1.023599982
26.994663,17.005950928,-6.875755310,-1.982490540,-0.020736083,0.231176764,-1.028971076
27.008390,-26.367156982,-6.654502869,-6.621162415,-0.004134521,0.096533202,-1.066690803
27.009120,-27.694671631,-7.104637146,-6.491462708,-0.007186279,0.086401366,-1.067911506
27.009747,-29.098480225,-6.967308044,-6.438056946,-0.005233154,0.075903319,-1.070474982
27.010372,-30.090301514,-7.173301697,-6.857673645,-0.004378662,0.065161131,-1.064127326
27.010997,-31.005828857,-7.508995056,-6.712715149,0.001358643,0.053930663,-1.065225959
27.011624,-31.928985596,-7.737876892,-6.712715149,0.003800049,0.042456053,-1.064615607
27.012251,-32.340972900,-7.455589294,-6.903450012,0.000382081,0.033300780,-1.064493537
27.012876,-33.058135986,-7.920982361,-6.750862122,0.002823487,0.030004883,-1.063150764
27.013503,-33.462493896,-8.012535095,-6.773750305,0.002945557,0.018164063,-1.060343146
27.014129,-34.065216064,-7.737876892,-6.987373352,0.007584229,0.004736328,-1.058145881
27.014754,-34.423797607,-8.256675720,-6.666938782,0.009415284,-0.001245117,-1.057413459
27.015380,-34.751861572,-8.310081482,-6.621162415,0.008682862,-0.007104492,-1.059366584
27.016007,-34.637420654,-8.470298767,-6.842414856,0.011124268,-0.016381836,-1.054727912
27.016634,-34.675567627,-8.447410583,-6.598274231,0.013931885,-0.025537109,-1.054727912
27.018369,-33.737152100,-8.859397888,-6.613533020,0.014420167,-0.048242189,-1.045572639
27.018994,-33.424346924,-8.912803650,-6.285469055,0.018204346,-0.058251955,-1.044596076
27.019620,-32.707183838,-8.813621521,-6.277839661,0.018570557,-0.062890626,-1.042642951
27.020292,-31.860321045,-8.958580017,-6.201545715,0.020157471,-0.069482423,-1.039957404
27.020918,-31.211822510,-8.973838806,-5.995552063,0.019302979,-0.072900392,-1.037882209
27.021544,-30.845611572,-8.905174255,-6.102363586,0.016251221,-0.078637697,-1.035684943
27.022169,-29.769866943,-8.805992126,-5.652229309,0.019791260,-0.085107423,-1.031168342
27.022796,-29.052703857,-8.874656677,-5.705635071,0.021011963,-0.089990236,-1.029581428
27.023421,-27.915924072,-8.699180603,-5.682746887,0.016983643,-0.091821291,-1.029703498
27.024048,-27.030914307,-8.882286072,-5.438606262,0.014420167,-0.093652345,-1.028116584
27.024673,-26.054351807,-8.912803650,-5.362312317,0.014176026,-0.098657228,-1.020304084
27.025300,-24.917572021,-8.935691833,-5.293647766,0.012955323,-0.101586916,-1.020792365
27.025926,-23.895233154,-8.821250916,-5.354682922,0.011978760,-0.104638673,-1.020059943
27.026551,-22.773712158,-8.561851501,-5.026618958,0.013687745,-0.110986330,-1.013956428
27.027177,-21.949737549,-8.348228455,-4.866401672,0.010513917,-0.109887697,-1.015543342
27.040935,-3.417938232,-2.000572205,-1.387397766,-0.031112060,-0.087670900,-0.999674201
27.049520,4.638702393,3.462074280,0.924308777,-0.039046630,-0.076440431,-1.021768928
27.050145,5.226165771,3.462074280,1.130302429,-0.035872802,-0.075830080,-1.025675178
27.050770,6.126434326,3.790138245,1.084526062,-0.028914794,-0.083886720,-1.021646857
27.051395,7.324249268,4.652259827,1.374443054,-0.025252685,-0.088891603,-1.025186896
27.052022,8.079559326,5.155799866,1.374443054,-0.022200927,-0.088159181,-1.026407599
27.052648,8.987457275,5.407569885,1.237113953,-0.024886474,-0.080834962,-1.026895881
27.053273,9.819061279,5.758522034,1.572807312,-0.022322997,-0.078271486,-1.029703498
27.053898,10.482818604,6.056068420,1.610954285,-0.020125732,-0.087060548,-1.031168342
27.054524,11.886627197,6.376502991,1.702507019,-0.013289794,-0.087304689,-1.034708381
27.055150,13.198883057,6.841896057,1.580436707,-0.010726318,-0.088037111,-1.037149787
27.055776,14.534027100,7.108924866,1.862724304,-0.009017333,-0.087670900,-1.040201545
27.056401,15.647918701,7.299659729,1.908500671,-0.006697997,-0.085717775,-1.044962287
27.057033,16.677886963,7.749794006,1.908500671,-0.000594482,-0.087426759,-1.053263068
27.057660,17.746002197,8.024452209,1.885612488,0.006973878,-0.087915041,-1.053263068
27.058285,19.020111084,8.466957092,2.015312195,0.012467042,-0.091088869,-1.057413459
27.060003,22.827178955,9.680030823,2.152641296,0.027115479,-0.086206056,-1.073526740
27.060628,24.139434814,10.153053284,1.931388855,0.031387940,-0.084985353,-1.078897834
27.061253,25.482208252,10.542152405,2.007682800,0.032852784,-0.082788087,-1.085001349
27.075131,36.781341553,12.701271057,1.221855164,0.050308838,0.024511719,-1.243326545
27.075911,36.193878174,12.228248596,1.000602722,0.048966065,0.036474608,-1.255167365
27.076537,35.270721436,12.052772522,0.985343933,0.046158448,0.044775389,-1.266031623
27.077162,34.385711670,11.991737366,0.725944519,0.046890870,0.052954100,-1.273844123
27.077788,33.264190674,11.526344299,0.779350281,0.045670167,0.056249999,-1.279581428
27.078415,32.279998779,11.030433655,0.748832703,0.043594971,0.065039061,-1.290689826
27.079042,30.944854736,10.671852112,0.184257507,0.042374268,0.066992186,-1.297891974
27.079669,29.586822510,10.557411194,0.283439636,0.040543213,0.070898436,-1.303995490
27.080295,28.343231201,10.069129944,0.123222344,0.040299073,0.080297850,-1.309244514
27.080920,26.512176514,9.687660217,-0.113288887,0.040421143,0.087744139,-1.313761115
27.081546,24.932891846,9.329078674,-0.105659492,0.043350831,0.094702147,-1.322061896
27.082173,23.223907471,8.802650452,-0.403205872,0.045670167,0.101416014,-1.324869514
27.082799,21.225006104,8.405921936,-0.471870422,0.044449463,0.101904295,-1.328043342
27.083425,19.157440186,8.329627991,-0.540534973,0.039810792,0.105932616,-1.329264045
27.085091,12.023956299,7.192848206,-1.074592590,0.038956299,0.101538084,-1.336344123
27.085718,9.407073975,6.681678772,-1.036445618,0.037369385,0.101538084,-1.336588264
27.086344,6.774932861,6.391761780,-1.456062317,0.038223878,0.103369139,-1.338541389
27.086971,4.409820557,5.712745667,-1.341621399,0.039566651,0.106542967,-1.340250373
27.087597,1.808197021,5.163429260,-1.387397766,0.041641846,0.107397459,-1.344644904
27.088223,-0.518768311,4.675148010,-1.692573547,0.046036378,0.106665038,-1.344644904
27.088848,-3.112762451,4.316566467,-1.913825989,0.050064698,0.106054686,-1.346353889
27.089475,-5.660980225,3.774879456,-1.776496887,0.052750245,0.105566405,-1.350748420
27.090101,-8.285491943,3.401039124,-2.081672668,0.050430909,0.100317381,-1.348184943
27.090726,-10.925262451,3.278968811,-2.417366028,0.051041260,0.097753905,-1.355875373
27.091353,-13.526885986,2.943275452,-2.142707825,0.049698487,0.091040038,-1.357584357
27.091980,-15.762298584,2.584693909,-2.272407532,0.045303956,0.086279295,-1.360391974
27.092607,-18.234222412,1.966712952,-2.455513000,0.041275635,0.083715819,-1.360758185
27.093233,-20.393341064,1.386878967,-2.592842102,0.040787354,0.075415038,-1.361734748
27.093858,-22.842376709,0.982521057,-2.692024231,0.041885987,0.068090819,-1.363077521
27.095564,-29.083221436,-0.276329041,-3.096382141,0.040665284,0.048803709,-1.367227912
27.096190,-30.906646729,-0.901939392,-3.027717590,0.038590088,0.041967772,-1.370401740
27.096816,-32.653778076,-1.107933044,-2.997200012,0.032730713,0.033056639,-1.369058967
27.097441,-34.271209717,-1.786949158,-3.081123352,0.029068604,0.026220703,-1.372599006
27.098068,-35.911529541,-2.259971619,-3.035346985,0.026993409,0.011694336,-1.371622443
27.098693,-37.315338135,-2.824546814,-3.287117004,0.022476807,0.002783203,-1.372965217
27.099318,-38.299530029,-3.083946228,-3.325263977,0.024674073,-0.004296875,-1.375650764
27.099945,-39.306610107,-3.801109314,-3.210823059,0.020767823,-0.014184570,-1.371500373
27.100571,-40.496795654,-4.159690857,-3.195564270,0.020523682,-0.017358398,-1.371866584
27.101197,-40.901153564,-4.792930603,-3.310005188,0.022110596,-0.028100586,-1.372965217
27.101824,-41.954010010,-5.120994568,-3.271858215,0.021011963,-0.037500001,-1.370645881
27.102449,-42.678802490,-5.922080994,-3.310005188,0.016007081,-0.041162111,-1.367349982
27.103075,-43.144195557,-6.417991638,-3.187934875,0.010147706,-0.049584962,-1.365274787
27.103702,-43.334930420,-7.035972595,-3.302375793,0.005020753,-0.055322267,-1.363932014
27.104329,-43.823211670,-7.692100525,-3.210823059,0.001480713,-0.066308595,-1.364542365
27.106054,-43.998687744,-9.652854919,-3.317634583,-0.011824951,-0.086694337,-1.361490607
27.106679,-43.800323486,-10.110618591,-3.042976379,-0.014998779,-0.092919923,-1.360147834
27.107305,-43.556182861,-10.705711365,-3.088752747,-0.020491943,-0.100488283,-1.359781623
27.121394,-26.306121826,-21.577598572,-0.075141914,-0.123275146,-0.127343744,-1.270914435
27.122080,-25.611846924,-21.951438904,0.138481140,-0.132064208,-0.126733392,-1.269693732
27.122706,-24.620025635,-22.622825623,0.222404480,-0.131820068,-0.127343744,-1.266397834
27.123339,-23.704498291,-22.950889587,0.344474792,-0.135604247,-0.127832025,-1.262857795
27.123965,-22.727935791,-23.248435974,0.680168152,-0.136580810,-0.130761713,-1.259806037
27.124592,-21.598785400,-23.835899353,0.977714539,-0.135482177,-0.130517572,-1.256754279
27.125218,-20.408599854,-24.019004822,0.786979675,-0.134017333,-0.127709955,-1.252725959
27.125845,-19.119232178,-24.339439392,1.000602722,-0.132186279,-0.127465814,-1.251261115
27.126470,-18.066375732,-24.606468201,1.092155457,-0.129622802,-0.123071291,-1.246622443
27.127095,-16.868560791,-24.720909119,1.260002136,-0.129500732,-0.124047853,-1.239420295
27.127722,-15.830963135,-25.064231873,1.404960632,-0.130477294,-0.116845705,-1.232828498
27.128347,-14.709442139,-25.216819763,1.580436707,-0.129989013,-0.116967775,-1.231485724
27.128972,-13.511627197,-25.567771912,1.809318542,-0.126448974,-0.115991212,-1.223062873
27.129598,-12.130706787,-25.857688904,1.862724304,-0.122420654,-0.111596681,-1.220377326
27.131376,-8.834808350,-26.559593201,2.183158875,-0.112044677,-0.111230470,-1.200235724
27.132002,-7.484405518,-26.521446228,2.053459167,-0.106063232,-0.114160158,-1.191324592
27.132629,-6.301849365,-26.643516541,2.328117371,-0.101790771,-0.109033205,-1.187052131
27.133256,-4.997222900,-26.925804138,2.526481628,-0.096419677,-0.107934572,-1.180826545
27.133883,-4.035919189,-26.773216248,2.541740417,-0.091292724,-0.109765626,-1.175333381
27.134509,-2.296417236,-26.643516541,2.465446472,-0.086531982,-0.110131837,-1.166422248
27.135135,-0.648468018,-26.757957458,2.625663757,-0.080794677,-0.108422853,-1.164224982
27.135761,0.549346924,-26.719810486,2.595146179,-0.078231201,-0.110498048,-1.158365607
27.136387,2.151519775,-26.689292908,2.877433777,-0.070052490,-0.109765626,-1.152140021
27.137013,3.852874756,-26.513816833,2.999504089,-0.066756591,-0.110375978,-1.142740607
27.137638,5.386383057,-26.483299255,3.014762878,-0.064071044,-0.111352541,-1.135050178
27.138263,7.072479248,-26.399375916,3.007133484,-0.059798583,-0.108911134,-1.135416389
27.138889,8.499176025,-26.284934998,2.816398621,-0.057113037,-0.100610353,-1.128214240
27.139514,10.063201904,-26.307823181,2.976615906,-0.061385497,-0.092309572,-1.127115607
27.140141,11.810333252,-26.559593201,2.724845886,-0.063948974,-0.088769533,-1.129801154
27.141865,16.311676025,-25.941612244,3.190238953,-0.064071044,-0.092675783,-1.122599006
27.142490,17.578155518,-25.521995544,3.129203796,-0.070174560,-0.090966798,-1.120035529
27.143115,19.142181396,-25.140525818,2.892692566,-0.073592529,-0.093896486,-1.116861701
27.143741,20.347625732,-24.797203064,3.075798035,-0.066024169,-0.082788087,-1.112711310
27.144367,22.247344971,-24.652244568,2.671440125,-0.055648193,-0.076318361,-1.111490607
27.144993,24.269134521,-24.636985779,2.640922546,-0.035140380,-0.070214845,-1.108072639
27.145619,26.084930420,-24.804832458,2.488334656,-0.006575927,-0.067651369,-1.101114631
27.146246,27.839691162,-24.713279724,2.518852234,0.020279542,-0.059838869,-1.092447639
27.146872,29.090911865,-24.553062439,2.274711609,0.039444581,-0.046533205,-1.093057990
27.147497,29.869110107,-24.194480896,1.923759460,0.051163331,-0.032373048,-1.090738654
27.148122,30.372650146,-23.957969666,1.969535828,0.055069581,-0.019189453,-1.091104865
27.148747,30.792266846,-23.271324158,1.992424011,0.055069581,-0.007348632,-1.094278693
27.149372,31.417877197,-22.775413513,1.939018250,0.053238526,-0.006860351,-1.091959357
27.149998,31.478912354,-22.195579529,1.908500671,0.057877198,-0.008813476,-1.092203498
27.150624,31.776458740,-21.699668884,1.710136414,0.067520753,-0.014428711,-1.085367560
27.152355,33.317596436,-20.814659119,1.336296082,0.079239503,-0.002832031,-1.079874396
27.152980,33.363372803,-20.669700623,1.244743347,0.076798096,0.002661133,-1.077921271
27.153605,33.798248291,-20.242454529,1.191337585,0.074478760,0.010717774,-1.074991584
27.167419,19.340545654,-16.191246033,-2.600471497,0.100113526,0.036230467,-1.111490607
27.168168,18.386871338,-15.924217224,-2.516548157,0.103409424,0.034521483,-1.108072639
27.168793,17.074615479,-15.992881775,-2.760688782,0.103897706,0.028173828,-1.102335334
27.169419,16.014129639,-15.878440857,-2.760688782,0.105728760,0.027685547,-1.097330451
27.170044,14.663726807,-15.794517517,-2.913276672,0.104141846,0.029516602,-1.096964240
27.170670,13.328582764,-15.725852966,-3.004829407,0.107437745,0.026831055,-1.094889045
27.171297,12.077362061,-16.099693298,-3.165046692,0.107193604,0.024267578,-1.092447639
27.171922,10.475189209,-15.847923279,-3.310005188,0.108414307,0.026342774,-1.094766974
27.172547,9.216339111,-15.550376892,-3.409187317,0.107803956,0.022802735,-1.091471076
27.173173,7.911712646,-15.611412048,-3.355781555,0.109390870,0.019995118,-1.097208381
27.173800,6.568939209,-15.672447205,-3.515998840,0.103775635,0.013525391,-1.099527717
27.174427,5.188018799,-15.657188416,-3.325263977,0.105606690,0.013769532,-1.101847053
27.175053,3.822357178,-15.512229919,-3.439704895,0.105850831,0.010107422,-1.104044318
