time,gyro x,gyro y,gyro z,accel x,accel y,accel z
39.254150,-6.509288788,-15.344337463,-4.440658569,-0.015662841,0.094391361,0.991808772
39.268441,-7.699474335,-18.930152893,-2.510421753,-0.028236084,0.080475345,0.990588069
39.283758,-11.720165253,-26.559547424,1.502639771,-0.021156006,0.096222416,1.017931819
39.322094,-4.983409882,-28.245643616,0.381118774,0.010338135,0.154572025,1.055041194
39.360408,-4.388317108,-20.044044495,-0.404708862,0.014732666,0.086823002,1.027087092
39.374701,-5.525096893,-16.885475159,-0.915878296,0.021080323,0.098297611,1.036242366
39.390012,-4.037364960,-9.240821838,-2.220504761,0.022545166,0.126739994,1.046130061
39.428328,0.685230255,4.270835876,-5.173080444,0.027550049,0.089264408,0.971056819
39.466630,-3.869518280,8.650108337,-6.088607788,0.037681885,0.088898197,0.960924983
39.480918,-3.541454315,8.306785583,-8.041732788,0.010704346,0.085602298,0.947253108
39.496228,-4.586681366,6.399436951,-7.355087280,0.002037354,0.093536869,0.945055842
39.534532,-5.349620819,-8.393959045,-2.724044800,-0.021156006,0.099030033,0.947253108
39.572828,-9.095653534,-13.467506409,-0.282638550,-0.017005615,0.119049564,1.001208186
39.587125,-5.509838104,-11.995033264,-0.297897339,-0.001746826,0.140900150,1.020983577
39.602429,-3.739818573,-10.324195862,-0.679367065,0.001060791,0.132233158,1.020251155
39.640739,-7.066234589,-2.855018616,-0.275009155,-0.001502685,0.106964603,1.040881038
39.679044,0.402942657,2.523704529,0.686294556,0.019371338,0.135773197,1.104235530
39.693328,2.501026154,2.943321228,0.106460571,0.026695557,0.111481205,1.099963069
39.708619,2.264514923,5.071922302,0.060684204,0.037071534,0.088043705,1.077013850
39.746933,4.583850861,13.403221130,-2.182357788,0.061485596,0.096222416,1.074084163
39.800488,4.667774200,14.730735779,-3.799789429,0.031578369,0.103424564,1.089709163
39.814852,5.415454865,12.411399841,-3.197067261,0.030113526,0.118927494,1.080309749
39.830212,8.360401154,6.841941833,-1.755111694,0.026573487,0.128815189,1.079455256
39.868517,11.457935333,3.538414001,-0.389450073,0.073936768,0.103424564,1.001940608
39.922373,9.039417267,9.237571716,-4.127853394,0.060997315,0.057159912,0.961413264
39.936691,7.505908966,4.461570740,-5.287521362,0.056968994,0.060944092,0.954089046
39.952054,6.292835236,0.326438904,-6.660812378,0.017052002,0.052643310,0.941637874
39.990363,2.058521271,-20.921424866,3.753311157,-0.023231201,0.078278080,0.940661311
40.028650,-0.161632538,-14.817909241,4.607803345,0.106529541,0.105011478,0.948840022
40.042954,0.959888458,-6.799415588,1.243240356,0.133262932,0.113312259,0.942126155
40.058277,0.662342072,8.802696228,-5.264633179,0.141685784,0.109406009,0.907091975
40.096572,-2.343639374,20.826622009,-13.138168335,0.068321534,0.094635502,0.935900569
40.134875,-0.543102264,-3.617958069,-5.264633179,-0.011268310,0.077667728,0.914294124
40.149164,-1.824840546,-10.011390686,-2.975814819,-0.005531006,0.073517337,0.919909358
40.164511,-4.502758026,-18.846229553,0.083572388,0.012779541,0.087555423,0.939074397
40.202837,-2.450450897,-21.478370667,-0.664108276,0.043541260,0.120148197,0.966418147
40.241130,-2.290233612,-19.967750549,-2.388351440,0.022056885,0.112335697,0.983874202
40.255442,-0.657543182,-21.836952209,-0.954025269,0.001793213,0.120880619,0.996569514
40.270793,-0.085338593,-23.462013245,0.899917603,-0.004920654,0.138458744,0.979357600
40.309113,-0.619396210,-24.057106018,4.645950317,0.027061768,0.128326908,0.960924983
40.347426,-2.252086639,-12.307838440,4.012710571,0.078087159,0.161530033,1.033800960
40.361725,0.975147247,-8.798316956,4.157669067,0.076256104,0.164948002,1.059557796
40.377090,7.025257111,0.829978943,3.890640259,0.104698487,0.166779056,1.024401546
40.415377,1.364246368,31.736656189,-2.495162964,0.137047112,0.095978275,0.978136897
40.453672,3.836170197,46.072288513,-3.982894897,0.078697510,0.183990970,1.065417171
40.467975,9.069934845,45.172019958,-3.151290894,0.065635987,0.157623783,1.063586116
40.483330,9.100452423,38.152976990,-4.349105835,0.017296143,0.093536869,1.031237483
40.521656,6.231800079,9.352012634,5.447036743,0.028526612,0.101837650,1.000231624
40.559943,2.012744904,-2.580360413,10.810501099,0.013267823,0.115143314,1.029406428
40.574250,7.483020782,-7.905677795,9.940750122,0.001549073,0.107819095,1.000231624
40.589598,8.680835724,-10.049537659,12.832290649,0.021812744,0.049835693,0.993639827
40.627889,-2.450450897,-26.323036194,12.664443970,0.017540284,0.057404052,0.997301936
40.666210,1.959339142,-36.714271545,16.761428833,0.071617432,0.047150146,0.977770686
40.680508,-1.298412323,-24.240211487,14.739639282,0.132530510,0.035309326,0.965441585
40.695870,-1.351818085,-15.771583557,12.366897583,0.155357659,0.048248779,0.970202327
40.734183,2.028003693,21.330162048,-2.457015991,0.155968010,0.066071048,0.958727717
40.772473,1.677051544,31.988426208,-4.341476440,0.125694573,0.038605224,0.893542171
40.786771,1.112476349,32.781883240,-5.554550171,0.127159417,-0.000335205,0.910265803
40.802134,-6.242259979,31.515403748,-9.659164429,0.111778565,0.037750732,0.918322444
40.856178,-5.326732635,0.837608337,-8.507125854,0.050377198,0.100739017,0.888903499
40.894560,-10.072216034,-32.388404846,-4.806869507,0.029991455,0.110870853,0.889147639
40.908867,-10.117992401,-38.987831116,-3.113143921,0.007164307,0.097687259,0.890246272
40.924218,-12.895092010,-50.317481995,2.647048950,0.067955323,0.092316166,0.916369319
40.962523,-13.383373260,-44.267372131,-2.075546265,0.132774651,0.106842533,0.999377131
41.000842,-6.776317596,-24.736122131,-7.927291870,0.095665284,0.068268314,0.950304866
41.015144,-9.789928436,-19.883827209,-7.713668823,0.101890869,0.052277099,0.968249202
41.030490,-12.277111053,-11.636451721,-9.270065308,0.089927979,0.085602298,0.980944514
41.068794,-8.470043182,-4.609779358,-9.033554077,0.038048096,0.127594486,0.995348811
41.123065,-9.492382050,7.307334900,-8.247726440,0.118736573,0.078766361,1.043200374
41.137421,-8.233531952,11.007591248,-9.910934448,0.128624260,0.096710697,1.045763850
41.152788,-5.700572968,17.896934509,-11.795394897,0.119591065,0.085480228,1.045519710
41.191124,-10.285839081,22.680564880,-11.772506714,0.125084221,0.048492920,1.124499202
41.229443,1.226917267,16.653343201,-17.372482300,0.098839112,0.061798584,1.139880061
41.243751,2.661243439,11.099143982,-16.205184937,0.067711182,0.065460697,1.115343928
41.259117,3.881946564,-2.114967346,-10.017745972,0.057701416,0.076080814,1.081530452
41.297448,6.720081329,-6.440834045,-9.857528687,0.158165276,0.037872802,1.095446467
41.335730,11.702075958,0.204368591,-14.938705444,0.123497315,0.009918701,1.015490413
41.350047,5.095020294,-2.313331604,-14.091842651,0.069298096,-0.042327393,0.948840022
41.365406,0.921741486,-5.563453674,-13.954513550,0.043297119,-0.032683838,0.936632991
41.403708,-7.523998260,-34.394935608,-2.464645386,-0.046546631,0.056793701,0.993395686
41.442041,-3.449901581,-38.202003479,4.813796997,0.088341065,0.043854248,1.026842952
41.456341,-2.030834198,-18.060401917,-1.167648315,0.159263909,0.043121826,1.027209163
41.471690,-0.802501678,-6.364540100,-4.715316772,0.163414299,0.048614990,1.018298030
41.510016,0.402942657,33.163352966,-13.458602905,0.157066643,0.036041748,0.957384944
41.548317,-4.464611053,39.373680115,-15.709274292,0.075401612,0.032867920,0.955920100
41.562635,-4.319652557,35.116477966,-15.755050659,0.060631104,0.050323974,0.956774592
41.578027,-2.519115448,22.444053650,-13.023727417,0.038414307,0.070953861,0.943835139
41.616340,-2.336009979,3.370567322,-8.217208862,0.061485596,0.092072025,0.917590022
41.654645,-1.328929901,0.135704041,-7.736557007,0.066856690,0.097321048,0.898547053
41.668944,-0.833019257,-1.657203674,-7.347457886,0.059654541,0.079010502,0.876208186
41.684281,-2.450450897,-2.710060120,-7.210128784,0.057335205,0.070221439,0.868029475
41.722595,-6.898387909,-10.080055237,-4.585617065,0.028038330,0.091095462,0.939196467
41.772230,-3.106578827,-14.642433167,0.228530884,0.034508057,0.091095462,0.941393733
41.786579,-5.006298065,-11.064247131,0.671035767,0.056114502,0.065338627,0.949572444
41.801928,-6.989940643,-7.478431702,0.327713013,0.063072510,0.068268314,0.955309749
41.840244,-3.785594940,10.649009705,-3.563278198,0.055870362,0.074615970,0.989855647
41.878526,-6.043895721,12.930198669,0.053054810,0.062706299,0.064117923,1.028307796
41.892843,-5.006298065,12.533470154,0.037796021,0.066368409,0.062408935,1.041613460
41.908198,-3.594860077,10.175987244,0.136978149,0.070885010,0.056305420,1.047839046
41.946501,-3.266796112,7.002159119,1.319534302,0.100792237,0.071198002,1.062853694
41.984808,-0.939830780,7.719322205,-1.236312866,0.090050049,0.098297611,1.029040217
41.999087,0.273242950,6.948753357,-0.381820679,0.094200440,0.089386478,1.018542171
42.014425,-0.298961639,6.132408142,0.251419067,0.108970948,0.046051513,1.010973811
42.052733,-0.916942596,11.419578552,-5.905502319,0.127281487,-0.008269776,1.025744319
42.091053,-5.593761444,1.745506287,-5.356185913,0.039268799,-0.017058838,0.994250178
42.105343,-6.440624237,-11.552528381,-1.259201050,0.008873291,-0.026092041,1.009997249
42.120668,-6.516918182,-18.014625549,0.571853638,-0.002723388,-0.032561768,1.016589046
42.158964,-4.716381073,-34.181312561,5.477554321,0.033409424,-0.030486573,1.072253108
42.197244,-0.222667694,-21.028236389,1.311904907,0.078453369,-0.027678955,1.039294124
42.211535,1.486316681,-8.989051819,-0.198715210,0.086143799,-0.037078369,1.034533381
42.226871,1.913562775,-2.938941956,-1.304977417,0.085655518,-0.039397705,1.027941585
42.265185,3.073230743,9.931846619,-1.945846558,0.074302979,-0.024871338,1.020495296
42.303473,2.752796173,13.937278748,-3.059738159,0.075523682,-0.011443604,0.969958186
42.317765,1.837268829,14.303489685,-3.624313354,0.077354737,-0.007415283,0.972033381
42.333116,2.081409454,13.113304138,-5.356185913,0.066124268,0.016754638,0.963000178
42.371442,0.570789337,3.073020935,-2.708786011,0.046226807,0.022125732,0.937609553
42.409724,-0.199779510,-0.932411194,-1.861923218,0.082969971,0.024689209,0.950793147
42.436843,0.227466583,-1.664833069,-2.899520874,0.077598877,0.029572021,0.956774592
42.451150,-0.451549530,-1.931861877,-3.097885132,0.076256104,0.009186279,0.952746272
42.489332,-1.237377167,2.096458435,-3.937118530,0.077598877,0.021515381,0.959582210
42.527652,-1.603588104,7.520957947,-6.691329956,0.083824463,0.023590576,0.974108577
42.541945,-0.878795624,7.108970642,-8.201950073,0.079918213,0.030670654,0.973009944
42.557286,-0.985607147,6.544395447,-8.728378296,0.074913330,0.029083740,0.967760921
42.595608,-2.198680878,3.958030701,-9.109848022,0.062340088,0.040314209,1.001696467
42.633894,0.845447540,5.239768982,-11.490219116,0.097496338,0.039337646,1.034289241
42.648179,1.387134552,5.827232361,-13.031356812,0.089439698,0.033112060,1.033800960
42.663539,0.372425079,1.989646912,-13.878219604,0.059776612,0.021149170,1.048327327
42.713675,7.856861115,-14.688209534,-6.225936890,0.056724854,0.033966552,1.068590999
42.752065,6.041065216,-2.496437073,-7.393234253,0.110313721,0.005035888,1.014147639
42.766355,6.575122833,1.371665955,-7.896774292,0.122520752,-0.002898682,1.010119319
42.781676,5.949512482,9.802146912,-11.032455444,0.127647698,-0.055144776,0.961535335
42.820009,-7.272228241,10.748191833,-14.557235718,0.054161377,-0.030486573,0.963122249
42.858304,-3.419384003,-3.488258362,-9.827011108,0.083580323,0.037140381,1.038439631
42.872611,-1.580699921,-3.823951721,-9.552352905,0.105675049,0.042877685,1.044421077
42.887945,1.379505157,0.906272888,-12.321823120,0.150718987,0.018463623,1.033434749
42.926258,2.966419220,13.716026306,-19.523971558,0.154136956,0.006866943,0.977282405
42.964541,-2.549633026,12.861534119,-21.637313843,0.065758057,-0.012298096,0.959338069
42.978853,-3.602489471,3.622337341,-20.233505249,0.040733643,0.003326904,0.972033381
42.994197,-4.106029510,-1.191810608,-19.287460327,0.031334229,0.004303467,0.976061702
43.032491,-3.831371307,-12.765602112,-16.540878296,0.053917237,0.010651123,1.011828303
43.070789,0.616565704,-5.578712463,-18.204086304,0.095421143,0.031158935,1.024401546
43.085088,1.669422150,-2.305702209,-18.783920288,0.098594971,0.031036865,1.016344905
43.100419,3.492847443,2.821250916,-20.805709839,0.112266846,0.034332763,0.989977717
43.138722,2.325550079,8.741661072,-24.910324097,0.081749268,0.025421631,0.962511897
43.177045,1.173511505,-2.137855530,-23.590438843,0.039146729,0.038971435,0.948473811
43.191340,0.868335724,-5.906776428,-23.521774292,0.030235596,0.047150146,0.950304866
43.206674,0.532642365,-12.376502991,-22.156112671,0.017540284,0.056793701,0.942980647
43.245001,-1.069530487,-19.990638733,-19.897811890,0.015587159,0.046417724,0.963976741
43.283281,-1.534923553,-23.812965393,-16.235702515,0.019737549,0.056305420,0.967394710
43.297607,-1.763805389,-20.486549377,-16.083114624,0.053917237,0.003937256,0.986315608
43.312976,-4.685863495,-16.969398499,-17.128341675,0.063804932,0.029938232,1.008776546
43.351274,-1.313671112,8.283897400,-23.155563354,0.119835205,0.016632568,1.051134944
43.389549,0.647083282,25.945945740,-28.847091675,0.100670166,0.055450927,1.053088069
43.403847,1.432910919,27.441307068,-28.793685913,0.093712159,0.058746826,1.059679866
43.419203,5.064502716,30.119224548,-28.145187378,0.100548096,0.035065185,1.062853694
43.457512,4.881397247,44.569297791,-33.821456909,0.162559807,0.011993896,1.032702327
43.495820,4.446521759,48.185630798,-39.703720093,0.099327393,-0.033050049,0.988268733
43.510126,2.600208282,42.555137634,-39.741867065,0.075035401,-0.020110596,0.973620296
43.525480,0.486865997,25.686546326,-35.591476440,0.027183838,0.006256592,0.953234553
43.563795,0.082508087,-9.980873108,-31.326644897,-0.006263427,0.024567138,0.971911311
43.614061,2.005115509,-44.267372131,-28.534286499,-0.007239990,0.011139404,0.964220881
43.628428,2.035633087,-47.822669983,-27.122848511,-0.014808349,0.013580810,0.963976741
43.643810,2.287403107,-49.646095276,-25.040023804,0.041221924,0.015900146,0.951159358
43.682134,0.319019318,-43.481544495,-28.290145874,0.046593018,-0.001555908,0.927843928
43.720431,-6.089672089,-23.309425354,-33.508651733,0.046226807,0.000031006,0.917101741
43.749226,-6.768688202,-14.428810120,-33.737533569,0.019981690,-0.012176026,0.928576350
43.763545,-8.897289276,-13.780311584,-33.501022339,-0.023353271,-0.015593994,0.921130061
43.801747,-11.277660370,-17.724708557,-28.091781616,-0.035072021,0.029572021,0.933215022
43.840057,-9.042247772,-9.614662170,-28.534286499,0.065269776,-0.010100830,0.954211116
43.854363,-11.292919159,0.456138611,-36.461227417,0.121666260,-0.034026612,0.961657405
43.869716,-11.170848846,4.301353455,-36.293380737,0.052452393,0.003204834,0.945544124
43.908068,-12.979015350,19.224449158,-42.763107300,0.135582268,-0.022185791,1.003649592
43.946373,-10.560497284,27.349754333,-53.184860229,0.140709221,-0.038787354,1.011706233
43.960667,-10.255321503,25.465293884,-53.451889038,0.113487549,-0.035125244,1.004626155
43.976041,-10.461315155,15.318199158,-52.391403198,0.085533448,-0.029876221,0.992419124
44.014359,-11.949047089,-15.237525940,-48.256271362,0.060264893,-0.021331299,1.029528499
44.052645,-10.034069061,-25.743202209,-49.255722046,0.069786377,-0.071990475,1.019640803
44.066954,-10.415538788,-26.658729553,-49.415939331,0.060875244,-0.060637940,1.010485530
44.082318,-11.926158905,-27.284339905,-50.384872437,0.058555909,-0.085906491,1.011706233
44.120672,-11.231884003,-29.580787659,-48.447006226,0.011436768,-0.051116455,1.021349788
44.158990,-13.642772675,-28.871253967,-49.476974487,0.014976807,-0.079680905,1.040026546
44.173298,-13.108715057,-27.688697815,-48.332565308,-0.003089599,-0.050017823,1.050890803
44.188660,-11.376842499,-27.032569885,-46.493881226,-0.005042724,-0.031463135,1.041735530
44.227004,-7.569774628,-13.757423401,-44.762008667,0.043663330,-0.108733639,1.038683772
44.265305,-10.629161835,11.579795837,-49.400680542,0.073692627,-0.109954342,1.036852717
44.279626,-9.461864471,19.750877380,-50.300949097,0.129722893,-0.179290280,1.015490413
44.295007,-12.040599823,23.092552185,-52.711837769,0.054771729,-0.163543209,1.035998225
44.333345,-12.170299530,24.328514099,-52.147262573,0.006920166,-0.059783448,1.039172053
44.371650,-10.003551483,12.258811951,-48.721664429,0.062950440,-0.128020748,0.980944514
44.385960,-8.882030487,9.725852966,-46.547286987,0.034630127,-0.088103756,0.988757014
44.401312,-12.658580780,6.658836365,-48.485153198,0.052818604,-0.122771725,0.977648616
44.456362,-4.777416229,-1.001075745,-45.662277222,0.024376221,0.004791748,1.063341975
44.494758,-5.494579315,-7.005409241,-42.702072144,0.076866455,-0.085174069,0.969714046
44.509041,-10.072216034,-4.861549377,-43.167465210,0.085045166,-0.107146725,1.010241389
44.524382,-9.240612030,-2.397254944,-45.685165405,0.077843018,-0.091887936,1.029162288
44.562724,-7.508739471,-1.680091858,-45.250289917,-0.013709716,-0.062468994,1.031359553
44.601050,-8.103832245,-17.465309143,-38.215988159,-0.011512451,-0.076751217,1.003405452
44.615355,-8.836254120,-19.426063538,-37.079208374,-0.028602295,-0.058440674,1.012560725
44.630672,-7.691844940,-22.378639221,-33.729904175,-0.025428466,-0.041594971,1.040636897
44.669038,0.616565704,-21.966651917,-31.494491577,-0.017005615,-0.022429932,1.068102717
44.707340,2.768054962,-10.209754944,-29.243820190,0.031822510,-0.054168213,1.034167171
44.721644,3.622547150,-5.998329163,-29.610031128,0.050621338,-0.066741452,1.039782405
44.736995,5.606189728,2.981468201,-32.387130737,0.071495362,-0.089080319,1.019396663
44.775309,4.133716583,13.143821716,-36.308639526,0.042564698,-0.077239498,0.974596858
44.813631,2.874866486,7.719322205,-30.807846069,0.008751221,-0.037566651,1.014391780
44.827927,4.477039337,2.302452087,-27.550094604,0.022789307,-0.060393799,1.000475764
44.843255,3.248706818,0.768943787,-27.160995483,0.028770752,-0.074065670,0.982775569
44.881575,-1.809581757,-0.749305725,-27.984970093,0.003135987,-0.036101807,0.973009944
44.919862,-3.785594940,-7.875160217,-20.584457397,-0.029578857,-0.028655518,1.003893733
44.934152,-3.388866425,-9.256080627,-19.234054565,-0.023841552,-0.021209229,1.025378108
44.949470,-0.092967987,-10.232643127,-17.959945679,-0.016395263,-0.009002198,1.049059749
45.001568,0.219837189,3.050132751,-12.230270386,0.048057862,-0.011321533,0.977526546
45.039930,-0.047191620,21.879478455,-16.731613159,0.060631104,0.024567138,1.031237483
45.054230,1.333728790,23.100181580,-16.563766479,0.034019776,0.025177490,1.039172053
45.069603,3.935352325,19.430442810,-12.886398315,0.001060791,0.011383545,1.047472835
45.107928,7.841602325,6.552024841,-6.286972046,0.030968018,-0.020232666,0.991930842
45.146230,4.774585724,9.702964783,-9.079330444,0.096763916,-0.007049073,0.984606624
45.160516,4.728809357,10.984703064,-10.795944214,0.090050049,-0.001677979,0.994128108
45.175871,5.346790314,8.131309509,-13.183944702,0.041954346,0.018951904,0.979479671
45.214194,0.860706329,-18.235877991,-3.433578491,-0.057166748,0.018951904,0.955553889
45.266636,6.865039825,-29.016212463,5.187637329,0.061973877,0.035553467,0.971300960
45.280986,6.598011017,-23.072914124,3.318435669,0.091148682,0.031158935,0.936266780
45.296333,4.057422638,-5.616859436,-1.488082886,0.117637940,0.039825927,0.888171077
45.334674,-0.703319550,22.878929138,-7.942550659,0.111412354,0.007233154,0.953600764
45.372997,2.783313751,28.036399841,-7.561080933,0.090172119,-0.057097901,1.023669124
45.387298,1.776233673,23.687644958,-8.041732788,0.055382080,-0.058928955,1.030260921
45.402640,2.211109161,19.918724060,-8.613937378,0.030235596,-0.029754151,1.024523616
45.440964,3.714099884,-12.307838440,-0.351303101,-0.055701904,0.030670654,0.954577327
45.479235,-0.718578339,-36.050514221,10.100967407,0.019493409,-0.040496338,0.958483577
45.493533,-3.182872772,-30.282691956,7.720596313,0.097740479,-0.048430908,1.009264827
45.508882,-2.816661835,-24.148658752,4.890090942,0.111534424,-0.043670166,1.020983577
45.547224,-3.472789764,-1.458839417,-3.303878784,0.071495362,0.015167724,0.986559749
45.585513,-4.662975311,2.500816345,0.259048462,0.021324463,0.024322998,1.015124202
45.599829,-4.220470428,1.875205994,0.808364868,0.017784424,0.027252685,1.017321467
45.615190,-2.770885468,0.051780701,2.898818970,0.030479737,0.051788818,1.017443538
45.653510,0.265613556,3.439231873,3.661758423,0.105064698,0.043976318,0.986925960
45.691827,-0.016674042,23.069664001,-5.195968628,0.156456292,0.055695068,0.993029475
45.706121,1.013294220,27.166648865,-7.011764526,0.145836174,0.054352295,0.990221858
45.721484,0.135913849,29.211326599,-9.147994995,0.108238526,0.046783935,0.966540217
45.759825,-1.199230194,17.271324158,-6.851547241,0.063682862,0.044586670,0.997790217
45.798126,1.532093048,-5.174354553,-2.006881714,0.083214112,0.048248779,1.000841975
45.812435,2.859607697,-8.821205139,-1.800888062,0.105919190,0.042023193,0.971911311
45.827770,1.524463654,-8.073524475,-2.197616577,0.126549065,0.012726318,0.957140803
45.866089,-1.290782928,1.768394470,-10.269515991,0.159141839,0.060455810,1.016711116
45.904394,3.813282013,-0.756935120,-12.359970093,0.084068604,0.069122806,1.053454280
45.918689,5.117908478,-4.968360901,-10.994308472,0.072716065,0.056671631,1.055163264
45.934035,4.805103302,-13.398841858,-8.354537964,0.054527588,0.054474365,1.047350764
45.972368,5.865589142,-22.447303772,-3.143661499,0.057335205,0.090363041,1.029406428
46.010658,3.820911407,-15.313819885,-4.387252808,0.079429932,0.005402099,1.015612483
46.024968,4.194751740,-13.063148499,-4.921310425,0.071983643,0.008453857,1.015002131
46.055575,2.348438263,-9.896949768,-1.907699585,0.039512940,0.023834717,1.015490413
46.093977,2.928272247,-0.650123596,0.236160278,0.088463135,-0.024016846,1.019762874
46.132272,1.707569122,12.571617126,-2.945297241,0.100670166,-0.042205323,0.998522639
46.146570,1.577869415,14.334007263,-3.624313354,0.099571534,-0.057586182,0.992419124
46.161920,-0.123485565,15.661521912,-5.318038940,0.091026612,-0.074676022,0.973620296
46.200268,-2.412303925,6.361289978,-5.310409546,0.023887940,-0.009978760,0.964465022
46.238537,-1.130565643,-8.317665100,0.358230591,0.007652588,0.008087646,0.967394710
46.252846,-0.245555878,-11.117652893,0.541336060,0.010948487,0.007965576,0.964220881
46.268174,0.868335724,-14.627174377,1.273757935,0.017174073,0.017975342,0.950793147
46.306491,-0.184520721,-14.352516174,3.150588989,0.043052979,-0.012786377,0.966051936
46.360332,0.654712677,-2.786354065,0.289566040,0.024742432,-0.009490479,0.958605647
46.374661,0.074878693,-1.855567932,0.831253052,0.022789307,-0.016326416,0.950060725
46.389997,-2.038463593,0.257774353,1.250869751,0.026085205,-0.055022705,0.955187678
46.428304,-2.923473358,7.826133728,-1.671188354,0.078697510,-0.012908448,0.994128108
46.466617,0.051990509,13.883872986,-6.027572632,0.045372315,-0.005340088,0.938219905
46.480928,-3.617748260,12.510581970,-4.791610718,0.027427979,-0.031829346,0.914660335
46.496283,-5.815013885,10.198875427,-3.868453979,0.027916260,-0.040618408,0.934557796
46.534625,-3.106578827,1.470848083,-4.188888550,0.025352784,-0.007049073,1.002550960
46.572894,-4.701122284,-1.306251526,0.533706665,0.013634034,0.000519287,0.970690608
46.587199,-5.074962616,2.195640564,0.114089966,0.052940674,0.016266357,1.022326350
46.602545,-3.350719452,5.064292908,-1.533859253,0.067711182,0.027740967,1.039049983
46.640878,1.112476349,15.585227966,-5.676620483,0.055992432,0.044220459,1.011584163
46.679165,1.081958771,13.098045349,-7.233016968,0.036094971,0.063873783,1.007311702
46.693470,1.524463654,9.840293884,-6.698959351,0.022056885,0.067047611,1.010119319
46.708824,0.837818146,0.135704041,-3.868453979,-0.004188232,0.066071048,1.014757991
46.747133,-0.001415253,-15.931800842,3.432876587,-0.022987060,0.051056396,1.043078303
46.785428,4.110828400,-8.577064514,7.568008423,0.089195557,0.094635502,1.037585139
46.799726,4.484668732,-0.993446350,5.485183716,0.117760010,0.071808353,1.036852717
46.815065,5.796924591,14.601036072,-2.228134155,0.140953362,-0.027678955,1.017809749
46.853406,0.532642365,20.612998962,-6.363265991,0.009117432,-0.127044186,0.919665217
46.907446,-5.845531464,-12.590126038,7.941848755,-0.042274170,0.064484134,1.047594905
46.921798,-1.725658417,-17.732337952,9.086257935,-0.040076904,0.062775150,1.047106624
46.937162,0.914112091,-22.760108948,13.183242798,-0.017127685,0.016998779,0.992663264
46.975458,-3.579601288,-2.000526428,11.985427856,0.099693604,-0.033172119,0.962389827
47.013747,-2.137645721,29.501243591,1.792556763,0.083702393,-0.046966065,0.983507991
47.028042,-2.030834198,32.446189880,0.564224243,0.079429932,-0.063079342,0.991930842
47.043397,-3.594860077,33.674522400,-0.870101929,0.058922119,-0.102508053,0.988390803
47.081708,-4.739269257,24.587913513,0.106460571,0.030235596,-0.064055905,0.991320491
47.120033,-6.188854218,4.453941345,2.380020142,0.002159424,-0.017180908,0.932360530
47.134322,-7.890209198,-4.007057190,3.791458130,0.008018799,-0.006194580,0.946154475
47.149633,-7.729991913,-7.753089905,4.241592407,0.014610596,-0.013762940,0.960436702
47.187926,-8.172496796,-12.803749084,4.943496704,0.024376221,-0.017058838,0.993029475
47.226226,-4.556163788,-7.043556213,3.486282349,0.036949463,-0.026214112,1.022204280
47.240509,-3.686412811,-4.518226624,2.967483521,0.037071534,-0.026824463,1.020739436
47.271921,-2.229198456,1.516624451,3.249771118,0.061851807,-0.025847901,1.016589046
47.310329,-0.817760468,6.742759705,-1.320236206,0.045128174,-0.020476807,0.992907405
47.348643,-0.810131073,-1.451210022,1.662857056,0.024498291,-0.013518799,1.016589046
47.362948,0.898853302,-5.769447327,2.944595337,0.024010010,-0.035613526,1.004748225
47.378277,0.601306915,-6.265357971,3.379470825,0.021324463,-0.061858643,0.989489436
47.416594,-5.746349335,-4.617408752,3.890640259,0.005943604,-0.091643795,1.014269710
47.454876,-2.145275116,-12.338356018,8.239395142,-0.055946045,-0.092010006,1.027819514
47.469199,-2.313121796,-15.824989319,10.581619263,-0.063514404,-0.105681881,1.022326350
47.484575,-4.060253143,-21.211341858,15.876419067,-0.062049560,-0.115325436,1.026476741
47.522873,-1.763805389,-17.144874573,19.836074829,-0.006385498,-0.083098873,1.059435725
47.561201,5.423084259,6.124778748,18.828994751,0.055626221,-0.084807858,1.027209163
47.575498,6.018177032,12.174888611,18.294937134,0.066490479,-0.108855709,1.001696467
47.590870,1.516834259,24.893089294,14.693862915,0.084678955,-0.152678952,0.975451350
47.629209,-0.878795624,31.011863708,11.077529907,0.026573487,-0.083953366,1.043078303
47.678892,5.217090607,-8.897499084,25.962478638,-0.067176513,-0.141814694,0.963732600
47.693227,0.929370880,-22.096351624,31.341201782,-0.029700927,-0.131438717,0.963976741
47.708590,0.647083282,-24.644569397,32.340652466,-0.006263427,-0.127288327,0.979845881
47.746888,2.562061310,-15.275672913,29.060012817,0.039512940,-0.169646725,0.954821467
47.785200,-4.128917694,-7.394508362,28.167373657,-0.029334716,-0.170867428,0.966174006
47.799502,-4.899486542,-10.507301331,32.119400024,-0.051063232,-0.127410397,1.007922053
47.814865,-3.747447968,-12.681678772,34.064895630,-0.051795654,-0.109954342,1.034411311
47.864778,1.875415802,-8.836463928,40.443069458,0.015098877,-0.133269772,1.019030452
47.903168,2.783313751,18.530174255,34.118301392,0.098717041,-0.099700436,1.051501155
47.917470,3.965869904,24.427696228,31.562454224,0.090172119,-0.092864498,1.058703303
47.932809,6.582752228,30.386253357,28.274185181,0.057091065,-0.102874264,1.051379085
47.971126,5.255237579,17.324729919,32.996780396,-0.015662841,-0.088347897,1.021227717
48.009434,9.985462189,-6.501869202,41.206008911,0.010338135,-0.076995358,1.018053889
48.023728,10.344043732,-9.172157288,42.434341431,0.024132080,-0.091155514,0.998644710
48.039069,7.971302032,-7.730201721,42.197830200,0.054161377,-0.103118405,0.970690608
48.077387,5.384937286,3.477378845,37.299758911,0.083580323,-0.080901608,0.998034358
48.115668,6.910816193,5.911155701,35.155899048,0.046104737,-0.088592038,0.987536311
48.129964,6.544605255,2.729698181,36.460525513,0.028404541,-0.101897702,0.978258967
48.145298,6.231800079,0.959678650,36.384231567,0.018760987,-0.107512936,0.966296077
48.183632,1.974597931,-5.517677307,38.787490845,-0.007972412,-0.040374268,0.945055842
48.221921,3.454700470,-7.119850159,40.969497681,0.021446534,-0.050872315,0.985827327
48.236217,2.958789825,-5.395606995,40.778762817,0.024010010,-0.051360596,0.986559749
48.251554,2.676502228,-1.718238831,40.687210083,0.018028565,-0.038909424,0.978014827
48.289874,1.677051544,2.889915466,42.205459595,0.027550049,-0.045623291,1.013293147
48.328158,3.828540802,7.612510681,41.679031372,0.068931885,-0.054046143,1.015856624
48.342451,4.873767853,10.946556091,40.862686157,0.073936768,-0.038054932,1.010363460
48.357776,6.086841583,18.789573669,39.382583618,0.096275635,-0.049407471,0.982043147
48.396103,2.012744904,36.245628357,31.295425415,0.136680901,-0.066131100,1.013659358
48.434409,4.980579376,33.247276306,24.711257935,0.039512940,-0.055388916,0.965685725
48.448711,0.593677521,14.265342712,30.509597778,-0.034095459,-0.060515869,0.924303889
48.464041,-0.619396210,1.432701111,34.141189575,-0.043006591,-0.046843994,0.935900569
48.502361,-2.542003632,-42.535499573,43.388015747,-0.005408935,-0.035613526,0.961535335
48.540645,-2.557262421,-50.836280823,44.036514282,0.030479737,-0.008758057,0.946642756
48.554951,-5.029186249,-44.397071838,44.410354614,0.046226807,-0.020110596,0.948351741
48.570275,-6.295665741,-38.987831116,44.013626099,0.061729737,-0.023528565,0.965441585
48.608609,-5.181774139,-9.393409729,36.544448853,0.076988526,-0.018523682,1.053088069
48.646885,-0.604137421,5.102439880,33.263809204,-0.017738037,-0.003997315,1.000719905
48.661180,-1.016124725,3.942771912,35.209304810,-0.039954834,-0.012542237,0.978014827
48.676498,-3.976329803,0.074668884,41.305191040,-0.044105224,-0.014739502,0.957018733
48.726632,-0.909313202,14.013572693,43.639785767,0.088218994,0.011627685,1.077624202
48.765034,0.875965118,31.233116150,37.765151978,0.077232666,-0.062835202,1.023913264
48.779341,-0.573619843,32.522483826,38.230545044,0.070762940,-0.071868405,1.036608577
48.794679,-1.336559296,32.209678650,39.672500610,0.071373291,-0.057097901,1.066027522
48.833013,4.263416290,27.555747986,38.772232056,0.077965088,-0.057830323,1.041979671
48.871302,1.242176056,19.048973083,38.917190552,0.074058838,-0.055144776,1.059435725
48.885618,5.308643341,10.053916931,38.810379028,0.057457276,-0.003020752,1.068346858
48.900981,7.261768341,4.644676208,39.428359985,0.044761963,-0.003753174,1.050768733
48.939277,7.170215607,-12.681678772,42.419082642,0.037926026,-0.043059815,1.040270686
48.989743,9.329334259,-18.876747131,42.144424438,0.050865479,-0.089568600,0.997668147
49.004095,6.926074982,-18.602088928,42.129165649,0.048302002,-0.084929928,1.001208186
49.019444,6.422534943,-18.472389221,42.197830200,0.042686768,-0.083587155,1.010241389
49.057760,11.076465607,-16.755775452,43.380386353,0.040001221,-0.012176026,1.028307796
49.096055,12.907520294,-8.325294495,40.519363403,0.075645752,-0.060882080,0.975207210
49.110361,11.587635040,-5.708412170,39.771682739,0.086387940,-0.066863522,0.971667171
49.125708,11.038318634,-0.337318420,37.994033813,0.102257080,-0.046966065,0.973376155
49.164055,9.130970001,10.076805115,31.669265747,0.102867432,-0.048186768,0.942736506
49.202338,4.995838165,0.036521912,32.149917603,0.042808838,-0.022796143,0.935412288
49.216646,3.927722931,-5.677894592,33.301956177,0.033409424,-0.020354737,0.941759944
49.232005,3.393665314,-14.993385315,35.323745728,0.025108643,-0.015105713,0.964953303
49.270328,5.995288849,-23.050025940,36.712295532,0.034019776,-0.030242432,0.967272639
49.308624,1.081958771,-26.513771057,36.414749146,0.013511963,-0.070037350,0.935656428
49.322939,0.143543243,-25.514320374,38.657791138,0.025108643,-0.035857666,0.983996272
49.338289,1.799121857,-23.187355042,38.840896606,0.034141846,-0.022063721,0.999499202
49.376637,5.774036407,-4.434303284,34.560806274,0.053184815,-0.033782471,0.951891780
49.414917,0.708118439,11.770530701,34.446365356,0.066978760,-0.015349854,0.967272639
49.429224,1.219287872,15.043540955,34.690505981,0.066368409,-0.012053955,0.985827327
49.444591,2.577320099,21.467491150,33.973342896,0.072716065,-0.030364502,1.001452327
49.482918,1.799121857,30.065818787,30.707962036,0.080406494,-0.027190674,0.990832210
49.521230,0.776782990,29.707237244,30.868179321,0.070274659,0.008209717,1.001330256
49.535527,0.792041779,28.799339294,31.287796021,0.076744385,0.006012451,1.011584163
49.550879,1.379505157,27.349754333,29.571182251,0.094322510,-0.008391846,1.030260921
49.602506,2.783313751,15.135093689,27.473098755,0.058433838,0.006012451,1.001086116
49.640877,0.700489044,-0.825599670,29.739028931,0.067222901,0.028717529,1.049181819
49.655192,2.439990997,-2.687171936,29.998428345,0.078209229,0.034576904,1.070177913
49.670520,6.063953400,-2.183631897,28.808242798,0.129234612,0.039337646,1.064562678
49.708857,6.811634064,8.848472595,13.869888306,0.128624260,0.032135498,0.991320491
49.747148,3.317371368,-3.083900452,13.641006470,0.012413330,0.035431396,0.968981624
49.761443,2.378955841,-18.495277405,18.485671997,-0.029578857,0.057526123,0.995104671
49.776788,3.660694122,-26.239112854,22.048599243,-0.032020263,0.070343509,1.000841975
49.815118,7.383838654,-33.319190979,23.719436646,0.085289307,0.105255619,0.908923030
49.853435,-6.288036346,-21.173194885,13.045913696,0.065758057,0.074371830,0.950182796
49.867734,-3.930553436,-22.851661682,15.426284790,-0.006263427,0.095734134,1.021105647
49.883078,-0.901683807,-25.750831604,19.370681763,-0.023353271,0.102570072,1.025988460
49.921402,6.269947052,-36.966041565,22.529251099,-0.038978271,0.000763427,0.809435725
49.959686,-13.024791718,-18.296913147,25.573379517,0.134483635,0.058380615,0.990710139
49.974008,-11.483654022,-7.531837463,22.452957153,0.153770745,0.101349369,1.088854671
49.989361,-0.092967987,17.111106873,14.548904419,0.180992424,0.139313236,1.137682796
50.027666,3.622547150,48.010154724,4.722244263,0.103111573,0.039215576,0.974352717
50.065942,-0.665172577,48.498435974,6.972915649,0.098228760,0.076691166,1.057360530
50.080239,1.509204865,47.598167419,5.920059204,0.110435791,0.079864994,1.053576350
50.095571,2.913013458,46.316429138,4.890090942,0.116417237,0.076691166,1.039172053
50.133876,0.479236603,38.122459412,-2.449386597,0.123131104,0.018219482,1.020495296
50.172181,3.683582306,-2.687171936,0.266677856,-0.017738037,0.070099369,1.021227717
50.186465,5.003467560,-31.480506897,6.499893188,-0.064490966,0.034698974,0.985339046
50.201791,0.746265411,-46.128944397,9.818679810,-0.072791748,0.014313232,0.981432796
50.240114,0.074878693,-78.599647522,22.094375610,0.032310791,0.004425537,1.113268733
50.291972,3.828540802,-47.082618713,16.624099731,0.112510987,0.003693115,1.086901546
50.306318,3.180042267,-22.042945862,10.566360474,0.129600823,-0.016082276,1.098620296
50.321666,3.614917755,-8.699134827,6.896621704,0.129112542,-0.004851807,1.114367366
50.359953,10.710254669,24.420066833,-1.427047729,0.066490479,0.023956787,1.075671077
50.398241,10.771289825,24.290367126,-0.603073120,0.041954346,-0.021453369,1.041125178
50.412529,11.290088654,21.917625427,-0.854843140,0.047325440,-0.002654541,1.041491389
50.441630,14.746204376,10.664268494,-1.564376831,0.031944580,0.035309326,0.974963069
50.480063,8.764759064,-15.634254456,5.752212524,0.015098877,0.047882568,0.953478694
50.518378,10.427967072,-26.643470764,9.086257935,0.036949463,0.021149170,0.953844905
50.532684,9.092823029,-25.338844299,8.918411255,0.050377198,0.042267334,0.947008967
50.548029,8.215442657,-16.839698792,8.712417603,0.087486573,0.058990967,0.958727717
50.586332,12.793079376,15.859886169,-0.824325562,0.109825440,0.092560306,0.996447444
50.624644,10.595813751,34.124656677,0.228530884,0.000328369,0.093658939,0.937365413
50.638950,10.511890411,35.383506775,1.708633423,0.019615479,0.073395267,0.933825374
50.654291,10.244861603,37.222190857,-1.228683472,0.023277588,0.038849365,0.933825374
50.692628,3.614917755,22.543235779,-2.632492065,-0.017371826,0.033600342,0.897448421
50.730921,-0.810131073,-0.505165100,8.109695435,-0.021278076,0.115387455,0.955065608
50.745213,1.265064240,-9.835914612,9.002334595,0.047691651,0.126739994,0.975207210
50.760534,4.454151154,-11.048988342,7.812149048,0.058677979,0.100494877,0.983019710
50.798868,-0.993236542,-6.677345276,7.499343872,0.127647698,0.073639408,0.992297053
50.837160,-1.672252655,6.056114197,-0.816696167,0.117393799,0.111725345,0.980212092
50.851448,-2.801403046,11.160179138,1.800186157,0.129478753,0.103424564,1.005602717
50.866779,-2.816661835,16.714378357,1.021987915,0.154625237,0.108063236,1.020495296
50.905099,2.325550079,46.713157654,-18.181198120,0.161827385,0.059113037,1.042101741
50.943423,0.051990509,24.221702576,-10.536544800,-0.044227295,0.010529052,1.020373225
50.957723,-2.030834198,12.968345642,-6.203048706,-0.036414795,-0.002044190,1.041491389
50.973068,0.387683868,-5.037025452,-2.144210815,0.003990479,0.024811279,1.072375178
51.011381,10.046497345,-17.770484924,-1.686447144,0.063560791,0.114655033,0.979235530
51.049670,3.782764435,-13.902381897,-5.173080444,0.078453369,-0.014129151,0.905260921
51.063970,0.792041779,-12.513832092,-8.018844604,0.048790284,0.036407959,0.928454280
51.079310,-0.443920135,-14.306739807,-8.530014038,0.016197510,0.034332763,0.926257014
51.117649,-1.176342010,-34.631446838,2.112991333,-0.042640381,0.105988041,0.941271663
51.155936,2.233997345,-39.956764221,5.920059204,0.014976807,0.044220459,0.891344905
51.170240,-2.107128143,-31.182960510,6.049758911,0.031456299,0.065704837,0.883898616
51.185587,-2.763256073,-25.407508850,5.630142212,0.037193604,0.089142337,0.889513850
51.223913,-3.129467010,4.492088318,4.272109985,0.083580323,0.055328857,0.890124202
51.262225,-3.343090057,30.409141541,-2.991073608,0.084190674,0.087799564,0.921252131
51.291688,-2.152904510,40.334983826,-1.358383179,0.066246338,0.071930423,0.915148616
51.306028,-3.533824921,42.547508240,-1.526229858,0.072471924,0.062286865,0.920641780
51.344251,-7.424816132,41.242881775,-6.119125366,0.048179932,0.089874759,0.969836116
51.382540,-4.205211639,15.966697693,3.493911743,0.012047119,0.108551517,1.040758967
51.396843,-3.480419159,9.344383240,4.127151489,0.027794190,0.102814212,1.057604671
51.412171,-1.298412323,-0.329689026,3.753311157,0.054893799,0.078156009,1.088488460
51.450491,-0.215038300,-15.054420471,2.906448364,0.017784424,0.076691166,1.096178889
51.488815,4.034534454,-21.722511292,9.055740356,0.040733643,0.064728275,1.141222835
51.503108,3.744617462,-19.868568420,7.774002075,0.055382080,0.043732177,1.129748225
51.518444,2.989307404,-14.253334045,4.089004517,0.052208252,0.045441162,1.112048030
51.556763,3.378406525,-10.652259827,4.966384888,0.017052002,0.035431396,1.108141780
51.610342,6.186023712,-8.538917542,4.661209106,0.066002198,0.052032959,1.074938655
51.624665,7.574573517,-8.668617249,3.814346313,0.048302002,0.043610107,1.049548030
51.640008,8.039966583,-10.041908264,4.874832153,0.033287354,0.018097412,1.009997249
51.678335,6.659046173,-4.419044495,4.928237915,0.092613526,0.000641357,0.997057796
51.716642,6.536975861,4.522605896,-2.777450562,0.059532471,-0.020720948,0.910632014
51.730938,4.705921173,4.156394958,-2.106063843,0.047081299,-0.026336182,0.896715999
51.746272,0.837818146,0.608726501,-0.099533081,0.045006104,-0.023406494,0.886950374
51.784539,-0.810131073,-5.670265198,-2.731674194,0.036461182,0.039581787,0.906359553
51.822843,-0.230297089,-25.026039124,1.433975220,-0.056556396,0.076080814,0.859484553
51.837142,-0.710948944,-35.234169006,6.286270142,-0.042274170,0.058990967,0.845812678
51.852491,-2.427562714,-36.981300354,8.346206665,-0.025184326,0.048859131,0.847399592
51.890836,-5.128368378,-18.502906799,3.104812622,0.060875244,0.064728275,0.899889827
51.929136,-5.120738983,3.607078552,1.090652466,0.029747315,0.072540775,0.899279475
51.943442,-5.906566620,5.941673279,1.548416138,0.033409424,0.060699951,0.905627131
51.958781,-8.447154999,10.458274841,2.357131958,0.049034424,0.053009521,0.946886897
51.997109,-3.991588593,21.536155701,-1.236312866,0.076011963,0.079254642,0.989977717
52.035437,-7.523998260,30.195518494,-1.854293823,0.097252198,0.041412842,0.979479671
52.066660,-6.783946991,32.598777771,-7.248275757,0.088218994,0.078400150,1.051379085
52.080997,-5.280956268,30.935569763,-7.370346069,0.073326416,0.081329837,1.055773616
52.119219,-3.564342499,16.310020447,-2.189987183,0.077110596,0.020050537,1.082995296
52.157511,4.889026642,11.656089783,-5.981796265,0.130699456,0.048614990,1.125231624
52.171820,7.002368927,11.213584900,-6.897323608,0.127281487,0.032013427,1.082262874
52.187145,4.332080841,7.749839783,-7.477157593,0.097008057,-0.009734619,0.999010921
52.225475,-5.624279022,-15.702919006,-6.126754761,0.041343994,-0.049529541,1.030138850
52.263765,-6.768688202,-63.768104553,2.196914673,-0.107093506,0.018341552,1.040881038
52.278057,-6.501659393,-76.997474670,8.987075806,-0.110511474,0.032623779,1.052721858
52.293381,-3.457530975,-91.279701233,19.797927856,-0.022498779,0.043365967,1.074938655
52.331703,2.661243439,-70.848182678,16.601211548,0.133140862,0.025299560,1.023424983
52.370019,0.189319611,2.104087830,2.723342896,0.206993401,-0.018767823,0.974108577
52.384303,-0.970348358,33.529563904,-4.204147339,0.157554924,0.003937256,0.945299983
52.399618,-1.351818085,45.484825134,-6.248825073,0.149376214,0.006256592,0.944811702
52.437940,-5.555614471,63.352867126,-9.964340210,0.082115479,0.007233154,0.957384944
52.476240,-2.099498749,42.692466736,-4.715316772,0.032554932,0.035675537,0.932238460
52.490523,-1.420482635,34.658714294,-3.387802124,0.037193604,0.039459717,0.910509944
52.505845,-2.770885468,18.774314880,-0.336044312,0.040123291,0.004913818,0.888781428
52.544171,-5.876049042,-4.930213928,1.304275513,0.068199463,0.029327881,0.953844905
52.582457,-1.939281464,-21.486000061,5.103713989,0.041832276,0.049225342,0.961779475
52.596745,-2.297863007,-24.049476624,6.660110474,0.045128174,0.046906006,0.957507014
52.612068,-3.602489471,-23.973182678,8.460647583,0.068199463,0.049347412,0.974474788
52.650414,-2.366527557,-10.591224670,7.545120239,0.121177979,0.054352295,1.033068538
52.688713,2.272144318,17.774864197,-0.221603394,0.119346924,0.047882568,1.016589046
52.703014,-0.009044647,24.374290466,-1.045578003,0.111534424,0.044708740,1.013049006
52.718331,-1.138195038,26.731773376,-0.786178589,0.106895752,0.046295654,1.024035335
52.756674,2.737537384,26.991172791,-4.822128296,0.097252198,-0.000213135,1.066027522
52.810885,3.378406525,-11.674598694,4.188186646,0.014244385,0.034454834,1.067492366
52.825223,5.117908478,-16.816810608,6.278640747,0.019249268,0.013702881,1.055895686
52.840604,5.529895782,-22.012428284,7.735855103,0.041221924,-0.040862549,1.017687678
52.878922,1.905933380,-20.059303284,6.950027466,0.056358643,-0.088347897,0.967638850
52.917238,-5.822643280,-20.616249084,8.765823364,-0.000892334,-0.065276608,0.967272639
52.948675,-4.014476776,-23.362831116,13.122207642,0.021690674,-0.016570557,1.015856624
52.963011,-2.282604218,-19.120887756,12.107498169,0.057945557,-0.031707276,1.008532405
53.001252,-1.069530487,6.361289978,4.447586060,0.108848877,-0.068816647,0.957507014
53.039546,-5.349620819,23.886009216,-0.892990112,0.094200440,-0.073211178,0.942980647
53.053855,-5.708202362,25.709434509,-1.358383179,0.095665284,-0.063201413,0.958849788
53.069210,-5.059703827,24.732872009,-3.921859741,0.077110596,-0.046966065,0.961413264
53.107530,-5.883678436,6.414695740,-0.526779175,0.002037354,-0.048186768,0.954821467
53.145862,-4.823192596,-18.357948303,6.950027466,0.048912354,-0.036834229,0.979967952
53.160155,-3.472789764,-16.252235413,6.606704712,0.088096924,-0.024993408,0.975451350
53.175526,-3.381237030,-12.155250549,5.271560669,0.105797119,-0.024993408,0.967516780
53.213874,-4.731639862,5.811973572,-2.128952026,0.103233643,-0.025359619,0.952135921
53.252174,-4.090770721,5.873008728,-2.632492065,0.080528565,-0.022307862,0.967638850
53.266457,-3.922924042,4.858299255,-2.815597534,0.080650635,-0.025725830,0.966418147
53.281797,-4.678234100,2.989097595,-3.540390015,0.081260987,-0.029876221,0.959826350
53.320126,-5.044445038,1.325889587,-4.806869507,0.085777588,-0.014007080,0.978381038
53.358434,-7.455333710,3.034873962,-6.241195679,0.092003174,-0.051238526,1.009386897
53.372719,-8.409008026,3.065391541,-6.576889038,0.098594971,-0.052947510,1.037463069
53.388071,-7.241710663,3.126426697,-7.789962769,0.101158448,-0.037444580,1.088366389
53.426406,-1.565441132,-2.893165588,-9.743087769,0.068565674,-0.019378174,1.090685725
53.464699,1.219287872,-6.044105530,-5.722396851,0.069664307,-0.033904541,1.057116389
53.478987,1.516834259,-3.244117737,-6.477706909,0.102623291,-0.044524658,1.030505061
53.494319,0.708118439,-1.779273987,-7.484786987,0.104088135,-0.051360596,1.018786311
53.544210,-2.534374237,-9.042457581,-7.622116089,0.052452393,-0.105926022,1.004992366
53.582572,-4.922374725,-25.735572815,-3.479354858,-0.005897216,-0.092864498,0.997912288
53.596871,-5.494579315,-32.869056702,-1.404159546,-0.003577881,-0.069426998,0.995348811
53.612200,-5.128368378,-34.517005920,0.129348755,-0.000770263,-0.055266846,0.996325374
53.650513,-1.023754120,-18.251136780,3.699905396,0.092247315,-0.072600827,0.959215999
53.688839,-5.952342987,18.820091248,-5.691879272,0.106041260,-0.104217038,0.941515803
53.703127,-6.211742401,23.321434021,-6.569259644,0.093223877,-0.093718991,0.945666194
53.718468,-7.218822479,26.266380310,-7.713668823,0.048057862,-0.088592038,0.949206233
53.756780,-10.041698456,11.808677673,0.121719360,0.022545166,-0.075286373,0.992785335
53.795105,-4.151805878,0.974937439,3.928787231,0.070885010,-0.050017823,1.015734553
53.809406,-3.083690643,1.150413513,3.959304810,0.086998291,-0.057586182,1.012072444
53.824740,-2.458080292,4.438682556,2.898818970,0.105919190,-0.069304928,0.993639827
53.863067,-3.228649139,10.252281189,-0.755661011,0.103111573,-0.060027588,0.984118342
53.901375,-3.175243378,7.459922791,-0.046127319,0.070762940,-0.048552979,0.996935725
53.915655,-2.130016327,3.881736755,0.083572388,0.073936768,-0.042815674,1.004382014
53.930980,-1.573070526,1.905723572,-0.160568237,0.071617432,-0.039153565,0.999621272
53.969285,-1.092418671,-1.496986389,1.891738892,0.070762940,-0.039275635,0.987536311
54.007603,-2.084239960,7.803245544,-2.678268433,0.082847901,-0.057830323,0.994128108
54.021893,-1.977428436,7.459922791,-3.197067261,0.060875244,-0.065154538,0.996813655
54.037213,-1.519664764,3.034873962,-1.633041382,0.023521729,-0.068572506,0.999499202
54.075521,-2.618297577,-6.250099182,6.087905884,0.037071534,-0.104339108,1.036974788
54.113839,-1.748546600,0.753684998,2.753860474,0.080528565,-0.105071530,1.060656428
54.128124,0.166431427,2.188011169,1.548416138,0.068809815,-0.097625241,1.063708186
54.143439,2.058521271,1.989646912,3.074295044,0.036217041,-0.126067623,1.054552913
54.181750,3.538623810,-0.528053284,6.866104126,0.065758057,-0.145843014,1.024401546
54.220055,-0.421031952,6.109519958,1.731521606,0.093834229,-0.137420163,1.001208186
54.247099,-0.115856171,8.268638611,0.159866333,0.075401612,-0.087859616,1.016466975
54.261416,1.448169708,7.063194275,0.121719360,0.077965088,-0.086028561,1.016589046
54.311545,5.789295197,16.920372009,-6.065719604,0.130577385,-0.100310788,0.986803889
54.349901,1.722827911,27.632041931,-10.055892944,0.145347893,-0.131316647,0.938341975
54.364217,-3.114208221,31.179710388,-14.526718140,0.131798089,-0.116301998,0.965197444
54.379561,-4.075511932,30.134483337,-16.182296753,0.106285401,-0.093474850,0.979601741
54.417884,1.142993927,10.397239685,-14.831893921,0.041954346,-0.034759033,1.005846858
54.456209,-0.451549530,-7.188514709,-11.680953979,0.044029541,-0.039763916,0.948473811
54.470495,-1.283153534,-9.134010315,-12.955062866,0.065147705,-0.049651612,0.948351741
54.485836,-1.985057831,-8.195594788,-14.015548706,0.074791260,-0.038543213,0.944079280
54.524160,-4.800304413,-5.593971252,-18.555038452,0.054649659,-0.004241455,0.983630061
54.562454,-3.274425507,-9.416297913,-16.937606812,0.055504151,-0.031829346,0.985827327
54.576750,-3.388866425,-9.622291565,-17.273300171,0.050987549,-0.039885987,0.983996272
54.592083,-2.999767303,-8.134559631,-18.410079956,0.056724854,-0.043792237,0.999743342
54.630428,-1.664623260,-5.792335510,-19.356124878,0.037315674,-0.065154538,0.983141780
54.668712,-4.365428925,-6.875709534,-19.249313354,0.020225830,-0.084441647,0.961291194
54.683017,-6.600841522,-9.622291565,-19.348495483,0.009849854,-0.083587155,0.973620296
54.698362,-7.676586151,-11.728004456,-18.715255737,-0.001258545,-0.077239498,0.995226741
54.736683,-3.701671600,-22.218421936,-14.129989624,0.005455323,-0.056487549,1.069445491
54.774992,1.379505157,-14.245704651,-13.908737183,0.090294190,-0.085540280,1.049792171
54.789293,1.127735138,0.356956482,-17.921798706,0.134117424,-0.102508053,1.046007991
54.804619,1.822010040,8.024497986,-20.424240112,0.145225823,-0.110320553,1.042223811
54.842938,2.615467072,35.314842224,-31.364791870,0.140831292,-0.095061764,1.012804866
54.881240,1.822010040,34.818931580,-33.676498413,0.087852784,-0.072844967,1.032336116
54.895534,3.424182892,31.507774353,-32.616012573,0.087486573,-0.072967038,1.038561702
54.910871,5.690113068,25.274559021,-32.135360718,0.110679932,-0.101775631,1.022936702
54.949204,0.296131134,16.630455017,-35.194747925,0.122154541,-0.075530514,1.019396663
54.987489,5.598560333,0.089927673,-36.384933472,0.085899659,-0.083709225,1.015490413
55.001814,4.522815704,-6.097511292,-36.392562866,0.072471924,-0.089690670,1.014513850
55.017144,3.645435333,-20.158485413,-33.897750854,0.035118409,-0.054290283,0.987902522
55.067582,3.973499298,-36.950782776,-27.565353394,0.093712159,-0.045379151,1.007311702
55.105966,3.111377716,-23.828224182,-32.036178589,0.111656494,-0.062713131,0.968127131
55.120271,0.288501740,-11.758522034,-35.416000366,0.110557862,-0.082610592,0.945055842
55.135616,-1.916393280,-6.135658264,-36.430709839,0.095909424,-0.068572506,0.946154475
55.173939,-0.825389862,8.138938904,-36.400192261,0.068321534,-0.000091065,1.006701350
55.212247,3.790393829,12.678428650,-35.797470093,0.084434815,-0.045623291,0.947008967
55.226548,1.188770294,10.160728455,-37.300460815,0.078575440,-0.043914307,0.927477717
55.241876,0.647083282,8.055015564,-36.377304077,0.078209229,-0.037444580,0.921374202
55.280208,-0.993236542,-4.480079651,-34.775131226,0.071373291,-0.054168213,0.955187678
55.318509,-4.113658905,-17.770484924,-33.241622925,0.049156494,-0.022552002,0.941393733
55.332828,-2.793773651,-21.318153381,-33.340805054,0.042808838,-0.029387940,0.984362483
55.348171,-5.326732635,-27.848915100,-29.442184448,0.039879151,-0.017180908,0.969103694
55.386496,-4.678234100,-20.906166077,-31.151168823,0.117515869,-0.034148682,0.995959163
55.424839,-5.082592010,-5.510047913,-34.721725464,0.140953362,-0.055144776,0.997912288
55.439133,-5.639537811,-1.290992737,-35.553329468,0.129478753,-0.061614502,1.001940608
55.454485,-6.036266327,6.330772400,-37.208908081,0.138267815,-0.035857666,1.018542171
55.492832,-3.045543671,15.829368591,-41.847579956,0.157921135,-0.036956299,1.038927913
55.544356,0.395313263,21.078392029,-46.303146362,0.141929924,-0.057952393,1.033068538
55.558699,0.257984161,20.002647400,-46.623580933,0.144249260,-0.079070553,1.034289241
55.574064,-1.519664764,15.669151306,-47.104232788,0.136314690,-0.056609619,1.049181819
55.612403,0.921741486,5.155845642,-48.118942261,0.116051026,-0.068328366,1.083971858
55.650700,2.699390411,-7.646278381,-47.691696167,0.104454346,-0.097259030,1.040881038
55.665019,1.684680939,-13.719276428,-47.012680054,0.106041260,-0.094329342,1.053576350
55.680384,1.188770294,-15.123085022,-47.668807983,0.110069580,-0.095672116,1.052355647
55.718703,2.760425568,-19.548133850,-48.172348022,0.083580323,-0.102874264,1.056017756
55.757034,1.883045197,-26.948646545,-47.500961304,0.035362549,-0.092620358,1.062853694
55.771343,2.707019806,-29.275611877,-46.326034546,0.027916260,-0.077849850,1.065539241
55.786691,5.697742462,-34.524635315,-45.708053589,0.009117432,-0.077239498,1.049425960
55.838713,2.279773712,-37.049964905,-38.795822144,0.032066651,-0.055388916,0.990343928
55.877119,2.943531036,-16.816810608,-40.909164429,0.091270752,-0.017547119,1.001208186
55.891437,4.416004181,-11.728004456,-41.855209351,0.097130127,-0.029876221,0.999987483
55.906770,2.989307404,-0.985816956,-43.686264038,0.124595948,-0.043548096,0.957140803
55.945095,-0.565990448,13.929649353,-44.624679565,0.085289307,-0.038909424,0.936266780
55.983429,-3.304943085,9.527488708,-42.869918823,0.034385987,-0.014983643,0.936266780
55.997724,-4.014476776,5.018516541,-41.702621460,0.027550049,-0.019500244,0.951403499
56.013058,-3.358348846,-3.366188049,-39.032333374,0.027794190,-0.010344971,0.965319514
56.051380,-2.694591522,-11.865333557,-37.247055054,0.043907471,-0.036834229,0.935168147
56.089673,-6.417736053,-10.392860413,-36.934249878,0.061973877,-0.029265869,0.932848811
56.103977,-7.264598846,-8.477882385,-37.819259644,0.064781494,-0.021453369,0.964465022
56.119307,-6.783946991,-8.310035706,-38.208358765,0.066002198,-0.020598877,0.975207210
56.157660,-7.295116425,-11.087135315,-37.804000854,0.036217041,-0.010467041,0.986803889
56.195954,-6.036266327,-13.299659729,-35.019271851,0.030845948,-0.029510010,0.998156428
56.210247,-6.097301483,-12.422279358,-33.165328979,0.041710205,-0.019622315,1.009142756
56.225585,-6.295665741,-10.377601624,-32.478683472,0.053306885,-0.018645752,1.017199397
56.263883,-2.458080292,7.360740662,-34.263961792,0.111534424,-0.039519776,1.035509944
56.302203,-2.595409393,25.572105408,-40.184371948,0.128013909,-0.047332276,1.015978694
56.316499,-2.725109100,28.646751404,-40.428512573,0.123131104,-0.040862549,1.018175960
56.331846,-2.778514862,31.027122498,-41.290634155,0.119468994,-0.026946533,1.039172053
56.370180,4.065052032,18.072410583,-40.199630737,0.055748291,0.001617920,1.010119319
56.408480,2.684131622,-2.519325256,-34.790390015,0.046104737,-0.023650635,0.970324397
56.422782,0.502124786,-12.826637268,-32.654159546,0.057335205,-0.007415283,0.972399592
56.438120,-0.009044647,-16.648963928,-31.753890991,0.058189698,-0.000823487,0.976794124
56.476463,-2.076610565,-29.237464905,-27.847640991,0.028282471,0.022491943,0.971423030
56.514762,-3.770336151,-31.289772034,-19.157760620,0.062950440,0.012604248,0.981188655
56.529068,-4.373058319,-20.341590881,-19.974105835,0.114464112,0.000153076,0.985705256
56.544395,-5.158885956,-13.032630920,-20.607345581,0.127159417,-0.003753174,0.984850764
56.596575,-3.503307343,12.052818298,-27.000778198,0.084556885,0.014191162,0.965441585
56.634952,-5.677684784,8.360191345,-20.271652222,0.056480713,-0.020110596,0.950915217
56.649256,-5.319103241,4.995628357,-18.455856323,0.080772705,-0.005828369,0.977404475
56.664594,-4.403575897,3.675743103,-18.593185425,0.084190674,0.004669677,0.976916194
56.702921,-2.625926971,0.509544373,-16.609542847,0.101524659,0.014923584,0.932970881
56.741233,-7.615550995,2.783103943,-17.166488647,0.117882080,0.017364990,0.970568538
56.755528,-6.959423065,2.241416931,-17.212265015,0.111534424,0.048859131,0.987536311
56.770868,-4.037364960,-1.725868225,-16.273849487,0.095909424,0.063141361,0.989245296
56.823106,-5.250438690,-16.862586975,-9.682052612,0.093468018,0.033356201,0.957384944
56.861462,-4.609569550,-16.473487854,-9.186141968,0.128013909,0.084503666,0.988879085
56.875764,-2.961620331,-13.848976135,-9.987228394,0.129112542,0.085846439,0.976061702
56.891131,-1.924022675,-8.134559631,-10.116928101,0.110191651,0.056305420,0.933092952
56.929452,-9.606822968,-1.054481506,-7.423751831,0.114708252,0.054230224,0.978869319
56.967728,-4.151805878,-0.436500549,-5.440109253,0.102379151,0.061310302,0.969958186
56.982027,-3.976329803,1.035972595,-4.883163452,0.113487549,0.037872802,0.959460139
56.997369,-8.210643768,7.009788513,-5.524032593,0.140831292,0.005890381,0.968127131
57.035674,-6.539806366,17.141624451,-11.650436401,0.155601799,0.056549560,1.011217952
57.073978,-2.572521210,13.723655701,-12.298934937,0.108482666,0.044586670,0.985827327
57.088272,-5.273326874,5.987449646,-8.575790405,0.092491455,-0.008391846,0.981432796
57.103602,-5.891307831,2.249046326,-7.187240601,0.101646729,0.015778076,0.995592952
57.141894,-2.763256073,-6.883338928,-7.568710327,0.100914307,0.043732177,1.013171077
57.180178,-4.418834686,-17.083839417,-4.371994019,0.072349854,0.015900146,1.018786311
57.194472,-3.037914276,-21.356300354,-2.754562378,0.076500244,0.036530029,1.041003108
57.209826,-1.687511444,-22.874549866,-2.800338745,0.073082276,0.041901123,1.046130061
57.248148,0.959888458,-24.324134827,1.517898560,0.057091065,0.017975342,1.009631038
57.286439,-1.451000214,-11.338905334,2.463943481,0.099327393,0.008697998,1.025622249
57.300728,-0.695690155,-5.624488831,2.380020142,0.111290284,0.018463623,1.033068538
57.316077,1.982227325,7.154747009,0.472671509,0.132652581,0.015778076,1.020861506
57.354375,0.715747833,25.846763611,-2.090805054,0.141685784,-0.037444580,0.981432796
57.408072,-0.939830780,35.459800720,-5.051010132,0.158653557,-0.038909424,1.012438655
57.422432,-0.451549530,34.498497009,-6.080978394,0.151329339,-0.040984619,1.014391780
57.437807,0.723377228,27.143760681,-8.530014038,0.116295166,-0.048430908,1.003893733
57.476137,-1.649364471,-5.624488831,-1.755111694,0.060386963,-0.033782471,0.955920100
57.514433,-2.496227264,-27.879432678,4.096633911,0.064171143,-0.056365479,0.968005061
57.528730,-2.763256073,-30.465797424,4.439956665,0.076134034,-0.046111573,0.962511897
57.544081,-2.030834198,-30.786231995,6.042129517,0.093223877,-0.009246338,0.989855647
57.582400,1.715198517,-8.233741760,0.442153931,0.165001214,-0.044158448,0.960070491
57.620671,-1.664623260,11.884971619,-3.975265503,0.173179924,-0.065520748,0.919421077
57.634971,-4.594310760,20.475669861,-7.706039429,0.157921135,-0.051726807,0.939562678
57.650312,-5.898937225,21.841331482,-8.880966187,0.136192620,-0.042693604,0.933825374
57.688654,-4.426464081,5.857749939,-6.531112671,0.041588135,-0.010711182,0.955798030
57.726931,-5.143627167,-14.894203186,-1.922958374,0.064171143,-0.053679932,0.920275569
57.741219,-6.928905487,-19.799903870,-1.861923218,0.079674073,-0.029632080,0.919421077
57.756568,-8.347972870,-20.768836975,-1.549118042,0.084801026,-0.019011963,0.918078303
57.794885,-10.301097870,-15.268043518,-2.663009644,0.124962159,-0.017547119,0.978991389
57.833194,-7.371410370,-5.891517639,-4.730575562,0.104698487,0.011993896,0.989489436
57.847478,-6.600841522,-5.143836975,-4.425399780,0.095665284,0.004303467,0.980090022
57.862807,-7.173046112,-3.724769592,-3.883712769,0.088951416,-0.024505127,0.965441585
57.916656,-8.256420135,4.690452576,-2.319686890,0.146324456,-0.004607666,1.016955256
57.955064,-7.447704315,15.478416443,-6.996505737,0.162926018,-0.054168213,1.022814631
57.969362,-8.531078339,17.202659607,-6.859176636,0.162681878,-0.046721924,1.031237483
57.984712,-6.883129120,20.078941345,-6.813400269,0.180870354,-0.067107663,1.076159358
58.023052,-1.061901093,18.476768494,-13.847702026,0.149254143,-0.043059815,1.085802913
58.061343,1.135364532,-6.494239807,-8.888595581,0.079674073,-0.041594971,1.074450374
58.075639,3.767505646,-13.345436096,-6.584518433,0.082847901,-0.063567623,1.068102717
58.090987,4.202381134,-22.218421936,-4.410140991,0.100426026,-0.072356686,1.055773616
58.145010,4.248157501,-21.058753967,-4.600875854,0.125450432,-0.051726807,1.030260921
58.199512,-0.039562225,-7.272438049,-6.073348999,0.103355713,-0.133513913,0.928942561
58.213843,-3.976329803,-4.876808167,-5.974166870,0.097984619,-0.106170163,0.921862483
58.229178,-8.164867401,-1.992897034,-5.829208374,0.085411377,-0.113494381,0.944567561
58.267490,-6.318553925,2.958580017,-3.837936401,0.109459229,-0.042205323,1.046496272
58.305796,3.424182892,20.689292908,-5.813949585,0.184288323,-0.068572506,1.017321467
58.320097,2.645984650,33.033653259,-9.598129272,0.207969964,-0.091399655,0.961657405
58.335416,1.738086700,38.595481873,-12.367599487,0.210411370,-0.095916256,0.942126155
58.373735,-4.495128632,41.563316345,-18.165939331,0.130577385,-0.077727780,0.911242366
58.412053,-6.616100311,3.111167908,-9.132736206,0.034508057,-0.044036377,0.977526546
58.426342,-5.135997772,-8.142189026,-6.050460815,0.033165284,-0.034759033,0.980334163
58.441658,-2.877696991,-27.360633850,-0.091903687,0.030113526,-0.029387940,0.987536311
58.479987,-1.428112030,-40.872291565,6.026870728,0.104210205,-0.055510987,0.958849788
58.518270,-4.083141327,-18.106178284,1.388198853,0.153892815,-0.053435791,0.946398616
58.532564,-4.479869843,-10.286048889,-0.526779175,0.148033440,-0.062102783,0.958971858
58.547894,-4.441722870,2.630516052,-2.930038452,0.124473877,-0.064544186,0.976672053
58.586225,-2.671703339,13.479515076,-2.594345093,0.083580323,-0.043670166,0.981799006
58.624514,-2.084239960,13.143821716,0.106460571,0.104332276,-0.053313721,0.976427913
58.638825,-2.427562714,14.951988220,-0.244491577,0.139610589,-0.060882080,0.978136897
58.654168,-2.412303925,16.752525330,-1.739852905,0.153770745,-0.061980713,0.978503108
58.692483,-4.540904999,17.919822693,-5.661361694,0.123497315,-0.076018795,0.988757014
58.730793,-2.755626678,-1.931861877,-2.098434448,0.081016846,-0.044280518,1.011217952
58.745087,-1.740917206,-7.676795959,-1.236312866,0.078575440,-0.047820557,1.011217952
58.760393,-0.909313202,-16.618446350,0.098831177,0.070030518,-0.058318604,1.000353694
58.798700,-1.565441132,-22.172645569,5.355484009,0.107017823,-0.076140866,0.991442561
58.837008,-4.960521698,-6.791786194,-0.030868530,0.125328362,-0.087859616,1.022448421
58.851296,-4.388317108,-3.610328674,-1.289718628,0.111900635,-0.081756100,1.034899592
58.866618,-2.786144257,-1.619056702,-1.213424683,0.075889893,-0.057464112,1.053942561
58.904933,4.087940216,-8.493141174,6.599075317,0.063927002,-0.086638913,1.029650569
58.943237,3.592029572,1.600547791,6.728775024,0.165733635,-0.144500241,0.991076350
58.970246,0.685230255,19.682212830,-2.983444214,0.187950432,-0.176238522,0.969836116
58.984590,-2.053722382,22.123619080,-6.866806030,0.117882080,-0.148894772,0.958483577
59.022849,-5.326732635,5.827232361,0.075942993,0.041221924,-0.107268795,1.003283381
59.061135,2.455249786,-11.483863831,5.149490356,0.097374268,-0.088347897,1.024889827
59.075436,3.775135040,-7.402137756,3.883010864,0.139000237,-0.118133053,0.967638850
59.090768,2.127185822,-2.038673401,1.853591919,0.157432854,-0.131926998,0.942492366
59.129078,-4.182323456,17.408653259,-5.165451050,0.172569573,-0.120696530,0.961169124
59.167387,-2.671703339,16.241355896,-8.720748901,0.101280518,-0.114470944,0.971911311
59.181671,-3.045543671,12.174888611,-7.233016968,0.091881104,-0.106292233,0.965197444
59.197032,-4.151805878,2.935691833,-5.096786499,0.093956299,-0.093230709,0.961291194
59.235333,-3.221019745,-3.946022034,-4.463546753,0.139122307,-0.085296139,0.980456233
59.273648,-6.516918182,11.579795837,-11.085861206,0.151573479,-0.101409420,0.986803889
59.287936,-6.089672089,14.631553650,-12.398117065,0.150841057,-0.096892819,1.001574397
59.303285,-5.105480194,18.675132751,-13.626449585,0.149010003,-0.113494381,1.022692561
59.341645,-4.754528046,23.428245544,-15.709274292,0.161583245,-0.117278561,1.048937678
59.379937,-0.321849823,29.936119080,-22.430770874,0.200157464,-0.116057858,1.089098811
59.394233,3.996387482,32.247825623,-28.122299194,0.201744378,-0.118010983,1.060778499
59.409584,4.759326935,31.660362244,-31.227462769,0.185264885,-0.127044186,1.033923030
59.459648,3.485218048,5.361839294,-31.837814331,0.098839112,-0.094085202,1.021105647
59.498037,1.066699982,-18.647865295,-30.548446655,0.093101807,-0.109710202,1.017199397
59.512346,0.975147247,-25.170997620,-31.273239136,0.109459229,-0.082488522,1.053942561
59.527691,1.989856720,-26.521400452,-31.380050659,0.117760010,-0.073211178,1.062609553
59.566051,6.422534943,-17.915443420,-38.170211792,0.164635003,-0.075408444,1.050768733
59.604344,6.193653107,-2.877906799,-44.533126831,0.142051995,-0.082122311,1.008044124
59.618648,5.407825470,0.654502869,-45.479171753,0.141807854,-0.082488522,1.011706233
59.634007,6.025806427,5.720420837,-48.134201050,0.127281487,-0.084441647,1.034411311
59.672331,8.070484161,-0.482276917,-47.714584351,0.103477784,-0.084075436,1.045031428
59.710638,5.903736115,-20.501808167,-45.952194214,0.102989502,-0.092010006,0.939318538
59.738049,2.417102814,-24.133399963,-45.151107788,0.142174065,-0.080291256,0.946276546
59.752402,1.028553009,-23.370460510,-46.623580933,0.145469964,-0.060271729,0.973864436
59.790644,3.141895294,-23.568824768,-49.087875366,0.105430909,-0.067840084,0.950426936
59.828924,1.074329376,-25.544837952,-47.569625854,0.085777588,-0.047942627,0.932848811
59.843228,-1.550182343,-27.429298401,-46.272628784,0.068077393,-0.050139893,0.917101741
59.858584,-3.114208221,-28.230384827,-44.723861694,0.060997315,-0.047332276,0.918566585
59.896896,-6.860240936,-25.819496155,-41.870468140,0.060386963,-0.053313721,0.918322444
59.935212,-11.071666718,-25.682167053,-38.757675171,0.004967041,-0.018279541,0.925036311
59.949504,-12.063488007,-28.772071838,-33.607833862,-0.007117920,-0.010955323,0.958483577
59.964865,-11.338695526,-29.779151917,-30.510299683,-0.004798584,-0.019500244,0.961291194
60.003176,-11.674388885,-17.984107971,-27.687423706,0.070274659,-0.039153565,1.019396663
60.041474,-6.074413300,17.034812927,-33.035629272,0.117027588,0.000275146,1.045763850
60.055776,-3.442272186,24.702354431,-32.715194702,0.115562744,-0.013030518,1.020739436
60.071138,-5.341991425,41.052146912,-34.836166382,0.160972893,-0.018157471,1.037463069
60.109458,2.142444611,67.846580505,-41.244857788,0.159752190,0.010895263,1.060412288
60.147753,3.462329865,68.487449646,-43.526046753,0.130699456,-0.019378174,1.047961116
60.162058,4.210010529,63.902183533,-42.122238159,0.122764893,-0.000701416,1.060290217
60.177396,7.818714142,50.443931580,-40.275924683,0.118614502,-0.007171143,1.061877131
60.215702,10.275379181,26.548667908,-39.833419800,0.118492432,-0.009368408,1.038927913
60.254026,9.344593048,-8.844093323,-35.576217651,0.093956299,0.006866943,0.975817561
60.268327,7.627979279,-20.074562073,-35.332077026,0.070030518,0.001007568,1.028551936
60.283664,10.077014923,-23.149208069,-33.012741089,0.102012940,-0.000091065,1.033312678
60.321984,11.526599884,-23.668006897,-40.985458374,0.121300049,-0.057097901,1.002184749
60.360266,6.239429474,-23.423866272,-37.636154175,0.038292237,-0.007049073,0.950671077
60.374559,7.406726837,-22.889808655,-36.606185913,0.047935791,-0.005340088,0.957140803
60.389905,4.751697540,-19.181922913,-37.689559937,0.098472901,-0.008880127,0.937365413
60.428252,-0.062450409,-1.207069397,-40.146224976,0.049888916,-0.018279541,0.920153499
60.466534,0.792041779,8.734031677,-39.589279175,0.136558831,-0.023528565,0.958239436
60.480839,-0.245555878,9.992881775,-43.526046753,0.054283448,0.013947021,0.951403499
60.496174,-0.489696503,15.081687927,-41.382186890,0.142174065,0.061432373,0.900622249
60.546695,-8.943065643,53.976341248,-66.650741577,0.220176995,-0.054412354,0.947253108
60.585087,-6.005748749,8.611961365,-57.358139038,-0.048743896,-0.118865475,0.957262874
60.599416,-7.195934296,-11.613563538,-51.041000366,-0.061317138,-0.073089108,0.967638850
60.614769,-7.638439178,-46.945289612,-40.687911987,-0.030189209,-0.021575440,0.957873225
60.653113,-7.455333710,-69.108680725,-33.783309937,0.091636963,0.020294677,0.960314631
60.691442,-12.834056854,-47.174171448,-44.624679565,0.158287346,0.004059326,0.995348811
60.705748,-10.110363007,-28.512672424,-49.301498413,0.143150628,0.027863037,1.020007014
60.734327,-8.958324432,-4.655555725,-53.230636597,0.101280518,0.013580810,1.024767756
60.772694,-4.731639862,12.007041931,-53.741806030,0.080406494,0.032013427,1.019762874
60.811041,-1.237377167,23.390098572,-56.740158081,0.091270752,0.013214599,0.983752131
60.825352,-1.222118378,22.444053650,-57.167404175,0.075157471,-0.007781494,0.965197444
60.840718,-2.130016327,20.002647400,-57.022445679,0.068931885,-0.014861573,0.967150569
60.879071,-1.023754120,-5.220130920,-53.474777222,-0.008094482,0.002350342,0.965929866
60.917391,-4.296764374,-36.401466370,-41.855209351,-0.029578857,0.000885498,0.946764827
60.931699,-6.013378143,-41.581825256,-39.619796753,-0.012733154,0.000519287,0.959093928
60.947068,-7.127269745,-46.884254456,-36.850326538,0.011558838,0.019196045,0.979723811
60.985389,-9.362682343,-45.030311584,-34.691207886,0.012413330,0.010895263,0.990099788
61.023698,-11.086925507,-32.067970276,-31.082504272,0.039635010,0.005524170,1.042956233
61.038022,-10.285839081,-26.384071350,-30.899398804,0.046715088,0.013702881,1.062853694
61.053389,-6.547435760,-14.054969788,-31.265609741,0.050377198,0.027130615,1.059069514
61.091709,-7.127269745,9.283348083,-31.936996460,0.051842041,-0.033416260,1.020739436
61.130051,-6.783946991,17.950340271,-29.678695679,0.059410401,-0.008269776,1.031237483
61.144364,-5.708202362,22.764488220,-28.953903198,0.076866455,-0.004607666,1.069689631
61.159718,-4.441722870,24.626060486,-28.602951050,0.082725830,-0.010100830,1.079211116
61.198056,-1.161083221,24.557395935,-29.167526245,0.057457276,-0.019866455,1.041003108
61.250053,-0.863536835,5.514427185,-20.286911011,0.064903565,-0.018523682,1.044787288
61.264400,1.371875763,4.354759216,-19.546859741,0.107750244,-0.012053955,1.063341975
61.279766,2.699390411,6.071372986,-20.676010132,0.125938714,-0.010222901,1.060656428
61.318093,3.706470490,14.715476990,-26.657455444,0.114952393,-0.016570557,1.001696467
61.356428,1.081958771,11.305137634,-26.916854858,0.085167237,-0.007049073,1.037096858
61.370716,4.789844513,3.095909119,-27.016036987,0.051597901,0.005524170,1.024157405
61.386050,5.033985138,-1.939491272,-26.314132690,0.026329346,0.004181396,0.987780452
61.424363,-0.268444061,-21.310523987,-17.357223511,0.008262940,0.024200927,0.962511897
61.462677,2.989307404,-19.303993225,-17.334335327,0.065513916,0.059235107,1.001696467
61.476963,3.920093536,-16.282752991,-18.364303589,0.060142823,0.046417724,0.985949397
61.492299,2.897754669,-10.560707092,-19.127243042,0.037926026,0.024689209,0.964587092
61.530648,2.348438263,-5.113319397,-16.998641968,0.018516846,0.044464599,0.986925960
61.568955,4.683032990,-9.454444885,-10.330551147,-0.032264404,-0.002532471,0.980700374
61.583241,3.958240509,-10.865882874,-6.294601440,-0.023231201,-0.019011963,0.980334163
61.598569,2.073780060,-10.842994690,-3.242843628,0.005943604,-0.023894776,0.990221858
61.636882,4.873767853,11.091514587,-5.623214722,0.131065667,0.045929443,1.063097835
61.675208,7.299915314,43.768211365,-15.030258179,0.149010003,0.073883548,0.943468928
61.689493,3.019824982,56.547447205,-17.235153198,0.163414299,0.089752689,0.992052913
61.704833,2.958789825,60.629173279,-19.363754272,0.165977776,0.093903080,1.024645686
61.743161,13.906970978,48.071189880,-23.521774292,0.065513916,0.078278080,0.945910335
61.781481,-4.472240448,-11.773780823,-6.630294800,-0.022620849,0.068268314,0.912829280
61.795768,-5.326732635,-26.597694397,-4.181259155,-0.009315185,0.102325931,0.935412288
61.811111,-2.580150604,-47.906593323,0.228530884,0.002159424,0.132233158,0.947253108
61.849442,-4.090770721,-61.486915588,4.935867310,0.047569580,0.108185306,0.952135921
61.901719,-1.283153534,-32.861427307,-0.946395874,0.096519776,0.133331791,1.000964046
61.916056,1.104846954,-25.064186096,-2.556198120,0.086998291,0.130768314,0.975085139
61.931429,0.486865997,-11.705116272,-4.349105835,0.056236573,0.095489994,0.924059749
61.969748,-5.685314178,9.168907166,-1.091354370,0.109581299,0.132233158,0.996935725
62.008092,2.325550079,37.695213318,-10.025375366,0.162437737,0.114166752,0.935778499
62.022408,1.753345490,44.462486267,-12.428634644,0.156090081,0.093903080,0.913195491
62.051737,-7.081493378,56.883140564,-17.402999878,0.148277581,0.078766361,0.929919124
62.090121,-3.732189178,40.670677185,-18.829696655,0.072471924,0.146027103,0.962511897
62.128467,-2.419933319,-5.700782776,-9.361618042,0.042198487,0.067780033,0.975573421
62.142763,-3.846630096,-15.382484436,-8.522384644,0.052574463,0.068756595,0.995470881
62.158103,-3.060802460,-30.671791077,-6.965988159,0.049522705,0.112335697,1.011095881
62.196454,2.882495880,-46.594337463,-4.898422241,0.058311768,0.109772220,1.009264827
62.234761,0.608936310,-48.257545471,-4.486434937,0.050865479,0.091583744,1.012072444
62.249067,0.875965118,-44.404701233,-2.907150269,0.063927002,0.107819095,1.023913264
62.264411,2.035633087,-41.284278870,-3.548019409,0.072349854,0.097443119,1.028307796
62.302728,0.494495392,-28.955177307,-4.120223999,0.032066651,0.087311283,1.050158381
62.341071,2.691761017,-19.929603577,2.868301392,0.027916260,0.086700931,0.994250178
62.355368,1.417652130,-7.913307190,3.821975708,0.075035401,0.051056396,1.002917171
62.370691,1.432910919,1.058860779,3.753311157,0.104210205,0.034210693,1.011217952
62.409032,2.150074005,47.354026794,-7.858627319,0.216514885,0.012482177,1.023424983
62.447340,1.486316681,67.419334412,-20.836227417,0.086876221,-0.023284424,0.966540217
62.461651,-0.291332245,59.767051697,-19.295089722,0.034263916,-0.020476807,0.956774592
62.477010,-2.877696991,30.813499451,-9.956710815,-0.050086670,-0.010955323,0.939318538
62.515330,-2.503856659,-34.280494690,7.339126587,-0.033729248,0.037872802,0.956408381
62.569120,-1.595958710,-47.128395081,9.238845825,0.115684815,0.058990967,0.976549983
62.583453,-1.496776581,-34.036354065,4.890090942,0.140465081,0.052399170,0.978381038
62.598814,-1.954540253,-26.452735901,2.235061646,0.135216057,0.046661865,0.977648616
62.637138,-1.428112030,0.425621033,-2.907150269,0.107261963,0.082306400,0.999621272
62.675483,-1.229747772,11.686607361,-4.722946167,0.077354737,0.065582767,0.926745296
62.689768,-2.984508514,12.983604431,-4.204147339,0.082115479,0.061432373,0.917712092
62.705115,-4.846080780,14.921470642,-4.829757690,0.098106690,0.069244877,0.956774592
62.743454,-3.388866425,10.702415466,-6.210678101,0.040733643,0.047272217,0.891711116
62.781766,-9.347423553,-1.886085510,-0.923507690,0.052208252,0.038483154,0.970568538
62.796055,-7.829174042,-5.067543030,-0.946395874,0.055626221,0.055817138,0.977526546
62.811377,-7.638439178,-6.707862854,-1.221054077,0.055626221,0.091583744,0.998766780
62.849678,-4.975780487,-10.820106506,0.693923950,0.047691651,0.009186279,0.939806819
62.888020,-5.685314178,-5.006507874,-0.160568237,0.081138916,0.080475345,1.037340999
62.902312,-0.710948944,-0.543312073,0.091201782,0.087730713,0.083893314,1.048327327
62.917621,-0.886425018,1.814170837,-0.870101929,0.090294190,0.037872802,1.044909358
62.955922,0.868335724,5.140586853,-2.563827515,0.075767823,0.083160892,1.066637874
62.994261,3.378406525,-8.134559631,1.487380981,0.039757080,0.049103271,1.009264827
63.008541,1.616016388,-11.041358948,4.432327271,0.042686768,0.047394287,1.009508967
63.023874,-0.253185272,-13.391212463,4.020339966,0.091148682,0.030182373,1.044787288
63.062181,-0.474437714,-11.216835022,3.059036255,0.087974854,0.091949955,1.072497249
63.100482,9.481922150,13.334556580,-3.280990601,0.261802971,-0.032927979,1.071032405
63.114761,8.337512970,22.817893982,-9.430282593,0.267418206,-0.050628174,1.069689631
63.130097,9.001270294,32.339378357,-21.156661987,0.190758049,-0.019744385,1.045763850
63.184191,5.827442169,-17.320350647,-3.021591187,-0.025428466,0.056183349,0.931994319
63.222623,-1.977428436,-51.637367249,6.881362915,-0.006751709,0.037628662,0.900256038
63.236933,-3.404125214,-53.895668030,8.460647583,0.009483643,0.059967529,0.912340999
63.252273,-2.587779999,-53.071693420,9.421951294,0.026939698,0.073029056,0.939806819
63.290604,-3.541454315,-35.569862366,10.810501099,0.042564698,0.013702881,0.938219905
63.328930,-5.784496307,-4.251197815,11.649734497,0.072105713,0.030304443,0.958239436
63.343232,-5.387767792,5.773826599,10.024673462,0.085045166,0.013947021,0.964709163
63.374349,-6.494029999,31.484886169,8.163101196,0.114219971,-0.018523682,0.986437678
63.412724,-4.022106171,62.750144958,2.181655884,0.150841057,0.057526123,1.027209163
63.451076,0.212207794,84.989830017,-6.058090210,0.164390862,0.045563232,1.008288264
63.465376,-0.634654999,87.011619568,-7.294052124,0.160972893,0.042755615,1.004992366
63.480739,0.280872345,85.111900330,-10.017745972,0.148399651,0.064362064,1.004259944
63.519071,3.393665314,57.287498474,-10.742538452,0.092735596,0.037384521,0.952624202
63.557403,-3.587230682,3.744407654,-5.066268921,0.023643799,0.048126709,0.937365413
63.571700,-4.212841034,-10.278419495,-3.792160034,0.010704346,0.062042724,0.944689631
63.587064,-2.946361542,-38.011268616,0.785476685,-0.022376709,0.070831791,0.946276546
63.625371,-4.838451385,-73.106483459,8.880264282,-0.039344482,0.049957763,0.951891780
63.663691,-4.334911346,-88.662818909,17.074234009,0.030479737,0.080719486,1.048083186
63.678018,-0.871166229,-78.332618713,15.243179321,0.083458252,0.088287845,1.083605647
63.693379,1.135364532,-69.368080139,13.564712524,0.092735596,0.088287845,1.094469905
63.731691,6.628528595,-17.839149475,6.194717407,0.125694573,0.022614013,1.043566585
63.770033,4.278675079,33.598228455,1.769668579,0.115074463,0.036163818,1.019518733
63.784335,4.179492950,43.829246521,0.617630005,0.139976799,0.032867920,1.027697444
63.799689,3.500476837,64.802452087,-3.036849976,0.161217034,0.024200927,1.029284358
63.854190,1.120105743,90.040489197,-13.794296265,0.106529541,-0.029754151,0.987536311
63.892586,-4.113658905,48.574729919,-5.653732300,0.004478760,0.000031006,0.953966975
63.906886,-4.022106171,15.051170349,-1.098983765,0.001427002,-0.014861573,0.960802913
63.922216,-4.022106171,-2.031044006,0.854141235,0.002891846,-0.012420166,0.956286311
63.960519,-1.794322968,-44.503883362,5.996353149,0.058311768,-0.003509033,0.947741389
63.998857,-5.998119354,-51.027015686,2.189285278,0.075035401,-0.049895752,0.939928889
64.013149,-7.356151581,-50.828651428,1.525527954,0.064171143,-0.038787354,0.953356624
64.028481,-7.096752167,-50.203041077,1.479751587,0.038658448,-0.011687744,0.978869319
64.066782,-5.296215057,-54.689125061,3.463394165,-0.026771240,-0.015227783,0.935290217
64.105104,-8.737071991,-52.140907288,12.191421509,0.009483643,0.001739990,0.968249202
64.119407,-7.821544647,-45.892433167,11.275894165,0.040489502,0.018707763,0.981676936
64.134764,-5.448802948,-28.009132385,7.133132935,0.063438721,0.017487060,0.965807796
64.173076,-8.157238007,4.942222595,3.066665649,0.076988526,-0.019622315,0.978014827
64.211364,-4.640087128,39.106651306,-1.648300171,0.091759034,0.020294677,1.035509944
64.225656,-1.077159882,49.116416931,-3.471725464,0.074180909,0.007111084,1.013659358
64.241000,-1.275524139,51.206871033,-3.670089722,0.067589112,-0.014983643,0.996935725
64.279297,-4.182323456,47.308250427,-2.609603882,0.051597901,0.007599365,1.002428889
64.317615,-2.206310272,30.523582458,-0.160568237,0.057091065,-0.012664307,1.012682796
64.331912,-2.480968475,25.305076599,0.220901489,0.058677979,-0.009368408,1.026842952
64.347249,-1.122936249,14.745994568,1.365310669,0.067955323,-0.011321533,1.054430842
64.385541,1.921192169,-6.211952209,2.868301392,0.073448487,-0.004607666,1.081530452
64.423854,2.905384064,-19.746498108,2.692825317,0.039024659,-0.031951416,1.086291194
64.438144,3.752246857,-22.882179260,3.257400513,0.033775635,-0.022307862,1.090563655
64.453476,5.812183380,-28.619483948,4.874832153,0.024132080,-0.009368408,1.085802913
64.491770,8.772388458,-30.862525940,6.942398071,0.033775635,-0.031218994,1.032580256
64.530082,3.225818634,-15.046791077,6.362564087,0.071129151,-0.008758057,1.018786311
64.544371,4.408374786,-1.596168518,4.180557251,0.086876221,0.004425537,1.036120296
64.571046,5.751148224,8.856101990,1.021987915,0.068687744,-0.025969971,1.020251155
64.609452,3.386035919,9.535118103,3.745681763,0.027183838,-0.057464112,0.945177913
64.647758,-4.083141327,-0.001625061,8.071548462,0.032310791,-0.040984619,0.982043147
64.662046,-2.809032440,-2.992347717,11.169082642,0.058189698,-0.029998291,1.022692561
64.689043,-0.649913788,0.669761658,11.474258423,0.102135010,-0.027556885,1.036486506
64.727434,1.165882111,18.995567322,3.852493286,0.145592034,-0.094451413,1.014757991
64.765746,1.616016388,25.617881775,0.747329712,0.096397705,-0.072844967,0.993273616
64.780053,1.707569122,23.557945251,0.983840942,0.088585205,-0.076385006,0.977770686
64.795394,-0.009044647,15.333457947,1.243240356,0.060509034,-0.081634030,0.971056819
64.833692,0.189319611,-5.746559143,5.973464966,0.067344971,-0.031341065,0.955798030
64.872004,-0.749095917,-8.722023010,5.370742798,0.070030518,-0.026336182,0.931506038
64.886299,-0.970348358,-8.050636292,5.363113403,0.072960205,-0.033904541,0.936999202
64.901634,-1.000865936,-6.395057678,4.676467896,0.069420166,-0.053069580,0.942980647
64.939929,-1.985057831,-7.402137756,4.348403931,0.021690674,-0.048064698,0.913317561
64.978252,-5.647167206,-9.256080627,10.879165649,0.033775635,-0.032927979,0.946764827
64.992551,-4.800304413,-4.106239319,10.657913208,0.074180909,-0.034636963,0.973498225
65.007895,-4.182323456,0.288291931,8.903152466,0.083336182,-0.039519776,0.977526546
65.046217,-5.113109589,11.678977966,6.835586548,0.039024659,-0.044646729,0.963244319
65.084508,-3.861888885,5.712791443,12.336380005,0.008140869,-0.041350830,0.956408381
65.098831,-4.754528046,1.028343201,15.266067505,-0.003089599,-0.071135983,0.948717952
65.114190,-6.280406952,-1.405433655,17.470962524,-0.008338623,-0.068084225,0.952257991
65.152473,-5.494579315,-3.053382874,22.918350220,0.058433838,-0.033660401,1.061266780
65.190773,1.234546661,4.415794373,20.125991821,0.034141846,-0.051726807,1.020495296
65.205082,0.677600861,4.896446228,20.713455200,0.021568604,-0.067229733,1.009631038
65.220423,-1.534923553,2.851768494,23.307449341,-0.005408935,-0.055144776,1.025256038
65.258721,3.569141388,-3.556922913,32.516128540,0.005333252,-0.048430908,1.051623225
65.297048,5.018726349,2.805992126,32.630569458,0.051597901,-0.096770748,1.027331233
65.311348,3.668323517,7.658287048,31.791336060,0.057335205,-0.118133053,1.005480647
65.326691,2.592578888,9.336753845,31.928665161,0.053917237,-0.119475827,1.001086116
65.365034,-1.451000214,16.310020447,33.179885864,0.080040284,-0.105315670,1.033312678
65.415133,1.554981232,16.294761658,28.594619751,0.034874268,-0.082732663,1.003771663
65.429465,-0.825389862,8.756919861,30.624038696,0.027305909,-0.107512936,1.010851741
65.444813,-1.718029022,4.637046814,31.768447876,0.032310791,-0.106780514,1.031115413
65.483116,2.867237091,-7.646278381,28.869277954,0.048668213,-0.037078369,1.064928889
65.521425,5.781665802,-10.125831604,30.158645630,0.008995362,-0.091277584,0.967028499
65.535714,4.110828400,-10.041908264,30.730850220,0.010338135,-0.096648678,0.946032405
65.551045,-0.337108612,-8.737281799,29.899246216,0.017296143,-0.103972897,0.957384944
65.589350,5.812183380,-7.333473206,27.373916626,0.021812744,-0.036834229,1.070666194
65.627645,8.032337189,-14.680580139,30.204421997,-0.050452881,-0.030486573,0.924670100
65.641943,5.690113068,-16.923622131,32.622940063,-0.043616943,-0.039519776,0.921496272
65.657271,1.677051544,-18.335060120,35.949356079,-0.009559326,-0.039763916,0.969225764
65.695581,9.298816681,-5.342201233,34.820205688,0.039146729,-0.046233643,0.985949397
65.733859,4.782215118,7.704063416,33.622390747,0.028038330,-0.070525631,0.920885921
65.748149,2.050891876,11.366172791,34.629470825,0.046593018,-0.033172119,0.975085139
65.763480,3.859058380,13.029380798,33.523208618,0.058067627,-0.024260987,0.999255061
65.801812,6.063953400,15.524192810,32.622940063,0.036461182,-0.059295166,0.931139827
65.840098,-1.359447479,11.930747986,34.316665649,0.046104737,0.001007568,1.040514827
65.854412,5.461231232,7.803245544,35.789138794,0.032310791,0.031769287,1.042467952
65.869754,7.437244415,6.025596619,36.552078247,0.024620362,0.008942138,1.013537288
65.908067,0.868335724,3.469749451,40.397293091,0.042442627,-0.056609619,0.975817561
65.946334,3.592029572,-3.564552307,39.306289673,0.032188721,-0.014007080,1.081652522
65.960623,6.002918243,-6.364540100,40.671951294,0.020347901,-0.020843018,1.080187678
65.987923,6.376758575,-7.753089905,44.005996704,0.032066651,-0.031829346,1.056383967
66.026284,8.268848419,2.134605408,41.946060181,0.086387940,0.000885498,1.058092952
66.064582,6.933704376,7.955833435,36.353713989,0.064659424,0.012604248,1.059924006
66.078878,7.429615021,6.391807556,36.338455200,0.048546143,0.013702881,1.065417171
66.094224,8.810535431,-0.261024475,38.703567505,0.025841065,-0.007415283,1.041735530
66.132533,7.391468048,-8.264259338,41.656143188,0.076011963,0.016144287,1.024523616
66.170838,6.697193146,-1.985267639,40.122634888,0.112877198,0.007355224,1.015856624
66.185132,4.827991486,4.675193787,37.383682251,0.130333245,-0.014617432,1.045885921
66.200483,5.613819122,7.406517029,35.590774536,0.127281487,-0.007293213,1.051379085
66.238817,8.101001740,12.472434998,31.043655396,0.085289307,0.003448974,0.975329280
66.290335,1.860157013,-0.985816956,30.067092896,0.041954346,0.032867920,0.997790217
66.304669,6.163135529,-10.759071350,30.692703247,0.009727784,0.053131592,0.994494319
66.320038,6.941333771,-16.275123596,31.936294556,-0.016883545,0.034332763,0.959704280
66.358359,0.113025665,-29.397682190,41.686660767,0.007652588,0.041168701,1.008654475
66.396649,8.047595978,-12.857154846,37.856704712,0.059898682,0.048370849,1.021471858
66.410952,7.711902618,1.127525330,35.606033325,0.051597901,0.025299560,0.986315608
66.426283,6.132617950,8.627220154,35.598403931,0.053428955,0.033966552,0.989001155
66.464612,7.742420197,32.354637146,32.065994263,0.098839112,0.054352295,0.994494319
66.502895,7.376209259,44.882102966,29.075271606,0.071983643,0.011261474,0.913439631
66.517194,4.049793243,45.057579041,29.014236450,0.063560791,0.002228271,0.907946467
66.532546,0.029102325,41.975303650,29.723770142,0.058311768,0.020416748,0.940539241
66.570874,3.530994415,22.024436951,29.914505005,0.018150635,0.025543701,0.925158381
66.609159,-0.298961639,-1.039222717,34.156448364,0.003502198,0.011017334,0.919054866
66.623447,-1.924022675,-12.651161194,36.162979126,0.005455323,0.005280029,0.955798030
66.638786,-1.718029022,-17.450050354,37.368423462,-0.000648193,-0.005340088,0.968005061
66.677107,-2.023204803,-33.151344299,38.566238403,-0.022864990,-0.005462158,1.026232600
66.715426,3.714099884,-40.742591858,45.852310181,-0.013709716,0.048248779,1.022326350
66.729727,6.262317657,-31.655982971,47.439224243,0.038902588,0.005157959,1.008776546
66.745082,6.643787384,-22.142127991,46.630508423,0.075889893,-0.031218994,1.003649592
66.783413,1.699939728,25.106712341,31.852371216,0.140709221,-0.040740479,1.025133967
66.821700,4.644886017,37.039085388,27.381546021,0.026939698,0.006500732,1.055407405
66.836012,6.552234650,33.613487244,28.442031860,0.008995362,0.003082763,1.046130061
66.851369,8.375659943,22.726341248,32.394058228,-0.003455810,-0.029632080,0.984484553
66.889675,1.211658478,2.104087830,35.499221802,0.036217041,-0.039763916,0.963488460
66.927967,2.073780060,-2.862648010,32.127029419,0.055137940,0.029938232,1.009753108
66.942256,4.156604767,-2.710060120,30.852920532,0.049644776,0.042145263,1.007311702
66.957598,5.720630646,-4.769996643,28.808242798,0.019493409,0.026154052,0.968249202
66.995901,3.263965607,-11.201576233,33.164627075,0.000694580,0.011749756,0.950793147
67.034209,1.692310333,-4.617408752,30.219680786,0.064659424,-0.010344971,0.988390803
67.048499,1.753345490,3.301902771,26.839859009,0.055015869,0.015656006,0.990099788
67.063846,1.883045197,6.284996033,26.458389282,0.048302002,0.022614013,0.991564631
67.102152,0.364795685,15.676780701,25.901443481,0.044517823,0.033112060,0.984484553
67.153922,2.531543732,22.375389099,24.024612427,0.051842041,0.048614990,1.050524592
67.168252,5.438343048,22.131248474,23.627883911,0.043785401,0.030792724,1.042101741
67.183633,5.568042755,21.040245056,23.711807251,0.031334229,0.018707763,1.030505061
67.221929,3.744617462,11.999412537,25.474197388,0.045372315,0.019684326,1.047106624
67.260224,7.780567169,6.521507263,22.742874146,0.053917237,0.084381595,1.089953303
67.274502,9.695545197,5.041404724,22.666580200,0.048302002,0.090363041,1.089587092
67.289846,13.464466095,2.363487244,23.948318481,0.045738526,0.091461673,1.068957210
67.341877,13.121143341,1.493736267,18.630630493,0.083824463,0.055939209,1.022692561
67.380234,10.763660431,-17.381385803,22.964126587,-0.007484131,0.091217533,0.961901546
67.394534,9.863391876,-21.470741272,25.077468872,-0.002601318,0.095123783,0.956774592
67.409873,9.108081818,-24.148658752,24.963027954,0.039757080,0.109283939,0.951281428
67.448179,7.162586212,-20.456031799,17.333633423,0.014488526,0.119781986,0.920763850
67.486473,6.033435822,-24.125770569,19.645339966,0.007408448,0.115875736,0.930285335
67.500773,6.346240997,-23.935035706,20.530349731,0.017784424,0.113922611,0.916003108
67.516113,2.516284943,-18.846229553,19.622451782,0.055504151,0.100494877,0.885485530
67.554435,-3.449901581,-5.891517639,13.663894653,0.070274659,0.112701908,0.925402522
67.592703,-3.297313690,-1.123146057,11.901504517,0.029625244,0.116241947,0.914904475
67.607014,-5.593761444,-0.924781799,11.626846313,-0.002479248,0.086578861,0.897082210
67.622359,-7.592662811,-1.542762756,12.778884888,-0.002967529,0.094635502,0.910998225
67.660657,-8.538707733,0.273033142,13.282424927,0.028892823,0.144440189,0.970324397
67.698923,-3.411754608,10.519309998,8.475906372,0.063072510,0.124542728,0.977892756
67.713223,-4.891857147,10.694786072,6.705886841,0.049156494,0.107819095,0.987780452
67.728571,-5.052074432,9.756370544,7.384902954,0.045128174,0.114166752,0.998644710
67.766876,-1.748546600,6.117149353,7.995254517,0.058922119,0.154938236,0.984484553
67.805148,-3.678783417,8.428855896,5.302078247,0.071983643,0.118439212,1.000353694
67.819450,-3.198131561,8.390708923,4.630691528,0.064781494,0.113922611,1.013415217
67.834779,-3.915294647,7.246299744,3.127700806,0.032188721,0.155304447,1.015490413
67.873074,2.134815216,1.173301697,9.246475220,0.006676026,0.155060306,0.969836116
67.911340,-3.129467010,-2.687171936,13.656265259,0.049278565,0.115143314,1.011095881
67.925646,-0.184520721,-1.634315491,10.291702271,0.069298096,0.135529056,1.042590022
67.940995,1.379505157,-0.795082092,8.079177856,0.053306885,0.130646244,1.044665217
67.979279,7.093921661,4.576011658,12.588150024,0.059044190,0.110748783,1.051867366
68.017553,3.416553497,19.735618591,1.800186157,0.101402588,0.037994873,0.991320491
68.031865,2.844348907,14.761253357,-0.641220093,0.016441651,0.062286865,0.996935725
68.047206,3.775135040,7.665916443,3.837234497,-0.023597412,0.053741943,0.994128108
68.099391,0.097766876,-14.810279846,10.436660767,0.040977784,0.022614013,1.023791194
68.137762,4.896656036,-25.170997620,9.002334595,0.031334229,0.054718506,1.036242366
68.152072,6.948963165,-27.894691467,10.100967407,0.053551026,0.032867920,0.990099788
68.167420,6.170764923,-27.848915100,9.986526489,0.042320557,0.012360107,0.949450374
68.205740,1.272693634,-18.998817444,6.965286255,0.064171143,-0.016814698,0.968737483
68.244048,1.608386993,-17.274574280,4.417068481,0.001427002,0.037994873,0.969958186
68.258344,2.722278595,-18.724159241,6.492263794,-0.006873779,0.051544677,0.976427913
68.273683,4.889026642,-20.547584534,8.590347290,0.017174073,0.034088623,0.954089046
68.312009,3.363147736,-11.254981995,6.675369263,0.060142823,-0.025725830,0.928820491
68.350303,-5.753978729,-6.578163147,11.039382935,0.003990479,0.068268314,0.882555842
68.364614,-6.295665741,-4.350379944,12.481338501,0.025352784,0.081818119,0.903307796
68.379985,-5.227550507,5.773826599,11.428482056,0.064049073,0.108917728,0.891711116
68.418291,-7.775768280,28.318687439,4.699356079,0.140220940,0.069366947,0.910265803
68.456606,-10.552867889,55.097862244,-4.295700073,0.142418206,0.076447025,0.978991389
68.470912,-8.424266815,57.821556091,-5.516403198,0.087120362,0.067169681,0.954577327
68.486275,-9.080394745,55.906578064,-4.768722534,0.094932862,0.065338627,0.947497249
68.539777,-12.330516815,20.086570740,-0.900619507,0.095421143,0.028229248,1.008410335
68.578210,-14.893993378,-2.633766174,-4.310958862,0.077965088,0.037140381,1.058703303
68.592506,-13.772472382,-10.286048889,-3.334396362,0.057213135,0.082184330,1.071276546
68.607870,-9.789928436,-23.362831116,-0.656478882,0.036339112,0.126007572,1.083361506
68.661712,-10.201915741,-26.948646545,1.662857056,0.080040284,-0.154021725,0.939074397
68.700069,-17.930492401,-0.978187561,-8.285873413,0.145469964,-0.019378174,1.224596858
68.714368,-10.255321503,0.868125916,-11.726730347,0.111046143,0.018463623,1.276232600
68.729724,4.240528107,-8.104042053,-9.956710815,0.020347901,0.004669677,1.220568538
68.768066,6.330982208,-31.427101135,2.105361938,0.016807862,-0.085540280,1.060534358
68.806374,5.575672150,-25.636390686,-0.336044312,0.074180909,-0.086150631,1.004137874
68.820666,4.393115997,-18.357948303,-3.540390015,0.046470948,-0.085906491,0.952502131
68.836035,1.959339142,-15.557960510,-3.013961792,0.032066651,-0.097259030,0.940905452
68.874357,-1.603588104,-6.578163147,-0.519149780,0.038536377,-0.075774655,0.958727717
68.928333,-6.967052460,3.912254333,1.334793091,0.023277588,-0.056243408,0.931261897
68.942658,-8.363231659,5.720420837,1.525527954,0.026451416,-0.037932862,0.937487483
68.958003,-8.714183807,9.794517517,3.013259888,0.043419190,-0.000091065,0.969347835
68.996302,-2.770885468,22.657676697,3.181106567,0.098106690,-0.019378174,1.004626155
69.034620,-1.832469940,38.000389099,-2.441757202,0.129112542,-0.051360596,0.968615413
69.048926,-5.227550507,43.867393494,-4.059188843,0.106529541,-0.049163330,0.968249202
69.064262,-5.807384491,45.126243591,-3.754013062,0.106285401,-0.051360596,0.984972835
69.102566,-0.894054413,38.069053650,-4.692428589,0.085899659,-0.053313721,1.047961116
69.140853,-0.184520721,7.772727966,0.724441528,0.008629151,-0.056731690,0.970324397
69.155129,-1.519664764,-6.814674377,3.966934204,0.026573487,-0.069549069,0.995348811
69.170461,-0.939830780,-11.247352600,3.883010864,0.031456299,-0.082122311,1.009386897
69.208778,-0.077709198,-27.711585999,5.591995239,-0.006019287,-0.085784420,1.031359553
69.247058,0.219837189,-39.590553284,12.145645142,-0.005897216,-0.057219971,1.089465022
69.261358,2.951160431,-38.217262268,14.197952271,0.016319580,-0.060149658,1.107897639
69.276684,7.818714142,-26.628211975,14.228469849,0.082969971,-0.081145748,1.099352717
69.315043,8.528247833,15.486045837,1.998550415,0.114464112,-0.130950436,0.999621272
69.353323,0.769153595,27.815147400,-1.297348022,0.051719971,-0.149383053,0.984484553
69.367632,-0.344738007,23.580833435,1.395828247,0.011680909,-0.100554928,1.017321467
69.382978,1.089588165,18.278404236,2.723342896,0.002647705,-0.082488522,1.020739436
69.421284,4.896656036,-3.900245667,9.315139771,0.031822510,-0.078093991,0.947619319
69.459558,-1.245006561,-1.962379456,2.936965942,0.056968994,-0.073821530,0.920397639
69.473854,-1.954540253,-1.641944885,1.906997681,0.020714112,-0.076262936,0.947863460
69.489171,-1.969799042,-3.274635315,2.700454712,0.010948487,-0.081267819,0.956408381
69.527481,-3.816112518,-10.812477112,7.026321411,0.013145752,-0.070403561,0.959704280
69.565769,-4.197582245,-0.718788147,2.982742310,0.078819580,-0.031341065,1.017199397
69.580066,-2.725109100,2.752586365,1.433975220,0.080406494,-0.030852783,1.014880061
69.595392,-2.480968475,6.140037537,-0.992172241,0.068077393,-0.059295166,1.004259944
69.633702,-4.014476776,4.881187439,-1.434677124,0.062095948,-0.021453369,1.043688655
69.671996,1.616016388,3.233238220,-3.647201538,0.061119385,-0.005462158,1.019762874
69.686283,1.173511505,2.485557556,-3.738754272,0.065025635,-0.019622315,1.009386897
69.717615,-0.649913788,0.608726501,-5.638473511,0.051597901,-0.016692627,0.993029475
69.756055,-0.382884979,-4.296974182,-6.859176636,0.003746338,0.013214599,1.012804866
69.794344,-0.123485565,-11.918739319,-2.037399292,0.007408448,-0.008025635,1.008410335
69.808647,-0.024303436,-11.392311096,-2.189987183,0.018516846,-0.010711182,1.014880061
69.824010,0.853076935,-7.768348694,-3.975265503,0.028526612,-0.021209229,1.012682796
69.862318,0.280872345,2.958580017,-6.554000854,0.026817627,-0.018889893,1.004137874
69.900630,-0.764354706,10.282798767,-7.248275757,0.032066651,-0.018279541,1.017199397
69.914931,-0.588878632,10.931297302,-7.797592163,0.038048096,-0.014373291,1.027209163
69.930275,1.028553009,10.206504822,-7.233016968,0.040001221,-0.000457276,1.039049983
69.980148,3.584400177,6.582542419,-10.109298706,0.043907471,-0.058196533,0.970202327
70.018502,0.135913849,-3.709510803,-10.765426636,-0.031165771,-0.017058838,0.959582210
70.032830,-0.779613495,-17.015174866,-6.462448120,-0.076942138,0.004791748,0.978014827
70.048191,-0.710948944,-24.614051819,-2.571456909,-0.086585693,0.016388427,0.982043147
70.086489,2.005115509,-39.758399963,7.545120239,-0.014075927,-0.005340088,0.983141780
70.124787,-3.892406464,-15.245155334,2.021438599,0.055992432,-0.076995358,0.944079280
70.139092,-6.021007538,-4.525856018,-0.488632202,0.028282471,-0.065520748,0.972155452
70.154421,-6.753429413,-2.664283752,0.640518188,0.003380127,-0.035369385,0.984484553
70.192724,-7.173046112,4.957481384,6.072647095,0.054161377,0.048859131,1.096300960
70.231033,6.681934357,39.488121033,2.502090454,0.160484612,0.053131592,1.073962092
70.245337,8.535877228,53.022666931,-0.831954956,0.183311760,0.098785892,1.037463069
70.260672,11.709705353,79.901023865,-16.876571655,0.185142815,0.062897220,0.971667171
70.299009,1.135364532,81.999107361,-19.615524292,0.001915284,0.001129638,0.939318538
70.337293,0.334278107,40.731712341,-11.680953979,-0.085364990,0.000153076,0.935290217
70.351616,-1.275524139,-0.810340881,-4.707687378,-0.114295654,-0.034026612,0.974474788
70.366976,-2.984508514,-24.064735413,1.006729126,-0.137489021,-0.039275635,0.993517756
70.405276,4.934803009,-83.192543030,22.262222290,0.044395752,0.110992923,1.120715022
70.443548,4.629627228,-68.330482483,10.329849243,0.091514893,-0.056975830,0.938219905
70.457857,1.127735138,-47.166542053,12.282974243,0.124473877,0.075714603,1.013049006
70.473195,4.339710236,-33.738807678,10.841018677,0.154869378,0.095734134,1.012926936
70.523305,1.814380646,32.347007751,-6.561630249,0.156578362,0.010284912,1.028307796
70.561685,7.162586212,55.342002869,-11.719100952,0.136192620,0.026276123,1.048571467
70.576011,8.558765411,57.218833923,-12.436264038,0.130333245,-0.000091065,1.031847835
70.591372,4.942432404,55.479331970,-14.625900269,0.110435791,0.056793701,1.026965022
70.629710,10.771289825,20.719810486,-17.532699585,-0.014808349,0.076935306,1.015124202
70.668047,7.727161407,-40.155128479,-2.251022339,-0.087928466,-0.004363526,0.962145686
70.682345,5.598560333,-54.193214417,0.510818481,-0.089637451,0.002472412,0.963610530
70.697694,2.020374298,-78.660682678,7.644302368,-0.099281006,0.020050537,0.980212092
70.736060,6.155506134,-99.397377014,18.409378052,-0.032020263,0.068756595,1.040026546
70.774372,6.804004669,-77.851966858,18.027908325,0.056846924,-0.032927979,0.991686702
70.788676,0.563159943,-46.029762268,13.518936157,0.103599854,-0.053191651,0.998034358
70.804041,-0.558361053,-27.154640198,10.039932251,0.125572503,-0.031096924,1.032946467
70.842371,7.986560822,38.427635193,-5.165451050,0.069420166,0.004425537,1.001940608
70.880671,3.477588654,54.037376404,-3.265731812,0.011192627,0.000275146,0.992663264
70.894970,6.224170685,51.954551697,-2.220504761,0.016685791,0.010773193,0.995715022
70.910328,7.460132599,49.948020935,-1.854293823,0.014854737,0.000641357,0.981799006
70.948683,5.003467560,33.399864197,2.067214966,0.003746338,-0.028899658,0.921618342
70.986992,0.235095978,5.750938416,5.942947388,-0.024451904,0.002472412,0.920641780
71.001284,-0.131114960,-2.771095276,8.552200317,-0.029578857,0.018463623,0.923937678
71.016612,-1.023754120,-16.351417542,10.383255005,-0.018714599,0.023224365,0.923815608
71.054934,-0.138744354,-25.331214905,11.191970825,0.024254151,0.040192138,0.946032405
71.093232,-0.611766815,-17.854408264,7.880813599,0.032677002,0.024445068,0.923815608
71.107523,-2.274974823,-9.065345764,6.446487427,0.039390869,0.034821045,0.932604671
71.122862,-2.320751190,-3.701881409,5.614883423,0.047569580,0.048492920,0.943590999
71.161184,-0.123485565,11.312767029,1.594192505,0.056846924,0.050323974,0.936632991
71.199464,-4.197582245,14.448448181,0.098831177,0.046470948,0.037750732,0.920153499
71.213754,-3.839000702,12.861534119,0.739700317,0.047203369,0.051544677,0.938708186
71.229105,-3.037914276,12.251182556,1.121170044,0.053551026,0.050568115,0.938586116
71.279459,-5.135997772,15.615745544,-2.296798706,0.098594971,-0.002044190,0.950060725
71.329751,-9.301647186,12.312217712,-4.639022827,0.072960205,0.057159912,1.012072444
71.344096,-6.234630585,8.444114685,-3.952377319,0.090660401,0.052032959,1.057482600
71.359458,-4.762157440,7.215782166,-4.494064331,0.105675049,0.051788818,1.058947444
71.397768,-2.816661835,2.691551208,-7.141464233,0.087486573,0.024567138,1.036852717
71.436064,-5.815013885,-0.329689026,-7.774703979,0.110313721,-0.062591061,0.968737483
71.450356,-9.294017792,-0.566200256,-9.216659546,0.103843994,-0.051970948,0.971423030
71.465709,-12.116893768,-3.472999573,-10.490768433,0.090050049,-0.025481690,1.010119319
71.504057,-8.103832245,-14.192298889,-10.315292358,0.051475830,0.032867920,1.050036311
71.542339,-3.526195526,-14.856056213,-8.156173706,0.083092041,0.009064209,1.015856624
71.556642,-3.373607635,-11.888221741,-9.651535034,0.090538330,-0.003264893,1.009020686
71.572009,-4.128917694,-4.693702698,-12.604110718,0.083702393,-0.015716065,0.987292171
71.610332,-7.096752167,1.646324158,-15.137069702,0.048912354,-0.011809815,0.976183772
71.648642,-9.965404510,-8.866981506,-10.200851440,-0.015540771,0.014679443,0.988268733
71.662940,-9.500011444,-16.359046936,-5.722396851,-0.004432373,0.047394287,1.025622249
71.678288,-8.195384979,-18.792823792,-4.349105835,0.010338135,0.048492920,1.041857600
71.716636,-2.458080292,-15.840248108,-3.761642456,0.050743409,0.018341552,1.045275569
71.754923,-0.497325897,1.028343201,-6.210678101,0.080650635,0.016266357,1.041369319
71.769216,-0.283702850,4.087730408,-6.027572632,0.074547119,0.005890381,1.032336116
71.784590,-0.947460175,8.917137146,-6.592147827,0.093956299,0.015778076,1.034655452
71.822910,1.997486115,14.540000916,-9.468429565,0.091026612,0.025543701,1.058703303
71.861224,3.599658966,8.314414978,-8.751266479,0.075401612,0.012482177,1.048083186
71.875511,3.492847443,6.086631775,-7.751815796,0.081260987,0.006622802,1.059679866
71.890879,4.980579376,2.287193298,-8.400314331,0.097984619,-0.000335205,1.069079280
71.929209,4.904285431,-2.320960999,-11.558883667,0.068809815,0.001373779,1.061388850
71.967493,4.538074493,-8.897499084,-11.970870972,0.028526612,0.032379638,1.064684749
71.981819,7.185474396,-16.839698792,-9.155624390,0.000694580,0.043365967,1.078234553
71.997189,8.940235138,-20.806983948,-6.584518433,-0.006385498,0.029449951,1.074572444
72.035508,9.039417267,-25.209144592,-2.693527222,0.019615479,-0.038299073,1.003649592
72.073833,3.675952911,-17.656044006,-1.839035034,0.016563721,-0.045012940,0.960192561
72.088131,0.456348419,-14.253334045,-1.205795288,0.009239502,-0.021453369,0.970812678
72.116715,0.509754181,-12.345985413,0.304824829,-0.006629638,0.013336670,0.988757014
72.155135,4.827991486,-2.587989807,2.982742310,0.052574463,0.027740967,0.951525569
72.193455,2.920642853,16.264244080,-2.609603882,0.097984619,-0.007659424,0.928210139
72.207748,2.417102814,23.977561951,-4.028671265,0.092735596,-0.016570557,0.922472835
72.223097,1.509204865,26.266380310,-4.753463745,0.091026612,-0.020476807,0.911364436
72.261458,-5.006298065,24.511619568,-5.485885620,0.073082276,-0.003264893,0.933337092
72.299771,-2.854808807,9.397789001,-5.600326538,0.067589112,0.043610107,0.968615413
72.314067,-1.573070526,4.911705017,-5.249374390,0.067467041,0.039093506,0.966662288
72.329394,-1.954540253,-3.717140198,-4.501693726,0.074913330,0.027130615,0.962756038
72.367708,-1.870616913,-9.309486389,-6.683700562,0.102012940,0.027252685,0.963122249
72.405998,-2.099498749,-8.310035706,-10.345809937,0.051231690,0.023468506,0.963976741
72.420299,-2.236827850,-10.064796448,-10.071151733,0.035972901,0.019806396,0.969103694
72.435634,-1.847728729,-15.313819885,-8.140914917,0.018760987,0.020660888,0.976672053
72.473949,-2.480968475,-20.982460022,-5.287521362,0.026085205,0.012970459,0.987658381
72.512229,0.135913849,-14.306739807,-5.447738647,0.065025635,0.012848388,1.012560725
72.526518,0.212207794,-5.822853088,-6.889694214,0.073082276,-0.008269776,1.008776546
72.541828,-1.161083221,-1.306251526,-7.431381226,0.078819580,-0.012664307,1.009997249
72.593794,3.393665314,11.946006775,-8.690231323,0.105675049,0.045319092,1.096545100
72.632157,7.223621368,24.496360779,-11.047714233,0.143883049,-0.024383057,0.996081233
72.646471,4.133716583,30.386253357,-13.046615601,0.150963128,-0.074309811,0.961779475
72.661815,1.554981232,32.156272888,-14.557235718,0.144615471,-0.092620358,0.942980647
72.700142,-7.752880096,22.962852478,-17.952316284,0.088829346,-0.022796143,0.962633967
72.738441,-5.273326874,-6.845191956,-10.788314819,0.053428955,-0.000579346,0.970202327
72.752741,-4.937633514,-11.850074768,-8.911483765,0.059654541,-0.014007080,0.968493342
72.768084,-5.021556854,-16.252235413,-6.950729370,0.088951416,-0.031951416,0.969347835
72.806415,-4.701122284,-12.643531799,-9.918563843,0.086021729,-0.016814698,0.969714046
72.844701,-5.616649628,-8.615211487,-9.849899292,0.066002198,0.009064209,0.956530452
72.858998,-5.959972382,-7.371620178,-9.514205933,0.066002198,0.012726318,0.966051936
72.874311,-5.258068085,-3.610328674,-9.224288940,0.080040284,0.015656006,0.981554866
72.912646,-3.839000702,1.646324158,-10.498397827,0.086998291,0.041290771,1.000475764
72.964599,0.975147247,-5.525306702,-7.461898804,0.052086182,0.041412842,0.978747249
72.978931,0.959888458,-7.157997131,-6.889694214,0.058067627,0.045563232,0.984484553
72.994266,1.814380646,-7.867530823,-7.881515503,0.058555909,0.050934326,0.978747249
73.032569,1.913562775,-13.719276428,-5.592697144,0.016929932,0.031281006,0.943346858
73.070860,-1.618846893,-14.932350159,-2.624862671,0.052452393,0.013580810,0.951037288
73.085154,-4.319652557,-13.749794006,-3.898971558,0.036339112,0.032135498,0.983630061
73.100487,-3.907665253,-13.574317932,-2.853744507,0.027672119,0.049713623,0.998156428
73.138834,-2.404674530,-14.741615295,0.350601196,0.021812744,0.036041748,1.033312678
73.177119,-1.656993866,-12.124732971,4.340774536,0.035362549,0.043121826,1.088732600
73.191422,0.929370880,-8.935646057,4.027969360,0.032677002,0.041290771,1.110705256
73.206745,2.089038849,-6.684974670,4.974014282,0.031334229,0.036285888,1.111193538
73.245065,6.285205841,9.222312927,6.194717407,0.091514893,-0.018279541,1.113268733
73.283328,8.070484161,19.911094666,3.043777466,0.067955323,-0.077849850,1.031237483
73.297634,6.453052521,19.796653748,4.035598755,0.053917237,-0.085906491,1.014025569
73.312979,2.874866486,16.096397400,6.446487427,0.046593018,-0.083220944,1.004626155
73.351279,3.042713165,2.538963318,8.903152466,0.051109619,-0.023772705,0.996325374
73.389546,3.134265900,-10.003761292,13.183242798,0.041832276,0.017731201,0.957995296
73.403858,2.714649200,-12.826637268,14.793045044,0.073692627,-0.010833252,0.953112483
73.419195,2.409473419,-11.430458069,14.617568970,0.097984619,-0.016326416,0.952380061
73.457511,1.150623322,-0.154212952,7.217056274,0.105919190,-0.030364502,0.936022639
73.495820,-2.480968475,-0.558570862,6.705886841,0.067222901,-0.035125244,0.909289241
73.510121,-3.861888885,-4.815773010,7.239944458,0.054771729,-0.025969971,0.923937678
73.525454,-4.640087128,-6.646827698,7.888442993,0.055137940,-0.029143799,0.929186702
73.563761,-4.579051971,-6.128028870,7.644302368,0.074547119,0.001862060,0.966051936
73.602042,-2.023204803,-1.352027893,4.630691528,0.051109619,0.007233154,0.959215999
73.616330,-2.267345428,-1.710609436,5.263931274,0.042686768,0.007111084,0.959215999
73.631636,-1.504405975,-3.511146545,6.751663208,0.035484619,0.018219482,0.965441585
73.669943,-0.077709198,-6.395057678,8.781082153,0.034630127,0.000641357,0.957507014
73.708222,-1.557811737,-5.098060608,9.742385864,0.033531494,0.024322998,0.964220881
73.722505,-1.267894745,-3.991798401,10.154373169,0.037437744,0.024200927,0.968859553
73.751711,-3.137096405,3.637596130,11.359817505,0.064293213,0.014801513,0.991808772
73.790116,-1.504405975,17.729087830,8.803970337,0.099815674,-0.001189698,1.045397639
73.828434,-1.985057831,25.877281189,7.384902954,0.115074463,-0.034392823,1.078722835
73.842730,-1.809581757,26.685997009,6.522781372,0.120689698,-0.021575440,1.095812678
73.858087,0.647083282,25.953575134,4.424697876,0.112022705,0.008209717,1.116442561
73.896422,7.940784454,18.575950623,6.698257446,0.095543213,-0.003264893,1.091296077
73.950181,7.246509552,5.209251404,5.218154907,0.111900635,-0.074553952,0.990588069
73.964509,5.461231232,2.142234802,4.134780884,0.109093018,-0.083098873,0.970934749
73.979842,-1.870616913,-7.325843811,3.059036255,0.071617432,-0.090545163,0.972521663
74.018156,-2.892955780,-29.718116760,9.711868286,0.037193604,-0.006560791,1.036486506
74.056445,3.263965607,-25.827125549,11.031753540,0.111168213,0.011505615,1.008288264
74.070749,3.530994415,-19.296363831,9.612686157,0.122032471,-0.007415283,0.994616389
74.086104,2.600208282,-3.877357483,5.492813110,0.132042229,-0.024871338,0.969591975
74.124435,2.028003693,13.799949646,2.593643188,0.101158448,-0.012420166,0.936022639
74.162714,-0.787242889,21.116539001,1.098281860,0.109947510,-0.033294190,0.909777522
74.177025,-4.563793182,20.231529236,-0.351303101,0.096275635,-0.026824463,0.904772639
74.192385,-6.463512421,18.392845154,0.281936646,0.091881104,-0.009734619,0.918200374
74.230686,-5.357250214,4.049583435,1.777297974,0.082359619,0.029327881,0.973132014
74.268980,-2.473339081,-10.308937073,4.706985474,0.086754151,0.018707763,0.985216975
74.283267,-2.076610565,-11.506752014,4.745132446,0.090904541,0.025543701,0.988146663
74.298630,-0.787242889,-11.262611389,4.516250610,0.095787354,0.018951904,0.991198421
74.336941,-0.154003143,-2.076820374,2.357131958,0.111290284,0.009674560,1.000719905
74.375227,1.226917267,2.210899353,0.693923950,0.080772705,0.043243896,1.012072444
74.389519,1.783863068,0.517173767,1.189834595,0.075279541,0.043854248,1.014391780
74.404863,2.310291290,-3.404335022,2.692825317,0.068565674,0.040680420,1.021349788
74.443172,4.652515411,-4.014686584,4.470474243,0.075889893,0.037384521,1.032824397
74.481442,4.980579376,4.141136169,3.654129028,0.109459229,-0.005340088,1.020861506
74.495731,5.095020294,6.155296326,2.990371704,0.118980713,-0.026824463,1.020983577
74.511093,4.705921173,6.758018494,2.380020142,0.117393799,-0.046599854,1.018542171
74.564943,6.224170685,-1.634315491,3.020889282,0.089683838,-0.026824463,1.013537288
74.603314,5.018726349,-4.113868713,1.609451294,0.090294190,-0.025969971,1.030993342
74.617618,6.269947052,-3.953651428,1.845962524,0.080894776,-0.032317627,1.023669124
74.632947,7.475391388,-2.954200745,2.074844360,0.080772705,-0.061492432,0.984362483
74.671266,2.348438263,-2.824501038,1.350051880,0.065147705,-0.079925045,0.916369319
74.709542,-4.998668671,-17.327980042,5.866653442,-0.021522216,-0.018523682,0.910509944
74.723851,-4.922374725,-27.337745667,10.406143188,-0.008704834,0.006744873,0.935046077
74.739193,-4.548534393,-30.770973206,11.741287231,0.000572510,0.005646240,0.943468928
74.777508,-2.839550018,-25.636390686,11.901504517,0.063682862,-0.044524658,0.950549006
74.815832,-6.486400604,-2.343849182,9.109146118,0.083580323,-0.060882080,0.938219905
74.830118,-7.935985565,2.996726990,8.391983032,0.083824463,-0.055388916,0.944323421
74.845436,-10.537609100,10.755821228,7.743484497,0.093468018,-0.033538330,0.990221858
74.883759,-3.434642792,15.165611267,6.248123169,0.072471924,0.024567138,1.035876155
74.922055,-2.000316620,16.691490173,6.721145630,0.120079346,0.006744873,0.996813655
74.936354,-1.603588104,19.247337341,5.256301880,0.137901604,0.015656006,1.003649592
74.951687,1.089588165,26.006980896,0.754959106,0.158897698,0.007111084,1.000597835
74.990027,1.379505157,29.295249939,-6.348007202,0.117271729,-0.034026612,0.947008967
75.028322,-3.404125214,7.940574646,-4.135482788,0.056602784,0.012360107,0.970202327
75.042617,-1.512035370,-8.546546936,-2.563827515,0.037803955,0.022003662,0.975817561
75.057941,-1.077159882,-15.710548401,-1.625411987,0.024864502,0.018829834,0.963122249
75.096266,-5.845531464,-35.783485413,3.684646606,0.030113526,0.012360107,0.968981624
75.134550,-3.716930389,-35.241798401,4.211074829,0.047935791,0.035431396,1.037707210
75.148851,-2.633556366,-32.647804260,4.470474243,0.050377198,0.032501709,1.046252131
75.164193,-2.320751190,-24.583534241,5.263931274,0.061241455,0.006622802,1.056261897
75.202507,-1.061901093,3.507896423,3.043777466,0.102623291,-0.011443604,1.107531428
75.256540,6.399646759,35.200401306,-1.938217163,0.120933838,-0.007659424,1.095202327
75.270875,8.184925079,43.226524353,-2.838485718,0.137413323,-0.049163330,1.060168147
75.286230,7.200733185,45.957847595,-4.326217651,0.138389885,-0.061126221,1.049059749
75.324537,6.010547638,45.934959412,-3.593795776,0.152061760,-0.064666256,1.025988460
75.362843,0.860706329,19.186302185,-7.156723022,0.064781494,-0.090545163,0.968371272
75.394274,-4.327281952,-15.565589905,0.892288208,0.053428955,-0.046966065,0.987780452
75.408606,-3.373607635,-30.351356506,2.898818970,0.077598877,-0.003142823,1.040148616
75.446842,3.530994415,-37.942604065,2.578384399,0.111900635,0.008697998,1.039294124
75.485126,2.699390411,-30.809120178,0.205642700,0.101646729,-0.043303955,0.979113460
75.499432,1.738086700,-22.981361389,-2.670639038,0.103721924,-0.047210205,0.988146663
75.514789,2.142444611,-18.632606506,-4.425399780,0.096153565,-0.046233643,0.983874202
75.553115,0.395313263,-4.708961487,-7.591598511,0.045006104,-0.047454346,0.942370296
75.591412,0.120655060,-0.047401428,-3.998153687,0.033653565,-0.014861573,0.959826350
75.605686,1.188770294,0.753684998,-3.288619995,0.030113526,-0.012664307,0.961169124
75.621031,2.806201935,1.707359314,-2.220504761,0.030601807,-0.015593994,0.946520686
75.659336,1.921192169,-0.322059631,1.571304321,0.033043213,0.007111084,0.914172053
75.697638,-0.054821014,-3.282264709,3.608352661,0.026085205,0.007477295,0.898791194
75.711925,-1.412853241,-3.183082581,5.096084595,0.025352784,0.001007568,0.900622249
75.727250,-3.976329803,-1.748756409,7.201797485,0.055626221,0.016876709,0.933215022
75.765545,-3.190502167,1.081748962,5.324966431,0.080284424,0.026276123,0.980456233
75.803838,-5.296215057,0.799461365,8.300430298,0.074913330,0.013092529,1.045519710
75.818123,-1.862987518,2.638145447,8.407241821,0.097618409,0.029694092,1.106554866
75.833471,0.654712677,4.247947693,8.063919067,0.104698487,0.024811279,1.114367366
75.871771,4.339710236,11.946006775,5.996353149,0.113975830,-0.016692627,1.115465999
75.910053,8.619800568,13.914390564,5.797988892,0.098350830,0.006500732,1.105700374
75.924337,9.863391876,13.067527771,5.668289185,0.096641846,0.004913818,1.093981624
75.939674,10.191455841,9.702964783,6.049758911,0.082603760,-0.007415283,1.070910335
75.977983,10.748401642,0.982566833,9.643203735,0.096519776,-0.079802975,1.006701350
76.016262,3.065601349,-6.608680725,8.803970337,0.070152588,-0.072844967,0.956042171
76.030547,1.410022736,-9.652809143,9.589797974,0.060997315,-0.059295166,0.957507014
76.045883,-0.749095917,-15.069679260,10.497695923,0.045616455,-0.017669190,0.970446467
76.084218,1.341358185,-19.929603577,14.388687134,0.052818604,0.012970459,0.980456233
76.122495,4.614368439,-2.053932190,9.002334595,0.147545159,-0.003753174,0.979357600
76.136782,5.568042755,11.244102478,3.211624146,0.136436760,-0.031096924,0.941393733
76.152124,4.461780548,15.501304626,1.845962524,0.128990471,-0.046233643,0.917712092
76.201744,-3.396495819,14.784141541,-0.221603394,0.089561768,-0.021819580,0.953478694
76.240139,-0.329479218,-1.664833069,-0.328414917,0.076622315,0.001007568,0.964465022
76.254447,-0.787242889,-7.569984436,-0.091903687,0.069664307,-0.017425049,0.953722835
76.269782,-2.061351776,-9.050086975,0.503189087,0.069176026,-0.014495362,0.955675960
76.308105,-1.008495331,-6.875709534,-1.800888062,0.095299073,0.025909912,0.995837092
76.346411,1.028553009,-3.740028381,-3.860824585,0.044639893,0.033234131,0.961291194
76.360704,0.578418732,-3.999427795,-2.266281128,0.041588135,0.037140381,0.960192561
76.376033,0.288501740,-3.305152893,-1.205795288,0.056602784,0.042755615,0.964709163
76.414347,-0.749095917,1.638694763,-4.234664917,0.052574463,0.035675537,0.950549006
76.452641,-2.961620331,-1.985267639,-2.548568726,0.023155518,0.081818119,1.002550960
76.466937,-1.756175995,-4.014686584,-1.701705933,0.023765869,0.085846439,1.018175960
76.482259,0.486865997,-6.616310120,0.541336060,0.037803955,0.060211670,1.030749202
76.520559,0.357166290,0.349327087,1.014358521,0.096153565,0.005646240,1.047839046
76.558852,0.494495392,18.705650330,-4.158370972,0.149742424,0.032745849,1.102770686
76.585888,5.774036407,30.142112732,-6.759994507,0.160972893,-0.010955323,1.067248225
76.600217,4.759326935,31.996055603,-9.231918335,0.156456292,-0.011931885,1.051012874
76.638444,4.927173615,23.390098572,-8.591049194,0.113609619,-0.041717041,1.029162288
76.676727,0.517383575,-1.237586975,-9.086959839,0.078087159,-0.069304928,0.961413264
76.691021,-3.480419159,-13.040260315,-7.019393921,0.074180909,-0.063811764,0.955065608
76.706377,-5.212291718,-17.038063049,-7.271163940,0.079552002,-0.036468018,0.957873225
76.744694,-2.755626678,-26.185707092,-6.264083862,0.067711182,0.023590576,0.979723811
76.783008,-4.479869843,-21.959022522,-3.937118530,0.082237549,-0.017180908,0.952868342
76.797304,-4.685863495,-18.708900452,-4.524581909,0.088463135,-0.017791260,0.957751155
76.812661,-3.976329803,-11.026100159,-6.683700562,0.077720948,-0.008880127,0.953966975
76.850985,-6.272777557,1.196189880,-6.805770874,0.050010987,-0.016448487,0.929064631
76.889263,-6.204113007,5.148216248,-5.699508667,0.058922119,0.011383545,0.959093928
76.903537,-4.006847382,5.789085388,-5.714767456,0.064415284,0.029572021,0.968127131
76.918882,-2.427562714,5.743309021,-5.455368042,0.062706299,0.033966552,0.962511897
76.969220,-4.724010468,5.842491150,-4.768722534,0.094932862,-0.001311768,0.972765803
77.007576,-2.175792694,1.097007751,-4.387252808,0.060875244,0.031769287,0.980578303
77.021868,-1.420482635,-3.343299866,-1.663558960,0.050865479,0.014069092,0.988024592
77.037190,-1.588329315,-4.693702698,-0.221603394,0.060753174,0.008087646,0.993151546
77.075500,-0.115856171,-2.191261292,-2.014511108,0.080894776,0.032745849,1.021349788
77.113788,2.241626740,1.547142029,0.571853638,0.078941651,0.043365967,1.012926936
77.128080,2.859607697,2.409263611,1.517898560,0.092613526,0.041534912,1.013659358
77.143390,2.966419220,6.216331482,1.037246704,0.132774651,0.012115967,1.009020686
77.181692,-3.686412811,16.653343201,-4.494064331,0.145958245,-0.043181885,1.067736506
77.220018,1.738086700,2.516075134,-2.960556030,0.067833252,0.049103271,1.127428889
77.234301,4.995838165,-4.884437561,-0.793807983,0.061485596,0.040680420,1.115954280
77.249621,9.016529083,-15.916542053,0.785476685,0.052452393,0.021637451,1.066515803
77.287933,5.331531525,-22.943214417,4.386550903,0.093468018,-0.095916256,0.982775569
77.326230,1.448169708,-16.137794495,-1.884811401,0.078087159,-0.105071530,0.970080256
77.340523,-0.550731659,-16.496376038,-3.090255737,0.023399659,-0.075896725,0.953478694
77.355866,-2.046092987,-19.105628967,-1.678817749,-0.003333740,-0.057464112,0.950671077
77.394185,-2.564891815,-34.951881409,7.957107544,-0.007362060,-0.020965088,1.009386897
77.432454,2.523914337,-31.839088440,10.772354126,0.042930909,-0.036712158,0.983507991
77.446747,1.356616974,-19.830421448,10.795242310,0.072105713,-0.070769772,0.961901546
77.462088,0.402942657,-11.720375061,9.658462524,0.088707276,-0.082976803,0.958117366
77.500412,-2.603038788,14.707847595,4.066116333,0.060997315,-0.049041260,0.962756038
77.538703,-1.603588104,17.965599060,6.072647095,0.048668213,-0.029021729,0.961779475
77.553010,-1.679882050,17.896934509,6.576187134,0.053795166,-0.033294190,0.963366389
77.568368,-2.786144257,19.895835876,8.094436646,0.086754151,-0.036956299,0.975817561
77.606683,1.791492462,32.186790466,0.854141235,0.114952393,0.009674560,0.985216975
77.644988,1.554981232,33.132835388,-0.297897339,0.076500244,-0.016814698,0.926012874
77.659279,-1.603588104,27.403160095,0.983840942,0.065880127,0.003693115,0.937731624
