time,gyro x,gyro y,gyro z,accel x,accel y,accel z
18.856459,-0.019398315,0.061389159,0.954985499,5.377235413,-0.369644165,0.004524231
18.877106,-0.011097534,0.089465335,0.994536281,1.722755432,0.118637085,-0.209098816
18.877731,-0.011463745,0.088488773,0.996367335,1.509132385,0.522994995,0.080818176
18.878358,-0.011463745,0.090563968,0.995879054,1.272621155,0.095748901,-0.209098816
18.878983,-0.008778198,0.093615726,0.999907374,1.196327209,0.393295288,-0.186210632
18.879610,-0.010243041,0.095080569,0.997588038,0.677528381,0.484848022,-0.056510925
18.880236,-0.010365112,0.092883304,0.993071437,0.524940491,0.332260132,-0.300651550
18.880862,-0.010853393,0.088244632,0.989775538,0.242652893,0.492477417,-0.270133972
18.881487,-0.011707885,0.089099124,0.990507960,0.013771057,0.545883179,-0.216728210
18.882114,-0.015980346,0.085070804,0.985625148,0.112953186,0.515365601,0.019783020
18.882739,-0.014881713,0.086169437,0.983305812,-0.192222595,0.683212280,-0.140434265
18.883366,-0.018421752,0.086291507,0.979277492,-0.466880798,0.606918335,-0.163322449
18.883991,-0.019764526,0.081042483,0.975737453,-0.276145935,0.545883179,-0.087028503
18.884617,-0.017933471,0.081652835,0.974150538,-0.276145935,0.255966187,-0.109916687
18.885244,-0.020008666,0.081652835,0.975737453,-0.405845642,0.286483765,-0.148063660
18.886945,-0.019520385,0.078112796,0.977568507,-0.451622009,-0.011062622,-0.025993347
18.887571,-0.020741088,0.075061038,0.979521632,-0.436363220,-0.140762329,-0.003105164
18.888198,-0.016346557,0.079455569,0.980498195,-0.291404724,-0.117874146,-0.125175476
18.888824,-0.018299682,0.077868655,0.985747218,-0.459251404,-0.217056274,-0.209098816
18.889451,-0.015858276,0.078845218,0.987944484,-0.482139587,-0.255203247,-0.056510925
18.890077,-0.012928588,0.082019046,0.993437648,-0.382957458,-0.346755981,-0.148063660
18.890704,-0.011952026,0.080920413,0.994780421,-0.634727478,-0.316238403,-0.094657898
18.891330,-0.012196166,0.079333499,0.998442531,-0.596580505,-0.094985962,-0.209098816
18.891957,-0.013294799,0.082019046,0.999419093,-0.886497498,-0.140762329,-0.071769714
18.892583,-0.012440307,0.084094241,1.003691554,-0.894126892,-0.125503540,-0.308280945
18.893208,-0.013172729,0.082141116,1.003569484,-0.886497498,-0.262832642,-0.193840027
18.893834,-0.010243041,0.081652835,1.002348781,-1.061973572,-0.102615356,-0.003105164
18.894460,-0.008045776,0.084094241,1.004057765,-0.970420837,-0.003433228,0.080818176
18.895086,-0.009510620,0.082263187,1.002959132,-1.367149353,-0.011062622,-0.064140320
18.895711,-0.013172729,0.077136233,1.004790187,-0.955162048,0.057601929,-0.186210632
18.897436,-0.011585815,0.072375491,1.003325343,-1.390037537,0.049972534,0.202888489
18.898061,-0.013172729,0.072253421,1.004301906,-1.031455994,0.332260132,-0.071769714
18.898686,-0.011219604,0.071276858,1.000029445,-1.176414490,0.126266479,-0.064140320
18.899311,-0.013294799,0.068713382,1.000029445,-1.031455994,0.111007690,-0.087028503
18.899938,-0.011097534,0.071032718,0.996123195,-0.978050232,0.278854370,-0.140434265
18.900565,-0.012440307,0.065905765,0.994414210,-1.115379333,0.103378296,0.027412415
18.901190,-0.011952026,0.069689944,0.995634913,-0.924644470,-0.102615356,0.111335754
18.901816,-0.015492065,0.070422366,0.994292140,-0.817832947,0.294113159,0.118965149
18.902441,-0.011829956,0.069934085,0.993559718,-0.596580505,-0.033950806,0.004524231
18.903067,-0.014637573,0.072253421,0.993071437,-0.779685974,-0.033950806,-0.041252136
18.903693,-0.014027221,0.076037601,0.992339015,-0.733909607,0.011825562,0.126594543
18.904320,-0.013416870,0.076037601,0.995268703,-0.695762634,-0.140762329,0.103706360
18.904945,-0.014027221,0.074938968,0.995879054,-0.512657166,-0.255203247,0.057929993
18.905570,-0.011097534,0.077868655,0.997343898,-0.588951111,-0.110244751,-0.231987000
18.906197,-0.008778198,0.079699710,0.997465968,-0.756797791,-0.270462036,0.096076965
18.907893,-0.010243041,0.079699710,1.002104640,-0.512657166,0.057601929,0.126594543
18.908519,-0.008411987,0.080554202,1.000517726,-0.695762634,0.332260132,-0.033622742
18.909145,-0.009266479,0.076159671,1.001128078,-0.703392029,0.072860718,0.012153625
18.909771,-0.008656127,0.073840335,0.997465968,-0.657615662,-0.148391724,0.042671204
18.924138,-0.010731323,0.078234866,0.999663234,0.639381409,0.210189819,0.035041809
18.924836,-0.008289916,0.079455569,0.997710109,0.700416565,0.255966187,0.324958801
18.925461,-0.009022338,0.081164554,0.993193507,0.669898987,0.423812866,0.210517883
18.926087,-0.012806518,0.079455569,0.992827296,0.570716858,0.408554077,0.118965149
18.926713,-0.011952026,0.081164554,0.987700343,0.479164124,0.339889526,0.187629700
18.927340,-0.014515502,0.079821780,0.983427882,0.463905334,0.362777710,0.141853333
18.927966,-0.013172729,0.078234866,0.982085109,0.311317444,0.034713745,0.050300598
18.928593,-0.013294799,0.082141116,0.982329249,0.441017151,0.263595581,0.118965149
18.929218,-0.014637573,0.082995608,0.980742335,0.311317444,0.011825562,0.096076965
18.929844,-0.011463745,0.081652835,0.982817531,0.456275940,0.042343140,0.324958801
18.930469,-0.014027221,0.079821780,0.979033351,0.425758362,0.088119507,0.149482727
18.931146,-0.013538940,0.079333499,0.982573390,0.166358948,-0.041580200,0.263923645
18.931771,-0.012806518,0.082263187,0.982573390,0.334205627,-0.026321411,0.248664856
18.932396,-0.014759643,0.084338382,0.984648585,0.044288635,-0.278091431,0.233406067
18.934176,-0.016590698,0.084338382,0.985503078,-0.024375916,-0.293350220,0.202888489
18.934802,-0.011952026,0.085314944,0.987089992,-0.306663513,-0.293350220,-0.071769714
18.935427,-0.010487182,0.088488773,0.988066554,-0.360069275,-0.392532349,0.073188782
18.936053,-0.012684448,0.087756351,0.988798976,-0.268516541,-0.270462036,0.195259094
18.936678,-0.012684448,0.087756351,0.988798976,-0.268516541,-0.270462036,0.195259094
18.937305,-0.012074096,0.082385257,0.993071437,-0.413475037,-0.346755981,0.157112122
18.937932,-0.012074096,0.082385257,0.993071437,-0.413475037,-0.346755981,0.157112122
18.938557,-0.012562377,0.082751468,0.991606593,-0.657615662,-0.499343872,-0.010734558
18.939182,-0.009510620,0.082385257,0.994170070,-0.741539001,-0.278091431,-0.094657898
18.939807,-0.011097534,0.082019046,0.998686671,-0.764427185,-0.384902954,0.050300598
18.940433,-0.008778198,0.081530765,0.997221828,-0.787315369,-0.362014771,0.180000305
18.941059,-0.009266479,0.079211429,0.998686671,-0.878868103,-0.072097778,0.225776672
18.941684,-0.012196166,0.078967288,0.998076320,-0.802574158,-0.194168091,0.012153625
18.942309,-0.009632690,0.075427249,1.001006007,-0.886497498,-0.308609009,0.004524231
18.942934,-0.009388549,0.075305179,0.997221828,-0.817832947,-0.125503540,0.065559387
18.944644,-0.011952026,0.084216312,0.997221828,-1.023826599,0.072860718,0.103706360
18.945270,-0.010853393,0.081774905,0.993437648,-0.993309021,-0.270462036,0.248664856
18.945896,-0.008534057,0.087268069,0.993559718,-1.115379333,-0.102615356,0.210517883
18.946522,-0.011829956,0.089221194,0.990019679,-1.260337830,-0.110244751,0.050300598
18.947149,-0.014149291,0.086535648,0.989775538,-1.214561462,-0.003433228,0.065559387
18.947775,-0.015125854,0.085681155,0.989287257,-1.603660583,-0.033950806,0.149482727
18.948400,-0.011952026,0.090319827,0.989409328,-1.336631775,0.248336792,0.271553040
18.949025,-0.010609252,0.092883304,0.986601710,-1.786766052,0.088119507,0.057929993
18.949650,-0.012562377,0.092028812,0.988798976,-1.596031189,-0.110244751,0.210517883
18.950276,-0.011707885,0.091174319,0.985869288,-2.259788513,-0.117874146,0.294441223
18.950902,-0.014393432,0.092639163,0.985381007,-2.328453064,-0.339126587,0.096076965
18.951528,-0.012562377,0.092761233,0.983916163,-2.389488220,-0.178909302,0.157112122
18.952153,-0.014027221,0.093737796,0.981718898,-2.595481873,-0.094985962,0.172370911
18.952779,-0.016834838,0.090930179,0.979521632,-2.824363708,-0.102615356,0.363105774
18.953405,-0.014149291,0.090319827,0.973540187,-3.007469177,-0.316238403,0.027412415
18.955111,-0.016590698,0.087878421,0.972441554,-3.411827087,-0.545120239,-0.018363953
18.955738,-0.014759643,0.087268069,0.973906398,-3.526268005,-0.476455688,-0.186210632
18.956365,-0.016346557,0.087512210,0.978667140,-3.541526794,-0.636672974,-0.071769714
18.956990,-0.015614135,0.088610843,0.979765773,-3.747520447,-0.651931763,0.141853333
18.972783,-0.004017456,0.072009280,1.009550929,-3.411827087,-0.102615356,0.042671204
18.973515,-0.006703003,0.070666507,1.010161281,-3.160057068,-0.049209595,-0.308280945
18.974142,-0.008045776,0.067980960,1.005522609,-3.213462830,-0.133132935,0.019783020
18.974768,-0.009388549,0.066027835,1.005034328,-3.091392517,0.095748901,-0.231987000
18.975394,-0.011097534,0.064318851,1.002470851,-2.809104919,0.004196167,0.027412415
18.976019,-0.009754760,0.067492679,1.001616359,-2.839622498,-0.140762329,0.172370911
18.976645,-0.011585815,0.064318851,1.001372218,-2.763328552,-0.224685669,-0.003105164
18.977271,-0.008778198,0.064929202,0.999907374,-2.511558533,-0.033950806,-0.178581238
18.977897,-0.008045776,0.063342288,1.004423976,-2.259788513,-0.316238403,0.004524231
18.978522,-0.010120971,0.064196780,1.003203273,-2.420005798,0.019454956,0.088447571
18.979147,-0.009510620,0.067858890,1.002470851,-2.229270935,-0.171279907,0.134223938
18.979773,-0.009876831,0.069201663,1.001006007,-1.916465759,-0.186538696,0.118965149
18.980398,-0.005604370,0.071765140,1.002592921,-2.168235779,-0.255203247,-0.003105164
18.981024,-0.004871948,0.072497562,1.002714992,-1.969871521,-0.194168091,0.134223938
18.982738,-0.006458862,0.072863773,1.000883937,-1.916465759,-0.232315063,0.019783020
18.983363,-0.007557495,0.071154788,1.002592921,-1.527366638,-0.186538696,-0.148063660
18.983988,-0.005482300,0.070544437,1.000761867,-1.710472107,-0.011062622,0.019783020
18.984614,-0.007679565,0.070788577,1.003325343,-1.649436951,-0.217056274,0.088447571
18.985239,-0.005726440,0.071154788,1.008208156,-1.428184509,-0.178909302,0.096076965
18.985864,-0.007923706,0.073352054,1.007841945,-1.702842712,-0.156021118,-0.140434265
18.986489,-0.007557495,0.070666507,1.005278468,-1.275596619,-0.232315063,0.050300598
18.987116,-0.010243041,0.071643069,1.004668117,-1.550254822,-0.018692017,-0.041252136
18.987742,-0.006825073,0.067858890,1.003447413,-1.298484802,-0.232315063,0.096076965
18.988367,-0.007557495,0.067614749,1.004668117,-1.329002380,-0.026321411,-0.201469421
18.988994,-0.008411987,0.067126468,1.002592921,-0.955162048,0.080490112,0.057929993
18.989621,-0.009754760,0.063952640,0.999174953,-0.955162048,0.141525269,-0.170951843
18.990248,-0.009876831,0.064685062,1.002104640,-1.008567810,-0.400161743,-0.041252136
18.990875,-0.008289916,0.060046386,1.002714992,-0.604209900,-0.026321411,0.019783020
18.991500,-0.011219604,0.057849120,1.005644679,-0.535545349,-0.209426880,0.118965149
18.993220,-0.004261597,0.058581542,1.012480617,-0.184593201,-0.270462036,0.057929993
18.993846,-0.006092651,0.061511230,1.011748195,0.021400452,-0.247573853,-0.018363953
18.994473,-0.010487182,0.063830569,1.014922023,0.112953186,0.034713745,0.042671204
18.995100,-0.011707885,0.064074710,1.011748195,0.235023499,0.118637085,-0.109916687
18.995727,-0.011585815,0.063708499,1.010161281,0.585975647,0.255966187,-0.079399109
18.996352,-0.007313354,0.061267089,1.014067531,0.341835022,0.217819214,0.088447571
18.996977,-0.004871948,0.061999511,1.011626124,0.769081116,-0.209426880,-0.117546082
18.997603,-0.004871948,0.059191894,1.012480617,0.799598694,0.301742554,-0.163322449
18.998228,-0.004994018,0.062609866,1.012236476,0.776710510,0.324630737,0.012153625
18.998853,-0.009266479,0.064929202,1.010771632,1.142921448,0.339889526,0.004524231
18.999480,-0.006458862,0.064807132,1.012968898,1.181068420,0.446701050,0.065559387
19.000105,-0.010243041,0.066394046,1.012480617,1.371803284,0.034713745,-0.056510925
19.000731,-0.007801636,0.066394046,1.010649562,1.173439026,0.355148315,-0.041252136
19.001357,-0.008289916,0.067736819,1.012236476,1.501502991,0.637435913,-0.064140320
19.001983,-0.011219604,0.064074710,1.009672999,1.577796936,0.431442261,0.103706360
19.003714,-0.011341674,0.068469241,1.004423976,1.799049377,0.500106812,-0.025993347
19.004341,-0.012318237,0.069689944,0.998808742,1.905860901,0.454330444,-0.064140320
19.004968,-0.011829956,0.069079593,1.002348781,1.966896057,0.606918335,-0.010734558
19.005593,-0.009144409,0.070910648,1.002959132,2.027931213,0.446701050,0.103706360
19.006219,-0.013050659,0.072741702,0.999052882,2.165260315,0.599288940,0.057929993
19.020366,-0.015614135,0.084094241,0.983549953,0.242652893,-0.133132935,0.210517883
19.021055,-0.015736206,0.085314944,0.985014796,0.051918030,0.080490112,-0.003105164
19.021681,-0.015492065,0.086169437,0.982573390,-0.032005310,-0.217056274,0.057929993
19.022306,-0.013783081,0.084338382,0.985381007,-0.306663513,0.011825562,-0.117546082
19.022933,-0.012928588,0.084338382,0.983794093,-0.291404724,-0.011062622,0.164741516
19.023558,-0.013050659,0.083361819,0.986967921,-0.512657166,-0.171279907,0.210517883
19.024184,-0.014759643,0.082507327,0.985258937,-0.634727478,0.080490112,0.134223938
19.024810,-0.014759643,0.080554202,0.987212062,-0.489768982,-0.148391724,0.004524231
19.025436,-0.013661010,0.082507327,0.988432765,-0.901756287,-0.171279907,0.057929993
19.026062,-0.012806518,0.078967288,0.991606593,-0.596580505,-0.201797485,0.057929993
19.026687,-0.015492065,0.082751468,0.990019679,-0.962791443,0.118637085,0.248664856
19.027313,-0.013172729,0.079577640,0.990019679,-1.061973572,-0.171279907,0.096076965
19.027939,-0.011341674,0.078967288,0.991606593,-0.909385681,-0.156021118,-0.087028503
19.028565,-0.012074096,0.082507327,0.993315578,-0.909385681,-0.201797485,0.035041809
19.030338,-0.010487182,0.083483890,0.993925929,-1.435813904,0.049972534,0.195259094
19.030964,-0.008534057,0.083972171,0.989775538,-1.519737244,-0.186538696,0.042671204
19.031591,-0.009754760,0.083972171,0.992949367,-1.725730896,-0.247573853,0.012153625
19.032218,-0.012684448,0.087390140,0.994292140,-1.496849060,-0.125503540,0.096076965
19.032844,-0.009266479,0.084216312,0.992461085,-1.992759705,-0.194168091,0.057929993
19.033585,-0.010731323,0.083361819,0.991972804,-1.802024841,-0.262832642,0.035041809
19.034211,-0.010365112,0.085070804,0.993925929,-1.916465759,-0.209426880,0.065559387
19.034837,-0.007435425,0.082995608,0.990752101,-2.091941833,-0.018692017,0.164741516
19.035482,-0.009754760,0.083850101,0.991728663,-2.091941833,-0.178909302,0.065559387
19.036109,-0.008900268,0.082751468,0.989531398,-2.175865173,-0.209426880,0.096076965
19.036734,-0.007923706,0.082873538,0.990996242,-2.282676697,-0.217056274,0.164741516
19.037359,-0.011707885,0.082873538,0.989897609,-2.297935486,-0.300979614,-0.018363953
19.037985,-0.015369995,0.083361819,0.987700343,-2.328453064,-0.041580200,0.134223938
19.038612,-0.010975463,0.082019046,0.988676906,-2.542076111,-0.033950806,0.088447571
19.040338,-0.009632690,0.080676273,0.991850734,-2.656517029,-0.300979614,0.103706360
19.040963,-0.012806518,0.079577640,0.992583156,-2.709922791,-0.171279907,0.286811829
19.041589,-0.010731323,0.084338382,0.994414210,-2.893028259,-0.346755981,0.126594543
19.042216,-0.008656127,0.080920413,0.989897609,-2.839622498,-0.484085083,0.256294250
19.042841,-0.009754760,0.081774905,0.993681788,-2.603111267,-0.354385376,0.225776672
19.043466,-0.009266479,0.080187991,0.995268703,-3.129539490,-0.171279907,0.103706360
19.044091,-0.008411987,0.081774905,0.998564601,-2.854881287,-0.438308716,0.324958801
19.044716,-0.007313354,0.084338382,0.995268703,-3.266868591,-0.522232056,0.065559387
19.045343,-0.011463745,0.085559085,0.996611476,-3.007469177,-0.430679321,0.180000305
19.045968,-0.009754760,0.087023929,0.996001124,-3.312644958,-0.316238403,-0.155693054
19.046594,-0.008289916,0.086657718,0.993803859,-3.274497986,-0.262832642,0.218147278
19.047219,-0.006580933,0.080065921,0.997221828,-3.526268005,-0.453567505,0.126594543
19.047846,-0.004871948,0.074450687,1.000639796,-3.541526794,-0.415420532,0.118965149
19.048472,-0.005848511,0.075061038,1.000029445,-3.472862244,-0.156021118,-0.018363953
19.049099,-0.006580933,0.082629398,0.996489406,-3.572044373,-0.102615356,0.187629700
19.050808,-0.015003784,0.078845218,0.994902492,-3.831443787,-0.011062622,0.073188782
19.051434,-0.016468627,0.077136233,0.991850734,-3.915367126,-0.308609009,0.035041809
19.052061,-0.016346557,0.075671390,0.988921046,-3.877220154,-0.156021118,0.233406067
19.052686,-0.014271362,0.075061038,0.989531398,-3.808555603,-0.270462036,0.187629700
19.053313,-0.009266479,0.072741702,0.989897609,-3.503379822,-0.499343872,0.019783020
19.067129,-0.009266479,0.071520999,1.000883937,-3.739891052,-0.568008423,-0.102287292
19.067856,-0.008167846,0.075915530,1.002837062,-4.006919861,-0.735855103,0.096076965
19.068482,-0.009022338,0.068225101,1.012480617,-3.991661072,-0.522232056,0.233406067
19.069108,-0.004139526,0.070056155,1.013579249,-3.686485291,-0.331497192,0.218147278
19.069735,-0.005360229,0.076770023,1.008452296,-3.694114685,-0.339126587,0.233406067
19.070362,-0.003040893,0.078356937,1.009184718,-4.022178650,-0.316238403,-0.071769714
19.070988,-0.008411987,0.075915530,1.011504054,-3.892478943,-0.262832642,0.202888489
19.071613,-0.010975463,0.072619632,1.009795070,-4.106101990,-0.522232056,0.141853333
19.072238,-0.006825073,0.069323733,1.009795070,-3.785667419,-0.194168091,0.004524231
19.072865,-0.004139526,0.068591312,1.006010890,-3.480491638,-0.438308716,0.042671204
19.073491,-0.006703003,0.074450687,1.009672999,-3.610191345,0.049972534,0.164741516
19.074117,-0.008289916,0.079333499,1.009550929,-3.884849548,0.210189819,-0.010734558
19.074743,-0.005970581,0.073352054,1.012358546,-4.052696228,-0.094985962,0.202888489
19.075368,-0.007069214,0.070544437,1.005278468,-4.052696228,0.210189819,0.149482727
19.077082,-0.011463745,0.072009280,0.996855617,-3.991661072,0.164413452,0.065559387
19.077708,-0.012684448,0.067492679,0.999174953,-3.610191345,0.156784058,0.019783020
19.078335,-0.012074096,0.067248538,0.990996242,-3.846702576,-0.140762329,0.225776672
19.078960,-0.009388549,0.071154788,0.988921046,-3.404197693,-0.041580200,0.141853333
19.079585,-0.015980346,0.072497562,0.990752101,-3.602561951,0.057601929,0.172370911
19.080210,-0.016712768,0.071154788,0.986235499,-3.518638611,-0.133132935,0.096076965
19.080835,-0.015125854,0.073352054,0.987212062,-3.655967712,-0.140762329,-0.018363953
19.081461,-0.014637573,0.068957523,0.987700343,-3.488121033,-0.354385376,0.065559387
19.082087,-0.011585815,0.071887210,0.986113429,-3.701744080,-0.224685669,0.202888489
19.082712,-0.010365112,0.077868655,0.983061671,-3.404197693,-0.484085083,0.050300598
19.083339,-0.010975463,0.078112796,0.984526515,-3.449974060,-0.049209595,-0.056510925
19.083965,-0.013538940,0.074816898,0.982573390,-3.602561951,-0.239944458,0.088447571
19.084592,-0.011829956,0.074572757,0.989531398,-3.717002869,-0.300979614,0.172370911
19.085219,-0.013783081,0.076159671,0.990996242,-3.511009216,-0.247573853,0.050300598
19.085846,-0.010731323,0.078845218,0.991850734,-3.694114685,-0.415420532,0.019783020
19.087567,-0.011585815,0.076647952,0.996611476,-3.800926208,-0.278091431,0.180000305
19.088193,-0.009754760,0.072253421,1.000151515,-3.686485291,-0.552749634,0.111335754
19.088818,-0.010731323,0.070788577,0.996001124,-4.022178650,-0.171279907,0.050300598
19.089445,-0.008778198,0.073352054,0.999541163,-3.953514099,-0.377273560,0.157112122
19.090072,-0.010853393,0.071765140,0.996855617,-3.770408630,-0.461196899,0.172370911
19.090697,-0.009876831,0.069567874,1.004179835,-4.022178650,-0.247573853,0.195259094
19.091324,-0.006825073,0.070788577,0.998320460,-3.854331970,-0.339126587,0.118965149
19.091949,-0.008778198,0.070056155,1.001982570,-3.755149841,-0.362014771,0.065559387
19.092576,-0.007923706,0.069445804,1.000639796,-3.800926208,-0.461196899,-0.109916687
19.093203,-0.009754760,0.068347171,1.002226710,-3.778038025,-0.110244751,0.218147278
19.093828,-0.007313354,0.066271976,1.000029445,-3.709373474,-0.346755981,0.187629700
19.094455,-0.008289916,0.069445804,1.001860499,-3.350791931,-0.415420532,0.241035461
19.095081,-0.008167846,0.069201663,1.002714992,-3.526268005,-0.087356567,0.050300598
19.095708,-0.008656127,0.066882327,1.004057765,-3.312644958,-0.133132935,-0.033622742
19.096335,-0.008656127,0.064685062,0.998320460,-3.442344666,-0.003433228,0.004524231
19.098051,-0.009022338,0.066516116,0.999785304,-3.099021912,-0.300979614,0.012153625
19.098678,-0.007923706,0.065173343,1.001982570,-3.434715271,-0.194168091,0.065559387
19.099304,-0.009998901,0.070300296,1.003813624,-2.893028259,-0.156021118,0.118965149
19.099929,-0.008167846,0.069812015,1.002959132,-3.167686462,-0.331497192,0.126594543
19.131286,-0.015369995,0.069689944,0.994170070,-3.762779236,-0.430679321,-0.041252136
19.132027,-0.011952026,0.069445804,0.994902492,-3.900108337,-0.300979614,-0.270133972
19.132653,-0.010487182,0.072619632,0.994780421,-3.945884705,-0.499343872,0.126594543
19.133279,-0.007679565,0.070666507,0.995512843,-3.938255310,-0.369644165,-0.186210632
19.133905,-0.009266479,0.073962405,1.000151515,-3.953514099,-0.407791138,0.118965149
19.134531,-0.009754760,0.072619632,1.001128078,-4.128990173,-0.316238403,-0.125175476
19.135156,-0.009876831,0.070910648,1.001616359,-4.144248962,-0.079727173,-0.041252136
19.135826,-0.008900268,0.069689944,1.004790187,-4.029808044,-0.194168091,0.202888489
19.136451,-0.008167846,0.070544437,1.004301906,-4.128990173,-0.293350220,-0.163322449
19.137077,-0.009144409,0.069689944,1.003203273,-4.273948669,-0.102615356,0.080818176
19.137704,-0.012806518,0.068591312,1.004423976,-4.266319275,-0.232315063,0.057929993
19.138330,-0.011952026,0.067370608,1.003691554,-4.212913513,-0.018692017,-0.010734558
19.138957,-0.010120971,0.065905765,1.004790187,-4.174766541,-0.217056274,-0.010734558
19.139582,-0.009022338,0.065173343,1.002104640,-4.121360779,-0.148391724,0.042671204
19.141306,-0.012074096,0.061633300,0.996733546,-4.014549255,0.011825562,0.118965149
19.141932,-0.011952026,0.061999511,0.996489406,-3.907737732,-0.217056274,0.004524231
19.142558,-0.012074096,0.059558105,0.996001124,-4.014549255,-0.278091431,0.065559387
19.143184,-0.013294799,0.062731937,0.993559718,-3.778038025,-0.217056274,-0.025993347
19.143809,-0.013172729,0.062121581,0.997221828,-3.778038025,-0.064468384,0.103706360
19.144434,-0.009998901,0.065539554,0.998442531,-3.717002869,-0.148391724,0.210517883
19.145060,-0.011341674,0.063830569,0.995756984,-3.793296814,-0.430679321,-0.048881531
19.145687,-0.013294799,0.066516116,0.997954249,-3.945884705,-0.133132935,0.004524231
19.146313,-0.011097534,0.065539554,0.999907374,-3.503379822,-0.018692017,0.019783020
19.146938,-0.012074096,0.063342288,0.996733546,-3.678855896,-0.079727173,0.019783020
19.147564,-0.011219604,0.063464358,0.998442531,-3.572044373,-0.377273560,-0.087028503
19.148189,-0.011952026,0.065783694,0.995390773,-3.488121033,-0.171279907,0.149482727
19.148814,-0.011341674,0.071643069,0.997588038,-3.427085876,-0.346755981,0.248664856
19.149441,-0.009388549,0.070056155,0.999663234,-3.511009216,-0.171279907,0.027412415
19.150066,-0.011097534,0.069201663,0.999052882,-3.869590759,-0.033950806,-0.056510925
19.151785,-0.012562377,0.066882327,1.000883937,-3.625450134,-0.117874146,0.035041809
19.152410,-0.012318237,0.066760257,1.000029445,-3.686485291,-0.194168091,0.080818176
19.153036,-0.013661010,0.064196780,0.999541163,-3.587303162,-0.003433228,0.012153625
19.153662,-0.013050659,0.064807132,0.996611476,-3.564414978,-0.339126587,0.042671204
19.154288,-0.010975463,0.065051273,0.996245265,-3.556785583,-0.262832642,0.057929993
19.154913,-0.012074096,0.064562991,0.997465968,-3.503379822,-0.041580200,0.019783020
19.155538,-0.014393432,0.066149905,0.996489406,-3.655967712,-0.102615356,0.088447571
19.156163,-0.013661010,0.067492679,0.996489406,-3.427085876,0.011825562,0.141853333
19.156790,-0.013661010,0.067004398,0.996489406,-3.648338318,-0.224685669,0.050300598
19.157417,-0.012074096,0.068835452,0.996489406,-3.465232849,-0.171279907,0.202888489
19.158044,-0.015125854,0.069079593,0.998320460,-3.625450134,-0.262832642,0.256294250
19.158670,-0.012684448,0.069689944,0.998564601,-3.556785583,-0.323867798,0.141853333
19.159296,-0.012928588,0.069323733,0.998930812,-3.457603455,-0.209426880,0.134223938
19.159922,-0.010365112,0.069445804,0.997832179,-3.663597107,-0.278091431,0.042671204
19.160549,-0.010731323,0.069812015,0.997099757,-3.404197693,-0.018692017,0.180000305
19.162279,-0.009876831,0.070422366,0.996733546,-3.587303162,-0.278091431,-0.079399109
19.162904,-0.012684448,0.069689944,0.995879054,-3.572044373,-0.087356567,0.187629700
19.163529,-0.012806518,0.070788577,0.997710109,-3.572044373,-0.117874146,-0.025993347
19.164154,-0.014149291,0.072375491,0.995756984,-3.579673767,-0.178909302,0.187629700
19.178057,-0.011463745,0.078479007,0.981963038,-5.998191833,-0.774002075,0.080818176
19.178800,-0.012074096,0.082019046,0.982451320,-6.051597595,-0.796890259,0.141853333
19.179425,-0.016590698,0.084704593,0.981474757,-6.204185486,-0.598526001,0.180000305
19.180050,-0.017689331,0.073840335,0.981474757,-6.524620056,-0.774002075,0.180000305
19.180675,-0.014149291,0.073107913,0.988188624,-6.440696716,-0.964736938,0.118965149
19.181300,-0.016224487,0.074938968,0.985503078,-6.822166443,-0.957107544,0.202888489
19.181925,-0.015492065,0.073107913,0.985747218,-6.661949158,-1.033401489,0.103706360
19.182552,-0.014027221,0.071765140,0.990507960,-6.585655212,-0.972366333,0.073188782
19.183177,-0.011463745,0.072253421,0.992705226,-6.776390076,-1.117324829,-0.064140320
19.183802,-0.008534057,0.062365722,0.995268703,-6.730613708,-1.300430298,-0.087028503
19.184428,-0.008534057,0.063586429,0.998564601,-6.433067322,-1.033401489,0.187629700
19.185054,-0.008289916,0.067004398,0.999419093,-6.547508240,-0.781631470,0.157112122
19.185679,-0.013783081,0.062609866,0.998808742,-6.623802185,-0.835037231,0.218147278
19.186305,-0.011463745,0.064685062,1.001250148,-6.440696716,-0.850296021,0.233406067
19.188019,-0.010120971,0.059313964,1.008086085,-6.440696716,-1.025772095,-0.048881531
19.188645,-0.005970581,0.063342288,1.007475734,-6.372032166,-0.979995728,0.134223938
19.189272,-0.008411987,0.063342288,1.009550929,-6.242332458,-0.728225708,-0.064140320
19.189898,-0.007435425,0.060900878,1.009550929,-6.257591248,-0.651931763,0.157112122
19.190524,-0.008900268,0.058703613,1.006255031,-6.265220642,-0.781631470,0.218147278
19.191150,-0.008778198,0.059191894,1.010893703,-6.166038513,-0.568008423,0.202888489
19.191777,-0.011097534,0.057238769,1.010771632,-6.066856384,-0.583267212,0.019783020
19.192403,-0.009876831,0.059558105,1.009550929,-5.944786072,-0.697708130,0.088447571
19.193029,-0.008167846,0.059313964,1.009306788,-6.059226990,-0.774002075,-0.010734558
19.193655,-0.009998901,0.057360839,1.008574367,-6.021080017,-0.552749634,0.149482727
19.194281,-0.007679565,0.056506347,1.009795070,-5.906639099,-0.522232056,0.187629700
19.194907,-0.006703003,0.056140136,1.006987453,-5.578575134,-0.583267212,0.271553040
19.195533,-0.007801636,0.056262206,1.005522609,-5.410728455,-0.606155396,0.012153625
19.196159,-0.008534057,0.059191894,1.004790187,-5.410728455,-0.575637817,0.057929993
19.196785,-0.008411987,0.056384277,1.008818507,-5.326805115,-0.377273560,0.134223938
19.198506,-0.007679565,0.053820800,1.002837062,-4.991111755,-0.232315063,-0.041252136
19.199132,-0.007923706,0.052722167,1.003691554,-4.914817810,-0.262832642,0.248664856
19.199758,-0.010365112,0.059558105,0.996611476,-4.914817810,-0.407791138,0.225776672
19.200384,-0.014149291,0.058093261,0.996611476,-4.983482361,-0.117874146,0.187629700
19.201012,-0.011707885,0.058215331,0.996123195,-4.914817810,-0.094985962,0.118965149
19.201638,-0.011341674,0.058825683,0.994414210,-4.563865662,-0.423049927,0.256294250
19.202263,-0.012562377,0.061389159,0.995756984,-4.808006287,-0.316238403,0.096076965
19.202889,-0.011952026,0.058581542,0.997221828,-4.357872009,-0.506973267,0.340217590
19.203516,-0.011707885,0.060534667,0.996001124,-4.731712341,-0.682449341,0.202888489
19.204141,-0.008045776,0.058215331,0.997588038,-4.624900818,-0.331497192,0.042671204
19.204766,-0.007435425,0.061389159,0.995879054,-4.540977478,-0.362014771,0.233406067
19.205393,-0.011341674,0.065661624,0.998076320,-4.617271423,-0.499343872,0.302070618
19.206019,-0.013172729,0.063342288,0.997588038,-4.701194763,-0.331497192,0.103706360
19.206645,-0.010853393,0.065417483,0.995634913,-4.739341736,-0.239944458,0.149482727
19.207270,-0.011097534,0.061511230,0.996611476,-4.724082947,-0.384902954,0.256294250
19.208967,-0.006336792,0.057116698,1.000517726,-4.533348083,-0.644302368,0.187629700
19.209593,-0.009754760,0.056140136,0.998320460,-4.739341736,-0.606155396,0.042671204
19.210219,-0.013783081,0.056994628,0.999419093,-4.487571716,-0.499343872,0.256294250
19.210846,-0.009022338,0.062731937,1.001006007,-4.495201111,-0.728225708,0.050300598
19.224609,-0.008900268,0.060046386,1.000273585,-3.755149841,-0.842666626,0.134223938
19.225314,-0.012196166,0.060656738,1.001860499,-3.709373474,-0.774002075,0.309700012
19.225940,-0.006580933,0.061999511,1.004057765,-3.686485291,-0.484085083,0.286811829
19.226567,-0.007313354,0.061389159,1.005888820,-3.694114685,-0.644302368,0.462287903
19.227192,-0.008900268,0.060778808,1.012236476,-3.762779236,-0.613784790,0.195259094
19.227817,-0.006336792,0.059802245,1.015654445,-3.587303162,-0.651931763,0.195259094
19.228443,-0.004994018,0.059313964,1.016631007,-3.762779236,-0.560379028,0.363105774
19.229069,-0.004505737,0.056994628,1.014922023,-3.533897400,-0.278091431,0.347846985
19.229695,-0.005726440,0.056994628,1.014555812,-3.495750427,-0.232315063,0.263923645
19.230320,-0.009998901,0.057727050,1.012480617,-3.694114685,-0.125503540,0.256294250
19.230945,-0.011585815,0.056506347,1.008696437,-3.488121033,-0.362014771,0.385993958
19.231570,-0.010731323,0.055285644,1.005278468,-3.610191345,-0.148391724,0.225776672
19.232195,-0.011829956,0.054431152,1.005888820,-3.564414978,-0.285720825,0.370735168
19.232820,-0.008534057,0.056018066,0.999297023,-3.434715271,-0.102615356,0.294441223
19.234586,-0.009998901,0.057849120,1.001738429,-3.068504333,-0.033950806,0.164741516
19.235213,-0.011707885,0.058581542,0.997099757,-2.885398865,-0.300979614,0.256294250
19.235838,-0.011585815,0.061755370,0.994414210,-2.908287048,-0.339126587,0.340217590
19.236463,-0.010731323,0.061755370,0.993803859,-2.976951599,-0.323867798,0.393623352
19.237088,-0.011585815,0.063708499,0.993803859,-2.847251892,-0.423049927,0.401252747
19.237714,-0.011219604,0.064074710,0.993315578,-2.748069763,-0.255203247,0.309700012
19.238365,-0.011585815,0.064074710,0.996001124,-2.694664001,-0.362014771,0.324958801
19.238992,-0.012684448,0.065905765,0.995024562,-2.572593689,-0.201797485,0.324958801
19.239618,-0.008900268,0.062243652,0.995879054,-2.572593689,-0.346755981,0.286811829
19.240243,-0.009388549,0.062365722,0.997954249,-2.641258240,-0.728225708,0.019783020
19.240870,-0.009754760,0.060778808,0.996855617,-2.732810974,-0.453567505,0.157112122
19.241495,-0.009388549,0.057238769,0.997343898,-2.481040955,-0.308609009,0.202888489
19.242121,-0.008045776,0.061389159,0.999907374,-2.458152771,-0.362014771,0.340217590
19.242746,-0.010243041,0.065417483,0.999785304,-2.526817322,-0.133132935,0.317329407
19.243373,-0.013172729,0.067492679,1.001250148,-2.694664001,-0.423049927,0.202888489
19.245078,-0.014271362,0.064562991,0.994902492,-2.908287048,-0.339126587,0.241035461
19.245704,-0.011952026,0.064562991,0.994902492,-2.610740662,-0.491714478,0.424140930
19.246331,-0.013783081,0.064074710,0.998442531,-2.603111267,-0.354385376,0.363105774
19.246956,-0.011585815,0.064440921,0.998320460,-2.328453064,-0.346755981,0.523323059
19.247583,-0.008411987,0.060656738,0.999297023,-2.732810974,-0.354385376,0.149482727
19.248208,-0.010243041,0.063830569,1.001128078,-2.786216736,-0.392532349,0.370735168
19.248834,-0.010365112,0.061511230,0.999663234,-2.702293396,-0.331497192,0.294441223
19.249460,-0.010243041,0.057604980,1.000273585,-2.587852478,-0.506973267,0.103706360
19.250087,-0.009998901,0.057482909,1.000761867,-2.351341248,-0.293350220,0.218147278
19.250713,-0.008411987,0.056018066,1.000029445,-2.290306091,-0.354385376,0.187629700
19.251338,-0.009998901,0.058703613,1.003447413,-2.366600037,-0.430679321,0.271553040
19.251964,-0.010609252,0.061755370,1.001250148,-2.069053650,-0.148391724,0.248664856
19.252590,-0.010120971,0.062731937,1.003081203,-2.000389099,0.065231323,0.233406067
19.253217,-0.011952026,0.058337402,0.998930812,-2.160606384,-0.087356567,0.149482727
19.253843,-0.011219604,0.061389159,0.998686671,-2.229270935,-0.339126587,0.195259094
19.255559,-0.011219604,0.060534667,1.005522609,-1.794395447,-0.224685669,0.225776672
19.256184,-0.008900268,0.060046386,1.002592921,-1.946983337,-0.300979614,0.088447571
19.256809,-0.011952026,0.061267089,1.002959132,-1.809654236,-0.430679321,0.256294250
19.257434,-0.009754760,0.063708499,1.004668117,-1.924095154,-0.194168091,0.202888489
19.271271,-0.002308472,0.051745605,1.012236476,0.059547424,0.027084351,0.172370911
19.271994,-0.004871948,0.052600097,1.010649562,0.105323792,-0.079727173,0.279182434
19.272621,-0.004871948,0.058825683,1.015532374,0.082435608,0.057601929,0.271553040
19.273247,-0.004383667,0.069567874,1.010283351,0.036659241,0.156784058,0.157112122
19.273872,-0.002430542,0.083972171,1.010527492,-0.146446228,0.133895874,-0.056510925
19.274497,0.000132935,0.085192874,1.004057765,-0.390586853,-0.003433228,0.263923645
19.275122,-0.001576050,0.073352054,1.005888820,-0.718650818,0.309371948,0.042671204
19.275748,-0.004994018,0.063586429,1.003569484,-0.764427185,0.492477417,0.164741516
19.276374,-0.008045776,0.053210448,1.005278468,-0.970420837,0.347518921,0.057929993
19.277000,-0.012074096,0.045153808,1.007109523,-0.764427185,0.530624390,0.042671204
19.277625,-0.011952026,0.035754394,1.002837062,-0.535545349,0.294113159,0.279182434
19.278250,-0.008045776,0.031115722,0.999907374,-0.070152283,0.042343140,0.126594543
19.278875,-0.007435425,0.028430175,0.996489406,0.112953186,0.477218628,0.027412415
19.279500,-0.008411987,0.034411620,0.995879054,0.677528381,-0.064468384,0.027412415
19.281220,-0.005848511,0.036486816,1.000273585,1.326026917,0.019454956,0.111335754
19.281846,-0.006703003,0.040637206,0.999541163,1.585426331,-0.148391724,-0.094657898
19.282471,-0.007435425,0.043811034,1.004668117,1.921119690,-0.178909302,-0.010734558
19.283097,-0.005116089,0.050769042,1.005156398,1.936378479,-0.163650513,0.225776672
19.283724,-0.002918823,0.055041503,1.002714992,2.058448792,-0.026321411,0.157112122
19.284351,-0.000111206,0.065295413,1.009062648,2.050819397,-0.163650513,0.233406067
19.284977,-0.002674683,0.066394046,1.009795070,2.165260315,0.034713745,0.080818176
19.285604,-0.003773315,0.068591312,1.008452296,1.905860901,0.332260132,0.157112122
19.286229,-0.005116089,0.068103030,1.012114406,2.020301819,0.233078003,0.157112122
19.286856,-0.002430542,0.070056155,1.014067531,1.783790588,0.194931030,0.195259094
19.287481,-0.001209839,0.071765140,1.011870265,1.532020569,0.362777710,0.141853333
19.288107,-0.002186401,0.074694827,1.012236476,1.333656311,0.393295288,0.241035461
19.288733,-0.004627808,0.078112796,1.008330226,1.348915100,0.614547729,0.073188782
19.289359,-0.002918823,0.077990726,1.006010890,1.074256897,0.484848022,-0.025993347
19.289985,-0.003040893,0.070056155,1.005278468,0.830116272,0.637435913,0.241035461
19.291710,-0.008900268,0.069689944,0.993437648,0.395240784,0.736618042,0.279182434
19.292337,-0.011707885,0.068469241,0.982573390,0.608863831,0.751876831,0.134223938
19.292964,-0.013661010,0.067614749,0.985625148,0.166358948,0.606918335,0.126594543
19.293589,-0.010853393,0.066882327,0.978667140,0.318946838,0.484848022,0.187629700
19.294215,-0.010853393,0.066882327,0.978667140,0.318946838,0.484848022,0.187629700
19.294841,-0.012074096,0.066027835,0.976591945,0.280799866,0.317001343,0.065559387
19.295466,-0.014637573,0.065905765,0.976103663,0.402870178,0.118637085,0.241035461
19.296093,-0.013538940,0.067614749,0.975127101,0.219764709,0.072860718,-0.033622742
19.296719,-0.013172729,0.068713382,0.975981593,0.273170471,0.103378296,0.256294250
19.297345,-0.013661010,0.069934085,0.976347804,0.212135315,0.156784058,0.256294250
19.297972,-0.013538940,0.069689944,0.977324367,0.112953186,-0.156021118,0.195259094
19.298598,-0.010609252,0.072619632,0.973296046,0.067176819,-0.148391724,0.035041809
19.299223,-0.014515502,0.072863773,0.978056788,0.006141663,-0.239944458,0.019783020
19.299849,-0.012318237,0.072741702,0.982329249,-0.215110779,-0.316238403,0.042671204
19.300474,-0.014149291,0.074938968,0.985747218,-0.230369568,-0.522232056,0.042671204
19.302189,-0.008411987,0.073840335,0.995879054,-0.817832947,-0.171279907,0.256294250
19.302814,-0.009998901,0.071765140,0.998198390,-0.855979919,-0.384902954,0.263923645
19.303441,-0.004261597,0.074450687,1.002959132,-0.978050232,-0.194168091,0.042671204
19.304067,-0.005848511,0.074694827,1.004668117,-0.970420837,-0.430679321,0.019783020
19.304694,-0.006092651,0.070544437,1.005034328,-1.351890564,-0.033950806,0.248664856
19.318476,-0.008656127,0.068835452,0.999663234,-1.123008728,-0.064468384,0.233406067
19.319178,-0.011219604,0.069445804,0.999541163,-1.092491150,0.042343140,0.134223938
19.319804,-0.009266479,0.071276858,0.999541163,-1.359519958,0.088119507,-0.071769714
19.320430,-0.010853393,0.068957523,0.997832179,-1.069602966,0.362777710,0.027412415
19.321055,-0.009266479,0.067248538,0.996855617,-1.496849060,0.103378296,0.065559387
19.321681,-0.011463745,0.068103030,0.993559718,-1.550254822,-0.011062622,0.218147278
19.322308,-0.010120971,0.069079593,0.995512843,-1.565513611,-0.064468384,0.118965149
19.322933,-0.010731323,0.067614749,0.995390773,-1.466331482,0.057601929,-0.041252136
19.323558,-0.009632690,0.061999511,0.993681788,-1.542625427,0.042343140,-0.209098816
19.324185,-0.008900268,0.064562991,0.995024562,-1.664695740,0.103378296,0.004524231
19.324811,-0.014393432,0.063708499,0.995512843,-1.618919373,-0.056838989,0.218147278
19.325436,-0.011707885,0.061999511,0.995879054,-1.451072693,0.080490112,0.065559387
19.326062,-0.011219604,0.060900878,0.997343898,-1.649436951,0.004196167,-0.102287292
19.326687,-0.008656127,0.064318851,0.994292140,-1.336631775,0.027084351,0.004524231
19.328447,-0.009632690,0.059802245,0.998564601,-1.458702087,0.042343140,0.012153625
19.329073,-0.007679565,0.061389159,0.998564601,-1.458702087,-0.026321411,-0.109916687
19.329699,-0.008289916,0.063586429,0.998686671,-1.473960876,0.088119507,-0.109916687
19.330325,-0.008289916,0.062854007,1.000395656,-1.229820251,-0.003433228,-0.132804871
19.330950,-0.005116089,0.065051273,1.000517726,-1.306114197,0.027084351,-0.079399109
19.331576,-0.006703003,0.063952640,1.000273585,-1.344261169,0.034713745,-0.125175476
19.332201,-0.007801636,0.060900878,1.002104640,-1.458702087,-0.094985962,-0.132804871
19.332827,-0.003895386,0.061389159,0.999785304,-1.420555115,-0.003433228,-0.033622742
19.333454,-0.003285034,0.061022948,1.001738429,-1.428184509,-0.041580200,-0.087028503
19.334079,-0.004749878,0.060778808,1.003691554,-1.245079041,0.240707397,-0.109916687
19.334704,-0.004871948,0.060778808,1.002104640,-1.496849060,0.149154663,-0.010734558
19.335329,-0.004994018,0.058337402,1.000395656,-1.489219666,-0.033950806,-0.048881531
19.335954,-0.007069214,0.059924316,1.002104640,-1.405296326,0.271224976,-0.224357605
19.336579,-0.006947143,0.061633300,1.002714992,-1.260337830,0.187301636,-0.025993347
19.337205,-0.007069214,0.059313964,1.001372218,-1.100120544,0.133895874,-0.064140320
19.338933,-0.008411987,0.056994628,1.003569484,-0.985679626,0.072860718,-0.148063660
19.339558,-0.008045776,0.055163573,1.000273585,-1.008567810,0.233078003,-0.285392761
19.340188,-0.004627808,0.057971191,1.002104640,-0.985679626,0.332260132,-0.247245789
19.340813,-0.007679565,0.055041503,1.000395656,-1.077232361,0.248336792,-0.140434265
19.341439,-0.007923706,0.056140136,1.003081203,-0.909385681,0.095748901,-0.155693054
19.342065,-0.005238159,0.055407714,1.000395656,-0.970420837,0.057601929,-0.178581238
19.342691,-0.004871948,0.056262206,1.001738429,-0.924644470,0.210189819,-0.041252136
19.343317,-0.007191284,0.055651855,1.001982570,-0.772056580,0.049972534,-0.170951843
19.343942,-0.006458862,0.058825683,0.998198390,-0.665245056,0.278854370,-0.247245789
19.344568,-0.008045776,0.058703613,1.000151515,-0.665245056,0.072860718,-0.231987000
19.345195,-0.008778198,0.059069823,1.002837062,-0.657615662,0.179672241,-0.079399109
19.345820,-0.007069214,0.056140136,0.999297023,-0.619468689,0.118637085,-0.087028503
19.346446,-0.008900268,0.058215331,1.002592921,-0.497398376,0.202560425,-0.087028503
19.347072,-0.005604370,0.064074710,1.001250148,-0.627098083,0.370407104,-0.224357605
19.347697,-0.004627808,0.062487792,1.001494288,-0.688133240,0.263595581,-0.048881531
19.349408,-0.005970581,0.066394046,0.998564601,-0.680503845,0.278854370,-0.109916687
19.350035,-0.007679565,0.065539554,1.000761867,-0.733909607,0.355148315,-0.087028503
19.350662,-0.005726440,0.063952640,0.998808742,-0.649986267,0.317001343,-0.025993347
19.351288,-0.006703003,0.063464358,0.997343898,-0.817832947,0.599288940,-0.132804871
19.382666,-0.016102416,0.058337402,1.000517726,-0.443992615,0.019454956,0.134223938
19.383426,-0.011463745,0.057971191,0.997710109,-0.245628357,0.126266479,0.004524231
19.384051,-0.011585815,0.057116698,0.996733546,-0.344810486,0.149154663,0.088447571
19.384677,-0.013172729,0.055041503,0.995268703,-0.161705017,-0.056838989,-0.087028503
19.385304,-0.012928588,0.057727050,0.996001124,-0.291404724,0.149154663,-0.056510925
19.385929,-0.014149291,0.057971191,0.995024562,-0.207481384,-0.049209595,0.012153625
19.386555,-0.012684448,0.057116698,0.994902492,-0.024375916,0.088119507,0.057929993
19.387180,-0.016224487,0.056262206,0.995146632,-0.192222595,-0.148391724,0.057929993
19.387807,-0.014393432,0.057360839,0.991240382,0.059547424,-0.033950806,0.149482727
19.388432,-0.015369995,0.056262206,0.991484523,-0.276145935,-0.064468384,0.012153625
19.389059,-0.012928588,0.056506347,0.991972804,0.082435608,-0.041580200,-0.048881531
19.389685,-0.013905151,0.057360839,0.993315578,-0.054893494,-0.087356567,0.187629700
19.390311,-0.013050659,0.057727050,0.995024562,0.006141663,-0.041580200,0.042671204
19.390936,-0.011585815,0.057849120,0.995634913,0.250282288,-0.224685669,-0.003105164
19.392664,-0.013172729,0.061022948,0.997954249,0.013771057,0.042343140,0.225776672
19.393291,-0.013172729,0.060534667,0.998320460,0.189247131,-0.003433228,0.088447571
19.393917,-0.012562377,0.063708499,0.996733546,0.090065002,-0.140762329,0.187629700
19.394542,-0.012684448,0.064440921,0.996611476,-0.047264099,-0.026321411,-0.003105164
19.395167,-0.009510620,0.063464358,0.997343898,-0.070152283,-0.171279907,0.309700012
19.395792,-0.010609252,0.066638187,0.997465968,-0.230369568,-0.209426880,0.218147278
19.396417,-0.009144409,0.069567874,0.999663234,-0.192222595,0.217819214,0.195259094
19.397042,-0.010243041,0.068103030,0.996733546,-0.192222595,-0.102615356,0.134223938
19.397668,-0.012562377,0.069689944,0.994414210,-0.367698669,0.004196167,0.233406067
19.398294,-0.010243041,0.070056155,0.996367335,-0.489768982,0.042343140,-0.018363953
19.398919,-0.011097534,0.070056155,0.991728663,-0.627098083,0.027084351,0.157112122
19.399545,-0.013172729,0.068591312,0.990263820,-0.810203552,-0.079727173,0.080818176
19.400170,-0.012196166,0.071154788,0.989775538,-0.955162048,0.118637085,0.157112122
19.400796,-0.012440307,0.069812015,0.988676906,-1.008567810,0.118637085,0.050300598
19.401423,-0.014515502,0.066516116,0.986357570,-0.863609314,-0.094985962,0.248664856
19.403129,-0.016590698,0.068347171,0.987944484,-1.451072693,0.004196167,0.088447571
19.403754,-0.015858276,0.064929202,0.985991359,-1.542625427,-0.072097778,0.180000305
19.404381,-0.015614135,0.066882327,0.982207179,-1.542625427,-0.102615356,0.233406067
19.405009,-0.013661010,0.067980960,0.985014796,-1.718101501,-0.323867798,0.126594543
19.405635,-0.014881713,0.066149905,0.979887843,-1.840171814,-0.369644165,0.141853333
19.406261,-0.013661010,0.067736819,0.984282374,-1.763877869,-0.278091431,-0.003105164
19.406888,-0.014515502,0.068591312,0.985747218,-2.168235779,-0.377273560,0.134223938
19.407514,-0.013661010,0.071520999,0.986967921,-1.916465759,-0.415420532,0.035041809
19.408141,-0.012684448,0.072253421,0.985503078,-2.168235779,-0.438308716,0.172370911
19.408767,-0.011341674,0.068225101,0.987944484,-2.374229431,-0.423049927,0.050300598
19.409392,-0.011341674,0.069567874,0.987334132,-2.580223083,-0.705337524,0.241035461
19.410017,-0.009998901,0.066149905,0.992583156,-2.671775818,-0.514602661,0.180000305
19.410643,-0.007801636,0.066271976,0.991118312,-2.481040955,-0.346755981,0.126594543
19.411270,-0.005482300,0.066271976,0.991240382,-2.786216736,-0.484085083,0.149482727
19.411897,-0.008411987,0.069079593,0.993437648,-2.954063416,-0.178909302,0.149482727
19.413607,-0.009144409,0.069689944,0.994902492,-3.167686462,-0.461196899,0.172370911
19.414234,-0.008045776,0.072253421,0.995268703,-3.358421326,-0.697708130,0.286811829
19.414861,-0.009998901,0.074694827,0.995146632,-3.236351013,-0.606155396,0.256294250
19.415487,-0.006580933,0.073596194,0.995268703,-3.846702576,-0.468826294,0.195259094
19.416114,-0.005726440,0.071765140,0.998076320,-3.778038025,-0.224685669,0.088447571
19.429940,-0.005970581,0.070666507,0.992094874,-7.386741638,-1.025772095,0.309700012
19.430662,-0.006825073,0.075671390,0.993071437,-7.356224060,-1.155471802,0.286811829
19.431289,-0.007313354,0.074938968,0.995512843,-7.653770447,-0.964736938,0.103706360
19.431914,-0.007313354,0.072009280,0.996733546,-7.768211365,-1.002883911,0.370735168
19.432539,-0.005238159,0.070788577,1.000639796,-7.760581970,-0.934219360,0.370735168
19.433166,-0.002186401,0.068713382,1.001616359,-7.936058044,-1.102066040,0.149482727
19.433793,0.001475708,0.065417483,1.001738429,-8.050498962,-0.857925415,0.309700012
19.434420,0.008555787,0.066638187,1.001982570,-8.126792908,-0.957107544,0.279182434
19.435046,-0.009510620,0.077990726,1.007475734,-8.287010193,-0.651931763,0.363105774
19.435672,-0.008289916,0.089831546,1.000883937,-8.576927185,-0.453567505,0.317329407
19.436299,-0.003895386,0.078234866,1.000761867,-9.072837830,-0.430679321,0.172370911
19.436926,-0.010731323,0.059436034,1.000883937,-9.217796326,-0.407791138,0.134223938
19.437553,-0.010609252,0.057482909,0.994170070,-9.263572693,-0.423049927,0.385993958
19.438179,-0.017445190,0.058337402,0.994047999,-9.095726013,-0.682449341,0.355476379
19.439900,-0.011952026,0.050036620,0.991484523,-9.194908142,-0.789260864,0.569099426
19.440525,-0.013905151,0.046374511,0.993803859,-8.859214783,-0.728225708,0.241035461
19.441150,-0.008411987,0.050280761,0.991728663,-8.607444763,-0.720596313,0.233406067
19.441776,-0.008167846,0.054064941,0.993437648,-8.470115662,-0.804519653,0.294441223
19.442401,-0.004994018,0.060168456,1.003569484,-9.057579041,-0.537490845,0.202888489
19.443027,-0.008289916,0.057116698,1.003691554,-8.828697205,-0.400161743,0.347846985
19.443653,-0.015614135,0.054064941,0.998808742,-9.057579041,-0.537490845,0.263923645
19.444280,-0.012806518,0.052111816,0.995879054,-8.813438416,-0.835037231,0.248664856
19.444906,-0.012440307,0.047229003,0.997710109,-8.500633240,-0.697708130,0.218147278
19.445531,-0.009632690,0.049182128,0.999174953,-8.348045349,-0.812149048,0.126594543
19.446156,-0.007679565,0.051745605,1.005522609,-8.126792908,-1.002883911,0.317329407
19.446783,-0.006825073,0.053576659,1.007841945,-8.119163513,-1.002883911,0.401252747
19.447408,-0.003040893,0.049548339,1.012968898,-8.050498962,-0.827407837,0.180000305
19.448035,-0.003651245,0.047717284,1.015532374,-7.867393494,-0.819778442,0.385993958
19.448661,-0.011219604,0.048815917,1.013335109,-7.981834412,-0.613784790,0.195259094
19.450383,-0.008411987,0.038317870,1.013945460,-7.211265564,-0.880813599,0.393623352
19.451009,-0.009388549,0.037341308,1.015044093,-7.066307068,-0.613784790,0.141853333
19.451635,-0.009388549,0.036120605,1.016264796,-6.906089783,-0.598526001,0.286811829
19.452261,-0.008045776,0.034533691,1.009795070,-6.364402771,-0.659561157,0.256294250
19.452886,-0.006580933,0.036242675,1.014433742,-6.440696716,-0.392532349,0.233406067
19.453513,-0.006336792,0.035388183,1.018462062,-6.143150330,-0.484085083,0.286811829
19.454138,-0.004383667,0.031359863,1.017973781,-6.043968201,-0.262832642,0.241035461
19.454763,-0.006336792,0.032824706,1.021025538,-5.532798767,-0.117874146,0.469917297
19.455390,-0.009876831,0.035144042,1.019438624,-5.639610291,-0.682449341,0.248664856
19.456016,-0.010853393,0.039904784,1.013823390,-4.914817810,-0.407791138,0.393623352
19.456641,-0.012196166,0.037707519,1.012236476,-4.937705994,-0.369644165,0.263923645
19.457267,-0.009022338,0.037463378,1.013213038,-4.876670837,-0.590896606,0.180000305
19.457893,-0.009632690,0.037829589,1.012236476,-4.540977478,-0.423049927,0.599617004
19.458519,-0.006947143,0.045275878,1.013823390,-4.357872009,-0.514602661,0.286811829
19.459144,-0.005848511,0.048571777,1.013701320,-4.388389587,-0.224685669,0.340217590
19.460852,-0.001820190,0.068835452,1.007964015,-4.609642029,-0.094985962,0.225776672
19.461477,-0.002918823,0.057482909,1.002592921,-4.823265076,0.141525269,0.164741516
19.462103,-0.011097534,0.050646972,1.008818507,-4.754600525,0.095748901,0.248664856
19.462729,-0.012196166,0.043444823,1.010649562,-4.746971130,0.217819214,0.378364563
19.476559,-0.007069214,0.044787597,1.017485499,-1.359519958,0.118637085,0.080818176
19.477300,-0.007801636,0.048815917,1.015166163,-1.260337830,0.141525269,-0.025993347
19.477925,-0.009022338,0.044421386,1.009550929,-1.245079041,0.454330444,-0.025993347
19.478551,-0.007801636,0.043811034,1.005522609,-1.077232361,0.133895874,0.004524231
19.479177,-0.009998901,0.041979980,1.001738429,-1.107749939,0.179672241,0.195259094
19.479803,-0.014759643,0.041491698,1.002714992,-0.863609314,0.248336792,0.057929993
19.480430,-0.013538940,0.040515136,0.998198390,-0.863609314,0.286483765,0.111335754
19.481057,-0.011829956,0.041003417,0.996611476,-0.642356873,0.042343140,0.080818176
19.481682,-0.012684448,0.041613769,0.996855617,-0.588951111,0.027084351,0.126594543
19.482307,-0.011829956,0.041125488,0.996367335,-0.237998962,0.080490112,0.118965149
19.482934,-0.011707885,0.043444823,0.995634913,-0.146446228,-0.056838989,0.271553040
19.483561,-0.013172729,0.043566894,0.994658351,0.212135315,-0.049209595,-0.056510925
19.484186,-0.011952026,0.047717284,0.995879054,0.051918030,0.233078003,0.118965149
19.484812,-0.010120971,0.048815917,0.995390773,0.303688049,0.210189819,0.096076965
19.486528,-0.008778198,0.052111816,0.999174953,0.334205627,-0.148391724,0.111335754
19.487154,-0.006336792,0.057238769,1.002592921,0.418128967,-0.171279907,0.111335754
19.487780,-0.007069214,0.059313964,1.001494288,0.326576233,0.049972534,0.180000305
19.488405,-0.004871948,0.060290527,1.003935695,0.303688049,-0.148391724,0.065559387
19.489032,-0.008534057,0.064074710,1.001006007,0.166358948,-0.140762329,-0.003105164
19.489658,-0.007801636,0.065295413,1.002592921,-0.169334412,-0.110244751,0.080818176
19.490284,-0.007191284,0.064318851,1.001372218,0.112953186,-0.056838989,0.126594543
19.490910,-0.007557495,0.066394046,1.003325343,-0.100669861,-0.026321411,0.195259094
19.491537,-0.007679565,0.066271976,1.002226710,-0.276145935,0.179672241,0.050300598
19.492162,-0.005360229,0.067248538,0.999174953,-0.375328064,0.149154663,0.080818176
19.492787,-0.010853393,0.065661624,1.000273585,-0.260887146,-0.064468384,0.073188782
19.493413,-0.010853393,0.064685062,0.993071437,-0.642356873,0.324630737,0.134223938
19.494038,-0.010853393,0.064685062,0.993071437,-0.642356873,0.324630737,0.134223938
19.494663,-0.010853393,0.064440921,0.993071437,-0.695762634,0.095748901,0.073188782
19.495289,-0.012928588,0.064562991,0.991606593,-0.901756287,0.294113159,0.050300598
19.496995,-0.011585815,0.062121581,0.983916163,-1.176414490,0.172042847,0.096076965
19.497620,-0.014637573,0.059924316,0.985258937,-1.245079041,0.049972534,0.149482727
19.498246,-0.012318237,0.061877441,0.983061671,-1.306114197,0.072860718,0.118965149
19.498871,-0.014027221,0.059313964,0.984282374,-1.191673279,-0.064468384,0.141853333
19.499497,-0.012562377,0.058215331,0.986113429,-1.191673279,-0.018692017,-0.003105164
19.500124,-0.010853393,0.056750488,0.984648585,-1.138267517,-0.133132935,0.035041809
19.500750,-0.011585815,0.057727050,0.988310695,-1.435813904,0.027084351,0.180000305
19.501377,-0.010609252,0.060046386,0.991240382,-1.252708435,-0.262832642,-0.041252136
19.502012,-0.010487182,0.059191894,0.990507960,-1.206932068,-0.323867798,-0.018363953
19.502638,-0.011463745,0.059924316,0.993559718,-1.382408142,-0.407791138,-0.010734558
19.503263,-0.008411987,0.059680175,0.994170070,-1.397666931,-0.484085083,0.195259094
19.503890,-0.009266479,0.061511230,0.995879054,-1.290855408,-0.163650513,0.256294250
19.504517,-0.007069214,0.062976077,0.994536281,-1.550254822,-0.323867798,0.210517883
19.505142,-0.007313354,0.063586429,0.994292140,-1.603660583,-0.308609009,-0.079399109
19.505767,-0.009266479,0.063098148,1.002348781,-1.596031189,-0.156021118,-0.018363953
19.507498,-0.009266479,0.057727050,1.003325343,-1.664695740,-0.163650513,0.103706360
19.508125,-0.005482300,0.058215331,1.001982570,-2.000389099,-0.308609009,0.103706360
19.508752,-0.004139526,0.059802245,0.999907374,-1.924095154,-0.255203247,0.202888489
19.509378,-0.005360229,0.058947753,1.002959132,-1.824913025,-0.171279907,0.195259094
19.523136,-0.005848511,0.060046386,0.989653468,-3.068504333,-0.232315063,0.149482727
19.523832,-0.009266479,0.059802245,0.989409328,-3.022727966,-0.331497192,0.164741516
19.524457,-0.011097534,0.063952640,0.990874171,-3.236351013,-0.224685669,0.065559387
19.525083,-0.008045776,0.056872558,0.991484523,-3.037986755,-0.285720825,0.126594543
19.525710,-0.008167846,0.056018066,0.993193507,-3.243980408,-0.392532349,0.042671204
19.526336,-0.006703003,0.055163573,0.995146632,-3.076133728,-0.247573853,0.241035461
19.526963,-0.004994018,0.061022948,0.993803859,-3.335533142,-0.278091431,0.157112122
19.527588,-0.007801636,0.058459472,0.998320460,-3.343162537,-0.217056274,0.172370911
19.528213,-0.007923706,0.059069823,0.997710109,-3.495750427,-0.178909302,0.248664856
19.528839,-0.008534057,0.057727050,0.999052882,-3.358421326,-0.186538696,0.195259094
19.529464,-0.012806518,0.058093261,0.997221828,-3.602561951,-0.186538696,0.111335754
19.530089,-0.010120971,0.051867675,0.997954249,-3.518638611,-0.476455688,0.019783020
19.530716,-0.007923706,0.051135253,0.998808742,-3.503379822,-0.217056274,0.050300598
19.531341,-0.009754760,0.050891113,0.999174953,-3.556785583,-0.468826294,0.187629700
19.533109,-0.006947143,0.050524902,1.010649562,-3.274497986,-0.262832642,-0.033622742
19.533734,-0.006703003,0.048571777,1.006255031,-3.488121033,-0.484085083,0.027412415
19.534361,-0.008167846,0.046984863,1.009062648,-3.236351013,-0.461196899,0.164741516
19.534986,-0.007557495,0.041491698,1.013213038,-3.243980408,-0.651931763,0.164741516
19.535612,-0.006336792,0.041979980,1.014555812,-3.144798279,-0.461196899,0.134223938
19.536237,-0.001209839,0.030139159,1.016142726,-3.060874939,-0.506973267,0.073188782
19.536863,-0.001087768,0.030261230,1.022368312,-3.037986755,-0.453567505,0.035041809
19.537488,-0.003773315,0.033801269,1.028349757,-2.961692810,-0.079727173,0.065559387
19.538115,-0.005848511,0.041125488,1.034453273,-2.915916443,-0.278091431,0.309700012
19.538740,-0.010120971,0.049548339,1.034575343,-2.954063416,-0.384902954,0.309700012
19.539366,0.000377075,0.056994628,1.034819484,-3.060874939,-0.430679321,0.363105774
19.539992,0.008677857,0.064196780,1.033598781,-3.091392517,-0.072097778,0.363105774
19.540618,0.009288209,0.067980960,1.030791163,-3.129539490,0.255966187,0.309700012
19.541243,0.010875123,0.070910648,1.027006984,-3.266868591,0.652694702,0.385993958
19.541868,0.011363404,0.078479007,1.015654445,-3.388938904,0.996017456,0.340217590
19.543586,0.002330200,0.077624515,0.990019679,-4.037437439,1.644515991,0.363105774
19.544211,-0.006214722,0.061389159,0.973296046,-4.510459900,2.033615112,0.256294250
19.544919,-0.014149291,0.048937988,0.958037257,-4.182395935,1.896286011,0.271553040
19.545546,-0.027943237,0.037463378,0.943510890,-3.984031677,1.636886597,0.309700012
19.546171,-0.033802614,0.024890136,0.935088038,-3.526268005,1.057052612,0.035041809
19.546797,-0.033192262,0.025622558,0.929350734,-3.335533142,0.408554077,0.324958801
19.547458,-0.038319215,0.036242675,0.930327296,-2.702293396,-0.278091431,0.302070618
19.548085,-0.040150270,0.040515136,0.938628078,-2.519187927,-0.758743286,0.050300598
19.548710,-0.035999879,0.044787597,0.949248195,-2.404747009,-1.140213013,-0.010734558
19.549337,-0.028675659,0.045031738,0.960600734,-2.404747009,-1.224136353,0.195259094
19.549962,-0.028675659,0.045031738,0.960600734,-2.404747009,-1.224136353,0.195259094
19.550587,-0.020130737,0.047961425,0.968779445,-2.374229431,-1.681900024,0.286811829
19.551214,-0.013905151,0.048815917,0.981474757,-2.488670349,-1.590347290,0.317329407
19.551839,-0.012196166,0.054431152,0.994414210,-2.015647888,-1.781082153,0.164741516
19.553577,0.002208130,0.067126468,1.026274562,-2.702293396,-1.453018188,0.469917297
19.554202,0.004649536,0.066882327,1.038237453,-2.709922791,-1.338577271,0.286811829
19.554829,0.005137817,0.064807132,1.047514796,-2.938804626,-1.033401489,0.355476379
19.555455,0.005870239,0.068225101,1.049834132,-3.106651306,-0.728225708,0.271553040
19.556081,0.028819459,0.111804202,1.046294093,-3.068504333,-0.453567505,0.401252747
19.556706,0.073008910,0.283190906,1.016997218,-4.312095642,0.080490112,1.080268860
19.570533,0.037974730,0.042590331,1.171660304,-2.328453064,-2.086257935,0.431770325
19.571277,0.034312621,0.050891113,1.190337062,-2.458152771,-1.308059692,0.584358215
19.571904,0.042857543,0.060900878,1.199492335,-2.465782166,-0.774002075,0.523323059
19.572529,0.051890746,0.067370608,1.197050929,-2.854881287,0.095748901,0.271553040
19.573155,0.046153441,0.060534667,1.186797023,-3.968772888,1.095199585,0.256294250
19.573780,0.034312621,0.041979980,1.173735499,-4.602012634,2.087020874,0.256294250
19.574405,0.024913209,0.021594238,1.147246242,-4.693565369,2.407455444,0.294441223
19.575030,0.021983521,0.010241699,1.115752101,-4.029808044,3.223800659,0.385993958
19.575655,0.015880005,0.014025879,1.083891749,-3.396568298,3.651046753,0.248664856
19.576282,0.004161255,0.005969238,1.059843898,-2.862510681,3.872299194,0.134223938
19.576907,-0.008289916,-0.005749512,1.041167140,-2.282676697,3.857040405,0.065559387
19.577532,-0.006458862,-0.016247559,1.012236476,-1.756248474,4.139328003,0.225776672
19.578157,-0.007801636,-0.020275880,0.981474757,-1.306114197,4.101181030,0.317329407
19.578782,-0.015369995,-0.018688966,0.949858546,-0.474510193,4.124069214,0.302070618
19.580501,-0.051014528,0.002185059,0.893828273,1.615943909,2.628707886,0.408882141
19.581126,-0.045155153,0.008166504,0.872954249,2.218666077,1.964950562,0.347846985
19.581752,-0.050892457,0.014270020,0.865752101,3.416481018,1.270675659,0.263923645
19.582377,-0.060169801,0.014392090,0.870879054,3.828468323,0.301742554,0.431770325
19.583011,-0.054066285,0.028918456,0.880766749,4.797401428,-0.667190552,0.370735168
19.583637,-0.048451051,0.048815917,0.885649562,5.094947815,-1.567459106,0.393623352
19.584263,-0.028797729,0.074328616,0.900053859,5.262794495,-2.154922485,0.378364563
19.584888,-0.023426635,0.090441898,0.922514796,4.965248108,-2.444839478,0.302070618
19.585514,-0.016956909,0.100695804,0.952666163,4.713478088,-2.612686157,0.279182434
19.586141,-0.005482300,0.108996585,0.980620265,4.187049866,-2.414321899,0.118965149
19.586768,0.014415162,0.112414554,1.002104640,3.485145569,-2.360916138,0.027412415
19.587394,0.024058716,0.114489749,1.023589015,2.333106995,-1.941299438,0.073188782
19.588019,0.019786255,0.113269046,1.039091945,1.402320862,-1.666641235,0.080818176
19.588646,0.018321412,0.107287601,1.051421046,0.448646545,-0.903701782,-0.018363953
19.589272,0.018321412,0.099230960,1.055693507,-0.459251404,-0.407791138,0.027412415
19.590985,0.004527466,0.069445804,1.034819484,-2.305564880,0.553512573,-0.216728210
19.591612,-0.002674683,0.054675292,1.036040187,-2.122459412,0.568771362,-0.148063660
19.592239,-0.001820190,0.043200683,1.035063624,-2.458152771,0.751876831,-0.003105164
19.592865,-0.004017456,0.030993652,1.031767726,-1.985130310,0.500106812,0.149482727
19.593490,-0.004871948,0.023791503,1.031645656,-1.802024841,0.912094116,0.057929993
19.594117,-0.004383667,0.013293457,1.028471828,-1.489219666,0.744247437,-0.140434265
19.594743,-0.004627808,0.006457520,1.023344874,-1.161155701,0.675582886,0.027412415
19.595370,-0.005360229,0.003649903,1.017241359,-0.733909607,0.896835327,0.286811829
19.595995,-0.009876831,-0.000256347,1.010405421,-0.184593201,0.835800171,0.019783020
19.596621,-0.013538940,0.000720215,1.006743312,0.593605042,0.835800171,0.126594543
19.597246,-0.012684448,-0.000012207,1.001372218,1.249732971,0.744247437,0.279182434
19.597872,-0.012928588,0.002429199,1.003447413,1.928749084,0.454330444,0.187629700
19.598497,-0.014515502,0.003283692,1.002959132,2.684059143,0.477218628,0.042671204
19.599123,-0.011585815,0.011828613,1.004179835,3.477516174,0.080490112,0.080818176
19.599748,-0.013172729,0.023181152,1.006499171,3.904762268,0.385665894,0.317329407
19.601466,-0.006092651,0.042224120,1.004790187,4.034461975,0.454330444,0.248664856
19.602092,-0.007679565,0.050891113,1.005400538,4.095497131,0.393295288,0.241035461
19.602717,-0.010120971,0.061877441,1.009917140,4.003944397,0.286483765,0.248664856
19.603344,-0.007435425,0.072131351,1.009062648,3.645362854,0.423812866,0.187629700
19.603971,-0.004871948,0.078967288,1.005034328,3.263893127,0.408554077,0.157112122
19.635271,-0.009510620,0.061755370,0.990141749,-1.679954529,-0.430679321,0.118965149
19.636009,-0.007435425,0.071643069,0.988066554,-1.832542419,-0.331497192,0.050300598
19.636634,-0.007557495,0.085559085,0.988310695,-1.969871521,-0.400161743,0.180000305
19.637260,-0.001820190,0.099353030,0.983549953,-2.557334900,-0.278091431,-0.010734558
19.637885,-0.003040893,0.089953616,0.985381007,-3.190574646,-0.285720825,-0.239616394
19.638512,-0.008045776,0.066760257,0.988798976,-3.541526794,-0.377273560,0.012153625
19.639138,-0.012440307,0.059313964,0.993315578,-3.533897400,-0.270462036,0.019783020
19.639764,-0.010120971,0.054919433,0.996367335,-3.625450134,-0.484085083,0.080818176
19.640390,-0.009998901,0.042590331,0.996123195,-3.701744080,-0.407791138,0.042671204
19.641016,-0.011219604,0.032458495,0.998808742,-3.335533142,-0.438308716,0.042671204
19.641642,-0.010731323,0.027209472,0.997343898,-3.274497986,-0.346755981,0.065559387
19.642268,-0.013783081,0.025988769,0.995634913,-2.931175232,-0.445938110,-0.018363953
19.642894,-0.013783081,0.027453613,0.990752101,-2.587852478,-0.667190552,0.050300598
19.643520,-0.011463745,0.024523925,0.990385890,-2.503929138,-0.697708130,0.164741516
19.645235,-0.009510620,0.025866698,1.006499171,-1.390037537,-1.094436646,0.080818176
19.645862,-0.004505737,0.032214355,1.010771632,-1.107749939,-0.774002075,0.248664856
19.646487,-0.006703003,0.033068847,1.012846828,-0.947532654,-0.812149048,-0.003105164
19.647113,-0.002308472,0.040515136,1.017851710,-0.642356873,-0.850296021,0.256294250
19.647753,-0.001453979,0.038684081,1.023222804,-0.596580505,-0.850296021,-0.071769714
19.648378,0.001841919,0.042224120,1.029814601,-0.390586853,-0.667190552,0.126594543
19.649010,0.001475708,0.035754394,1.031401515,-0.367698669,-0.850296021,0.103706360
19.649637,0.007823365,0.039660644,1.036284328,0.036659241,-0.598526001,0.065559387
19.650264,0.007457153,0.039660644,1.035918117,-0.077781677,-0.232315063,0.218147278
19.650891,0.007457153,0.049426269,1.033964992,-0.070152283,0.172042847,0.294441223
19.651517,0.002086060,0.052722167,1.038237453,0.029029846,0.370407104,0.035041809
19.652142,-0.002064331,0.050036620,1.030302882,-0.070152283,0.530624390,-0.056510925
19.652768,-0.001576050,0.044909667,1.024809718,-0.199851990,0.255966187,0.126594543
19.653394,-0.002308472,0.042224120,1.018706203,-0.047264099,0.423812866,-0.018363953
19.654021,-0.005238159,0.044909667,1.017241359,-0.268516541,0.667953491,0.233406067
19.655727,-0.008289916,0.043444823,1.002714992,0.151100159,0.507736206,0.050300598
19.656353,-0.009022338,0.043566894,0.995879054,0.189247131,0.751876831,0.065559387
19.656978,-0.010120971,0.044787597,0.994902492,0.425758362,0.530624390,0.225776672
19.657604,-0.012928588,0.042346191,0.991850734,0.166358948,0.492477417,0.035041809
19.658229,-0.012074096,0.038195800,0.991240382,0.357093811,0.194931030,0.118965149
19.658855,-0.012928588,0.038317870,0.984526515,0.448646545,0.332260132,0.118965149
19.659480,-0.011829956,0.042956542,0.983672023,0.753822327,0.263595581,0.088447571
19.660107,-0.011952026,0.047106933,0.983549953,0.853004456,0.225448608,0.210517883
19.660732,-0.011219604,0.048815917,0.983183742,0.997962952,0.187301636,0.195259094
19.661359,-0.016224487,0.050280761,0.982329249,0.891151428,0.378036499,0.195259094
19.661985,-0.015369995,0.052844238,0.985991359,0.921669006,0.317001343,0.096076965
19.662611,-0.012684448,0.055529784,0.984038234,0.975074768,-0.072097778,0.157112122
19.663237,-0.012684448,0.058215331,0.982695460,0.715675354,-0.476455688,0.187629700
19.663862,-0.010731323,0.059680175,0.983183742,0.868263245,-0.102615356,0.134223938
19.664489,-0.007069214,0.058703613,0.985625148,0.578346252,-0.102615356,0.187629700
19.666199,-0.008900268,0.062854007,0.997221828,0.349464417,-0.217056274,0.050300598
19.666824,-0.004994018,0.064562991,0.998808742,0.074806213,-0.033950806,0.057929993
19.667449,-0.008167846,0.066882327,1.000395656,-0.047264099,-0.026321411,-0.148063660
19.668075,-0.006580933,0.061389159,1.001128078,-0.215110779,-0.133132935,0.012153625
19.681990,-0.007923706,0.036975097,1.007719874,0.349464417,0.011825562,-0.155693054
19.682737,-0.009144409,0.036486816,1.011137843,0.708045959,0.057601929,0.019783020
19.683364,-0.007923706,0.042834472,1.016142726,0.769081116,-0.293350220,-0.041252136
19.683990,-0.004505737,0.044665527,1.013701320,0.738563538,-0.011062622,0.126594543
19.684617,-0.005848511,0.046130370,1.013945460,0.944557190,0.072860718,0.019783020
19.685244,-0.003773315,0.046740722,1.019560695,0.975074768,0.255966187,0.012153625
19.685869,-0.003895386,0.045031738,1.014922023,0.914039612,0.156784058,-0.132804871
19.686496,-0.004994018,0.044543456,1.013579249,0.914039612,0.416183472,0.157112122
19.687121,-0.004871948,0.044787597,1.012480617,1.196327209,0.439071655,-0.018363953
19.687746,-0.006458862,0.039782714,1.007475734,1.188697815,0.332260132,-0.209098816
19.688373,-0.009144409,0.035021972,1.008208156,1.287879944,0.271224976,-0.163322449
19.688999,-0.007557495,0.034655761,1.009795070,1.478614807,0.286483765,0.019783020
19.689625,-0.008656127,0.032458495,1.006132960,1.608314514,0.637435913,0.004524231
19.690251,-0.010853393,0.033557128,1.005400538,1.966896057,0.355148315,-0.155693054
19.691967,-0.012318237,0.034655761,1.004668117,1.982154846,0.431442261,-0.056510925
19.692593,-0.012196166,0.034045409,1.004668117,2.432289124,0.301742554,-0.079399109
19.693220,-0.009388549,0.034655761,0.997832179,2.279701233,0.400924683,-0.094657898
19.693846,-0.011829956,0.035144042,1.003813624,2.256813049,0.439071655,0.103706360
19.694473,-0.010609252,0.035754394,0.999541163,2.653541565,0.301742554,-0.148063660
19.695099,-0.008411987,0.037341308,1.000639796,2.836647034,0.240707397,0.019783020
19.695724,-0.008900268,0.036608886,1.002592921,3.080787659,0.118637085,0.050300598
19.696349,-0.009876831,0.036853027,0.999052882,3.103675842,0.217819214,-0.056510925
19.696975,-0.009144409,0.041491698,0.999541163,3.416481018,0.271224976,-0.193840027
19.697602,-0.006580933,0.042712402,1.000395656,3.508033752,0.156784058,-0.018363953
19.698229,-0.008656127,0.041613769,1.000395656,3.767433167,0.141525269,-0.125175476
19.698856,-0.006580933,0.037341308,1.002959132,3.828468323,0.133895874,-0.209098816
19.699483,-0.007801636,0.040393066,1.004057765,3.836097717,-0.079727173,-0.102287292
19.700109,-0.007923706,0.043811034,1.004546046,4.003944397,0.172042847,-0.148063660
19.700736,-0.005604370,0.042224120,1.008208156,4.263343811,0.324630737,0.057929993
19.702451,-0.006336792,0.043322753,1.010771632,4.362525940,0.156784058,-0.163322449
19.703077,-0.003651245,0.042956542,1.011504054,4.400672913,0.507736206,0.019783020
19.703702,-0.004261597,0.043811034,1.013457179,4.332008362,0.240707397,-0.170951843
19.704327,-0.004017456,0.044177245,1.010039210,4.560890198,0.538253784,-0.178581238
19.704952,-0.004017456,0.041125488,1.011381984,4.675331116,0.332260132,-0.071769714
19.705579,-0.006214722,0.041125488,1.008818507,4.827919006,0.400924683,-0.048881531
19.706206,-0.005116089,0.041247558,1.011381984,4.995765686,0.378036499,-0.033622742
19.706831,-0.002430542,0.043078613,1.007841945,5.217018127,0.538253784,-0.117546082
19.707458,-0.004871948,0.047595214,1.007231593,5.018653870,0.515365601,0.035041809
19.708085,-0.001576050,0.046252441,1.007841945,5.133094788,0.698471069,-0.109916687
19.708712,-0.006336792,0.043811034,1.008086085,5.125465393,0.690841675,0.004524231
19.709337,-0.006825073,0.042346191,1.008086085,5.354347229,0.744247437,-0.079399109
19.709962,-0.010731323,0.044787597,1.002714992,5.346717834,0.820541382,0.050300598
19.710589,-0.008534057,0.042712402,1.002714992,5.476417542,0.790023804,-0.010734558
19.711215,-0.004871948,0.044665527,1.003691554,5.400123596,0.507736206,-0.033622742
19.712941,-0.010487182,0.046252441,0.997588038,6.094398499,0.683212280,-0.239616394
19.713567,-0.010609252,0.045764159,0.995756984,5.934181213,0.461959839,0.004524231
19.714194,-0.008534057,0.049792480,0.997465968,5.812110901,0.301742554,-0.117546082
19.714820,-0.008289916,0.050280761,0.997710109,6.178321838,0.492477417,0.012153625
19.715446,-0.008656127,0.049182128,0.997832179,6.079139709,0.324630737,-0.033622742
19.729210,-0.012196166,0.060778808,1.004423976,7.170143127,1.079940796,0.035041809
19.729920,-0.013416870,0.058459472,1.005034328,6.880226135,1.072311401,-0.125175476
19.730546,-0.009266479,0.058581542,0.997832179,6.948890686,0.790023804,0.027412415
19.731171,-0.006336792,0.069689944,0.992705226,6.750526428,1.034164429,-0.125175476
19.731798,-0.007435425,0.071765140,0.991728663,6.597938538,0.889205933,0.012153625
19.732425,-0.003285034,0.067980960,0.986479640,6.407203674,0.790023804,-0.003105164
19.733051,-0.005848511,0.063342288,0.990996242,6.170692444,0.889205933,-0.010734558
19.733676,-0.010487182,0.054675292,0.990141749,6.262245178,1.072311401,-0.109916687
19.734302,-0.009998901,0.051135253,0.994902492,6.071510315,0.561141968,-0.163322449
19.734929,-0.013050659,0.044055175,0.992827296,6.308021545,0.706100464,-0.018363953
19.735554,-0.012684448,0.041369628,0.988554835,6.185951233,0.805282593,-0.170951843
19.736180,-0.013538940,0.040759277,0.986601710,6.407203674,0.889205933,-0.178581238
19.736806,-0.014881713,0.046740722,0.982207179,6.712379456,0.759506226,-0.148063660
19.737431,-0.013172729,0.051989745,0.980376124,6.727638245,0.500106812,-0.079399109
19.739185,-0.009876831,0.052844238,0.992583156,6.887855530,0.202560425,-0.293022156
19.739812,-0.008289916,0.057116698,0.997832179,7.048072815,0.240707397,0.042671204
19.740437,-0.008778198,0.059802245,0.998320460,6.895484924,0.080490112,-0.025993347
19.741063,-0.008411987,0.061877441,1.000761867,6.918373108,0.179672241,-0.064140320
19.741688,-0.007923706,0.062976077,1.002959132,6.811561584,0.194931030,-0.201469421
19.742313,-0.007679565,0.063220218,1.004668117,6.643714905,0.317001343,0.164741516
19.742939,-0.005726440,0.065295413,1.003447413,6.819190979,0.263595581,-0.048881531
19.743564,-0.005238159,0.064318851,1.005156398,6.399574280,0.255966187,-0.201469421
19.744189,-0.008167846,0.064196780,1.008574367,6.460609436,0.431442261,0.019783020
19.744816,-0.007557495,0.065905765,1.004546046,6.063880920,0.439071655,0.057929993
19.745441,-0.009022338,0.069445804,1.005034328,6.033363342,0.492477417,-0.186210632
19.746066,-0.004139526,0.067980960,1.005156398,6.040992737,0.553512573,-0.117546082
19.746691,-0.008411987,0.069567874,1.003935695,5.529823303,0.706100464,-0.087028503
19.747317,-0.011829956,0.069689944,1.003203273,5.369606018,0.774765015,-0.025993347
19.747944,-0.011341674,0.068225101,0.999541163,5.110206604,0.988388062,-0.087028503
19.749662,-0.012074096,0.069689944,0.995879054,4.766883850,0.973129272,-0.071769714
19.750287,-0.011097534,0.069934085,0.993803859,4.591407776,0.919723511,0.027412415
19.750913,-0.013294799,0.069934085,0.988432765,4.499855042,0.706100464,0.065559387
19.751538,-0.017323120,0.064929202,0.982329249,4.339637756,0.957870483,0.141853333
19.752164,-0.015614135,0.064685062,0.982085109,4.103126526,0.790023804,0.050300598
19.752791,-0.017323120,0.065295413,0.981596828,4.080238342,0.622177124,0.050300598
19.753418,-0.020374877,0.068469241,0.975493312,3.736915588,0.843429565,-0.064140320
19.754043,-0.021107299,0.068835452,0.973051906,3.958168030,0.683212280,0.042671204
19.754669,-0.023792846,0.071032718,0.974150538,3.645362854,0.461959839,0.065559387
19.755295,-0.018055541,0.064929202,0.975249171,3.469886780,0.484848022,-0.293022156
19.755922,-0.018665893,0.067736819,0.974638820,3.286781311,0.255966187,0.134223938
19.756547,-0.019520385,0.065051273,0.975615382,3.118934631,0.172042847,0.088447571
19.757172,-0.017811401,0.067736819,0.978178859,2.882423401,0.301742554,0.042671204
19.757797,-0.015492065,0.069689944,0.976958156,2.882423401,0.034713745,-0.010734558
19.758423,-0.014515502,0.070178226,0.978911281,2.676429749,-0.110244751,-0.003105164
19.760137,-0.014149291,0.070910648,0.985625148,2.249183655,0.019454956,-0.010734558
19.760762,-0.015614135,0.073474124,0.984892726,1.936378479,-0.110244751,0.080818176
19.761387,-0.011341674,0.070544437,0.990019679,1.432838440,-0.133132935,0.050300598
19.762012,-0.010853393,0.072619632,0.991728663,1.409950256,0.103378296,0.118965149
19.762639,-0.010609252,0.072253421,0.991728663,1.203956604,0.080490112,-0.025993347
19.776470,-0.003529175,0.059313964,1.004546046,0.242652893,-0.018692017,0.263923645
19.777202,-0.007313354,0.059558105,1.003447413,-0.115928650,0.126266479,0.012153625
19.777827,-0.008534057,0.058337402,1.006865382,0.105323792,0.355148315,0.195259094
19.778454,-0.004261597,0.059802245,1.002592921,0.044288635,0.233078003,0.218147278
19.779080,-0.004139526,0.058581542,1.002714992,0.082435608,0.248336792,0.180000305
19.779706,-0.004871948,0.055895995,0.998686671,0.303688049,0.370407104,0.050300598
19.780331,-0.003285034,0.055285644,0.998320460,0.097694397,0.111007690,0.302070618
19.780956,-0.009754760,0.056872558,1.000761867,0.013771057,0.118637085,0.111335754
19.781582,-0.008411987,0.057238769,0.997588038,0.158729553,0.149154663,0.042671204
19.782208,-0.004627808,0.057238769,0.998198390,0.051918030,0.179672241,0.134223938
19.782833,-0.005848511,0.057482909,0.997710109,0.265541077,0.332260132,-0.148063660
19.783458,-0.006947143,0.055163573,0.993925929,0.280799866,0.011825562,0.088447571
19.784085,-0.007557495,0.057971191,0.994902492,0.578346252,0.042343140,0.050300598
19.784710,-0.006947143,0.056140136,0.994414210,0.288429260,-0.064468384,0.080818176
19.786423,-0.006336792,0.055041503,0.998076320,0.196876526,-0.201797485,-0.033622742
19.787048,-0.006092651,0.054431152,1.001250148,0.532569885,-0.247573853,-0.094657898
19.787673,-0.001576050,0.051135253,1.002714992,0.486793518,0.004196167,0.164741516
19.788300,-0.000477417,0.051989745,1.002592921,0.608863831,0.042343140,0.218147278
19.788927,-0.005116089,0.059313964,1.003081203,0.647010803,0.172042847,0.050300598
19.789552,-0.006703003,0.060168456,1.004668117,0.502052307,0.439071655,0.103706360
19.790177,-0.010365112,0.060656738,1.001006007,0.517311096,0.408554077,-0.079399109
19.790804,-0.009144409,0.058093261,1.001250148,0.410499573,0.103378296,0.050300598
19.791431,-0.007557495,0.054797363,0.997465968,0.463905334,0.347518921,-0.064140320
19.792057,-0.008534057,0.054309081,0.996245265,0.624122620,-0.094985962,0.218147278
19.792683,-0.009266479,0.053576659,0.999052882,0.723304749,-0.072097778,0.050300598
19.793309,-0.009632690,0.054553222,0.999297023,0.662269592,0.042343140,0.080818176
19.793934,-0.005116089,0.057116698,1.000883937,0.791969299,0.019454956,0.042671204
19.794559,-0.008411987,0.056140136,1.004912257,0.746192932,-0.117874146,-0.148063660
19.795184,-0.009022338,0.052966308,1.006499171,0.845375061,0.294113159,-0.178581238
19.796882,-0.008411987,0.051989745,1.002226710,0.769081116,0.149154663,-0.071769714
19.797508,-0.006580933,0.051257323,1.001250148,1.135292053,-0.079727173,-0.018363953
19.798133,-0.008167846,0.046252441,1.005766749,0.891151428,0.118637085,0.027412415
19.798760,-0.008167846,0.045642089,1.004301906,1.272621155,0.034713745,-0.048881531
19.799387,-0.004994018,0.046984863,1.004790187,1.470985413,0.011825562,0.050300598
19.800014,-0.008045776,0.049548339,1.006865382,1.532020569,0.126266479,0.012153625
19.800639,-0.007069214,0.045397948,1.007475734,1.844825745,0.156784058,0.065559387
19.801264,-0.007191284,0.042590331,1.009795070,1.875343323,0.225448608,-0.132804871
19.801889,-0.006214722,0.048083495,1.011504054,1.951637268,0.324630737,-0.132804871
19.802514,-0.007069214,0.048205566,1.010893703,2.119483948,0.080490112,-0.064140320
19.803140,-0.007191284,0.046862792,1.011504054,2.294960022,0.263595581,0.096076965
19.803765,-0.006092651,0.044177245,1.011626124,2.233924866,0.317001343,0.019783020
19.804391,-0.009266479,0.048571777,1.011992335,2.516212463,0.263595581,-0.010734558
19.805018,-0.007069214,0.052844238,1.012480617,2.638282776,0.507736206,-0.079399109
19.805645,-0.008289916,0.053698730,1.009795070,2.577247620,0.225448608,-0.033622742
19.807374,-0.009022338,0.056262206,1.009428859,2.767982483,0.408554077,-0.064140320
19.808001,-0.005604370,0.057238769,1.007109523,2.745094299,0.568771362,-0.071769714
19.808627,-0.006703003,0.062121581,1.007231593,2.684059143,0.553512573,0.042671204
19.809254,-0.003285034,0.072497562,1.004057765,2.508583069,0.614547729,-0.041252136
19.809880,-0.003040893,0.080676273,0.998564601,2.394142151,0.622177124,0.004524231
19.823977,-0.000599487,0.073352054,1.015410304,3.576698303,0.774765015,-0.079399109
19.824674,-0.000843628,0.069079593,1.015654445,3.492774963,0.835800171,-0.087028503
19.825300,0.000255005,0.062731937,1.012114406,3.324928284,0.957870483,0.294441223
19.825925,-0.004871948,0.065539554,1.008208156,2.958717346,1.011276245,0.080818176
19.826551,-0.007679565,0.060778808,0.999419093,2.752723694,1.156234741,-0.010734558
19.827178,-0.007679565,0.060778808,0.995390773,2.844276428,0.996017456,0.172370911
19.827804,-0.008045776,0.058703613,0.991484523,2.722206116,0.965499878,0.180000305
19.828429,-0.011219604,0.058703613,0.984526515,2.767982483,1.255416870,-0.224357605
19.829054,-0.014637573,0.061389159,0.982085109,2.653541565,0.965499878,0.111335754
19.829681,-0.015980346,0.059436034,0.983305812,2.851905823,1.156234741,-0.140434265
19.830306,-0.013905151,0.062365722,0.978300929,2.737464905,0.912094116,0.172370911
19.830931,-0.015858276,0.063586429,0.978422999,2.653541565,0.675582886,0.019783020
19.831557,-0.017445190,0.063098148,0.974882960,2.516212463,0.774765015,-0.048881531
19.832183,-0.018910034,0.065905765,0.973662257,2.653541565,0.683212280,-0.018363953
19.833944,-0.018665893,0.068469241,0.973418117,2.561988831,0.378036499,-0.087028503
19.834569,-0.016590698,0.070910648,0.974394679,2.241554260,0.576400757,0.172370911
19.835196,-0.017689331,0.070910648,0.979277492,2.256813049,0.004196167,0.210517883
19.835821,-0.018787963,0.069689944,0.978056788,2.409400940,0.072860718,0.042671204
19.836447,-0.015614135,0.071520999,0.979155421,1.944007874,0.194931030,0.019783020
19.837072,-0.015369995,0.076037601,0.984404445,2.073707581,-0.163650513,-0.048881531
19.837698,-0.011585815,0.077136233,0.988921046,1.646461487,-0.384902954,0.080818176
19.838324,-0.011341674,0.077014163,0.989775538,1.364173889,0.164413452,0.164741516
19.838950,-0.008167846,0.076892093,0.992827296,0.975074768,-0.041580200,0.172370911
19.839576,-0.012318237,0.075671390,0.993437648,0.769081116,-0.125503540,-0.117546082
19.840202,-0.011707885,0.074938968,0.999663234,0.654640198,0.049972534,0.157112122
19.840828,-0.011829956,0.074206546,0.998076320,0.379981995,0.118637085,0.126594543
19.841453,-0.010975463,0.074816898,0.995634913,0.280799866,0.042343140,-0.018363953
19.842079,-0.011707885,0.071032718,0.998076320,0.029029846,0.187301636,-0.010734558
19.842706,-0.013905151,0.072131351,0.993925929,0.051918030,0.194931030,0.111335754
19.844418,-0.017567260,0.065173343,0.993559718,-0.199851990,-0.087356567,0.035041809
19.845043,-0.012074096,0.062365722,0.989775538,-0.390586853,0.072860718,0.019783020
19.845670,-0.015003784,0.064440921,0.990507960,-0.337181091,0.080490112,-0.064140320
19.846295,-0.014881713,0.063952640,0.991850734,-0.382957458,-0.201797485,0.057929993
19.846921,-0.015492065,0.064074710,0.992949367,-0.253257751,-0.003433228,-0.010734558
19.847546,-0.014149291,0.067004398,0.994047999,-0.512657166,-0.003433228,0.027412415
19.848172,-0.014149291,0.069689944,0.994536281,-0.299034119,0.286483765,0.126594543
19.848799,-0.014515502,0.076403812,0.991606593,-0.695762634,-0.186538696,0.294441223
19.849425,-0.011097534,0.081652835,0.995024562,-1.023826599,0.088119507,0.073188782
19.850051,-0.015003784,0.077258304,0.992461085,-1.161155701,-0.094985962,0.103706360
19.850676,-0.013172729,0.062609866,0.992827296,-1.374778748,-0.018692017,-0.041252136
19.851303,-0.017078979,0.054187011,0.995512843,-1.367149353,-0.156021118,0.073188782
19.851929,-0.019764526,0.052966308,0.996245265,-1.527366638,0.080490112,0.088447571
19.852555,-0.016956909,0.046252441,0.994780421,-1.313743591,-0.011062622,0.088447571
19.853181,-0.016468627,0.041857909,0.994414210,-1.206932068,-0.178909302,0.187629700
19.854886,-0.015247924,0.051257323,0.991606593,-0.741539001,-0.400161743,0.057929993
19.855511,-0.013661010,0.054309081,0.996001124,-0.382957458,-0.362014771,0.141853333
19.856136,-0.015369995,0.051867675,0.994170070,-0.634727478,-0.293350220,0.065559387
19.856761,-0.012806518,0.052355956,0.997710109,-0.489768982,-0.392532349,0.111335754
19.857387,-0.014393432,0.054797363,1.002104640,-0.352439880,-0.400161743,0.317329407
19.888718,-0.004749878,0.061755370,1.012480617,1.890602112,0.721359253,0.309700012
19.889481,-0.005604370,0.063220218,1.007353663,1.593055725,0.881576538,0.187629700
19.890107,-0.010365112,0.060900878,1.000395656,1.699867249,0.927352905,0.042671204
19.890732,-0.009998901,0.061022948,0.996733546,1.882972717,0.805282593,0.210517883
19.891359,-0.009144409,0.063586429,0.986845851,1.478614807,0.629806519,0.233406067
19.891986,-0.008167846,0.066027835,0.985503078,1.791419983,1.194381714,0.202888489
19.892611,-0.009754760,0.068591312,0.982451320,1.348915100,0.744247437,0.187629700
19.893236,-0.010975463,0.068347171,0.979643703,1.600685120,0.614547729,0.080818176
19.893862,-0.011952026,0.073962405,0.976103663,1.226844788,0.751876831,0.225776672
19.894488,-0.014271362,0.076892093,0.976714015,1.181068420,0.629806519,0.134223938
19.895115,-0.013783081,0.076525882,0.971831203,0.967445374,0.416183472,0.279182434
19.895740,-0.017689331,0.075549319,0.970244288,0.891151428,0.149154663,0.027412415
19.896366,-0.015980346,0.073474124,0.967802882,0.860633850,0.400924683,0.088447571
19.896993,-0.016834838,0.071643069,0.967802882,0.608863831,-0.094985962,0.088447571
19.898711,-0.012684448,0.071520999,0.974150538,0.105323792,-0.285720825,-0.025993347
19.899337,-0.012562377,0.070788577,0.977568507,-0.009117126,-0.102615356,0.180000305
19.899963,-0.012562377,0.070788577,0.977568507,-0.009117126,-0.102615356,0.180000305
19.900589,-0.011829956,0.070910648,0.980131984,-0.054893494,-0.285720825,0.187629700
19.901214,-0.009388549,0.069689944,0.983549953,-0.253257751,-0.362014771,0.225776672
19.901840,-0.009510620,0.070788577,0.989409328,-0.344810486,-0.445938110,0.080818176
19.902465,-0.006336792,0.074450687,0.989409328,-0.382957458,-0.545120239,0.042671204
19.903090,-0.005970581,0.078112796,0.992216945,-0.787315369,-0.247573853,-0.071769714
19.903717,-0.006458862,0.087390140,0.995024562,-1.077232361,-0.377273560,0.210517883
19.904342,-0.003651245,0.091174319,0.994292140,-1.100120544,-0.262832642,0.286811829
19.904967,-0.002552612,0.084338382,0.996001124,-1.901206970,-0.568008423,0.004524231
19.905594,-0.003773315,0.064562991,1.002592921,-1.718101501,-0.300979614,0.065559387
19.906220,-0.009632690,0.051257323,1.003325343,-1.634178162,0.164413452,0.057929993
19.906845,-0.012318237,0.044909667,1.008818507,-1.733360291,-0.064468384,0.057929993
19.907470,-0.011463745,0.038073730,1.009428859,-1.664695740,-0.255203247,0.225776672
19.909191,-0.007069214,0.037951659,1.006255031,-0.558433533,-0.323867798,-0.018363953
19.909816,-0.008167846,0.041125488,1.009550929,-0.245628357,-0.339126587,0.195259094
19.910441,-0.009022338,0.045031738,1.010771632,0.074806213,-0.102615356,-0.010734558
19.911067,-0.009388549,0.044055175,1.012602687,0.143470764,-0.476455688,0.111335754
19.911692,-0.006092651,0.044421386,1.018950343,0.364723206,-0.171279907,0.035041809
19.912318,-0.008289916,0.048327636,1.019438624,0.509681702,-0.117874146,0.111335754
19.912943,-0.005726440,0.050769042,1.021147609,0.616493225,-0.354385376,0.080818176
19.913569,-0.005116089,0.051013183,1.021513820,1.013221741,0.065231323,0.195259094
19.914194,-0.005482300,0.057116698,1.023222804,0.563087463,0.172042847,0.332588196
19.914820,-0.004505737,0.059436034,1.019072413,0.921669006,0.065231323,0.118965149
19.915447,-0.007069214,0.061755370,1.020293117,0.776710510,0.324630737,0.118965149
19.916072,-0.008167846,0.061022948,1.018339992,0.990333557,0.461959839,0.218147278
19.916697,-0.009388549,0.059436034,1.017241359,0.944557190,0.294113159,0.141853333
19.917324,-0.006214722,0.060900878,1.014433742,0.967445374,0.492477417,0.103706360
19.917951,-0.005848511,0.060778808,1.012846828,0.944557190,0.522994995,0.149482727
19.919656,-0.011952026,0.064196780,1.004423976,0.761451721,0.751876831,0.263923645
19.920282,-0.012806518,0.059313964,1.002592921,0.799598694,0.637435913,0.149482727
19.920908,-0.014881713,0.061999511,0.995756984,0.647010803,0.522994995,0.080818176
19.921534,-0.014759643,0.056994628,0.993559718,0.585975647,0.919723511,-0.041252136
19.922160,-0.016468627,0.054187011,0.983427882,0.532569885,0.584030151,0.065559387
19.936019,-0.008045776,0.056628417,1.013457179,0.265541077,0.179672241,-0.132804871
19.936730,-0.007923706,0.053698730,1.006987453,0.326576233,0.255966187,0.241035461
19.937357,-0.007557495,0.053088378,1.001738429,0.318946838,0.561141968,0.180000305
19.937983,-0.009632690,0.049792480,1.005278468,0.547828674,0.606918335,-0.033622742
19.938609,-0.011463745,0.048815917,0.998686671,0.379981995,0.423812866,-0.140434265
19.939234,-0.011829956,0.047595214,0.997588038,0.875892639,0.271224976,0.202888489
19.939859,-0.010609252,0.045153808,0.995634913,0.746192932,0.172042847,-0.064140320
19.940484,-0.009876831,0.046984863,0.995879054,1.150550842,0.408554077,0.126594543
19.941109,-0.010731323,0.045275878,0.993315578,1.188697815,0.111007690,0.027412415
19.941734,-0.011097534,0.048083495,0.993803859,1.371803284,0.164413452,0.012153625
19.942359,-0.010975463,0.048083495,0.998564601,1.638832092,0.133895874,0.172370911
19.942984,-0.008778198,0.050891113,0.996001124,1.539649963,0.225448608,0.157112122
19.943609,-0.008534057,0.051867675,0.999174953,1.806678772,0.065231323,0.027412415
19.944236,-0.010120971,0.052478027,1.000273585,1.860084534,-0.064468384,0.134223938
19.945964,-0.008656127,0.058337402,1.004179835,2.127113342,0.065231323,0.233406067
19.946590,-0.007435425,0.062121581,0.998808742,1.852455139,0.080490112,0.172370911
19.947215,-0.006703003,0.059924316,1.004057765,2.005043030,0.118637085,0.050300598
19.947842,-0.003895386,0.059558105,1.001006007,1.776161194,0.278854370,-0.041252136
19.948468,-0.007557495,0.062121581,1.000761867,2.027931213,0.423812866,-0.025993347
19.949094,-0.008900268,0.062243652,1.002226710,2.050819397,0.378036499,0.042671204
19.949719,-0.007435425,0.062609866,0.999663234,1.760902405,0.088119507,0.134223938
19.950344,-0.009022338,0.065417483,0.998686671,1.936378479,0.484848022,0.218147278
19.950970,-0.008289916,0.064440921,0.993925929,1.738014221,0.515365601,-0.186210632
19.951596,-0.008534057,0.067980960,0.996001124,1.837196350,0.385665894,-0.102287292
19.952223,-0.008045776,0.065539554,0.994780421,1.837196350,0.522994995,-0.010734558
19.952850,-0.010120971,0.063708499,0.998808742,1.715126038,0.446701050,0.050300598
19.953475,-0.008289916,0.064440921,0.996001124,1.638832092,0.240707397,0.294441223
19.954101,-0.010120971,0.059436034,0.995390773,1.928749084,0.446701050,-0.041252136
19.954726,-0.008411987,0.064685062,0.996489406,1.905860901,0.088119507,0.035041809
19.956500,-0.009266479,0.062365722,0.993071437,2.027931213,0.332260132,-0.071769714
19.957138,-0.009144409,0.066760257,0.990385890,2.005043030,0.347518921,-0.018363953
19.957765,-0.008778198,0.074572757,0.994292140,1.600685120,0.339889526,0.012153625
19.958392,-0.008411987,0.077746585,0.990874171,1.837196350,-0.018692017,-0.010734558
19.959019,-0.006825073,0.082263187,0.992094874,1.608314514,0.301742554,-0.102287292
19.959646,-0.004627808,0.091052249,0.991606593,1.287879944,0.149154663,0.218147278
19.960271,0.000743286,0.098986819,0.989897609,1.280250549,0.317001343,-0.041252136
19.960898,0.009654419,0.132434085,0.982939601,0.471534729,0.111007690,0.080818176
19.961524,0.006236450,0.177966312,0.969756007,-0.558433533,0.614547729,0.393623352
19.962149,-0.033680543,0.142810062,0.970610499,-2.320823669,1.224899292,0.073188782
19.962775,-0.025013549,0.032092284,0.995024562,-2.801475525,0.790023804,-0.468498230
19.963401,-0.026112182,-0.008312988,0.995879054,-1.992759705,-0.094985962,-0.155693054
19.964028,-0.014759643,0.020617675,0.981718898,-0.779685974,-0.247573853,-0.010734558
19.964653,-0.006825073,0.041247558,0.972685695,-0.131187439,-0.026321411,-0.308280945
19.965280,-0.015736206,0.062365722,0.971953273,0.143470764,-0.278091431,-0.285392761
19.966982,-0.004505737,0.070788577,0.979643703,-0.398216248,-0.941848755,-0.247245789
19.967607,0.000865357,0.064318851,0.990019679,-0.581321716,-0.644302368,-0.201469421
19.968234,-0.008289916,0.060290527,1.006010890,-0.428733826,-0.682449341,0.027412415
19.968860,-0.013172729,0.060900878,1.013457179,-0.566062927,-0.667190552,-0.323539734
19.969485,-0.010120971,0.067736819,1.006621242,-0.474510193,-0.484085083,-0.216728210
19.983304,-0.020252807,0.069079593,0.970000148,-1.786766052,-0.415420532,-0.056510925
19.984041,-0.017201049,0.066394046,0.973051906,-1.954612732,-0.400161743,-0.254875183
19.984666,-0.018177612,0.063098148,0.973662257,-2.183494568,-0.468826294,-0.018363953
19.985293,-0.015125854,0.062976077,0.974394679,-2.030906677,-0.629043579,-0.254875183
19.985919,-0.019032104,0.064929202,0.977080226,-1.786766052,-0.728225708,-0.163322449
19.986544,-0.017689331,0.067858890,0.976958156,-2.076683044,-0.781631470,-0.247245789
19.987170,-0.013905151,0.070788577,0.982085109,-2.290306091,-0.934219360,-0.201469421
19.987795,-0.014149291,0.069445804,0.983549953,-2.580223083,-0.888442993,-0.048881531
19.988421,-0.009510620,0.070056155,0.993803859,-2.503929138,-0.827407837,-0.033622742
19.989046,-0.009144409,0.067858890,0.995634913,-2.587852478,-0.552749634,-0.140434265
19.989672,-0.007191284,0.066027835,0.998930812,-2.870140076,-0.819778442,-0.048881531
19.990299,-0.004994018,0.064074710,1.005034328,-2.755699158,-0.949478149,0.019783020
19.990924,-0.005482300,0.068347171,1.004423976,-3.083763123,-0.514602661,-0.224357605
19.991550,-0.009998901,0.066149905,1.008452296,-3.144798279,-0.537490845,-0.216728210
19.993273,-0.004627808,0.075915530,1.001982570,-3.793296814,-0.354385376,0.080818176
19.993898,-0.007557495,0.076770023,0.999174953,-3.846702576,-0.453567505,-0.094657898
19.994525,-0.009876831,0.067614749,0.997832179,-4.266319275,-0.163650513,-0.033622742
19.995151,-0.011952026,0.051013183,0.996733546,-4.342613220,-0.049209595,-0.010734558
19.995778,-0.015247924,0.034777831,1.000883937,-4.075584412,-0.293350220,-0.041252136
19.996404,-0.015492065,0.027941894,1.001128078,-3.717002869,-0.346755981,-0.140434265
19.997029,-0.015980346,0.025256347,1.001860499,-3.243980408,-0.346755981,-0.293022156
19.997654,-0.013538940,0.024157714,1.002837062,-2.915916443,-0.461196899,-0.117546082
19.998280,-0.014149291,0.023303222,1.002470851,-2.465782166,-0.491714478,-0.010734558
19.998906,-0.012562377,0.027087402,1.001006007,-2.229270935,-0.842666626,0.118965149
19.999532,-0.010609252,0.031359863,1.000883937,-2.076683044,-0.629043579,0.057929993
20.000158,-0.010853393,0.032702636,1.002959132,-1.550254822,-0.774002075,-0.079399109
20.000783,-0.009754760,0.031604003,1.009917140,-1.397666931,-0.804519653,-0.148063660
20.001408,-0.010120971,0.036975097,1.012968898,-1.374778748,-0.514602661,0.057929993
20.002033,-0.010487182,0.038562011,1.020659328,-1.077232361,-0.758743286,-0.087028503
20.003753,-0.009388549,0.051379394,1.019072413,-0.901756287,-0.545120239,0.256294250
20.004380,-0.004871948,0.051745605,1.019194484,-0.749168396,-0.156021118,0.180000305
20.005009,-0.007191284,0.054919433,1.019682765,-0.726280212,-0.331497192,0.172370911
20.005635,-0.004627808,0.055285644,1.021757960,-0.871238708,-0.178909302,0.263923645
20.006262,-0.004505737,0.057604980,1.021513820,-0.703392029,-0.072097778,0.393623352
20.006888,-0.003162964,0.060778808,1.019804835,-0.665245056,0.088119507,0.172370911
20.007515,-0.000965698,0.061999511,1.016264796,-0.787315369,0.164413452,0.149482727
20.008140,-0.006580933,0.061999511,1.013213038,-0.627098083,0.019454956,0.149482727
20.008766,-0.007679565,0.061389159,1.010649562,-0.871238708,0.133895874,0.057929993
20.009392,-0.005970581,0.059313964,1.007597804,-0.932273865,0.385665894,0.454658508
20.010017,-0.008900268,0.057849120,1.004301906,-0.962791443,0.301742554,0.111335754
20.010644,-0.008656127,0.058093261,1.000883937,-0.932273865,0.744247437,0.187629700
20.011270,-0.010975463,0.057727050,0.995146632,-0.848350525,0.400924683,0.080818176
20.011896,-0.010487182,0.058947753,0.989531398,-0.848350525,0.202560425,0.172370911
20.012523,-0.011341674,0.057116698,0.986357570,-0.642356873,0.072860718,0.027412415
20.014229,-0.012562377,0.055041503,0.986479640,-0.604209900,0.164413452,0.111335754
20.014856,-0.014393432,0.055041503,0.986235499,-0.237998962,-0.186538696,0.309700012
20.015482,-0.016224487,0.056628417,0.986479640,-0.245628357,-0.201797485,0.164741516
20.016109,-0.011219604,0.058093261,0.989653468,-0.306663513,-0.140762329,0.126594543
20.031243,-0.010243041,0.036364745,1.007841945,0.173988342,0.126266479,0.103706360
20.031939,-0.011952026,0.031115722,1.011259913,0.219764709,0.339889526,0.004524231
20.032564,-0.009266479,0.029162597,1.008452296,0.471534729,0.210189819,-0.148063660
20.033191,-0.008045776,0.028186034,1.009062648,0.944557190,0.187301636,0.027412415
20.033816,-0.010243041,0.031237792,1.008452296,1.257362366,0.225448608,-0.064140320
20.034442,-0.008411987,0.037097167,1.005888820,1.509132385,-0.064468384,0.088447571
20.035069,-0.009632690,0.041125488,1.004179835,1.959266663,0.111007690,0.164741516
20.035696,-0.004749878,0.042956542,1.002959132,1.944007874,0.072860718,-0.056510925
20.036323,-0.005482300,0.046862792,1.006499171,2.111854553,0.011825562,-0.270133972
20.036950,-0.008656127,0.048083495,1.009428859,2.355995178,0.126266479,0.042671204
20.037576,-0.004383667,0.050158691,1.012114406,2.546730042,0.255966187,0.111335754
20.038202,-0.004383667,0.050158691,1.012114406,2.546730042,0.255966187,0.111335754
20.038829,-0.002918823,0.056262206,1.011137843,2.516212463,0.156784058,0.302070618
20.039455,-0.004017456,0.056872558,1.009062648,2.546730042,0.240707397,-0.071769714
20.041220,-0.001209839,0.071765140,1.010893703,2.508583069,0.675582886,0.027412415
20.041845,-0.003895386,0.071887210,1.007964015,2.409400940,0.378036499,0.050300598
20.042472,-0.004994018,0.063586429,1.008940578,2.478065491,0.561141968,0.218147278
20.043097,-0.006214722,0.057482909,1.009062648,2.333106995,0.530624390,0.111335754
20.043724,-0.006825073,0.060534667,1.006010890,2.493324280,0.545883179,-0.163322449
20.044350,-0.001087768,0.066760257,1.004668117,2.447547913,0.919723511,0.035041809
20.044975,-0.004749878,0.064929202,1.002104640,2.409400940,0.454330444,-0.094657898
20.045601,-0.003773315,0.066149905,0.996123195,2.272071838,0.728988647,0.241035461
20.046228,-0.009998901,0.065539554,0.995879054,2.050819397,0.477218628,-0.132804871
20.046853,-0.008411987,0.069689944,0.995756984,2.073707581,0.698471069,0.157112122
20.047480,-0.009144409,0.068957523,0.991606593,2.172889709,0.744247437,0.035041809
20.048107,-0.008045776,0.066760257,0.990019679,1.905860901,0.629806519,-0.155693054
20.048732,-0.010120971,0.067614749,0.987456203,2.111854553,0.828170776,-0.170951843
20.049357,-0.010365112,0.063342288,0.984770656,2.005043030,0.492477417,-0.231987000
20.049983,-0.010487182,0.065783694,0.986601710,2.012672424,0.484848022,-0.193840027
20.051692,-0.009144409,0.065295413,0.984282374,2.417030334,0.271224976,-0.231987000
20.052318,-0.008534057,0.065783694,0.984404445,2.027931213,0.210189819,-0.109916687
20.052944,-0.009022338,0.067370608,0.988310695,2.195777893,0.225448608,0.180000305
20.053570,-0.008411987,0.066027835,0.989409328,2.073707581,0.362777710,-0.338798523
20.054197,-0.011463745,0.065417483,0.991728663,2.088966370,-0.094985962,-0.079399109
20.054823,-0.009876831,0.062365722,0.992705226,2.127113342,0.141525269,-0.064140320
20.055450,-0.008045776,0.062976077,0.998808742,2.340736389,-0.186538696,-0.331169128
20.056075,-0.008656127,0.063586429,1.001128078,2.478065491,0.011825562,-0.109916687
20.056701,-0.008167846,0.066027835,1.002592921,2.569618225,0.187301636,-0.331169128
20.057428,-0.006336792,0.062976077,1.005522609,2.439918518,0.194931030,-0.239616394
20.058053,-0.007069214,0.061877441,1.008574367,2.500953674,0.095748901,-0.361686707
20.058679,-0.003285034,0.059191894,1.011259913,2.569618225,-0.003433228,-0.376945496
20.059312,-0.004261597,0.055773925,1.015776515,2.684059143,0.072860718,-0.300651550
20.059937,-0.007679565,0.052966308,1.016386867,2.607765198,0.111007690,-0.384574890
20.061688,-0.006214722,0.046740722,1.023100734,3.302040100,0.385665894,-0.384574890
20.062314,-0.007557495,0.046618652,1.020048976,3.698768616,0.378036499,-0.422721863
20.062941,-0.004505737,0.046374511,1.022368312,3.912391663,0.736618042,-0.552421570
20.063567,-0.003407104,0.047229003,1.022612453,4.133644104,0.522994995,-0.521903992
20.064193,-0.005848511,0.043688964,1.022124171,4.377784729,0.675582886,-0.598197937
20.064819,-0.007435425,0.044665527,1.017241359,4.698219299,0.522994995,-0.331169128
20.078645,-0.018055541,0.079577640,0.964262843,4.476966858,0.683212280,-0.247245789
20.079371,-0.015736206,0.086047366,0.963652492,4.263343811,0.728988647,-0.491386414
20.079998,-0.016712768,0.085681155,0.960722804,3.584327698,0.568771362,-0.529533386
20.080623,-0.018543823,0.086291507,0.960600734,3.508033752,0.622177124,-0.575309753
20.081248,-0.019642456,0.090563968,0.961699367,3.096046448,0.370407104,-0.300651550
20.081875,-0.020496948,0.092150882,0.961089015,2.554359436,0.561141968,-0.224357605
20.082500,-0.020741088,0.088610843,0.957060695,2.020301819,0.217819214,-0.109916687
20.083127,-0.018910034,0.088366702,0.958769679,1.455726624,0.019454956,-0.224357605
20.083753,-0.016590698,0.082385257,0.960478663,1.219215393,-0.094985962,-0.254875183
20.084379,-0.018910034,0.082873538,0.959990382,0.906410217,0.027084351,-0.430351257
20.085010,-0.019398315,0.079333499,0.960600734,0.494422913,0.004196167,-0.125175476
20.085637,-0.018787963,0.075915530,0.964384913,0.212135315,-0.239944458,-0.140434265
20.086264,-0.016346557,0.074572757,0.969267726,-0.032005310,-0.339126587,-0.239616394
20.086890,-0.015247924,0.074328616,0.971342921,0.074806213,-0.423049927,-0.239616394
20.088606,-0.016468627,0.069445804,0.982695460,-0.680503845,-0.377273560,0.035041809
20.089232,-0.014637573,0.071520999,0.985136867,-0.970420837,-0.491714478,-0.239616394
20.089857,-0.012196166,0.069201663,0.984526515,-1.046714783,-0.522232056,-0.262504578
20.090483,-0.010609252,0.067126468,0.989043117,-1.115379333,-0.705337524,-0.178581238
20.091109,-0.011952026,0.064196780,0.991484523,-1.077232361,-0.560379028,-0.033622742
20.091736,-0.008534057,0.065661624,0.998198390,-1.069602966,-0.857925415,-0.041252136
20.092362,-0.007679565,0.065539554,1.004179835,-1.115379333,-0.575637817,-0.033622742
20.092988,-0.005848511,0.063098148,1.008696437,-1.092491150,-0.644302368,-0.041252136
20.093615,-0.003895386,0.060534667,1.009550929,-1.374778748,-0.850296021,-0.094657898
20.094240,-0.003285034,0.061755370,1.013579249,-1.374778748,-0.423049927,-0.125175476
20.094865,-0.004261597,0.063220218,1.017119288,-1.199302673,-0.514602661,-0.079399109
20.095490,-0.005604370,0.063342288,1.016142726,-1.306114197,-0.308609009,-0.025993347
20.096115,-0.004871948,0.066638187,1.014555812,-1.733360291,-0.239944458,0.111335754
20.096740,-0.003162964,0.067614749,1.016508937,-1.657066345,-0.148391724,0.118965149
20.097365,-0.002918823,0.070544437,1.012114406,-1.977500916,-0.102615356,0.103706360
20.099071,-0.000843628,0.088366702,1.008696437,-2.313194275,0.339889526,0.118965149
20.099697,-0.002064331,0.093859866,1.001616359,-2.702293396,0.439071655,0.347846985
20.100322,-0.005482300,0.082263187,0.996489406,-3.091392517,0.416183472,0.324958801
20.100949,-0.009876831,0.069689944,0.992094874,-3.350791931,0.667953491,0.035041809
20.101576,-0.013294799,0.055773925,0.987944484,-3.297386169,0.576400757,0.027412415
20.102202,-0.017933471,0.049060058,0.986235499,-3.320274353,0.561141968,0.248664856
20.102828,-0.018543823,0.044665527,0.983794093,-3.022727966,0.179672241,0.019783020
20.103454,-0.019642456,0.043566894,0.975859523,-2.938804626,0.034713745,0.050300598
20.104080,-0.019398315,0.046008300,0.974516749,-2.603111267,-0.270462036,0.080818176
20.104705,-0.018299682,0.050769042,0.968657374,-2.275047302,-0.171279907,0.118965149
20.105331,-0.016468627,0.055773925,0.971098781,-2.374229431,-0.506973267,0.172370911
20.105957,-0.014271362,0.054309081,0.969145656,-2.091941833,-0.735855103,0.118965149
20.106583,-0.015492065,0.054797363,0.976958156,-2.130088806,-0.392532349,0.080818176
20.107208,-0.015980346,0.057116698,0.979155421,-1.870689392,-0.728225708,0.088447571
20.107833,-0.013783081,0.060412597,0.987700343,-1.924095154,-0.774002075,0.080818176
20.109556,-0.008656127,0.070300296,0.999052882,-2.191123962,-0.873184204,0.057929993
20.110181,-0.005482300,0.070300296,1.002837062,-2.259788513,-0.491714478,0.180000305
20.110806,-0.004627808,0.072253421,1.005278468,-2.168235779,-0.835037231,-0.071769714
20.111431,-0.004383667,0.071520999,1.008818507,-2.557334900,-0.758743286,0.279182434
20.142722,-0.006336792,0.067614749,0.992339015,-1.573143005,-0.072097778,0.363105774
20.143462,-0.004505737,0.069445804,0.993925929,-1.679954529,-0.156021118,0.164741516
20.144087,-0.007923706,0.072741702,0.994414210,-2.000389099,-0.262832642,0.225776672
20.144714,-0.011463745,0.072497562,0.995268703,-1.962242126,-0.186538696,0.187629700
20.145341,-0.009876831,0.075549319,0.993681788,-2.221641541,0.004196167,0.279182434
20.145968,-0.010609252,0.075671390,0.995756984,-2.221641541,-0.247573853,0.134223938
20.146593,-0.012196166,0.079699710,0.995268703,-2.526817322,-0.217056274,0.424140930
20.147219,-0.009876831,0.076159671,0.992705226,-2.709922791,-0.224685669,0.385993958
20.147844,-0.008656127,0.075427249,0.994292140,-3.015098572,-0.049209595,0.332588196
20.148470,-0.008900268,0.070666507,0.994170070,-3.045616150,-0.033950806,0.126594543
20.149097,-0.010609252,0.068347171,0.993315578,-3.213462830,-0.224685669,0.241035461
20.149722,-0.009754760,0.064562991,0.993315578,-3.442344666,0.057601929,0.180000305
20.150348,-0.007801636,0.065783694,0.990996242,-3.282127380,-0.156021118,0.332588196
20.150975,-0.011707885,0.061022948,0.995512843,-3.373680115,-0.209426880,0.180000305
20.152677,-0.012928588,0.060412597,0.989775538,-3.221092224,-0.217056274,0.180000305
20.153302,-0.011829956,0.056262206,0.994170070,-3.152427673,-0.415420532,0.126594543
20.153927,-0.012440307,0.059558105,0.997954249,-2.969322205,-0.354385376,0.004524231
20.154553,-0.010365112,0.063098148,0.995146632,-3.076133728,-0.590896606,0.057929993
20.155179,-0.009754760,0.069445804,0.994536281,-3.366050720,-0.201797485,0.401252747
20.155806,-0.010853393,0.077502444,0.996367335,-3.106651306,-0.377273560,0.279182434
20.156432,-0.007801636,0.079699710,0.998320460,-3.747520447,-0.506973267,0.256294250
20.157059,-0.008656127,0.072863773,0.996611476,-3.495750427,-0.514602661,0.241035461
20.157685,-0.010731323,0.059558105,0.996855617,-3.884849548,-0.247573853,0.271553040
20.158312,-0.010975463,0.054064941,0.997954249,-3.877220154,-0.201797485,0.218147278
20.158938,-0.009388549,0.051867675,1.003447413,-3.701744080,-0.407791138,0.324958801
20.159564,-0.012806518,0.051867675,1.002592921,-3.945884705,-0.201797485,0.073188782
20.160191,-0.011219604,0.051013183,1.000273585,-3.625450134,-0.178909302,0.157112122
20.160818,-0.009876831,0.053210448,0.998320460,-3.549156189,-0.308609009,0.149482727
20.161445,-0.011219604,0.058337402,0.992461085,-3.465232849,-0.308609009,0.523323059
20.163188,-0.009632690,0.059680175,0.997954249,-3.358421326,-0.278091431,0.332588196
20.163813,-0.011585815,0.056628417,0.995268703,-3.526268005,-0.560379028,0.202888489
20.164438,-0.011585815,0.058581542,1.001128078,-3.396568298,-0.171279907,0.324958801
20.165064,-0.010365112,0.059802245,0.999419093,-3.350791931,-0.262832642,0.256294250
20.165690,-0.007435425,0.065539554,1.001006007,-3.625450134,-0.423049927,0.324958801
20.166315,-0.007435425,0.065661624,0.997099757,-3.411827087,-0.384902954,0.309700012
20.166940,-0.007923706,0.073352054,0.999663234,-3.648338318,-0.659561157,0.210517883
20.167565,-0.004994018,0.072009280,0.995634913,-3.755149841,-0.316238403,0.332588196
20.168190,-0.008411987,0.069689944,0.994536281,-3.778038025,-0.255203247,0.111335754
20.168815,-0.008900268,0.071887210,0.997465968,-3.892478943,-0.064468384,0.126594543
20.169440,-0.009144409,0.073840335,0.994780421,-4.197654724,-0.262832642,0.042671204
20.170067,-0.006825073,0.082995608,0.994658351,-4.022178650,-0.201797485,0.363105774
20.170692,-0.008900268,0.092150882,0.992461085,-4.594383240,-0.255203247,0.294441223
20.171317,-0.008534057,0.088244632,0.991606593,-4.853782654,-0.293350220,0.080818176
20.171943,-0.008411987,0.079211429,0.991728663,-5.296287537,0.057601929,0.103706360
20.173660,-0.012928588,0.059069823,0.986601710,-5.563316345,-0.033950806,0.035041809
20.174286,-0.012196166,0.057238769,0.984648585,-5.647239685,-0.156021118,0.210517883
20.174913,-0.014271362,0.057482909,0.981474757,-5.677757263,-0.362014771,0.080818176
20.175539,-0.014393432,0.058581542,0.978789210,-5.517539978,-0.568008423,0.103706360
20.189463,-0.005238159,0.045275878,1.018462062,-3.617820740,0.034713745,0.225776672
20.190221,-0.005482300,0.043444823,1.015166163,-3.320274353,0.111007690,0.279182434
20.190846,-0.004994018,0.043322753,1.012968898,-3.175315857,0.286483765,0.218147278
20.191471,-0.006092651,0.039050292,1.010893703,-2.893028259,0.049972534,0.286811829
20.192096,-0.008289916,0.041003417,1.008574367,-2.732810974,0.103378296,0.248664856
20.192721,-0.006825073,0.040148925,1.004668117,-2.580223083,0.126266479,0.225776672
20.193346,-0.010243041,0.044299316,1.005888820,-2.122459412,0.072860718,0.065559387
20.193972,-0.008045776,0.044665527,1.003935695,-2.152976990,-0.171279907,0.004524231
20.194598,-0.009632690,0.044787597,1.001372218,-1.664695740,0.217819214,0.103706360
20.195224,-0.009266479,0.049304198,1.000883937,-1.756248474,-0.011062622,0.202888489
20.195849,-0.010365112,0.052722167,0.995024562,-1.679954529,0.286483765,0.286811829
20.196474,-0.010365112,0.053820800,0.997343898,-1.390037537,-0.102615356,0.149482727
20.197099,-0.012196166,0.054064941,0.998564601,-1.428184509,-0.003433228,0.019783020
20.197724,-0.010731323,0.054187011,0.996855617,-1.412925720,-0.400161743,0.118965149
20.199451,-0.010487182,0.059313964,0.997343898,-1.428184509,-0.178909302,0.050300598
20.200077,-0.009388549,0.058093261,0.995512843,-1.458702087,-0.255203247,0.279182434
20.200702,-0.007313354,0.057849120,0.997832179,-1.290855408,-0.049209595,0.050300598
20.201328,-0.010975463,0.058459472,0.995756984,-1.451072693,0.049972534,0.012153625
20.201953,-0.006825073,0.062243652,0.992461085,-1.504478455,-0.064468384,0.233406067
20.202580,-0.006336792,0.068347171,1.000517726,-1.344261169,0.233078003,0.096076965
20.203206,-0.008900268,0.063586429,0.997465968,-1.550254822,0.126266479,0.263923645
20.203831,-0.005116089,0.067492679,0.995390773,-1.695213318,-0.270462036,0.218147278
20.204456,-0.007923706,0.063586429,0.996367335,-1.779136658,-0.110244751,0.324958801
20.205082,-0.009754760,0.064196780,0.992216945,-1.824913025,-0.049209595,0.271553040
20.205707,-0.011463745,0.064318851,0.993437648,-1.908836365,-0.125503540,0.202888489
20.206333,-0.005726440,0.063708499,0.992339015,-1.817283630,-0.003433228,0.149482727
20.206959,-0.008411987,0.058215331,0.989653468,-2.023277283,-0.133132935,0.149482727
20.207585,-0.006458862,0.062609866,0.990141749,-2.038536072,-0.201797485,0.065559387
20.208212,-0.011829956,0.060412597,0.989653468,-1.840171814,-0.300979614,0.073188782
20.209933,-0.011219604,0.056384277,0.993315578,-1.901206970,-0.262832642,0.065559387
20.210559,-0.010975463,0.057116698,0.994170070,-2.015647888,-0.339126587,0.103706360
20.211185,-0.009876831,0.056384277,0.996245265,-1.885948181,-0.224685669,0.294441223
20.211810,-0.012928588,0.055407714,0.996489406,-1.962242126,-0.133132935,0.218147278
20.212436,-0.005970581,0.052111816,0.998930812,-1.725730896,-0.255203247,0.241035461
20.213061,-0.008656127,0.057116698,0.998930812,-1.946983337,-0.331497192,0.012153625
20.213687,-0.007801636,0.058093261,0.999052882,-1.809654236,-0.209426880,0.035041809
20.214314,-0.010487182,0.060412597,0.999907374,-1.985130310,-0.270462036,0.210517883
20.214940,-0.007435425,0.063952640,0.998686671,-1.954612732,-0.285720825,0.050300598
20.215566,-0.009632690,0.060046386,0.999907374,-2.114830017,-0.285720825,0.233406067
20.216193,-0.011341674,0.060290527,1.003203273,-2.046165466,-0.239944458,0.149482727
20.216819,-0.008778198,0.061389159,1.002592921,-2.320823669,-0.270462036,0.141853333
20.217444,-0.010609252,0.059802245,1.002592921,-2.252159119,-0.178909302,0.073188782
20.218069,-0.010243041,0.060534667,1.006010890,-2.427635193,-0.156021118,0.035041809
20.218694,-0.007923706,0.058459472,1.003813624,-2.389488220,-0.255203247,0.050300598
20.220421,-0.009632690,0.056018066,1.004912257,-2.206382751,-0.133132935,0.141853333
20.221047,-0.008656127,0.049426269,1.002959132,-2.091941833,-0.018692017,0.035041809
20.221673,-0.010243041,0.048083495,0.999174953,-1.946983337,-0.094985962,0.408882141
20.222300,-0.007313354,0.049792480,1.003569484,-2.168235779,-0.247573853,0.073188782
20.236087,-0.009510620,0.066271976,0.988676906,-2.374229431,0.118637085,0.294441223
20.236782,-0.013538940,0.066516116,0.987822413,-2.267417908,-0.163650513,0.241035461
20.237407,-0.011952026,0.064685062,0.987334132,-2.427635193,-0.125503540,0.111335754
20.238033,-0.010243041,0.063952640,0.986479640,-2.275047302,-0.278091431,0.073188782
20.238659,-0.012684448,0.061022948,0.985014796,-2.420005798,-0.278091431,0.469917297
20.239284,-0.013905151,0.066027835,0.987334132,-2.633628845,-0.079727173,0.309700012
20.239910,-0.012806518,0.063098148,0.983794093,-2.549705505,-0.239944458,0.225776672
20.240536,-0.012806518,0.063098148,0.983794093,-2.549705505,-0.239944458,0.225776672
20.241161,-0.012440307,0.067736819,0.985381007,-2.854881287,-0.194168091,0.118965149
20.241788,-0.013538940,0.060534667,0.988798976,-2.702293396,-0.476455688,0.027412415
20.242413,-0.010120971,0.063342288,0.990874171,-2.885398865,-0.407791138,0.164741516
20.243039,-0.008778198,0.066027835,0.995268703,-2.793846130,-0.568008423,0.302070618
20.243664,-0.006947143,0.068347171,0.991118312,-2.885398865,-0.331497192,0.073188782
20.244291,-0.008045776,0.068347171,0.991606593,-3.083763123,-0.392532349,0.149482727
20.246055,-0.009144409,0.068835452,0.993803859,-3.633079529,-0.194168091,0.233406067
20.246682,-0.007313354,0.066760257,0.993803859,-3.556785583,-0.362014771,0.164741516
20.247308,-0.005360229,0.069445804,0.995146632,-3.701744080,-0.400161743,0.157112122
20.247933,-0.011585815,0.072131351,0.998320460,-3.869590759,-0.140762329,0.019783020
20.248559,-0.009144409,0.071520999,0.996489406,-3.900108337,-0.247573853,0.294441223
20.249185,-0.007679565,0.071765140,0.996977687,-4.258689880,-0.285720825,-0.056510925
20.249810,-0.007435425,0.070056155,0.993193507,-4.273948669,-0.217056274,0.149482727
20.250436,-0.005726440,0.068469241,0.995634913,-4.342613220,-0.300979614,0.118965149
20.251063,-0.008411987,0.065661624,0.995024562,-4.548606873,-0.255203247,0.172370911
20.251688,-0.007923706,0.068957523,0.993437648,-4.647789001,-0.278091431,0.134223938
20.252314,-0.009022338,0.067370608,0.991972804,-4.663047791,-0.011062622,0.225776672
20.252940,-0.010487182,0.066271976,0.992339015,-4.708824158,-0.056838989,-0.155693054
20.253565,-0.009754760,0.066760257,0.989043117,-4.998741150,-0.247573853,-0.010734558
20.254190,-0.008534057,0.068347171,0.991972804,-4.952964783,-0.316238403,-0.056510925
20.254817,-0.009876831,0.067858890,0.986113429,-4.922447205,-0.239944458,0.141853333
20.256537,-0.010243041,0.072619632,0.986235499,-5.647239685,-0.232315063,0.080818176
20.257164,-0.009754760,0.075427249,0.989531398,-5.738792419,-0.476455688,0.050300598
20.257790,-0.009388549,0.074084476,0.986357570,-5.860862732,-0.415420532,0.050300598
20.258417,-0.009022338,0.073107913,0.990752101,-5.845603943,-0.346755981,0.019783020
20.259042,-0.012074096,0.070544437,0.985381007,-6.120262146,-0.484085083,0.080818176
20.259667,-0.009266479,0.068835452,0.985625148,-6.112632751,-0.316238403,0.096076965
20.260293,-0.009144409,0.068347171,0.985381007,-6.326255798,-0.384902954,0.004524231
20.260919,-0.009998901,0.071520999,0.985747218,-6.562767029,-0.682449341,0.134223938
20.261544,-0.010731323,0.067370608,0.985747218,-6.883201599,-0.484085083,-0.033622742
20.262201,-0.010487182,0.067248538,0.984404445,-6.677207947,-0.728225708,0.035041809
20.262827,-0.008045776,0.067614749,0.988188624,-7.058677673,-0.697708130,0.027412415
20.263453,-0.010487182,0.068835452,0.984648585,-7.211265564,-0.522232056,-0.003105164
20.264079,-0.010853393,0.068347171,0.986601710,-7.333335876,-0.438308716,0.057929993
20.264705,-0.009144409,0.069567874,0.985747218,-7.615623474,-0.758743286,0.157112122
20.265330,-0.011219604,0.067858890,0.988921046,-7.653770447,-0.789260864,-0.056510925
20.267037,-0.008289916,0.071154788,0.987212062,-8.195457458,-0.690078735,0.065559387
20.267662,-0.008656127,0.071032718,0.988432765,-8.340415955,-0.766372681,-0.025993347
20.268289,-0.017323120,0.079089358,0.986357570,-8.920249939,-0.896072388,-0.064140320
20.268916,-0.014149291,0.084948733,0.991484523,-8.653221130,-0.568008423,-0.025993347
20.269542,-0.000355347,0.089709476,0.990263820,-8.821067810,-0.903701782,-0.254875183
20.283364,-0.003162964,0.033312988,1.022490382,-7.661399841,-1.384353638,-0.132804871
20.284104,-0.002918823,0.038806152,1.022368312,-7.356224060,-1.262283325,0.096076965
20.284729,0.000132935,0.037707519,1.028227687,-7.134971619,-1.231765747,-0.041252136
20.285354,-0.000111206,0.038317870,1.031767726,-7.180747986,-1.056289673,0.157112122
20.285981,-0.000599487,0.038073730,1.032622218,-6.791648865,-1.086807251,0.111335754
20.286606,-0.001820190,0.031726073,1.032744288,-6.707725525,-0.880813599,-0.033622742
20.287233,0.000010864,0.028674316,1.032866359,-6.608543396,-0.651931763,0.080818176
20.287858,-0.002064331,0.032824706,1.029692531,-6.478843689,-0.651931763,-0.056510925
20.288483,-0.002552612,0.032092284,1.031279445,-6.288108826,-0.491714478,-0.010734558
20.289109,-0.002552612,0.026477050,1.029448390,-6.318626404,-0.407791138,0.263923645
20.289735,-0.003773315,0.026843261,1.026518703,-5.776939392,-0.178909302,0.118965149
20.290362,-0.003162964,0.021594238,1.023222804,-5.593833923,-0.201797485,0.248664856
20.290989,-0.003529175,0.027331542,1.018095851,-5.395469666,-0.163650513,-0.033622742
20.291614,-0.006458862,0.026354980,1.016875148,-4.968223572,0.095748901,0.195259094
20.293338,-0.008656127,0.024157714,1.005888820,-4.190025330,-0.163650513,0.103706360
20.293965,-0.009022338,0.028063964,1.002837062,-4.014549255,-0.064468384,0.141853333
20.294590,-0.011463745,0.032092284,0.998930812,-3.808555603,-0.201797485,0.271553040
20.295217,-0.013172729,0.034167480,1.003935695,-3.221092224,-0.293350220,0.019783020
20.295844,-0.010487182,0.035510253,0.999419093,-3.404197693,-0.262832642,0.294441223
20.296470,-0.009510620,0.037097167,0.998930812,-3.030357361,-0.438308716,0.118965149
20.297097,-0.010120971,0.042834472,0.993803859,-2.831993103,-0.293350220,0.324958801
20.297722,-0.010120971,0.040881347,0.997832179,-2.664146423,-0.621414185,0.271553040
20.298347,-0.010120971,0.040881347,0.997832179,-2.664146423,-0.621414185,0.271553040
20.298973,-0.010731323,0.043566894,1.000395656,-2.633628845,-0.362014771,-0.041252136
20.299599,-0.010365112,0.038806152,1.002837062,-2.351341248,-0.522232056,0.019783020
20.300225,-0.004017456,0.042834472,1.003325343,-2.191123962,-0.629043579,0.157112122
20.300851,-0.007069214,0.049548339,1.001616359,-2.381858826,-0.339126587,0.218147278
20.301477,-0.003407104,0.056994628,1.006865382,-2.114830017,-0.316238403,0.096076965
20.302103,-0.009754760,0.059680175,1.002592921,-2.496299744,-0.171279907,0.302070618
20.303826,-0.008411987,0.055773925,0.998320460,-2.870140076,-0.430679321,0.271553040
20.304453,-0.008411987,0.055895995,1.000639796,-2.625999451,-0.354385376,0.111335754
20.305079,-0.008534057,0.056750488,1.000395656,-2.900657654,-0.506973267,0.202888489
20.305704,-0.008778198,0.053942870,0.997954249,-2.648887634,-0.056838989,0.210517883
20.306331,-0.010120971,0.053332519,1.000761867,-2.961692810,-0.354385376,0.057929993
20.306956,-0.009632690,0.050158691,0.998076320,-2.862510681,-0.278091431,-0.056510925
20.307581,-0.011219604,0.048449706,0.998930812,-2.885398865,-0.117874146,0.225776672
20.308206,-0.010365112,0.046984863,0.997832179,-2.709922791,-0.346755981,0.195259094
20.308831,-0.011463745,0.045153808,0.995879054,-2.809104919,-0.339126587,0.317329407
20.309456,-0.007313354,0.046496581,0.994902492,-2.702293396,-0.629043579,0.149482727
20.310081,-0.011585815,0.047106933,0.991484523,-2.679405212,-0.270462036,-0.109916687
20.310706,-0.010243041,0.048815917,0.994047999,-2.572593689,-0.270462036,0.180000305
20.311332,-0.013416870,0.046740722,0.995879054,-2.290306091,-0.751113892,0.256294250
20.311957,-0.012440307,0.047229003,1.002837062,-2.420005798,-0.453567505,0.225776672
20.312583,-0.009876831,0.043811034,1.001616359,-2.183494568,-0.392532349,0.355476379
20.314297,-0.003773315,0.043322753,1.009428859,-2.107200623,-0.545120239,0.363105774
20.314923,-0.007069214,0.051623534,1.005522609,-1.946983337,-0.430679321,0.309700012
20.315549,-0.008411987,0.056018066,1.007597804,-1.931724548,-0.026321411,0.294441223
20.316174,-0.004871948,0.054431152,1.004668117,-1.977500916,0.049972534,0.019783020
20.329976,-0.012074096,0.084582523,0.962675929,-7.325706482,-0.354385376,0.134223938
20.330681,-0.011341674,0.087023929,0.965361476,-7.646141052,-0.346755981,0.050300598
20.331307,-0.015492065,0.085192874,0.969756007,-8.294639587,-0.552749634,0.126594543
20.331932,-0.015369995,0.083728030,0.962431788,-8.424339294,-0.712966919,0.065559387
20.332558,-0.014149291,0.083239749,0.969145656,-8.950767517,-0.690078735,0.195259094
20.333184,-0.014515502,0.076525882,0.969145656,-9.316978455,-0.697708130,0.233406067
20.333809,-0.013416870,0.075915530,0.971464992,-9.614524841,-0.888442993,0.096076965
20.334435,-0.011341674,0.075915530,0.974028468,-9.896812439,-1.041030884,0.332588196
20.335061,-0.012562377,0.073718265,0.973662257,-10.461387634,-0.941848755,-0.033622742
20.335686,-0.011341674,0.072375491,0.975859523,-10.484275818,-0.941848755,0.225776672
20.336312,-0.013172729,0.072741702,0.977934718,-10.781822205,-1.063919067,0.157112122
20.336938,-0.010731323,0.069201663,0.976958156,-11.117515564,-1.124954224,0.309700012
