time,gyro x,gyro y,gyro z,accel x,accel y,accel z
17.005173,17.831649780,-9.750755310,9.975959778,-0.260171264,-0.031923585,0.877586007
17.005910,17.839279175,-9.422691345,10.441352844,-0.269814819,-0.003359132,0.889182687
17.006537,17.755355835,-8.797080994,10.204841614,-0.287637085,0.012876220,0.897605538
17.007163,18.052902222,-8.758934021,9.968330383,-0.304726928,0.020932861,0.902976632
17.007788,18.182601929,-9.056480408,9.876777649,-0.308999389,0.027036376,0.912131906
17.008415,18.159713745,-8.873374939,9.617378235,-0.298745483,0.038877197,0.935203195
17.009041,17.953720093,-9.613426208,9.403755188,-0.269570678,0.062436767,0.959251046
17.009668,16.801681519,-10.307701111,9.594490051,-0.246743530,0.089536376,0.979758859
17.010294,15.695419312,-10.376365662,9.426643372,-0.214516968,0.113584228,0.988792062
17.010920,14.306869507,-10.429771423,9.357978821,-0.193398803,0.135678947,0.990501046
17.011546,12.590255737,-10.795982361,9.213020325,-0.175454468,0.148008049,0.984397531
17.012172,10.980453491,-10.788352966,8.945991516,-0.158852905,0.149717033,0.973777413
17.012798,9.408798218,-11.040122986,8.961250305,-0.152016968,0.137998283,0.962791085
17.013443,8.050765991,-11.200340271,8.472969055,-0.140176147,0.119077392,0.954734445
17.014186,7.165756226,-11.177452087,8.274604797,-0.128945678,0.097593017,0.949973702
17.014813,6.318893433,-10.956199646,8.251716614,-0.118081421,0.072812743,0.942039132
17.015557,6.028976440,-10.918052673,8.396675110,-0.110879272,0.060605712,0.933860421
17.016328,5.868759155,-10.246665955,8.198310852,-0.112099975,0.046079345,0.917502999
17.017147,6.112899780,-9.712608337,8.038093567,-0.122598022,0.042783447,0.916038156
17.017912,6.448593140,-9.331138611,7.977058411,-0.133706421,0.037412353,0.920066476
17.018685,6.852951050,-8.972557068,7.687141418,-0.143960327,0.030820556,0.926658273
17.019461,7.493820190,-8.987815857,7.702400208,-0.168374389,0.019345947,0.947288156
17.020268,7.943954468,-8.934410095,7.526924133,-0.177651733,0.016538329,0.957053781
17.021051,8.554306030,-9.193809509,7.267524719,-0.183877319,0.013486572,0.967063546
17.021807,9.012069702,-9.453208923,7.473518372,-0.187417358,0.009214111,0.972922921
17.022606,9.790267944,-10.391624451,7.267524719,-0.196938843,0.009702392,0.981345773
17.023395,10.331954956,-10.895164490,7.130195618,-0.197915405,0.005918212,0.985252023
17.025494,12.124862671,-12.222679138,7.175971985,-0.192300171,-0.014101319,0.976707101
17.026348,13.711776733,-13.016136169,7.000495911,-0.179360718,-0.025209717,0.969138741
17.027138,14.551010132,-12.924583435,6.962348938,-0.171426147,-0.025820069,0.969993234
17.027963,15.512313843,-13.122947693,6.939460754,-0.162515014,-0.026918702,0.963889718
17.028769,17.534103394,-12.466819763,6.931831360,-0.148721069,-0.032045655,0.969627023
17.029612,18.464889526,-12.382896423,6.855537415,-0.142251343,-0.037905030,0.980735421
17.030385,19.845809937,-12.237937927,6.908943176,-0.138345093,-0.035097413,0.985374093
17.031170,21.020736694,-11.742027283,6.847908020,-0.136025757,-0.030702882,0.989402413
17.031962,22.859420776,-11.101158142,6.969978333,-0.130288452,-0.020204835,1.008079171
17.032842,24.019088745,-10.460289001,6.870796204,-0.135049194,-0.014467530,1.014793038
17.033703,25.026168823,-9.666831970,6.931831360,-0.138100952,-0.000185303,1.036033273
17.034543,25.651779175,-9.323509216,6.855537415,-0.138345093,0.009458251,1.043723702
17.035380,26.353683472,-9.155662537,6.802131653,-0.135049194,0.016294189,1.049705148
17.036264,26.849594116,-8.354576111,6.748725891,-0.135781616,0.024961181,1.061423898
17.037107,26.964035034,-8.270652771,6.779243469,-0.137612671,0.030088134,1.063132882
17.037941,27.231063843,-8.079917908,6.725837708,-0.137978882,0.038022704,1.063499093
17.038770,27.200546265,-7.576377869,6.535102844,-0.135903686,0.053037353,1.057151437
17.039634,27.208175659,-7.599266052,6.397773743,-0.134682983,0.057920165,1.054221749
17.040463,26.925888062,-7.263572693,6.428291321,-0.133340210,0.063535400,1.049705148
17.041289,26.414718628,-6.515892029,6.603767395,-0.130654663,0.072812743,1.039939523
17.042171,26.269760132,-5.913169861,6.252815247,-0.127969116,0.076352783,1.033103585
17.056735,13.353195190,-0.404747009,4.604866028,-0.118569702,0.099424072,1.028709054
17.057594,13.223495483,0.030128479,4.612495422,-0.115517944,0.102109618,1.028709054
17.058221,12.636032104,0.327674866,4.505683899,-0.114175171,0.103086181,1.028709054
17.059031,12.277450562,0.663368225,4.406501770,-0.117959350,0.105405517,1.033103585
17.059739,12.124862671,1.266090393,4.200508118,-0.119668335,0.101377197,1.030051827
17.060567,11.621322632,2.173988342,4.009773254,-0.122353882,0.100888915,1.037986398
17.061413,11.216964722,2.494422913,3.956367493,-0.119424194,0.102353759,1.040061593
17.062265,10.606613159,3.104774475,3.719856262,-0.121499389,0.103086181,1.040183663
17.063086,9.942855835,3.821937561,3.750373840,-0.128457397,0.113462158,1.029563546
17.063902,9.439315796,4.211036682,3.529121399,-0.129678100,0.120176025,1.024802804
17.064691,9.057846069,4.508583069,3.689338684,-0.129800171,0.123105712,1.020286202
17.065511,8.569564819,4.973976135,3.147651672,-0.124551147,0.123227783,1.010642648
17.066307,8.027877808,5.241004944,3.140022278,-0.120522827,0.124570556,1.008323312
17.067084,7.478561401,5.569068909,2.903511047,-0.116494507,0.124692626,1.004172921
17.067900,6.936874390,6.011573792,2.735664368,-0.118569702,0.128232658,0.995872140
17.068706,6.196823120,6.530372620,2.697517395,-0.117837280,0.132627189,0.987083077
17.069331,5.922164917,6.919471741,2.262641907,-0.123452514,0.131894767,0.981223702
17.069956,5.334701538,7.087318420,2.468635559,-0.128457397,0.129453361,0.977195382
17.070583,5.395736694,7.354347229,2.193977356,-0.125893921,0.128720939,0.975730538
17.071208,4.754867554,7.262794495,2.064277649,-0.125527710,0.130307853,0.970359445
17.071833,4.571762085,7.728187561,1.949836731,-0.131265014,0.128476799,0.971213937
17.072458,4.190292358,8.048622131,1.781990051,-0.128823608,0.128232658,0.963401437
17.073084,4.068222046,8.040992737,1.690437317,-0.137612671,0.128720939,0.959739327
17.073710,3.618087769,8.102027893,1.530220032,-0.144448608,0.128354728,0.956687570
17.074395,3.389205933,8.216468811,1.362373352,-0.150185913,0.131284416,0.948508859
17.075115,3.122177124,8.163063049,1.133491516,-0.152505249,0.132627189,0.943992257
17.077178,2.740707397,7.888404846,0.591804504,-0.139565796,0.133603752,0.929832101
17.077893,2.435531616,7.949440002,0.515510559,-0.134927124,0.136533439,0.929099679
17.078615,2.176132202,7.918922424,0.271369934,-0.127602905,0.134702384,0.926780343
17.079317,2.092208862,7.766334534,-0.094841003,-0.133462280,0.136777580,0.922874093
17.080062,1.703109741,7.873146057,0.042488098,-0.137856811,0.140439689,0.914573312
17.080813,1.596298218,7.697669983,-0.270317078,-0.142617553,0.139707267,0.906394601
17.081438,1.596298218,7.377235413,-0.056694031,-0.141640991,0.140561759,0.898948312
17.082063,1.436080933,7.125465393,-0.537345886,-0.144082397,0.134580314,0.894797921
17.082688,1.558151245,6.866065979,-0.735710144,-0.141518921,0.131894767,0.888694406
17.083313,1.481857300,6.606666565,-1.094291687,-0.134682983,0.130674064,0.882835031
17.083939,1.558151245,6.362525940,-1.048515320,-0.136391968,0.127622306,0.878806710
17.084565,1.855697632,5.897132874,-1.185844421,-0.138589233,0.125425041,0.870994210
17.085192,1.901473999,5.698768616,-1.239250183,-0.137124389,0.126523674,0.868552804
17.085817,2.015914917,5.530921936,-1.468132019,-0.137734741,0.125547111,0.862083077
17.086442,2.199020386,5.035011292,-1.803825378,-0.144570678,0.121518798,0.857444406
17.087069,2.237167358,4.729835510,-1.880119324,-0.146157593,0.123960204,0.853049874
17.087709,2.672042847,4.256813049,-2.139518738,-0.147134155,0.119443603,0.846946359
17.088343,3.045883179,3.623573303,-2.192924500,-0.147256225,0.116880126,0.844382882
17.088968,3.396835327,3.020851135,-2.429435730,-0.143716186,0.114438720,0.839744210
17.089594,3.785934448,2.494422913,-2.528617859,-0.142739624,0.114682861,0.837424874
17.090219,3.892745972,1.945106506,-2.620170593,-0.145913452,0.110654540,0.833518624
17.090844,4.541244507,1.365272522,-2.894828796,-0.144936889,0.107968993,0.832542062
17.091470,4.945602417,0.594703674,-3.169487000,-0.151528686,0.102842040,0.830955148
17.105364,13.139572144,-14.748008728,-6.068656921,-0.166909546,0.069516845,0.871970773
17.106100,13.223495483,-15.015037537,-6.099174500,-0.163857788,0.068784423,0.885520577
17.106725,13.109054565,-15.457542419,-6.267021179,-0.161294311,0.070005126,0.887717843
17.107352,12.842025757,-15.571983337,-6.190727234,-0.163979858,0.065732665,0.894675851
17.107977,12.590255737,-16.014488220,-6.068656921,-0.164346069,0.066831298,0.902366281
17.115562,6.631698608,-16.281517029,-6.152580261,-0.134438843,0.044004150,0.972556710
17.116188,5.868759155,-16.449363708,-6.030509949,-0.131265014,0.041318603,0.974753976
17.116813,5.060043335,-16.006858826,-6.083915710,-0.132363647,0.039609618,0.974998116
17.117438,4.327621460,-15.991600037,-6.030509949,-0.133462280,0.037412353,0.979392648
17.118064,3.755416870,-15.770347595,-5.900810242,-0.128579468,0.035581298,0.983909249
17.118689,3.022994995,-15.442283630,-5.694816589,-0.129311889,0.025083251,0.989280343
17.119314,2.328720093,-15.015037537,-5.763481140,-0.129433960,0.027036376,0.993796945
17.119939,1.664962769,-14.976890564,-5.496452332,-0.124673218,0.023984618,0.996970773
17.120566,1.108016968,-14.542015076,-5.504081726,-0.128579468,0.020566650,1.003074288
17.121193,0.604476929,-14.168174744,-5.420158386,-0.127602905,0.016782470,1.005881906
17.121819,-0.303421021,-13.817222595,-5.305717468,-0.128457397,0.016172118,1.010276437
17.122445,-0.883255005,-13.641746521,-4.924247742,-0.129556030,0.011411376,1.013938546
17.123071,-1.447830200,-13.367088318,-5.229423523,-0.128701538,0.008847900,1.014182687
17.123697,-2.195510864,-12.771995544,-5.221794128,-0.127969116,0.007749267,1.022849679
17.125561,-3.225479126,-11.986167908,-4.764030457,-0.126504272,-0.001161866,1.037498116
17.126187,-3.790054321,-11.864097595,-4.481742859,-0.124551147,-0.006044678,1.036399484
17.126812,-4.034194946,-11.574180603,-4.428337097,-0.127724975,-0.002992921,1.041648507
17.127438,-4.354629517,-10.887535095,-4.344413757,-0.125039428,-0.010561280,1.042869210
17.128063,-4.675064087,-10.567100525,-4.252861023,-0.129067749,-0.012270264,1.043967843
17.128689,-4.957351685,-10.391624451,-4.039237976,-0.121499389,-0.010927491,1.045920968
17.129316,-5.087051392,-9.933860779,-3.863761902,-0.123208374,-0.012636475,1.044334054
17.129942,-4.972610474,-9.659202576,-3.917167664,-0.124062866,-0.014101319,1.045920968
17.130567,-5.003128052,-9.224327087,-3.825614929,-0.122964233,-0.016298585,1.046775460
17.131194,-5.148086548,-8.819969177,-3.795097351,-0.120278686,-0.017763428,1.046287179
17.131820,-5.033645630,-8.583457947,-3.444145203,-0.120889038,-0.016420655,1.047263741
17.132446,-5.033645630,-8.018882751,-3.436515808,-0.117959350,-0.019838624,1.047874093
17.133071,-4.789505005,-7.873924255,-3.627250671,-0.122720093,-0.021547608,1.045432687
17.133697,-4.621658325,-7.446678162,-3.299186707,-0.120034546,-0.025209717,1.047263741
17.134323,-4.293594360,-7.294090271,-3.276298523,-0.120889038,-0.023744874,1.043113351
17.134948,-3.988418579,-6.996543884,-3.291557312,-0.119424194,-0.022768311,1.043113351
17.135575,-3.561172485,-6.843955994,-3.123710632,-0.121499389,-0.021547608,1.039207101
17.136202,-3.210220337,-6.363304138,-3.085563660,-0.121499389,-0.022402100,1.039817452
17.136827,-2.836380005,-6.409080505,-3.169487000,-0.120889038,-0.022768311,1.033713937
17.137454,-2.477798462,-6.348045349,-2.864311218,-0.118569702,-0.023378663,1.037376046
17.138079,-2.020034790,-5.752952576,-2.978752136,-0.120522827,-0.020571046,1.033958077
17.138705,-1.508865356,-5.714805603,-2.810905457,-0.119668335,-0.015444092,1.031760812
17.139330,-0.990066528,-5.745323181,-2.917716980,-0.122720093,-0.013613038,1.029197335
17.139955,-0.654373169,-5.760581970,-2.643058777,-0.123574585,-0.016786866,1.028220773
17.140581,-0.021133423,-5.402000427,-2.711723328,-0.121499389,-0.015566163,1.026755929
17.141207,0.436630249,-5.493553162,-2.704093933,-0.123574585,-0.010317139,1.028342843
17.141833,0.787582397,-5.371482849,-2.902458191,-0.122231811,-0.010561280,1.026267648
17.142459,1.451339722,-5.318077087,-2.849052429,-0.123818725,-0.007509522,1.023093820
17.156530,1.664962769,-1.068504333,-2.963493347,-0.126015991,0.059995361,1.036033273
17.157310,1.405563354,-1.076133728,-2.841423035,-0.131142944,0.060971923,1.032615304
17.157936,1.008834839,-0.587852478,-2.940605164,-0.132241577,0.057553954,1.029807687
17.158561,0.566329956,-0.183494568,-2.986381531,-0.131387085,0.060239501,1.030906320
17.159186,0.528182983,-0.206382751,-3.276298523,-0.132363647,0.059751220,1.028098702
17.159812,-0.013504028,0.083534241,-3.039787292,-0.133462280,0.060605712,1.025779366
17.160439,-0.410232544,0.510780334,-3.169487000,-0.129678100,0.059018798,1.023948312
17.161064,-0.837478638,0.548927307,-2.986381531,-0.129189819,0.060849853,1.021262765
17.161689,-0.875625610,0.953285217,-3.154228210,-0.129800171,0.061826415,1.020164132
17.162315,-1.402053833,1.075355530,-3.291557312,-0.128945678,0.060361572,1.017722726
17.162940,-1.661453247,1.281349182,-3.161857605,-0.129678100,0.059751220,1.017600656
17.163566,-1.920852661,1.464454651,-3.161857605,-0.130898803,0.056943603,1.011985421
17.164191,-2.332839966,1.769630432,-3.589103699,-0.130410522,0.058530517,1.006003976
17.164817,-2.569351196,1.899330139,-3.489921570,-0.133340210,0.057431884,1.006370187
17.165444,-2.645645142,2.036659241,-3.283927917,-0.133706421,0.054990478,1.003074288
17.166070,-2.805862427,2.227394104,-3.489921570,-0.136025757,0.052549072,0.998679757
17.166697,-2.988967896,2.143470764,-3.528068542,-0.137978882,0.051938720,0.997581124
17.167323,-3.164443970,2.486793518,-3.383110046,-0.137490600,0.048398681,0.992820382
17.167950,-3.706130981,2.463905334,-3.558586121,-0.133584350,0.048764892,0.991965890
17.168575,-3.469619751,2.601234436,-3.482292175,-0.135293335,0.045468993,0.987937570
17.169200,-3.606948853,2.616493225,-3.505180359,-0.138223022,0.041928954,0.986350656
17.169827,-3.553543091,2.669898987,-3.375480652,-0.135171264,0.044248290,0.980369210
17.170454,-3.744277954,2.830116272,-3.467033386,-0.134194702,0.042417236,0.982444406
17.171079,-3.713760376,2.593605042,-3.611991882,-0.135415405,0.041684814,0.976829171
17.171705,-3.835830688,2.746192932,-3.604362488,-0.136391968,0.040342040,0.977439523
17.172331,-3.706130981,2.761451721,-3.627250671,-0.133950561,0.038266845,0.972800851
17.172957,-3.652725220,2.921669006,-3.673027039,-0.136514038,0.036313720,0.973899484
17.173582,-3.667984009,2.891151428,-3.917167664,-0.133950561,0.033139892,0.964255929
17.174208,-3.591690063,2.700416565,-3.764579773,-0.130288452,0.033384033,0.965964913
17.174833,-3.347549438,2.639381409,-3.665397644,-0.128579468,0.033384033,0.963645577
17.176611,-3.301773071,2.486793518,-3.581474304,-0.127114624,0.028012939,0.957297921
17.177237,-2.988967896,2.341835022,-3.756950378,-0.126015991,0.027646728,0.951926827
17.177862,-2.737197876,2.357093811,-3.817985535,-0.128579468,0.024717040,0.949729562
17.178488,-2.592239380,1.945106506,-3.825614929,-0.124307007,0.025083251,0.946555734
17.179113,-2.287063599,1.906959534,-3.779838562,-0.124673218,0.023008056,0.946555734
17.179740,-2.264175415,1.861183167,-3.749320984,-0.127480835,0.018491454,0.942771554
17.180367,-1.897964478,1.601783752,-3.863761902,-0.128457397,0.018125243,0.935081124
17.180992,-1.859817505,1.472084045,-3.596733093,-0.128213257,0.019223876,0.933616281
17.181618,-1.516494751,1.197425842,-3.779838562,-0.125161499,0.015439697,0.929343820
17.182243,-1.287612915,1.067726135,-3.863761902,-0.127969116,0.011899658,0.929465890
17.182870,-0.913772583,0.991432190,-3.718803406,-0.131753296,0.017148681,0.927756906
17.183496,-0.700149536,0.609962463,-3.749320984,-0.131265014,0.012021728,0.925559640
17.184121,-0.593338013,0.434486389,-3.688285828,-0.137490600,0.010068603,0.920676827
17.184747,-0.143203735,0.037757874,-3.680656433,-0.137490600,0.007749267,0.920310616
17.185372,-0.097427368,-0.214012146,-3.772209167,-0.142373413,0.010678954,0.915305734
17.185998,0.139083862,-0.603111267,-3.611991882,-0.137856811,0.006284423,0.915061593
17.186625,0.383224487,-0.793846130,-3.642509460,-0.139687866,0.001889892,0.914573312
17.187250,0.444259644,-1.129539490,-3.703544617,-0.140908569,0.005063720,0.914573312
17.201166,2.328720093,-6.172569275,-2.337882996,-0.136391968,-0.031435303,0.934226632
17.201881,2.176132202,-6.332786560,-2.047966003,-0.137246460,-0.030824952,0.934348702
17.202508,2.008285522,-6.279380798,-2.009819031,-0.135903686,-0.029726319,0.935447335
17.203134,2.191390991,-6.470115662,-2.124259949,-0.135903686,-0.032778077,0.936057687
17.203760,1.741256714,-6.592185974,-1.841972351,-0.135415405,-0.033144288,0.941428781
17.204387,1.680221558,-6.813438416,-1.750419617,-0.135049194,-0.032533936,0.941917062
17.205013,1.474227905,-6.782920837,-1.658866882,-0.135293335,-0.036196046,0.948020577
17.205638,1.291122437,-6.645591736,-1.460502625,-0.133462280,-0.034853272,0.945090890
17.206263,1.046981812,-6.821067810,-1.216362000,-0.134072632,-0.035707764,0.949363351
17.206888,0.871505737,-6.851585388,-1.033256531,-0.132241577,-0.037050538,0.950828195
17.207515,0.573959351,-6.767662048,-1.101921082,-0.132485718,-0.038027100,0.954002023
17.208142,0.284042358,-6.897361755,-0.819633484,-0.135415405,-0.038393311,0.958152413
17.208769,-0.082168579,-6.935508728,-0.758598328,-0.132607788,-0.038759522,0.957175851
17.209394,-0.364456177,-6.744773865,-0.590751648,-0.135415405,-0.038637452,0.961204171
17.210021,-0.311050415,-6.988914490,-0.499198914,-0.135781616,-0.037294678,0.966331124
17.210646,-0.845108032,-6.889732361,-0.499198914,-0.135415405,-0.038637452,0.965354562
17.211272,-1.020584106,-6.546409607,-0.201652527,-0.138833374,-0.041322999,0.966453195
17.211899,-1.333389282,-6.782920837,-0.049064636,-0.138955444,-0.038149171,0.968406320
17.212525,-1.478347778,-6.424339294,0.057746887,-0.138345093,-0.041445069,0.973167062
17.213150,-2.035293579,-6.264122009,0.217964172,-0.139443725,-0.038271241,0.977317452
17.213777,-2.370986938,-6.210716248,0.324775696,-0.136269897,-0.039125733,0.975852609
17.214403,-2.622756958,-6.149681091,0.652839661,-0.136636108,-0.040956788,0.980002999
17.215029,-2.615127563,-5.966575623,0.523139954,-0.141152710,-0.042421632,0.980369210
17.215807,-2.782974243,-5.974205017,0.767280579,-0.136391968,-0.037294678,0.985496163
17.216432,-3.019485474,-5.752952576,1.141120911,-0.135659546,-0.041322999,0.987937570
17.217058,-3.294143677,-5.417259216,1.194526672,-0.133584350,-0.043886475,0.988669991
17.217684,-3.393325806,-5.409629822,1.217414856,-0.130898803,-0.038515382,0.992332101
17.218309,-3.500137329,-5.043418884,1.461555481,-0.129189819,-0.041811280,0.991843820
17.218934,-3.767166138,-5.150230408,1.263191223,-0.128091186,-0.043398194,0.994285226
17.219561,-3.767166138,-4.791648865,1.507331848,-0.128335327,-0.040712647,0.993796945
17.221347,-3.797683716,-4.280479431,2.148200989,-0.122475952,-0.044985108,1.000266671
17.221973,-3.591690063,-3.921897888,2.239753723,-0.123940796,-0.044374757,0.997459054
17.222599,-3.835830688,-3.715904236,2.285530090,-0.123330444,-0.044985108,0.997459054
17.223224,-3.683242798,-3.487022400,2.453376770,-0.119912475,-0.044374757,0.995261788
17.223849,-3.469619751,-3.227622986,2.621223450,-0.124551147,-0.042543702,0.994651437
17.224476,-3.027114868,-2.937705994,2.697517395,-0.120034546,-0.041445069,0.995872140
17.225103,-3.103408813,-2.823265076,2.758552551,-0.120278686,-0.038515382,0.994895577
17.225729,-2.905044556,-2.678306580,3.010322571,-0.119668335,-0.035829835,0.993064523
17.226355,-2.584609985,-2.273948669,3.101875305,-0.119302124,-0.038149171,0.993919015
17.226980,-2.302322388,-2.296836853,3.056098938,-0.119790405,-0.035585694,0.992820382
17.227605,-2.248916626,-2.182395935,3.140022278,-0.119668335,-0.033510499,0.994163156
17.228232,-1.936111450,-1.869590759,3.315498352,-0.119912475,-0.033144288,0.990256906
17.228857,-1.478347778,-1.717002869,3.269721985,-0.117104858,-0.032411866,0.986716866
17.229484,-1.165542603,-1.800926208,3.414680481,-0.120278686,-0.028139405,0.987571359
17.230110,-0.913772583,-1.533897400,3.368904114,-0.119668335,-0.028749757,0.984885812
17.230735,-0.677261353,-1.327903748,3.658821106,-0.120278686,-0.026064210,0.986228585
17.231361,0.123825073,-1.335533142,3.574897766,-0.122109741,-0.025820069,0.981223702
17.231986,0.024642944,-1.251609802,3.651191711,-0.122475952,-0.020082764,0.980125070
17.245951,4.495468140,-1.755149841,3.727485657,-0.137734741,0.046445556,0.934348702
17.246703,4.182662964,-1.999290466,3.674079895,-0.136147827,0.052182861,0.939109445
17.247328,4.007186890,-2.037437439,3.643562317,-0.135415405,0.051084228,0.936179757
17.247955,4.037704468,-2.121360779,3.506233215,-0.135049194,0.052549072,0.933982491
17.248581,3.953781128,-2.586753845,3.750373840,-0.134927124,0.050473876,0.936912179
17.249206,3.785934448,-2.594383240,3.529121399,-0.137002319,0.052060790,0.938010812
17.249832,3.610458374,-2.342613220,3.620674133,-0.133096069,0.054013915,0.936301827
17.250458,3.511276245,-2.777488708,3.643562317,-0.136880249,0.049863525,0.935447335
17.251084,3.137435913,-3.090293884,3.376533508,-0.135293335,0.052304931,0.933372140
17.251710,2.992477417,-2.434165955,3.559638977,-0.133828491,0.052915283,0.939475656
17.252336,2.847518921,-2.838523865,3.506233215,-0.132119507,0.051450439,0.933494210
17.252963,2.633895874,-2.899559021,3.674079895,-0.131142944,0.054990478,0.933738351
17.253589,2.405014038,-2.876670837,3.620674133,-0.129556030,0.052671142,0.930320382
17.254215,2.382125854,-2.876670837,3.399421692,-0.133096069,0.052060790,0.934714913
17.254841,2.084579468,-3.143699646,3.498603821,-0.132851928,0.051084228,0.936545968
17.255466,2.153244019,-2.968223572,3.407051086,-0.134927124,0.049741454,0.932151437
17.256091,1.695480347,-2.952964783,3.506233215,-0.133340210,0.047177978,0.931541085
17.256717,1.603927612,-2.838523865,3.506233215,-0.134682983,0.044492431,0.931663156
17.257342,1.588668823,-3.029258728,3.399421692,-0.132363647,0.041318603,0.929954171
17.257967,1.649703979,-3.212364197,3.223945618,-0.133462280,0.041562743,0.930930734
17.258593,1.458969116,-3.166587830,3.452827454,-0.130410522,0.041440673,0.928977609
17.259219,1.489486694,-3.235252380,3.201057434,-0.134316772,0.039243408,0.927390695
17.259845,1.497116089,-3.189476013,3.117134094,-0.135049194,0.035947509,0.929221749
17.260471,1.489486694,-3.258140564,3.323127747,-0.135415405,0.035337158,0.929710031
17.261096,1.695480347,-3.380210876,3.429939270,-0.136391968,0.032529540,0.925559640
17.261723,1.657333374,-3.448875427,3.140022278,-0.137856811,0.030698486,0.926536202
17.262349,1.535263062,-3.624351501,3.353645325,-0.139443725,0.029233642,0.922752023
17.262975,1.695480347,-3.578575134,3.239204407,-0.142007202,0.026792236,0.926169991
17.263600,1.939620972,-3.845603943,3.178169250,-0.141518921,0.022153564,0.922385812
17.264226,2.336349487,-4.013450623,3.330757141,-0.142373413,0.020566650,0.923118234
17.265997,2.694931030,-4.372032166,3.056098938,-0.148965210,0.016538329,0.917258859
17.266624,3.091659546,-4.570396423,3.353645325,-0.146401733,0.014829345,0.919456124
17.267251,3.236618042,-4.547508240,3.262092590,-0.149331421,0.009092040,0.913474679
17.267876,3.587570190,-4.967124939,3.254463196,-0.150430053,0.006162353,0.913840890
17.268501,3.793563843,-4.921348572,3.063728333,-0.152871460,0.006406493,0.914573312
17.269126,4.342880249,-5.295188904,3.162910461,-0.152505249,0.003110595,0.913474679
17.269751,4.419174194,-5.348594666,3.284980774,-0.151650757,0.000913329,0.914207101
17.270377,4.953231812,-5.821617126,3.239204407,-0.154580444,0.002378173,0.914085031
17.271006,5.342330933,-5.905540466,3.170539856,-0.156533569,0.000547118,0.911887765
17.271632,5.441513062,-5.997093201,3.223945618,-0.156533569,-0.003359132,0.912986398
17.272259,5.784835815,-5.943687439,3.140022278,-0.156655639,-0.003481202,0.914207101
17.272884,5.998458862,-6.500633240,3.323127747,-0.158974975,-0.003847413,0.913962960
17.273510,6.349411011,-6.554039001,3.140022278,-0.159707397,-0.005556397,0.916404366
17.274136,6.791915894,-6.828697205,3.063728333,-0.159097046,-0.008730225,0.914207101
17.274762,7.043685913,-6.744773865,3.201057434,-0.160928100,-0.004213624,0.915671945
17.275387,7.371749878,-7.027061462,3.170539856,-0.161294311,-0.007875733,0.918845773
17.276012,7.440414429,-7.240684509,3.300239563,-0.160073608,-0.009706788,0.918113351
17.276637,7.875289917,-7.393272400,3.269721985,-0.159707397,-0.009462647,0.917869210
17.290536,8.035507202,-8.644493103,4.398872375,-0.163003296,-0.018495850,0.931541085
17.291259,7.837142944,-8.819969177,4.581977844,-0.165566772,-0.021059327,0.932273507
17.291884,7.669296265,-9.056480408,4.620124817,-0.166055053,-0.017641358,0.932639718
17.292511,7.394638062,-9.102256775,4.795600891,-0.166665405,-0.021181397,0.929221749
17.293142,7.119979858,-9.094627380,4.803230286,-0.170205444,-0.022035889,0.929954171
17.293767,6.799545288,-9.361656189,4.932929993,-0.168130249,-0.016176514,0.931663156
17.294392,6.463851929,-9.354026794,5.108406067,-0.172280639,-0.019106202,0.929832101
17.295018,6.181564331,-9.476097107,5.131294250,-0.173501343,-0.019472413,0.930686593
17.295645,5.899276733,-9.704978943,5.184700012,-0.174966186,-0.020693116,0.930198312
17.296271,5.380477905,-9.521873474,5.322029114,-0.173379272,-0.017519288,0.935081124
17.296896,5.128707886,-9.628684998,5.474617004,-0.173501343,-0.016664796,0.935325265
17.297521,4.876937866,-9.994895935,5.512763977,-0.172036499,-0.015688233,0.934959054
17.298147,4.129257202,-9.987266541,5.573799133,-0.176797241,-0.016542725,0.937034249
17.298772,3.885116577,-9.651573181,5.688240051,-0.173745483,-0.018862061,0.938254952
17.299398,3.648605347,-10.269554138,5.833198547,-0.175088257,-0.014589600,0.937888741
17.300024,3.244247437,-10.002525330,6.031562805,-0.173745483,-0.015444092,0.938865304
17.300651,2.359237671,-10.429771423,6.077339172,-0.170571655,-0.015932374,0.942771554
17.301276,1.725997925,-10.589988708,6.153633118,-0.171914428,-0.016542725,0.943503976
17.301901,1.848068237,-10.353477478,6.176521301,-0.173379272,-0.014711671,0.948875070
17.302527,1.024093628,-10.437400818,6.451179504,-0.167886108,-0.016664796,0.949119210
17.303154,0.932540894,-10.673912048,6.512214661,-0.169961303,-0.014101319,0.949119210
17.303779,0.688400269,-10.567100525,6.619026184,-0.172646850,-0.018373780,0.953513741
17.304405,0.070419312,-10.689170837,6.893684387,-0.166421264,-0.018373780,0.954490304
17.305030,-0.303421021,-10.467918396,6.756355286,-0.169228882,-0.017641358,0.956199288
17.305656,-0.410232544,-10.605247498,6.840278625,-0.164590210,-0.017885499,0.957908273
17.306281,-0.814590454,-10.704429626,7.053901672,-0.165566772,-0.019472413,0.958884835
17.306906,-1.028213501,-10.727317810,7.252265930,-0.166665405,-0.019106202,0.960105538
17.307532,-1.104507446,-10.582359314,7.130195618,-0.162881225,-0.021059327,0.961814523
17.308157,-1.440200806,-10.658653259,7.473518372,-0.162759155,-0.022768311,0.965964913
17.308784,-1.341018677,-10.765464783,7.450630188,-0.158608764,-0.022524171,0.965720773
17.310582,-1.531753540,-10.490806580,7.664253235,-0.153848022,-0.020326905,0.972434640
17.311207,-1.440200806,-10.422142029,7.732917786,-0.150552124,-0.021303467,0.975486398
17.311833,-1.562271118,-10.284812927,7.877876282,-0.150430053,-0.022890382,0.979148507
17.312460,-1.516494751,-10.269554138,7.801582336,-0.147744507,-0.019594483,0.978416085
17.313086,-1.356277466,-10.597618103,8.068611145,-0.143105835,-0.018129639,0.980613351
17.313712,-1.287612915,-10.437400818,8.160163879,-0.143838257,-0.021181397,0.978660226
17.314337,-1.226577759,-10.490806580,8.343269348,-0.139443725,-0.018251710,0.983543038
17.314964,-1.127395630,-10.162742615,8.419563293,-0.144692749,-0.016542725,0.980735421
17.315590,-0.913772583,-10.368736267,8.228828430,-0.141640991,-0.015444092,0.981223702
17.316217,-0.738296509,-10.139854431,8.442451477,-0.142861694,-0.012514405,0.980735421
17.316844,-0.639114380,-9.872825623,8.320381165,-0.142739624,-0.011293702,0.984763741
17.317469,-0.318679810,-9.972007751,8.411933899,-0.143594116,-0.007753663,0.980857491
17.318094,-0.188980103,-9.842308044,8.534004211,-0.142861694,-0.006044678,0.983176827
17.318719,0.024642944,-9.643943787,8.663703918,-0.142373413,-0.004823975,0.980979562
17.319346,0.459518433,-9.933860779,8.770515442,-0.144936889,-0.006899171,0.980247140
17.319971,0.734176636,-9.590538025,8.633186340,-0.146035522,-0.004213624,0.977561593
17.320596,1.008834839,-9.727867126,8.686592102,-0.143960327,0.000058837,0.979514718
17.321222,1.176681519,-9.590538025,8.984138489,-0.147866577,0.002134033,0.979514718
17.335178,4.854049683,-10.910423279,8.167793274,-0.129556030,0.063779540,0.982688546
17.335931,4.762496948,-11.055381775,8.007575989,-0.129067749,0.061216064,0.981956124
17.336558,4.953231812,-10.788352966,7.938911438,-0.129311889,0.067563720,0.989524484
17.337184,4.579391479,-11.009605408,8.007575989,-0.129678100,0.066098876,0.987815499
17.337809,4.571762085,-10.963829041,7.687141418,-0.129311889,0.068906493,0.991233468
17.338434,4.487838745,-10.864646912,7.786323547,-0.125893921,0.067807861,0.991111398
17.339059,4.289474487,-10.956199646,7.801582336,-0.125283569,0.068784423,0.993186593
17.339686,3.969039917,-10.986717224,7.816841125,-0.123940796,0.071225829,0.995994210
17.340311,4.236068726,-10.666282654,7.618476868,-0.123086303,0.071347900,1.000510812
17.340936,3.747787476,-10.658653259,7.671882629,-0.121621460,0.073423095,1.002097726
17.341561,3.572311401,-10.544212341,7.504035950,-0.121255249,0.072324462,1.001365304
17.342186,3.526535034,-10.651023865,7.153083801,-0.119302124,0.074765868,1.002463937
17.342811,3.305282593,-10.261924744,7.610847473,-0.119790405,0.075254150,1.005515695
17.343437,3.061141968,-10.406883240,7.526924133,-0.118569702,0.070127197,1.006370187
17.344064,3.084030151,-10.139854431,7.252265930,-0.114419311,0.072446533,1.009421945
17.344691,2.778854370,-9.926231384,7.458259583,-0.115884155,0.071958251,1.010764718
17.345317,2.778854370,-9.880455017,7.069160461,-0.113931030,0.073056884,1.011863351
17.345943,2.519454956,-9.659202576,6.992866516,-0.114907593,0.074155517,1.011130929
17.346568,2.572860718,-9.567649841,6.992866516,-0.114785522,0.071592040,1.011252999
17.347193,2.359237671,-9.483726501,6.947090149,-0.115151733,0.071225829,1.014304757
17.347818,2.183761597,-9.270103455,6.985237122,-0.115029663,0.070737548,1.011741281
17.348444,2.031173706,-9.109886169,6.794502258,-0.115029663,0.068784423,1.014304757
17.349069,2.122726440,-9.155662537,6.672431946,-0.116738647,0.068052001,1.013816476
17.349695,2.023544312,-8.728416443,6.649543762,-0.116616577,0.071225829,1.011130929
17.350321,1.947250366,-8.758934021,6.626655579,-0.114663452,0.068540283,1.011130929
17.350946,1.642074585,-8.522422791,6.611396790,-0.120278686,0.066098876,1.011497140
17.351573,1.787033081,-8.499534607,6.413032532,-0.123330444,0.067441650,1.009544015
17.352198,1.970138550,-8.217247009,6.496955872,-0.122720093,0.064511962,1.008811593
17.352824,1.794662476,-8.049400330,6.481697083,-0.120644897,0.063901611,1.008567452
17.353449,1.748886108,-8.110435486,6.268074036,-0.122231811,0.062802978,1.006248116
17.355260,2.107467651,-8.041770935,6.062080383,-0.130532593,0.061093993,0.998679757
17.355885,1.993026733,-7.912071228,6.031562805,-0.132241577,0.060361572,1.000144601
17.356511,2.130355835,-7.927330017,6.138374329,-0.129678100,0.060605712,0.996604562
17.357138,2.069320679,-7.873924255,6.092597961,-0.129678100,0.062436767,0.996238351
17.357763,2.374496460,-7.728965759,6.184150696,-0.132241577,0.060849853,0.992698312
17.358388,2.191390991,-7.957847595,5.848457336,-0.132485718,0.061704345,0.993430734
17.365600,3.564682007,-8.972557068,5.077888489,-0.131020874,0.063901611,0.991965890
17.366225,3.396835327,-8.774192810,4.871894836,-0.135293335,0.061093993,0.989036202
17.366852,3.663864136,-9.094627380,4.856636047,-0.137368530,0.061704345,0.991111398
17.367477,3.557052612,-9.148033142,4.993965149,-0.136636108,0.059629150,0.992820382
17.368104,3.740158081,-9.010704041,4.894783020,-0.136391968,0.063413329,0.995750070
17.368730,3.572311401,-9.163291931,4.627754211,-0.139077514,0.060239501,0.993186593
17.369357,3.877487183,-9.430320740,4.810859680,-0.137978882,0.061582275,0.993552804
17.369983,3.663864136,-9.125144958,4.536201477,-0.139687866,0.056577392,0.996848702
17.370609,3.702011108,-9.445579529,4.513313293,-0.142373413,0.059629150,0.995627999
17.371236,3.740158081,-9.323509216,4.551460266,-0.144204468,0.054746337,0.993919015
17.371862,3.824081421,-9.697349548,4.444648743,-0.142007202,0.055478759,0.996116281
17.372488,3.587570190,-9.636314392,4.444648743,-0.143105835,0.054990478,0.995383859
17.386483,-0.906143188,-12.260826111,4.246284485,-0.152505249,0.067563720,0.996604562
17.387235,-1.363906860,-12.344749451,4.017402649,-0.152871460,0.068418212,0.995139718
17.387860,-1.806411743,-12.581260681,4.063179016,-0.152871460,0.069272704,1.001975656
17.388486,-2.157363892,-12.665184021,3.902961731,-0.149819702,0.072934814,1.003074288
17.389113,-2.790603638,-12.749107361,3.902961731,-0.154824585,0.076352783,1.006492257
17.389738,-3.423843384,-12.932212830,3.811408997,-0.150796264,0.078550048,1.009177804
17.390364,-4.110488892,-12.878807068,3.918220520,-0.154336303,0.079526611,1.011252999
17.390991,-4.774246216,-12.840660095,3.857185364,-0.153237671,0.084043212,1.013938546
17.391617,-5.308303833,-13.023765564,3.979255676,-0.152383178,0.079526611,1.018333077
17.392243,-5.972061157,-13.206871033,3.887702942,-0.154702514,0.083310790,1.018577218
17.392868,-6.834182739,-12.871177673,3.826667786,-0.154336303,0.079526611,1.021506906
17.393493,-7.299575806,-12.939842224,3.704597473,-0.156045288,0.083432861,1.023704171
17.394118,-7.772598267,-13.130577087,3.887702942,-0.153481811,0.085019775,1.028220773
17.394743,-8.619461060,-12.962730408,3.956367493,-0.154092163,0.085141845,1.031882882
17.395435,-9.115371704,-12.985618591,3.605415344,-0.154702514,0.082212158,1.032371163
17.396060,-9.908828735,-12.962730408,3.689338684,-0.151772827,0.083310790,1.035178781
17.396685,-10.656509399,-12.939842224,3.696968079,-0.151162475,0.081235595,1.035300851
17.397322,-12.037429810,-12.916954041,3.696968079,-0.153848022,0.077939697,1.041038156
17.397947,-12.540969849,-12.543113708,3.513862610,-0.154458374,0.077085204,1.041038156
17.398572,-13.212356567,-12.657554626,3.506233215,-0.154824585,0.076596923,1.045066476
17.399198,-13.693008423,-12.642295837,3.689338684,-0.152139038,0.071836181,1.044822335
17.399823,-14.326248169,-12.581260681,3.613044739,-0.147744507,0.070615478,1.049216866
17.400450,-14.639053345,-12.535484314,3.391792297,-0.148110718,0.068418212,1.051292062
17.401076,-15.447769165,-12.611778259,3.452827454,-0.147866577,0.069028564,1.056052804
17.401702,-15.745315552,-12.253196716,3.452827454,-0.142373413,0.065244384,1.056052804
17.402329,-15.852127075,-12.192161560,3.346015930,-0.141030639,0.065122314,1.058372140
17.402955,-16.058120728,-12.146385193,3.452827454,-0.139932007,0.059385009,1.058982491
17.403580,-16.515884399,-12.062461853,3.460456848,-0.138100952,0.059629150,1.065330148
17.404206,-16.767654419,-11.894615173,3.437568665,-0.138100952,0.056089111,1.069114327
17.404833,-16.821060181,-11.780174255,3.353645325,-0.133950561,0.056455322,1.072776437
17.406662,-16.859207153,-11.444480896,3.254463196,-0.130654663,0.051450439,1.078025460
17.407288,-17.164382935,-11.108787537,3.330757141,-0.131020874,0.050351806,1.080833077
17.407913,-17.080459595,-10.818870544,3.597785950,-0.127236694,0.048642822,1.084617257
17.408539,-16.874465942,-10.696800232,3.407051086,-0.127602905,0.049131103,1.087791085
17.409165,-16.767654419,-10.506065369,3.414680481,-0.125893921,0.049253173,1.090110421
17.409791,-16.500625610,-10.017784119,3.353645325,-0.127480835,0.047666259,1.091086984
17.410417,-15.798721313,-9.773643494,3.338386536,-0.127724975,0.039487548,1.098655343
17.411043,-15.470657349,-9.506614685,3.262092590,-0.129189819,0.038022704,1.098044991
17.411669,-15.035781860,-9.384544373,3.246833801,-0.131753296,0.037290283,1.099265695
17.412295,-14.562759399,-9.178550720,3.132392883,-0.128701538,0.038999267,1.101340890
17.412920,-13.998184204,-9.094627380,3.429939270,-0.128579468,0.038388915,1.098777413
17.413607,-13.364944458,-8.484275818,3.162910461,-0.130288452,0.036924072,1.102439523
17.414397,-12.663040161,-8.583457947,2.934028625,-0.132851928,0.036557861,1.104636788
17.415274,-12.167129517,-8.247764587,3.132392883,-0.129433960,0.038510986,1.101340890
17.416114,-10.763320923,-8.011253357,2.865364075,-0.130410522,0.035947509,1.102073312
17.416989,-9.939346313,-7.767112732,2.682258606,-0.130410522,0.037412353,1.100242257
17.417828,-9.245071411,-7.584007263,2.689888000,-0.129311889,0.042295165,1.098777413
17.418649,-7.459793091,-7.278831482,2.392341614,-0.122475952,0.038755126,1.101096749
17.432968,6.006088257,-5.272300720,0.256111145,-0.103310913,0.068296142,1.102927804
17.433735,6.181564331,-5.096824646,0.179817200,-0.106118530,0.071103759,1.100242257
17.434362,6.181564331,-4.867942810,0.019599915,-0.103188843,0.070005126,1.105735421
17.434988,6.578292847,-4.845054626,0.065376282,-0.104165405,0.071714111,1.103660226
17.435613,6.776657104,-4.532249451,-0.033805847,-0.103310913,0.069272704,1.106223702
17.436239,6.585922241,-4.455955505,-0.140617371,-0.102090210,0.070371337,1.106467843
17.436866,6.784286499,-4.303367615,-0.224540710,-0.101723999,0.071103759,1.107810616
17.437492,6.830062866,-3.868492126,-0.384757996,-0.099282593,0.070981689,1.111350656
17.438118,6.997909546,-3.914268494,-0.361869812,-0.097451538,0.068174072,1.109031320
17.438743,6.776657104,-3.364952087,-0.422904968,-0.095620483,0.068052001,1.110984445
17.439369,6.898727417,-3.250511169,-0.514457703,-0.097573608,0.070981689,1.112327218
17.439995,6.921615601,-2.922447205,-0.682304382,-0.095498413,0.070371337,1.114402413
17.440620,6.868209839,-2.785118103,-0.468681335,-0.092446655,0.064145751,1.116233468
17.441247,6.852951050,-2.373130798,-0.766227722,-0.086098999,0.063901611,1.115867257
17.441874,6.608810425,-2.022178650,-0.613639832,-0.076943725,0.065732665,1.114890695
17.442501,6.555404663,-1.877220154,-0.606010437,-0.068276733,0.064023681,1.116355538
17.443126,6.372299194,-1.465232849,-0.621269226,-0.074258178,0.064267822,1.115256906
17.443753,6.440963745,-0.854881287,-0.766227722,-0.087197632,0.061582275,1.108909249
17.444378,6.944503784,-0.450523376,-0.812004089,-0.100625366,0.055234618,1.120383859
17.445062,6.952133179,0.152198792,-0.979850769,-0.104531616,0.048642822,1.131858468
17.445851,6.791915894,0.381080627,-1.437614441,-0.102334350,0.047177978,1.138328195
17.446598,6.540145874,1.288978577,-0.911186218,-0.110879272,0.056089111,1.128318429
17.447437,6.006088257,1.540748596,-0.712821960,-0.125283569,0.056821533,1.117942452
17.448308,5.670394897,1.769630432,-0.697563171,-0.131997436,0.062070556,1.111228585
17.449166,5.388107300,2.242652893,-1.147697449,-0.126015991,0.066953368,1.098533273
17.450024,5.258407593,2.296058655,-1.162956238,-0.119302124,0.067075439,1.096336007
17.450874,4.899826050,2.196876526,-1.140068054,-0.113808960,0.062192626,1.096091866
17.453009,3.282394409,3.333656311,-1.033256531,-0.123208374,0.062802978,1.073020577
17.453821,2.778854370,3.333656311,-1.361320496,-0.124551147,0.061704345,1.065574288
17.454651,2.397384644,3.432838440,-1.155326843,-0.126015991,0.062436767,1.067039132
17.455478,1.657333374,3.493873596,-1.307914734,-0.125649780,0.056943603,1.067893624
17.456297,1.001205444,3.783790588,-1.170585632,-0.128701538,0.052427001,1.069358468
17.457183,0.360336304,4.043190002,-1.269767761,-0.125527710,0.055844970,1.070335031
17.457964,-0.013504028,4.020301819,-1.147697449,-0.127724975,0.054746337,1.067893624
17.458595,-0.509414673,4.111854553,-0.857780457,-0.129922241,0.056455322,1.068381906
17.459378,-1.165542603,4.287330627,-1.002738953,-0.132607788,0.058774658,1.065086007
17.460187,-1.554641724,4.134742737,-0.995109558,-0.131753296,0.059385009,1.066428781
17.460992,-2.584609985,4.439918518,-1.048515320,-0.137612671,0.057798095,1.063010812
17.461831,-3.378067017,4.561988831,-1.086662292,-0.135781616,0.057309814,1.063621163
17.462673,-3.729019165,4.783241272,-0.964591980,-0.137002319,0.061093993,1.060325265
17.463491,-5.125198364,4.653541565,-0.911186218,-0.140054077,0.056943603,1.058860421
17.464118,-5.552444458,4.775611877,-0.682304382,-0.144448608,0.060117431,1.057517648
17.464745,-6.010208130,4.577247620,-0.903556824,-0.139687866,0.060727783,1.054465890
17.465370,-6.765518188,4.722206116,-0.850151062,-0.143227905,0.052549072,1.049583077
17.465996,-7.063064575,4.851905823,-0.827262878,-0.146890014,0.056699462,1.052146554
17.466621,-7.436904907,4.661170959,-0.796745300,-0.143349975,0.054502197,1.050071359
17.467246,-8.031997681,4.607765198,-0.812004089,-0.147866577,0.049009033,1.043601632
17.467872,-8.466873169,4.722206116,-0.583122253,-0.143838257,0.049253173,1.042991281
17.481793,-10.229263306,3.188697815,-0.400016785,-0.155434936,0.034848876,1.035544991
17.482538,-10.000381470,3.081886292,-0.331352234,-0.152383178,0.033750243,1.034690499
17.483163,-9.679946899,3.058998108,-0.422904968,-0.151772827,0.034726806,1.037742257
17.483789,-9.664688110,2.738563538,-0.682304382,-0.154092163,0.031675048,1.037253976
17.484414,-9.344253540,2.845375061,-0.438163757,-0.152993530,0.030454345,1.039573312
17.485040,-9.054336548,2.898780823,-0.407646179,-0.151650757,0.031797118,1.040305734
17.485667,-8.428726196,2.853004456,-0.575492859,-0.150552124,0.032407470,1.044089913
17.486293,-7.993850708,2.662269592,-0.445793152,-0.150307983,0.031308837,1.044822335
17.486919,-7.826004028,2.784339905,-0.544975281,-0.152749389,0.029843993,1.048362374
17.487546,-7.581863403,2.814857483,-0.316093445,-0.148843139,0.029721923,1.049583077
17.488172,-7.047805786,2.715675354,-0.499198914,-0.152871460,0.032651611,1.049949288
17.488799,-6.757888794,2.715675354,-0.689933777,-0.147134155,0.031919189,1.054465890
17.489425,-6.391677856,2.631752014,-0.544975281,-0.149819702,0.034482665,1.056052804
17.490050,-6.269607544,2.952186584,-0.552604675,-0.146523803,0.036069579,1.054221749
17.490676,-5.552444458,2.570716858,-0.667045593,-0.145547241,0.034238525,1.054221749
17.491301,-5.232009888,2.837745667,-0.544975281,-0.144936889,0.036069579,1.054954171
17.491926,-5.109939575,2.936927795,-0.743339539,-0.144814819,0.035947509,1.056296945
17.492552,-4.736099243,2.799598694,-0.689933777,-0.146401733,0.039731689,1.060081124
17.493178,-4.491958618,2.814857483,-0.895927429,-0.142617553,0.037168212,1.058738351
17.493805,-4.110488892,2.967445374,-0.674674988,-0.139932007,0.036069579,1.056907296
17.494431,-3.896865845,3.142921448,-0.956962585,-0.143838257,0.041440673,1.058250070
17.495058,-3.492507935,3.081886292,-0.911186218,-0.145669311,0.042539306,1.063132882
17.495683,-3.202590942,3.295509338,-1.063774109,-0.142739624,0.044004150,1.057883859
17.496308,-2.920303345,3.303138733,-0.949333191,-0.139443725,0.042905517,1.057639718
17.496933,-2.836380005,3.234474182,-0.956962585,-0.141518921,0.044004150,1.058372140
17.497735,-2.187881470,3.600685120,-1.277397156,-0.136147827,0.045224853,1.059959054
17.498360,-2.241287231,3.760902405,-1.193473816,-0.141518921,0.046933837,1.058005929
17.498986,-1.829299927,3.783790588,-1.170585632,-0.139199585,0.048032470,1.057883859
17.499611,-2.073440552,3.699867249,-1.285026550,-0.140054077,0.046323486,1.059592843
17.500240,-1.730117798,3.936378479,-1.262138367,-0.136880249,0.048154540,1.057029366
17.502048,-1.424942017,4.005043030,-1.429985046,-0.136391968,0.048154540,1.053001046
17.502673,-1.516494751,4.020301819,-1.643608093,-0.131265014,0.051084228,1.056174874
17.503298,-1.089248657,4.027931213,-1.582572937,-0.134682983,0.047544189,1.054465890
17.503923,-1.218948364,4.142372131,-1.643608093,-0.133462280,0.048886962,1.058738351
17.504549,-1.402053833,4.172889709,-1.536796570,-0.133096069,0.050107665,1.057029366
17.505175,-0.990066528,4.302589417,-1.712272644,-0.137124389,0.047544189,1.055930734
17.505802,-0.898513794,4.249183655,-1.613090515,-0.131387085,0.049619384,1.057151437
17.506427,-0.806961060,4.470436096,-1.834342957,-0.134682983,0.044248290,1.052146554
17.507052,-0.776443481,4.272071838,-1.765678406,-0.132607788,0.045835204,1.054343820
17.507678,-0.745925903,4.378883362,-1.895378113,-0.133828491,0.045835204,1.054710031
17.508303,-0.852737427,4.455177307,-1.895378113,-0.133462280,0.041318603,1.053245187
17.508929,-0.623855591,4.462806702,-1.811454773,-0.133584350,0.040952392,1.053855538
17.509554,-0.753555298,4.638282776,-1.864860535,-0.131875366,0.038022704,1.052024484
17.510180,-0.669631958,4.371253967,-1.887748718,-0.130654663,0.037168212,1.056785226
17.510806,-0.524673462,4.851905823,-2.093742371,-0.131875366,0.039487548,1.053855538
17.511432,-0.646743774,4.699317932,-2.139518738,-0.129067749,0.038022704,1.053489327
17.512058,-0.700149536,4.745094299,-2.025077820,-0.133950561,0.035947509,1.055442452
17.512685,-0.654373169,4.905311584,-2.391288757,-0.129922241,0.030820556,1.057517648
17.526670,-0.875625610,8.681861877,-1.750419617,-0.139809936,-0.013613038,1.062644601
17.527431,-0.997695923,9.154884338,-1.513908386,-0.141152710,-0.017397217,1.061790109
17.528057,-1.005325317,9.444801331,-1.552055359,-0.138711303,-0.017641358,1.061545968
17.528682,-1.135025024,9.383766174,-1.429985046,-0.141274780,-0.021791749,1.061912179
17.529307,-1.157913208,9.788124084,-1.384208679,-0.140298218,-0.021791749,1.059714913
17.529932,-0.951919556,9.948341370,-1.315544128,-0.141396850,-0.023012452,1.063865304
17.530557,-0.936660767,10.177223206,-1.071403503,-0.142373413,-0.028261475,1.060691476
17.531184,-1.318130493,10.604469299,-1.079032898,-0.142129272,-0.030336671,1.055320382
17.531811,-1.341018677,10.627357483,-1.063774109,-0.144204468,-0.033632569,1.052024484
17.532437,-1.417312622,10.909645081,-1.002738953,-0.144692749,-0.035341553,1.050071359
17.533064,-1.539382935,10.886756897,-0.796745300,-0.145181030,-0.034364991,1.045188546
17.533689,-1.371536255,11.298744202,-0.651786804,-0.144326538,-0.035585694,1.047263741
17.534315,-1.539382935,11.268226624,-0.529716492,-0.142739624,-0.039736085,1.042747140
17.534941,-1.737747192,11.314002991,-0.293205261,-0.146157593,-0.041445069,1.037376046
17.535568,-1.508865356,11.596290588,-0.308464050,-0.143838257,-0.040956788,1.034324288
17.536194,-1.592788696,11.680213928,-0.064323425,-0.142983764,-0.042055421,1.032615304
17.536820,-1.554641724,11.886207581,-0.255058289,-0.144082397,-0.047182374,1.027732491
17.537446,-1.608047485,12.092201233,0.057746887,-0.148721069,-0.044374757,1.024436593
17.538196,-1.608047485,11.962501526,0.210334778,-0.147134155,-0.047426514,1.019431710
17.539065,-1.562271118,12.076942444,0.370552063,-0.148721069,-0.046327882,1.016746163
17.539765,-1.531753540,12.183753967,0.736763000,-0.146279663,-0.046205811,1.012961984
17.540667,-1.592788696,12.160865784,0.629951477,-0.151162475,-0.048403077,1.006492257
17.541531,-1.447830200,12.076942444,1.217414856,-0.148843139,-0.044374757,1.005149484
17.542433,-1.516494751,11.878578186,1.225044250,-0.149697632,-0.047060303,1.001731515
17.543316,-1.402053833,11.733619690,1.629402161,-0.149819702,-0.044496827,0.993552804
17.544156,-1.470718384,11.886207581,1.659919739,-0.145791382,-0.043520264,0.997214913
17.544909,-1.371536255,11.527626038,1.743843079,-0.149697632,-0.048891358,0.993308663
17.547021,-1.508865356,11.489479065,2.377082825,-0.150674194,-0.043154053,0.987571359
17.547848,-1.623306274,11.085121155,2.567817688,-0.151284546,-0.042055421,0.982322335
17.548644,-1.447830200,11.199562073,2.697517395,-0.150552124,-0.039003663,0.983176827
17.549446,-1.394424438,10.924903870,2.697517395,-0.152993530,-0.038149171,0.980369210
17.550241,-1.760635376,10.802833557,3.086616516,-0.151284546,-0.038759522,0.982444406
17.551075,-1.592788696,10.665504456,3.193428040,-0.149819702,-0.037905030,0.976096749
17.551831,-1.753005981,10.543434143,3.422309875,-0.152383178,-0.038515382,0.976585031
17.552596,-1.836929321,10.360328674,3.750373840,-0.153115600,-0.036318116,0.975120187
17.553406,-1.867446899,10.222999573,3.895332336,-0.152871460,-0.032045655,0.973044991
17.554140,-1.875076294,9.948341370,3.849555969,-0.150552124,-0.030214600,0.975120187
17.554941,-1.928482056,9.688941956,3.826667786,-0.152505249,-0.029726319,0.973777413
17.555582,-1.997146606,9.566871643,4.169990540,-0.151284546,-0.027040772,0.974998116
17.556366,-2.248916626,9.315101624,4.383613586,-0.149331421,-0.028749757,0.975852609
17.557167,-2.218399048,9.292213440,4.566719055,-0.149575561,-0.024843507,0.975730538
17.557970,-2.294692993,9.315101624,4.849006653,-0.150185913,-0.024599366,0.979026437
17.558771,-2.279434204,9.261695862,4.955818176,-0.146401733,-0.024233155,0.978171945
17.559563,-2.294692993,8.735267639,5.268623352,-0.145669311,-0.019716553,0.980247140
17.560363,-2.485427856,8.819190979,5.039741516,-0.148843139,-0.015566163,0.981223702
17.561142,-2.119216919,8.636085510,5.230476379,-0.148354858,-0.019472413,0.979758859
17.561947,-2.493057251,8.636085510,5.215217590,-0.146890014,-0.015199952,0.981467843
17.562711,-2.172622681,8.437721252,5.627204895,-0.143349975,-0.018495850,0.984397531
17.577050,3.358688354,8.971778870,7.175971985,-0.122720093,0.012754150,1.004417062
17.578156,3.564682007,8.971778870,7.069160461,-0.122964233,0.012754150,1.005149484
17.578951,4.419174194,9.269325256,7.259895325,-0.124551147,0.015439697,1.000877023
17.579776,4.510726929,9.353248596,7.084419250,-0.124062866,0.016904540,1.001853585
17.580611,4.800643921,9.154884338,7.160713196,-0.125527710,0.016416259,1.001853585
17.581451,5.510177612,9.513465881,7.191230774,-0.123330444,0.018979736,0.999656320
17.582219,6.028976440,9.391395569,7.221748352,-0.127724975,0.021543212,0.999778390
17.582989,6.303634644,9.414283752,7.237007141,-0.123574585,0.024228759,0.999290109
17.583795,6.791915894,9.635536194,7.420112610,-0.125771850,0.027646728,0.998313546
17.584585,7.272567749,9.528724670,7.160713196,-0.120889038,0.029233642,0.997214913
17.585370,7.730331421,9.521095276,7.122566223,-0.121621460,0.030332275,0.995994210
17.586110,7.821884155,9.704200745,7.114936829,-0.120889038,0.030820556,0.995872140
17.586885,8.294906616,9.849159241,7.275154114,-0.119302124,0.032285400,0.997581124
17.587696,8.684005737,9.940711975,7.198860168,-0.119180053,0.035337158,0.995139718
17.588505,9.134140015,10.009376526,7.267524719,-0.122353882,0.034726806,0.996726632
17.589325,9.195175171,10.161964417,7.160713196,-0.117348999,0.038022704,0.996482491
17.590097,9.576644897,10.482398987,7.130195618,-0.116250366,0.040708251,0.999534249
17.590852,9.874191284,10.055152893,7.046272278,-0.115273803,0.043760009,1.000022531
17.591669,9.919967651,10.299293518,7.114936829,-0.118813843,0.047666259,1.000144601
17.592503,9.950485229,10.650245667,7.198860168,-0.114297241,0.044614501,0.998557687
17.593130,10.270919800,10.451881409,7.130195618,-0.115762085,0.046811767,0.999412179
17.593774,10.362472534,10.734169006,7.031013489,-0.114419311,0.046933837,0.996482491
17.594424,10.583724976,11.062232971,7.084419250,-0.117104858,0.051450439,0.998557687
17.595050,10.553207397,11.008827209,7.107307434,-0.118935913,0.051572509,0.996970773
17.595676,10.682907104,11.054603577,6.886054993,-0.121133178,0.054258056,0.996116281
17.597486,10.858383179,11.748878479,6.908943176,-0.121499389,0.058408447,0.993674874
17.598112,10.568466187,11.542884827,7.061531067,-0.123086303,0.056699462,0.992454171
17.598738,10.278549194,11.619178772,6.794502258,-0.125161499,0.054502197,0.992332101
17.599364,10.400619507,11.970130920,6.985237122,-0.126138061,0.055722900,0.991843820
17.599991,10.217514038,11.832801819,6.947090149,-0.126260132,0.056211181,0.994285226
17.600693,10.263290405,12.168495178,7.114936829,-0.128701538,0.059385009,0.986838937
17.601319,9.981002808,12.412635803,6.741096497,-0.129189819,0.057187743,0.986961007
17.601944,9.698715210,12.664405823,6.969978333,-0.129067749,0.057553954,0.985496163
17.602569,9.561386108,12.778846741,6.794502258,-0.131387085,0.058286376,0.983787179
17.603195,9.424057007,12.794105530,6.763984680,-0.128701538,0.059873290,0.981834054
17.603821,9.363021851,13.076393127,7.053901672,-0.130044311,0.056821533,0.980979562
17.604447,8.981552124,13.106910706,6.718208313,-0.133462280,0.056577392,0.977927804
17.605073,8.714523315,13.396827698,6.931831360,-0.134072632,0.057431884,0.978294015
17.605698,8.539047241,13.305274963,6.741096497,-0.136758178,0.059873290,0.975242257
17.606323,8.249130249,13.564674377,6.947090149,-0.138345093,0.058896728,0.975486398
17.606948,8.119430542,13.724891663,6.718208313,-0.137856811,0.058164306,0.970481515
17.607573,8.027877808,13.793556213,6.962348938,-0.138589233,0.058896728,0.969138741
17.608199,7.913436890,13.938514709,7.053901672,-0.139932007,0.057187743,0.965842843
17.608826,7.219161987,13.824073792,6.870796204,-0.143594116,0.058774658,0.963523507
17.616057,4.289474487,14.632789612,6.847908020,-0.147866577,0.066343017,0.937766671
17.617887,3.068771362,14.503089905,7.145454407,-0.152261108,0.065854736,0.928123116
17.618512,2.717819214,14.800636292,6.794502258,-0.157632202,0.066709228,0.924583077
17.619139,2.275314331,14.800636292,6.908943176,-0.158364624,0.069760986,0.924583077
17.619764,1.931991577,14.419166565,6.893684387,-0.160439819,0.068296142,0.925803781
17.632525,-3.790054321,11.680213928,6.825019836,-0.176186889,0.064267822,0.858787179
17.633291,-3.988418579,11.535255432,6.924201965,-0.175210327,0.068296142,0.857078195
17.633916,-4.148635864,11.191932678,6.908943176,-0.177041382,0.064145751,0.854636788
17.634543,-3.950271606,10.718910217,6.718208313,-0.175820678,0.063047118,0.850486398
17.635170,-4.003677368,10.413734436,6.908943176,-0.181924194,0.063047118,0.848655343
17.635797,-4.049453735,10.001747131,6.939460754,-0.180093139,0.060605712,0.847434640
17.636424,-4.087600708,9.841529846,6.718208313,-0.179726928,0.060605712,0.844016671
17.638229,-3.912124634,8.666603088,6.832649231,-0.182656616,0.064023681,0.842795968
17.638856,-3.767166138,8.254615784,6.855537415,-0.181557983,0.059751220,0.839866281
17.639482,-3.744277954,7.972328186,6.939460754,-0.187905639,0.059873290,0.836814523
17.640107,-3.591690063,7.415382385,6.702949524,-0.188760132,0.063535400,0.837424874
17.640732,-3.515396118,7.133094788,6.763984680,-0.190347046,0.065366454,0.836692452
17.641358,-3.271255493,6.843177795,6.763984680,-0.193398803,0.061093993,0.839744210
17.641983,-3.011856079,6.370155334,6.733467102,-0.193032593,0.059629150,0.836936593
17.642608,-2.790603638,5.927650452,6.931831360,-0.192788452,0.061704345,0.837791085
17.643233,-2.714309692,5.683509827,6.786872864,-0.195718139,0.061338134,0.837302804
17.643860,-2.241287231,5.134193420,6.748725891,-0.194863647,0.062070556,0.840964913
17.644485,-2.226028442,4.783241272,6.680061340,-0.201089233,0.062925048,0.841331124
17.645111,-1.722488403,4.462806702,6.725837708,-0.196816772,0.063535400,0.841453195
17.645736,-1.569900513,3.989784241,6.672431946,-0.198647827,0.065244384,0.839988351
17.646362,-1.234207153,3.608314514,6.557991028,-0.201821655,0.063291259,0.841697335
17.646989,-0.898513794,3.234474182,6.779243469,-0.201577514,0.062925048,0.844138741
17.647614,-0.860366821,2.746192932,6.626655579,-0.199014038,0.065732665,0.843772531
17.648239,-0.562820435,2.379981995,6.626655579,-0.197793335,0.067075439,0.847434640
17.648864,-0.204238892,2.250282288,6.443550110,-0.198891968,0.063657470,0.846213937
17.649489,0.291671753,1.967994690,6.252815247,-0.197182983,0.067075439,0.845725656
17.650115,0.558700562,1.563636780,6.359626770,-0.195473999,0.069883056,0.851829171
17.650741,0.634994507,1.227943420,6.283332825,-0.197915405,0.068784423,0.849387765
17.651367,1.008834839,0.785438538,6.245185852,-0.196816772,0.070981689,0.850730538
17.651992,1.542892456,0.678627014,6.146003723,-0.194009155,0.068174072,0.850486398
17.652619,1.611557007,0.129310608,6.351997375,-0.192910522,0.070859618,0.850608468
17.653244,1.970138550,-0.198753357,6.176521301,-0.189980835,0.070371337,0.855247140
17.653869,2.237167358,-0.328453064,5.947639465,-0.190102905,0.072324462,0.854514718
17.654494,2.717819214,-0.847251892,6.077339172,-0.187783569,0.072324462,0.852439523
17.655119,2.763595581,-1.022727966,5.772163391,-0.184487671,0.076718993,0.854880929
17.655746,3.297653198,-1.213462830,5.978157043,-0.184609741,0.073667236,0.854880929
17.656371,3.854598999,-1.884849548,5.863716125,-0.183755249,0.076718993,0.853660226
17.658199,4.442062378,-2.579124451,5.764533997,-0.177163452,0.079282470,0.862693429
17.658825,4.533615112,-2.754600525,5.558540344,-0.178262085,0.078183837,0.863547921
17.659451,4.999008179,-3.181846619,5.619575500,-0.179726928,0.080747314,0.864280343
17.660076,5.266036987,-3.387840271,5.688240051,-0.174844116,0.080869384,0.863669991
17.660701,5.418624878,-3.609092712,5.459358215,-0.175210327,0.081968017,0.862937570
17.661326,5.334701538,-4.005821228,5.390693665,-0.171304077,0.087217040,0.867454171
17.661952,5.769577026,-4.196556091,5.474617004,-0.172158569,0.089414306,0.866599679
17.662577,5.922164917,-4.539878845,5.253364563,-0.171670288,0.089292236,0.870261788
17.663202,6.036605835,-4.974754333,5.405952454,-0.171182007,0.091733642,0.869651437
17.663828,5.975570679,-4.974754333,5.238105774,-0.170205444,0.094541259,0.873069406
17.664453,6.227340698,-5.234153748,5.192329407,-0.174722046,0.095395751,0.872336984
17.665080,6.372299194,-5.493553162,5.230476379,-0.173135132,0.096738525,0.880027413
17.678990,4.022445679,-6.302268982,3.208686829,-0.159707397,0.118833251,0.945090890
17.679698,3.900375366,-6.164939880,3.071357727,-0.160317749,0.117002197,0.946799874
17.680324,3.732528687,-6.157310486,3.071357727,-0.162392944,0.115537353,0.946555734
17.680951,3.831710815,-5.958946228,3.010322571,-0.164590210,0.116880126,0.948142648
17.681577,3.778305054,-5.768211365,2.895881653,-0.163613647,0.114438720,0.948264718
17.682204,3.686752319,-5.653770447,2.926399231,-0.162881225,0.112241454,0.947410226
17.682830,3.709640503,-5.752952576,2.789070129,-0.164101928,0.109311767,0.947776437
17.683456,3.702011108,-5.546958923,2.415229797,-0.162515014,0.114804931,0.947288156
17.684082,3.824081421,-5.470664978,2.438117981,-0.161904663,0.111753173,0.946189523
17.684709,3.953781128,-5.539329529,2.346565247,-0.161416382,0.110776611,0.946311593
17.685335,3.930892944,-5.447776794,2.186347961,-0.162026733,0.109311767,0.947532296
17.685961,4.045333862,-5.402000427,2.338935852,-0.162270874,0.109433837,0.946311593
17.686588,4.052963257,-5.203636169,1.850654602,-0.162270874,0.109677978,0.949363351
17.687213,4.197921753,-5.363853455,2.125312805,-0.160195678,0.107968993,0.949363351
17.687839,4.342880249,-5.112083435,1.865913391,-0.162148803,0.106015868,0.948386788
17.688465,4.487838745,-5.203636169,1.820137024,-0.162881225,0.107602783,0.947166085
17.689092,4.365768433,-5.165489197,1.507331848,-0.160928100,0.105893798,0.946067452
17.689717,4.609909058,-5.157859802,1.736213684,-0.161782593,0.109677978,0.947898507
17.690344,4.762496948,-5.096824646,1.438667297,-0.160317749,0.109922118,0.947654366
17.690969,4.991378784,-5.134971619,1.301338196,-0.159951538,0.108823486,0.946189523
17.691595,5.029525757,-5.005271912,1.118232727,-0.159219116,0.111997314,0.946433663
17.692220,5.082931519,-5.142601013,1.133491516,-0.159219116,0.112119384,0.944724679
17.692846,5.189743042,-5.058677673,1.095344543,-0.158730835,0.111142822,0.943870187
17.693471,5.266036987,-4.967124939,1.041938782,-0.160806030,0.110776611,0.948264718
17.694097,5.197372437,-5.119712830,0.752021790,-0.160561889,0.113706298,0.946189523
17.694724,5.365219116,-5.089195251,0.866462708,-0.162270874,0.113828368,0.944846749
17.695349,5.266036987,-5.226524353,0.752021790,-0.161904663,0.118100829,0.943870187
17.695976,5.052413940,-5.028160095,0.546028137,-0.162392944,0.118467040,0.943870187
17.696602,5.166854858,-4.951866150,0.286628723,-0.160317749,0.119687743,0.948142648
17.697227,5.479660034,-5.218894958,0.408699036,-0.158608764,0.122495361,0.947288156
17.698955,4.838790894,-5.119712830,0.187446594,-0.158730835,0.122861572,0.947410226
17.699581,4.655685425,-4.959495544,-0.071952820,-0.159829468,0.126035392,0.947654366
17.700207,4.472579956,-5.081565857,-0.224540710,-0.159219116,0.127866447,0.949607491
17.700832,4.113998413,-5.028160095,-0.270317078,-0.162515014,0.128843009,0.945823312
17.701459,3.976669312,-5.058677673,-0.415275574,-0.161294311,0.127988517,0.947532296
17.702085,3.587570190,-4.959495544,-0.491569519,-0.162270874,0.131772697,0.948508859
17.702710,3.259506226,-5.112083435,-0.468681335,-0.164468139,0.129819572,0.944724679
17.703336,3.000106812,-4.913719177,-0.804374695,-0.164468139,0.132871330,0.949241281
17.703961,2.687301636,-4.936607361,-0.628898621,-0.163247436,0.131894767,0.946189523
17.704587,2.298202515,-4.867942810,-0.842521667,-0.161782593,0.132627189,0.949485421
17.705214,1.993026733,-4.768760681,-1.040885925,-0.160806030,0.130674064,0.947898507
17.705839,1.527633667,-4.784019470,-1.086662292,-0.162637085,0.131284416,0.947898507
17.706464,1.207199097,-4.761131287,-0.941703796,-0.170205444,0.128476799,0.944846749
17.707089,0.749435425,-4.684837341,-1.208732605,-0.167031616,0.131894767,0.946677804
17.707715,0.360336304,-4.677207947,-1.269767761,-0.166177124,0.130796134,0.946189523
17.708341,-0.036392212,-4.799278259,-1.300285339,-0.167886108,0.127988517,0.946189523
17.708968,-0.463638306,-4.646690369,-1.773307800,-0.168008178,0.126157463,0.943381906
17.709595,-0.898513794,-4.745872498,-1.689384460,-0.170327514,0.125791252,0.943259835
17.724441,-8.054885864,-5.569847107,-2.696464539,-0.171670288,0.105893798,0.928855538
17.725170,-8.283767700,-5.989463806,-2.788017273,-0.176064819,0.106137939,0.927512765
17.725797,-8.421096802,-5.791099548,-2.871940613,-0.174233764,0.108213134,0.924094796
17.726423,-8.451614380,-5.989463806,-2.932975769,-0.177895874,0.108579345,0.924583077
17.727048,-9.016189575,-6.264122009,-3.009269714,-0.171670288,0.108701415,0.927878976
17.727674,-9.023818970,-6.332786560,-2.978752136,-0.177529663,0.106504150,0.923118234
17.728299,-9.245071411,-6.523521423,-2.894828796,-0.176308960,0.107236572,0.920310616
17.728926,-9.206924438,-6.767662048,-3.085563660,-0.177651733,0.108091064,0.921287179
17.729552,-9.443435669,-6.904991150,-3.283927917,-0.175576538,0.105283447,0.920920968
17.730177,-9.588394165,-7.072837830,-3.169487000,-0.174355835,0.105161376,0.925071359
17.730804,-9.748611450,-7.316978455,-3.100822449,-0.172890991,0.110288329,0.923728585
17.731429,-9.985122681,-7.568748474,-3.146598816,-0.175576538,0.106382079,0.922629952
17.732054,-10.000381470,-7.820518494,-3.299186707,-0.173989624,0.108457275,0.923850656
17.732679,-10.023269653,-7.912071228,-3.444145203,-0.175332397,0.109555908,0.919944406
17.733304,-10.084304810,-8.125694275,-3.497550964,-0.172158569,0.107724853,0.922752023
17.733930,-10.328445435,-8.446128845,-3.657768250,-0.172158569,0.108091064,0.922263741
17.734556,-10.297927856,-8.751304626,-3.558586121,-0.170205444,0.105893798,0.925559640
17.735182,-10.290298462,-8.942039490,-3.596733093,-0.169473022,0.107236572,0.924216866
17.735809,-10.282669067,-8.942039490,-3.711174011,-0.169473022,0.103574462,0.926047921
17.736434,-10.259780884,-9.354026794,-3.779838562,-0.165932983,0.104551025,0.927024484
17.737059,-10.320816040,-9.529502869,-3.932426453,-0.164712280,0.104062743,0.927878976
17.737685,-10.107192993,-9.666831970,-3.985832214,-0.162148803,0.103086181,0.928733468
17.738311,-10.076675415,-10.094078064,-3.932426453,-0.162148803,0.101255126,0.929465890
17.738936,-9.946975708,-10.330589294,-4.031608582,-0.161416382,0.100766845,0.932395577
17.739561,-9.870681763,-10.582359314,-3.985832214,-0.157143921,0.100278564,0.932273507
17.740188,-9.763870239,-10.612876892,-4.138420105,-0.155190796,0.102353759,0.934348702
17.740814,-9.626541138,-11.085899353,-4.085014343,-0.156167358,0.097470947,0.934592843
17.741441,-9.130630493,-11.146934509,-4.405448914,-0.152261108,0.093686767,0.934226632
17.742067,-8.909378052,-11.299522400,-4.435966492,-0.153848022,0.093808837,0.940452218
17.742694,-8.794937134,-11.436851501,-4.382560730,-0.153359741,0.088926025,0.944236398
17.744481,-7.780227661,-12.115867615,-4.672477722,-0.151894897,0.086118408,0.950095773
17.745106,-7.299575806,-12.253196716,-4.710624695,-0.153237671,0.085019775,0.951804757
17.745731,-6.933364868,-12.558372498,-4.893730164,-0.151528686,0.083310790,0.956931710
17.746356,-6.391677856,-12.749107361,-4.695365906,-0.151040405,0.080747314,0.960227609
17.746983,-5.834732056,-12.909324646,-4.954765320,-0.148354858,0.080014892,0.963035226
17.747609,-5.460891724,-12.993247986,-5.008171082,-0.148354858,0.074765868,0.965232491
17.748234,-4.827651978,-13.199241638,-5.008171082,-0.154824585,0.076596923,0.965964913
17.748860,-4.247817993,-13.122947693,-5.099723816,-0.150796264,0.074887939,0.972190499
17.749486,-3.545913696,-13.336570740,-5.305717468,-0.148843139,0.074399658,0.972922921
17.750113,-3.011856079,-13.718040466,-5.282829285,-0.147622436,0.076352783,0.978416085
17.750739,-2.493057251,-13.664634705,-5.244682312,-0.150063843,0.072690673,0.983787179
17.751365,-1.989517212,-13.519676208,-5.481193542,-0.147988647,0.071225829,0.987693429
17.751991,-1.417312622,-13.695152283,-5.542228699,-0.147744507,0.067319579,0.989036202
17.752616,-0.517044067,-13.916404724,-5.145500183,-0.144204468,0.068418212,0.993308663
17.753242,-0.196609497,-13.710411072,-5.450675964,-0.143838257,0.067441650,0.997459054
17.753867,0.589218140,-13.862998962,-5.664299011,-0.141763061,0.067441650,0.999168038
17.754493,1.214828491,-13.855369568,-5.786369324,-0.141885132,0.067441650,1.000754952
17.768462,9.309616089,-11.200340271,-6.923149109,-0.136758178,0.068418212,1.040671945
17.769337,9.317245483,-10.994346619,-7.152030945,-0.139443725,0.068662353,1.038840890
17.770088,9.271469116,-10.948570251,-6.915519714,-0.141396850,0.068052001,1.037009835
17.770713,9.126510620,-10.712059021,-6.747673035,-0.139932007,0.068540283,1.038718820
17.771339,9.080734253,-10.513694763,-6.999443054,-0.140298218,0.066953368,1.037009835
17.771966,8.905258179,-10.460289001,-6.900260925,-0.138345093,0.068052001,1.037620187
17.772592,8.592453003,-10.284812927,-6.946037292,-0.134194702,0.069883056,1.039939523
17.773218,8.386459351,-10.139854431,-7.228324890,-0.132729858,0.073423095,1.038474679
17.773845,8.287277222,-10.010154724,-7.075737000,-0.131753296,0.073423095,1.042869210
17.774471,8.043136597,-10.078819275,-7.289360046,-0.131997436,0.076108642,1.040061593
17.775097,7.341232300,-9.735496521,-7.121513367,-0.130166382,0.076108642,1.040916085
17.775723,6.936874390,-9.659202576,-7.159660339,-0.130898803,0.076718993,1.040671945
17.776349,6.700363159,-9.613426208,-6.991813660,-0.129678100,0.077939697,1.040671945
17.776975,5.998458862,-9.399803162,-7.220695496,-0.129922241,0.079282470,1.041282296
17.777601,5.639877319,-9.018333435,-7.243583679,-0.128823608,0.080747314,1.045920968
17.778227,4.976119995,-9.041221619,-7.174919128,-0.128335327,0.080136962,1.047019601
17.778852,4.564132690,-9.056480408,-7.075737000,-0.128457397,0.082212158,1.046531320
17.779477,4.075851440,-8.774192810,-7.136772156,-0.125649780,0.080136962,1.048606515
17.780103,3.312911987,-8.499534607,-7.434318542,-0.128335327,0.080136962,1.047263741
17.780728,2.870407104,-8.415611267,-7.068107605,-0.129067749,0.077817626,1.049949288
17.781353,2.176132202,-8.247764587,-7.228324890,-0.129067749,0.077573486,1.048240304
17.781980,1.809921265,-7.912071228,-7.022331238,-0.125771850,0.079648681,1.048362374
17.782605,1.039352417,-7.927330017,-7.342765808,-0.127480835,0.083921142,1.050925851
17.783232,0.497665405,-7.675559998,-7.045219421,-0.127969116,0.079038329,1.051169991
17.783858,-0.066909790,-7.393272400,-7.289360046,-0.130044311,0.074155517,1.052390695
17.784484,-0.578079224,-7.271202087,-7.266471863,-0.130044311,0.076352783,1.053977609
17.785110,-1.203689575,-7.057579041,-7.182548523,-0.128701538,0.077695556,1.051536202
17.785735,-1.691970825,-6.683738708,-7.335136414,-0.129311889,0.077085204,1.052634835
17.786361,-2.012405396,-6.615074158,-7.380912781,-0.126015991,0.079892822,1.057273507
17.786988,-2.592239380,-6.462486267,-7.419059753,-0.126015991,0.076963134,1.053855538
17.788810,-4.057083130,-5.867393494,-7.449577332,-0.125649780,0.071714111,1.058738351
17.789435,-4.400405884,-5.691917419,-7.350395203,-0.126015991,0.065366454,1.059592843
17.790061,-4.766616821,-5.424888611,-7.266471863,-0.128945678,0.060849853,1.062034249
17.790687,-5.178604126,-5.089195251,-7.419059753,-0.126748413,0.061582275,1.060813546
17.791314,-5.354080200,-5.165489197,-7.296989441,-0.126870483,0.058408447,1.062400460
17.791940,-5.750808716,-4.784019470,-7.617424011,-0.128091186,0.057187743,1.060203195
17.792565,-5.811843872,-4.684837341,-7.441947937,-0.130898803,0.053769775,1.060691476
17.793192,-6.033096313,-4.402549744,-7.449577332,-0.128823608,0.048642822,1.061301827
17.793819,-6.284866333,-4.105003357,-7.533500671,-0.128579468,0.043027587,1.055564523
17.794444,-6.399307251,-3.845603943,-7.502983093,-0.126748413,0.042295165,1.057639718
17.795071,-6.612930298,-3.746421814,-7.419059753,-0.128823608,0.041440673,1.056785226
17.795697,-6.529006958,-3.654869080,-7.564018250,-0.130410522,0.038877197,1.053977609
17.796322,-6.605300903,-3.464134216,-7.655570984,-0.127969116,0.037778564,1.049827218
17.796948,-6.391677856,-3.311546326,-7.564018250,-0.128335327,0.035459228,1.052390695
17.797575,-6.521377563,-3.029258728,-7.480094910,-0.131265014,0.033261962,1.048850656
17.798200,-6.414566040,-3.189476013,-7.510612488,-0.131387085,0.026792236,1.046897531
17.798826,-6.277236938,-2.960594177,-7.640312195,-0.136025757,0.025693603,1.048240304
17.799451,-6.109390259,-2.685935974,-7.411430359,-0.133462280,0.025083251,1.051292062
17.813465,-3.828201294,-1.495750427,-6.778190613,-0.138345093,0.016538329,1.021384835
17.814246,-3.965530396,-1.434715271,-6.740043640,-0.134927124,0.016416259,1.016624093
17.814873,-4.278335571,-1.144798279,-6.816337585,-0.140176147,0.017270751,1.014793038
17.815499,-4.194412231,-1.678855896,-6.724784851,-0.142617553,0.015561767,1.013572335
17.816125,-4.118118286,-1.709373474,-6.686637878,-0.141640991,0.016294189,1.013938546
17.816751,-4.186782837,-1.816184998,-6.602714539,-0.144204468,0.016416259,1.014670968
17.817377,-4.057083130,-1.633079529,-6.648490906,-0.146157593,0.015927978,1.011130929
17.818009,-4.453811646,-1.800926208,-6.534049988,-0.145303100,0.011655517,1.011130929
17.818635,-4.369888306,-1.839073181,-6.732414246,-0.145791382,0.013486572,1.011619210
17.819261,-4.385147095,-1.869590759,-6.358573914,-0.146645874,0.013608642,1.011619210
17.819888,-4.354629517,-2.029808044,-6.572196960,-0.148721069,0.009946533,1.008079171
17.820513,-4.308853149,-2.182395935,-6.427238464,-0.148843139,0.011045165,1.009544015
17.821138,-4.331741333,-2.121360779,-6.244132996,-0.148232788,0.011777587,1.012595773
17.821764,-4.026565552,-2.457054138,-6.228874207,-0.147134155,0.009702392,1.011741281
17.822391,-3.812942505,-2.678306580,-6.167839050,-0.148232788,0.007627197,1.013572335
17.823016,-3.957901001,-2.426536560,-6.244132996,-0.149209350,0.003720947,1.013938546
17.823641,-3.736648560,-2.624900818,-6.328056335,-0.145181030,0.001767822,1.014304757
17.824266,-3.675613403,-2.884300232,-6.282279968,-0.145303100,-0.002504639,1.012351632
17.824893,-3.187332153,-2.792747498,-6.198356628,-0.142129272,-0.003114991,1.016013741
17.825518,-3.004226685,-2.724082947,-6.091545105,-0.142983764,-0.003847413,1.017356515
17.826143,-2.729568481,-3.158958435,-6.068656921,-0.142861694,-0.007997803,1.021628976
17.826770,-2.592239380,-3.158958435,-6.183097839,-0.141152710,-0.009950928,1.018088937
17.827395,-2.248916626,-3.174217224,-5.885551453,-0.139932007,-0.014223389,1.020042062
17.828022,-1.661453247,-3.197105408,-5.908439636,-0.137490600,-0.016176514,1.023093820
17.828647,-1.218948364,-3.349693298,-5.877922058,-0.138467163,-0.020326905,1.026755929
17.829273,-0.616226196,-3.395469666,-5.778739929,-0.136391968,-0.021669678,1.030662179
17.829900,-0.280532837,-3.380210876,-5.938957214,-0.138711303,-0.025697999,1.030540109
17.830526,0.345077515,-3.387840271,-5.900810242,-0.139932007,-0.024843507,1.030662179
17.831151,0.680770874,-3.456504822,-5.641410828,-0.140908569,-0.027895264,1.033225656
17.831777,1.596298218,-3.624351501,-5.412528992,-0.142007202,-0.029970460,1.036155343
17.833590,3.518905640,-3.738792419,-5.488822937,-0.142983764,-0.038271241,1.036521554
17.834217,3.908004761,-3.609092712,-5.481193542,-0.143105835,-0.038515382,1.037131906
17.834843,4.831161499,-3.685386658,-5.275199890,-0.144082397,-0.042421632,1.038230538
17.835469,5.418624878,-3.754051208,-5.191276550,-0.141274780,-0.039614014,1.037131906
17.836096,6.128158569,-3.853233337,-5.214164734,-0.139443725,-0.041933350,1.039939523
17.836722,7.058944702,-3.685386658,-5.023429871,-0.144082397,-0.042421632,1.039085031
17.837348,7.531967163,-3.776939392,-5.084465027,-0.142983764,-0.041445069,1.039329171
17.837973,8.195724487,-3.738792419,-5.061576843,-0.140298218,-0.038881592,1.043479562
17.838600,8.981552124,-3.792198181,-4.947135925,-0.141030639,-0.037294678,1.041404366
17.839233,9.340133667,-3.853233337,-4.916618347,-0.137734741,-0.036318116,1.046653390
17.839858,10.118331909,-3.990562439,-4.802177429,-0.137978882,-0.034975342,1.046775460
17.840483,10.415878296,-3.792198181,-4.550407410,-0.138833374,-0.031313233,1.048118234
17.841108,11.178817749,-3.593833923,-4.687736511,-0.135171264,-0.031923585,1.049338937
17.841735,11.331405640,-3.555686951,-4.527519226,-0.131997436,-0.027895264,1.049827218
17.842361,11.880722046,-3.845603943,-4.397819519,-0.128701538,-0.028505616,1.051902413
17.842986,12.285079956,-3.586204529,-4.321525574,-0.131509155,-0.023744874,1.049583077
17.843612,12.506332397,-3.555686951,-4.260490417,-0.129433960,-0.021547608,1.054587960
17.844238,12.628402710,-3.479393005,-4.336784363,-0.129922241,-0.019716553,1.053245187
17.858196,4.747238159,0.693885803,-2.597282410,-0.130654663,0.013974853,1.066550851
17.858932,4.121627808,1.044837952,-2.627799988,-0.132607788,0.015805908,1.069358468
17.866171,-1.043472290,3.066627502,-1.780937195,-0.129189819,0.006528564,1.062522531
17.866796,-1.325759888,3.142921448,-1.658866882,-0.130898803,0.002378173,1.065086007
17.867423,-1.615676880,3.188697815,-1.574943542,-0.127480835,0.005552001,1.063010812
17.868048,-1.875076294,3.470985413,-1.552055359,-0.130166382,0.001279540,1.062278390
17.868673,-2.096328735,3.821937561,-1.315544128,-0.129311889,0.000913329,1.062644601
17.869300,-2.462539673,3.661720276,-1.292655945,-0.126260132,-0.001161866,1.062400460
17.869926,-2.401504517,3.806678772,-1.452873230,-0.130410522,0.001279540,1.062644601
17.870551,-2.760086060,3.928749084,-1.338432312,-0.125771850,0.000425048,1.064719796
17.871176,-2.752456665,4.317848206,-1.048515320,-0.130288452,0.000547118,1.059104562
17.871801,-2.859268188,4.348365784,-1.201103210,-0.129067749,0.003476806,1.061423898
17.872428,-2.927932739,4.607765198,-1.193473816,-0.130166382,0.001157470,1.061790109
17.873055,-3.118667603,4.737464905,-0.926445007,-0.128823608,-0.001039796,1.061545968
17.873681,-3.263626099,4.745094299,-0.644157410,-0.132363647,-0.001406007,1.061668038
17.874307,-3.271255493,5.096046448,-0.918815613,-0.133340210,-0.001161866,1.061423898
17.874933,-3.332290649,5.172340393,-0.705192566,-0.133706421,-0.001772217,1.064841866
17.875558,-3.484878540,5.309669495,-0.758598328,-0.130532593,-0.001161866,1.063132882
17.876185,-3.553543091,5.790321350,-0.781486511,-0.131753296,-0.002870850,1.062766671
17.876810,-3.629837036,5.866615295,-0.651786804,-0.135049194,-0.001283936,1.062156320
17.878664,-3.591690063,6.248085022,-0.598381042,-0.136269897,-0.000795655,1.060813546
17.879289,-3.637466431,6.652442932,-0.659416199,-0.138711303,-0.002382569,1.063743234
17.879915,-3.446731567,6.835548401,-0.476310730,-0.140420288,-0.001528077,1.061545968
17.880542,-3.439102173,6.957618713,-0.461051941,-0.141152710,-0.001161866,1.062766671
17.881168,-3.675613403,7.155982971,-0.453422546,-0.141763061,-0.001894288,1.059348702
17.881794,-3.477249146,7.232276917,-0.468681335,-0.143838257,-0.000795655,1.058005929
17.882421,-3.606948853,7.712928772,-0.506828308,-0.142617553,-0.002870850,1.060081124
17.883046,-3.515396118,7.796852112,-0.415275574,-0.148721069,-0.001772217,1.060813546
17.883673,-3.271255493,8.102027893,-0.430534363,-0.154336303,-0.004701905,1.057517648
17.884300,-3.255996704,8.109657288,-0.400016785,-0.149331421,-0.003969483,1.052878976
17.884926,-3.538284302,8.407203674,-0.277946472,-0.151284546,-0.005068116,1.049949288
17.885552,-3.080520630,8.445350647,-0.171134949,-0.151772827,-0.006410889,1.048118234
17.886177,-3.118667603,8.842079163,-0.262687683,-0.154946655,-0.006899171,1.046653390
17.886804,-3.019485474,8.971778870,-0.110099792,-0.153725952,-0.009340577,1.045798898
17.887429,-2.813491821,9.193031311,-0.239799500,-0.153359741,-0.007143311,1.044456124
17.888055,-2.576980591,9.032814026,-0.140617371,-0.152505249,-0.011659913,1.039939523
17.888681,-2.439651489,9.414283752,-0.270317078,-0.153970093,-0.012392335,1.038108468
17.889308,-2.386245728,9.658424377,-0.071952820,-0.154458374,-0.008364014,1.035667062
17.889934,-2.302322388,9.666053772,0.050117493,-0.155068725,-0.011537842,1.033469796
17.890560,-1.890335083,9.536354065,-0.232170105,-0.157998413,-0.012636475,1.029807687
17.891186,-1.745376587,9.627906799,-0.010917664,-0.160806030,-0.015322022,1.026633859
17.891812,-1.379165649,9.788124084,0.050117493,-0.157632202,-0.017153077,1.023215890
17.892437,-1.295242310,9.872047424,0.118782043,-0.161294311,-0.020326905,1.019065499
17.893070,-1.012954712,9.887306213,0.172187805,-0.160806030,-0.015566163,1.014670968
17.893754,-0.684890747,9.887306213,0.385810852,-0.160439819,-0.017763428,1.011985421
17.894553,-0.188980103,10.085670471,0.309516907,-0.157143921,-0.020571046,1.013206124
17.895433,0.047531128,10.161964417,0.462104797,-0.159219116,-0.018373780,1.006126046
17.909704,5.510177612,7.880775452,1.934577942,-0.168252319,-0.012514405,0.954856515
17.910488,5.502548218,7.712928772,2.041389465,-0.169350952,-0.015322022,0.958274484
17.911113,5.975570679,7.438270569,1.980354309,-0.170327514,-0.014345460,0.951926827
17.911740,5.884017944,7.148353577,2.117683411,-0.170815796,-0.014223389,0.955833077
17.912365,5.868759155,7.003395081,2.193977356,-0.172768921,-0.011781983,0.953025460
17.912992,6.082382202,6.873695374,2.384712219,-0.170693725,-0.008730225,0.955344796
17.913618,5.975570679,6.476966858,2.560188293,-0.175332397,-0.009828858,0.952293038
17.914245,6.082382202,6.591407776,2.430488586,-0.175698608,-0.009584717,0.952781320
17.914870,6.158676147,6.255714417,2.399971008,-0.173013061,-0.005922608,0.954612374
17.915495,6.257858276,6.110755920,2.689888000,-0.174599975,-0.006044678,0.954734445
17.916120,6.105270386,5.927650452,2.598335266,-0.172158569,-0.008241944,0.956077218
17.916747,6.059494019,5.805580139,2.522041321,-0.173745483,-0.006532960,0.955588937
17.917373,6.059494019,5.630104065,2.583076477,-0.173257202,-0.005434327,0.957053781
17.917998,6.242599487,5.385963440,2.842475891,-0.172524780,-0.003603272,0.956687570
17.918624,6.074752808,5.393592834,2.712776184,-0.173623413,-0.003969483,0.958518624
17.919249,5.800094604,5.210487366,2.941658020,-0.169717163,-0.007631592,0.959983468
17.919876,5.998458862,5.111305237,2.964546204,-0.171304077,-0.002138428,0.961570382
17.920503,6.181564331,4.928199768,2.964546204,-0.173989624,-0.005312257,0.965110421
17.921129,5.807723999,5.012123108,3.201057434,-0.171914428,-0.003481202,0.962424874
17.921755,5.960311890,4.638282776,3.140022278,-0.171914428,-0.005556397,0.964988351
17.922382,5.525436401,4.577247620,3.193428040,-0.175698608,-0.000795655,0.964744210
17.923017,5.670394897,4.478065491,3.414680481,-0.171670288,-0.003847413,0.962180734
17.923778,5.639877319,4.355995178,3.513862610,-0.165444702,-0.002138428,0.962302804
17.924561,5.426254272,4.188148499,3.498603821,-0.166299194,-0.005434327,0.962302804
17.925381,5.540695190,4.142372131,3.559638977,-0.167397827,-0.004091553,0.964011788
17.926191,5.334701538,3.913490295,3.773262024,-0.169961303,-0.005312257,0.964988351
17.926991,5.212631226,3.890602112,3.811408997,-0.167764038,-0.003603272,0.963767648
17.927616,5.357589722,3.631202698,3.902961731,-0.168740600,-0.002260499,0.959617257
17.928243,5.205001831,3.646461487,4.131843567,-0.170693725,-0.003603272,0.962424874
17.930027,5.296554565,3.379432678,4.116584778,-0.169961303,-0.001161866,0.959128976
17.930652,5.258407593,3.142921448,4.322578430,-0.167886108,-0.001528077,0.959128976
17.931277,5.456771851,3.104774475,4.215766907,-0.169961303,0.002500243,0.963279366
17.931903,5.182113647,3.150550842,4.353096008,-0.168984741,-0.001039796,0.960715890
17.932529,5.426254272,3.020851135,4.581977844,-0.169961303,0.000791259,0.964133859
17.933155,5.189743042,2.814857483,4.581977844,-0.169106811,0.000791259,0.960715890
17.933781,5.479660034,2.654640198,4.368354797,-0.169106811,0.001889892,0.965476632
17.934407,5.334701538,2.448646545,4.612495422,-0.167886108,0.005063720,0.964133859
17.935033,5.487289429,2.395240784,4.803230286,-0.171426147,0.006040283,0.964255929
17.935660,5.540695190,2.242652893,5.032112122,-0.167641968,0.004331298,0.960593820
17.936285,5.342330933,2.112953186,4.757453918,-0.165932983,0.010312743,0.965110421
17.937081,5.479660034,1.937477112,4.803230286,-0.164834350,0.008237548,0.966575265
17.937837,5.388107300,1.884071350,4.849006653,-0.168984741,0.009092040,0.968772531
17.938613,5.723800659,1.708595276,5.123664856,-0.167031616,0.011167236,0.966453195
17.939427,5.578842163,1.693336487,4.925300598,-0.172036499,0.011411376,0.967918038
17.940234,5.418624878,1.456825256,4.993965149,-0.173623413,0.013730712,0.970847726
17.941013,5.700912476,1.037208557,5.100776672,-0.170937866,0.019223876,0.971946359
17.941639,5.716171265,1.052467346,5.154182434,-0.172158569,0.021665283,0.970603585
17.942265,5.540695190,1.044837952,5.230476379,-0.172280639,0.021054931,0.970481515
17.942891,5.472030640,0.686256409,5.260993958,-0.169350952,0.025815673,0.973411202
17.956806,3.953781128,2.494422913,4.910041809,-0.166299194,0.067197509,1.020286202
17.957539,3.763046265,2.608863831,5.093147278,-0.170937866,0.065854736,1.023337960
17.958164,3.801193237,2.608863831,5.039741516,-0.166787475,0.068662353,1.022239327
17.958790,3.740158081,2.837745667,4.963447571,-0.164101928,0.068418212,1.022361398
17.959415,3.709640503,3.036109924,4.910041809,-0.162392944,0.069760986,1.022727609
17.960040,3.770675659,3.203956604,4.833747864,-0.158486694,0.071347900,1.023582101
17.960667,3.763046265,3.272621155,4.810859680,-0.161172241,0.071225829,1.027610421
17.961292,3.869857788,3.661720276,4.894783020,-0.156655639,0.072934814,1.022605538
17.961917,3.793563843,3.753273010,4.940559387,-0.160317749,0.073178954,1.020408273
17.962542,3.961410522,3.905860901,4.696418762,-0.159341186,0.073911376,1.019919991
17.963167,3.747787476,4.157630920,4.704048157,-0.160317749,0.075254150,1.014793038
17.963793,3.839340210,4.310218811,4.673530579,-0.160928100,0.074643798,1.016990304
17.964420,3.869857788,4.493324280,4.520942688,-0.159341186,0.076230712,1.018699288
17.965045,3.900375366,4.676429749,4.543830872,-0.162026733,0.079648681,1.012107491
17.965671,4.213180542,4.554359436,4.452278137,-0.162026733,0.077451415,1.009299874
17.966296,4.319992065,4.989234924,4.482795715,-0.160683960,0.080014892,1.007224679
17.966923,4.365768433,4.920570374,4.383613586,-0.159829468,0.080503173,1.006980538
17.967549,4.548873901,4.966346741,4.139472961,-0.158730835,0.081235595,1.006492257
17.968213,4.793014526,5.172340393,4.238655090,-0.162637085,0.085141845,1.005881906
17.969048,4.457321167,5.241004944,4.253913879,-0.159951538,0.085019775,1.004905343
17.969806,4.777755737,5.302040100,3.880073547,-0.161782593,0.086118408,1.004050851
17.970601,5.098190308,5.477516174,3.773262024,-0.163125366,0.089902587,0.999045968
17.971423,4.915084839,5.393592834,3.803779602,-0.160928100,0.089902587,0.999412179
17.972237,4.876937866,5.103675842,3.742744446,-0.164590210,0.091489501,0.998801827
17.973016,5.029525757,5.157081604,3.651191711,-0.158364624,0.094175048,0.996726632
17.973797,5.060043335,5.294410706,3.582527161,-0.158364624,0.091977783,0.997703195
17.974588,5.159225464,5.103675842,3.437568665,-0.158608764,0.095517822,0.995505929
17.975348,4.983749390,5.302040100,3.277351379,-0.155801147,0.096128173,0.994041085
17.977394,4.770126343,5.294410706,2.964546204,-0.156167358,0.097226806,0.988547921
17.978169,4.693832397,5.515663147,2.995063782,-0.155801147,0.100522704,0.987693429
17.978794,4.739608765,5.561439514,2.949287415,-0.153725952,0.098203368,0.989402413
17.979420,4.602279663,5.431739807,2.766181946,-0.153481811,0.099424072,0.990501046
17.980046,4.693832397,5.324928284,2.773811340,-0.152871460,0.098569579,0.989402413
17.980671,4.281845093,5.378334045,2.483894348,-0.152383178,0.097959228,0.987693429
17.981296,4.388656616,5.614845276,2.651741028,-0.156655639,0.099057861,0.988547921
17.981923,4.121627808,5.408851624,2.499153137,-0.158730835,0.100400634,0.988181710
17.982549,4.175033569,5.523292542,2.483894348,-0.158242553,0.099912353,0.990134835
17.983175,3.930892944,5.538551331,2.605964661,-0.155557007,0.100156493,0.989158273
17.983802,3.778305054,5.637733459,2.552558899,-0.158364624,0.096006103,0.990134835
17.984427,3.686752319,5.607215881,2.285530090,-0.161538452,0.099057861,0.988669991
17.985052,3.534164429,5.607215881,2.186347961,-0.160317749,0.099057861,0.985129952
17.985678,3.526535034,5.691139221,2.232124329,-0.158608764,0.095639892,0.987937570
17.986303,3.152694702,5.729286194,2.163459778,-0.160683960,0.097959228,0.985129952
17.986930,3.099288940,5.965797424,2.064277649,-0.161904663,0.094052978,0.988792062
17.987556,2.878036499,5.889503479,2.102424622,-0.162759155,0.095517822,0.985496163
17.988183,2.717819214,5.836097717,1.873542786,-0.161782593,0.093076415,0.983420968
17.988808,2.534713745,5.981056213,1.919319153,-0.161294311,0.093930908,0.986228585
17.989434,2.443161011,6.179420471,1.843025208,-0.161294311,0.093686767,0.983543038
17.990059,2.054061890,6.080238342,1.881172180,-0.162637085,0.089902587,0.985252023
17.990685,2.221908569,6.225196838,1.919319153,-0.163003296,0.090268798,0.982810616
18.004646,2.122726440,6.469337463,1.316596985,-0.170449585,0.070981689,0.962058663
18.005400,1.985397339,6.835548401,1.415779114,-0.171548218,0.069150634,0.958518624
18.006025,2.359237671,6.469337463,1.385261536,-0.173501343,0.066465087,0.961936593
18.006652,2.229537964,6.743995667,1.308967590,-0.169961303,0.068174072,0.954978585
18.007278,2.481307983,6.476966858,1.339485168,-0.171548218,0.071347900,0.956199288
18.007903,2.466049194,6.354896545,1.263191223,-0.173867553,0.072446533,0.951804757
18.008529,2.603378296,6.568519592,1.370002747,-0.173135132,0.071958251,0.948264718
18.009156,2.733078003,6.339637756,1.263191223,-0.174111694,0.072080322,0.946433663
18.009781,2.549972534,6.095497131,1.164009094,-0.175210327,0.074765868,0.944968820
18.010511,2.908554077,6.202308655,1.301338196,-0.176797241,0.075620361,0.943259835
18.011137,2.710189819,6.003944397,1.354743958,-0.176675171,0.075986572,0.939963937
18.011763,2.611007690,5.797950745,1.316596985,-0.173745483,0.078427978,0.937644601
18.012388,2.763595581,5.759803772,1.225044250,-0.174722046,0.077085204,0.938621163
18.013015,2.855148315,5.469886780,1.354743958,-0.174111694,0.079404540,0.938987374
18.013641,2.755966187,5.446998596,1.232673645,-0.175088257,0.080136962,0.933127999
18.014267,2.839889526,5.309669495,1.026679993,-0.173623413,0.082822509,0.930808663
18.014892,2.832260132,4.928199768,1.080085754,-0.172524780,0.083799072,0.926902413
18.015518,2.809371948,4.790870667,1.179267883,-0.174355835,0.086850829,0.928855538
18.016144,2.763595581,4.500953674,1.133491516,-0.175332397,0.087094970,0.926536202
18.016769,2.725448608,4.417030334,1.217414856,-0.173501343,0.087827392,0.927268624
18.017394,2.878036499,4.401771545,0.851203918,-0.174966186,0.089658447,0.927634835
18.018021,2.847518921,4.058448792,0.874092102,-0.178750366,0.088071533,0.925803781
18.018646,3.000106812,3.898231506,0.942756653,-0.175698608,0.092221923,0.927024484
18.019272,2.763595581,3.654090881,1.011421204,-0.177163452,0.091855712,0.925437570
18.019897,2.801742554,3.242103577,0.851203918,-0.176919311,0.096860595,0.926658273
18.020522,2.923812866,3.089515686,0.942756653,-0.172158569,0.095761962,0.927512765
18.021147,2.862777710,3.127662659,0.919868469,-0.173257202,0.098447509,0.927390695
18.021772,2.679672241,2.639381409,0.813056946,-0.175454468,0.100156493,0.930808663
18.022397,2.664413452,2.776710510,0.690986633,-0.177041382,0.100766845,0.931419015
18.023022,2.641525269,2.456275940,0.835945129,-0.175698608,0.101987548,0.937034249
18.024754,2.405014038,2.051918030,0.416328430,-0.174844116,0.107724853,0.935691476
18.025379,2.374496460,1.845924377,0.538398743,-0.174844116,0.105283447,0.938499093
18.026007,2.176132202,1.762001038,0.568916321,-0.173989624,0.108091064,0.938987374
18.026632,1.977767944,1.685707092,0.561286926,-0.173135132,0.109922118,0.942161202
18.027257,1.916732788,1.586524963,0.217964172,-0.174111694,0.114072509,0.938499093
18.027884,1.886215210,1.624671936,0.370552063,-0.176308960,0.116635986,0.942527413
18.028510,1.588668823,1.365272522,0.217964172,-0.176675171,0.112607665,0.945090890
18.029135,1.481857300,1.266090393,0.355293274,-0.172890991,0.115903564,0.944602609
18.029761,1.375045776,1.365272522,-0.094841003,-0.173623413,0.117490478,0.946311593
18.030386,1.260604858,1.090614319,0.278999329,-0.172158569,0.116635986,0.944480538
18.031012,1.039352417,1.067726135,0.027229309,-0.173135132,0.116513915,0.948142648
18.031637,0.894393921,1.372901917,-0.163505554,-0.172768921,0.118711181,0.951316476
18.032262,0.924911499,1.090614319,-0.331352234,-0.174722046,0.117856689,0.947776437
18.032888,0.932540894,1.029579163,-0.201652527,-0.174233764,0.117490478,0.948997140
18.033588,0.589218140,1.189796448,-0.461051941,-0.171792358,0.115049072,0.954124093
18.034330,0.360336304,0.938026428,-0.468681335,-0.175942749,0.116147704,0.950950265
18.035048,0.314559937,1.060096741,-0.544975281,-0.175332397,0.117734618,0.950095773
18.035777,0.245895386,0.854103088,-0.621269226,-0.174111694,0.119565673,0.950095773
18.036508,0.192489624,0.861732483,-0.895927429,-0.175698608,0.116391845,0.952537179
18.050643,2.328720093,-0.542076111,-3.055046082,-0.149575561,0.105405517,0.969749093
18.051353,2.801742554,-0.587852478,-3.138969421,-0.152993530,0.102597900,0.970115304
18.051978,3.106918335,-0.389488220,-3.123710632,-0.152749389,0.101499267,0.972922921
18.052605,3.183212280,-0.458152771,-3.344963074,-0.150307983,0.100766845,0.974021554
18.053231,3.618087769,-0.358970642,-3.535697937,-0.150185913,0.100156493,0.974143624
18.053856,3.732528687,-0.534446716,-3.436515808,-0.145547241,0.099790283,0.975120187
18.054482,4.060592651,-0.465782166,-3.550956726,-0.149209350,0.101133056,0.972800851
18.055108,4.388656616,-0.244529724,-3.665397644,-0.150185913,0.099546142,0.978294015
18.055733,4.678573608,-0.328453064,-4.085014343,-0.145913452,0.097715087,0.980735421
18.056358,4.884567261,-0.412376404,-3.901908875,-0.146401733,0.094785400,0.977439523
18.056985,4.838790894,-0.084312439,-4.016349792,-0.149575561,0.096738525,0.981345773
18.057611,5.143966675,-0.236900330,-4.130790710,-0.150552124,0.094419189,0.982200265
18.058237,5.563583374,-0.038536072,-4.199455261,-0.150552124,0.092466064,0.983543038
18.058864,5.693283081,0.190345764,-4.413078308,-0.152016968,0.096006103,0.978782296
18.059491,6.059494019,0.129310608,-4.321525574,-0.153359741,0.091977783,0.980002999
18.060118,6.143417358,0.259010315,-4.428337097,-0.151772827,0.091245361,0.981711984
18.060744,6.387557983,0.419227600,-4.588554382,-0.153725952,0.093686767,0.981834054
18.061370,6.364669800,0.320045471,-4.695365906,-0.156533569,0.090390868,0.981101632
18.061995,6.555404663,0.396339417,-4.825065613,-0.157021850,0.093320556,0.981589913
18.062621,6.639328003,0.701515198,-4.756401062,-0.157632202,0.092343993,0.982688546
18.063248,6.990280151,0.762550354,-4.924247742,-0.155068725,0.088071533,0.982688546
18.063874,7.020797729,0.732032776,-5.015800476,-0.157265991,0.090635009,0.980247140
18.064501,7.112350464,0.938026428,-5.076835632,-0.159341186,0.087949462,0.983298898
18.065130,7.058944702,1.121131897,-5.122612000,-0.156167358,0.087094970,0.981345773
18.065897,7.287826538,1.220314026,-5.206535339,-0.159463257,0.088193603,0.980247140
18.066552,7.066574097,1.044837952,-5.412528992,-0.156411499,0.087827392,0.978904366
18.067241,7.318344116,1.273719788,-5.366752625,-0.158486694,0.089292236,0.978538156
18.068021,7.135238647,1.578895569,-5.412528992,-0.157265991,0.088681884,0.976951241
18.068815,7.043685913,1.533119202,-5.427787781,-0.159707397,0.090879150,0.980002999
18.070893,6.288375854,2.158729553,-5.793998718,-0.159219116,0.088315673,0.969504952
18.071705,6.250228882,1.937477112,-5.679557800,-0.159707397,0.087705322,0.969382882
18.072499,6.128158569,2.036659241,-5.786369324,-0.159219116,0.086972900,0.968894601
18.073281,5.891647339,2.227394104,-5.977104187,-0.160928100,0.086484618,0.967673898
18.074042,5.548324585,2.379981995,-5.870292664,-0.159463257,0.085019775,0.965354562
18.074851,4.999008179,2.524940491,-6.205986023,-0.163125366,0.082578368,0.968162179
18.075603,4.869308472,2.669898987,-6.152580261,-0.162026733,0.086362548,0.966941476
18.076386,4.236068726,2.585975647,-5.946586609,-0.162148803,0.083799072,0.963523507
18.077146,3.686752319,2.936927795,-6.144950867,-0.165688843,0.084287353,0.962791085
18.077946,3.282394409,2.990333557,-6.274650574,-0.165810913,0.081723876,0.959983468
18.078708,2.893295288,2.906410217,-6.144950867,-0.166421264,0.083799072,0.960349679
18.079465,2.389755249,3.120033264,-6.259391785,-0.166299194,0.082090087,0.959128976
18.080277,1.520004272,3.463356018,-6.404350281,-0.168618530,0.079160400,0.955955148
18.080961,1.108016968,3.341285706,-6.190727234,-0.169106811,0.077695556,0.956443429
18.081763,0.612106323,3.379432678,-6.099174500,-0.168252319,0.076352783,0.951682687
18.082442,0.268783569,3.219215393,-6.106803894,-0.167764038,0.079160400,0.952659249
18.083200,-0.333938599,3.570167542,-6.381462097,-0.169839233,0.073178954,0.950461984
18.083990,-1.150283813,3.661720276,-6.083915710,-0.171426147,0.071958251,0.946067452
18.084756,-1.485977173,3.478614807,-6.167839050,-0.169106811,0.073178954,0.946311593
18.085580,-2.012405396,3.791419983,-6.450126648,-0.172768921,0.068418212,0.944114327
18.099992,-7.360610962,1.060096741,-6.083915710,-0.185586303,0.044370361,0.898460031
18.101111,-7.375869751,0.632850647,-6.106803894,-0.184975952,0.041440673,0.894309640
18.101924,-7.284317017,0.365821838,-6.106803894,-0.185342163,0.042051025,0.897239327
18.102732,-7.002029419,-0.084312439,-5.938957214,-0.183266968,0.037168212,0.896873116
18.103536,-7.093582153,-0.267417908,-6.007621765,-0.183999389,0.037046142,0.897239327
18.104365,-6.864700317,-0.557334900,-6.175468445,-0.183999389,0.035215087,0.898948312
18.105168,-6.872329712,-0.885398865,-6.114433289,-0.184609741,0.038022704,0.897971749
18.105961,-6.712112427,-1.335533142,-6.282279968,-0.182168335,0.038633056,0.900413156
18.106729,-6.780776978,-1.587303162,-6.244132996,-0.176919311,0.037046142,0.898337960
18.107553,-6.376419067,-1.816184998,-6.129692078,-0.180703491,0.035459228,0.899314523
18.108333,-6.162796021,-2.060325623,-6.152580261,-0.176308960,0.035459228,0.905051827
18.109127,-6.246719360,-2.205284119,-6.312797546,-0.179726928,0.030820556,0.906882882
18.116768,-3.912124634,-4.410179138,-6.175468445,-0.173623413,0.020566650,0.912131906
18.117463,-3.584060669,-4.547508240,-6.282279968,-0.176919311,0.018979736,0.913962960
18.118089,-3.446731567,-4.646690369,-6.274650574,-0.172646850,0.019345947,0.914085031
18.119972,-2.615127563,-5.264671326,-6.526420593,-0.175088257,0.012265868,0.912620187
18.120599,-2.164993286,-5.417259216,-6.442497253,-0.175210327,0.009824462,0.913230538
18.121226,-2.004776001,-5.798728943,-6.274650574,-0.173623413,0.010190673,0.915061593
18.121853,-1.829299927,-5.859764099,-6.305168152,-0.175698608,0.007627197,0.916160226
18.122479,-1.524124146,-6.042869568,-6.473014832,-0.174233764,0.007627197,0.919089913
18.123104,-1.035842896,-6.302268982,-6.350944519,-0.177041382,0.006284423,0.920920968
18.123729,-0.883255005,-6.393821716,-6.404350281,-0.173257202,0.002378173,0.922385812
18.124356,-0.410232544,-6.386192322,-6.373832703,-0.173135132,0.001035400,0.920432687
18.124983,-0.082168579,-6.584556580,-6.251762390,-0.172402710,0.001035400,0.923362374
18.125610,0.352706909,-7.156761169,-6.411979675,-0.172158569,-0.001039796,0.926658273
18.126236,0.657882690,-6.927879333,-6.305168152,-0.169228882,-0.001283936,0.928733468
18.126861,1.077499390,-7.149131775,-6.518791199,-0.172768921,-0.009218507,0.932029366
18.127488,1.581039429,-7.423789978,-6.427238464,-0.169839233,-0.008852296,0.932639718
18.128113,1.939620972,-7.309349060,-6.244132996,-0.170449585,-0.009340577,0.933127999
18.128740,2.343978882,-7.591636658,-6.305168152,-0.170815796,-0.011293702,0.940574288
18.129365,2.588119507,-7.355125427,-6.335685730,-0.172158569,-0.015444092,0.941672921
18.129990,3.106918335,-7.477195740,-6.267021179,-0.169595093,-0.012514405,0.943992257
18.130617,3.549423218,-7.622154236,-6.343315125,-0.171548218,-0.015444092,0.944480538
18.131243,3.984298706,-7.805259705,-6.175468445,-0.169839233,-0.018251710,0.947410226
18.131869,4.396286011,-7.995994568,-6.305168152,-0.168008178,-0.016176514,0.950706124
18.132495,4.686203003,-7.797630310,-6.190727234,-0.169595093,-0.023622803,0.952048898
18.133122,5.105819702,-8.018882751,-6.099174500,-0.170937866,-0.027162842,0.954368234
18.133748,5.494918823,-7.881553650,-6.053398132,-0.168374389,-0.025209717,0.959251046
18.134374,6.028976440,-7.912071228,-5.916069031,-0.168862671,-0.025820069,0.958274484
18.135009,6.540145874,-7.843406677,-6.068656921,-0.172158569,-0.026430421,0.964500070
18.135634,6.799545288,-7.950218201,-5.832145691,-0.170083374,-0.027529053,0.961082101
18.136260,7.226791382,-7.797630310,-5.809257507,-0.172768921,-0.027773194,0.964255929
18.136886,7.646408081,-8.049400330,-5.740592957,-0.173257202,-0.030702882,0.966575265
18.137512,7.905807495,-7.858665466,-5.900810242,-0.179360718,-0.030824952,0.964988351
18.138137,8.241500854,-7.797630310,-5.626152039,-0.175210327,-0.030336671,0.966697335
18.139918,9.111251831,-7.706077576,-5.519340515,-0.180093139,-0.029848389,0.968894601
18.140544,9.431686401,-7.713706970,-5.588005066,-0.181191772,-0.032411866,0.968162179
18.153219,8.493270874,-7.622154236,-3.695915222,-0.184121460,-0.006777100,0.967918038
18.153937,7.753219604,-7.667930603,-3.703544617,-0.183144897,-0.003847413,0.969993234
18.154562,7.531967163,-7.728965759,-3.711174011,-0.186318725,-0.004457764,0.972556710
18.155187,7.020797729,-7.896812439,-3.573844910,-0.186196655,-0.002992921,0.970969796
18.155813,6.646957397,-7.553489685,-3.405998230,-0.184731811,-0.003237061,0.971702218
18.156438,6.357040405,-7.477195740,-3.528068542,-0.184853882,-0.000551514,0.974143624
18.157063,6.013717651,-7.774742126,-3.253410339,-0.184975952,-0.001039796,0.975364327
18.157688,5.555953979,-7.553489685,-3.306816101,-0.184731811,0.002622314,0.976707101
18.158313,5.021896362,-7.606895447,-3.161857605,-0.184487671,0.000791259,0.975852609
18.160119,3.335800171,-7.400901794,-2.925346375,-0.185342163,0.002134033,0.978171945
18.160745,3.099288940,-7.599266052,-2.803276062,-0.184487671,0.002134033,0.981345773
18.161371,2.633895874,-7.683189392,-2.681205750,-0.184487671,0.003843017,0.984397531
18.161997,2.153244019,-7.454307556,-2.810905457,-0.179238647,0.005185790,0.987327218
18.162624,1.787033081,-7.271202087,-2.665946960,-0.175088257,0.007993408,0.987693429
18.163250,1.306381226,-7.271202087,-2.582023621,-0.178384155,0.002500243,0.990989327
18.163877,1.062240601,-7.309349060,-2.582023621,-0.175210327,0.006162353,0.990623116
18.164504,0.306930542,-7.263572693,-2.650688171,-0.175698608,0.006040283,0.990012765
18.165129,-0.051651001,-7.210166931,-2.490470886,-0.178628296,0.003110595,0.991599679
18.165755,-0.471267700,-6.935508728,-2.376029968,-0.179238647,0.003110595,0.993552804
18.166380,-0.623855591,-6.676109314,-2.276847839,-0.174599975,0.003843017,0.990867257
18.167006,-1.150283813,-6.882102966,-2.292106628,-0.177529663,0.001279540,0.992576241
18.167633,-1.402053833,-6.843955994,-2.162406921,-0.176186889,0.002256103,0.993796945
18.168259,-1.585159302,-6.744773865,-2.101371765,-0.175210327,0.002011962,0.996116281
18.168884,-1.821670532,-6.683738708,-2.032707214,-0.181191772,-0.000551514,0.996726632
18.169509,-2.149734497,-6.523521423,-1.819084167,-0.178628296,-0.000063233,0.993796945
18.170135,-2.485427856,-6.424339294,-1.979301453,-0.176064819,-0.001406007,0.995505929
18.170762,-2.729568481,-6.203086853,-1.971672058,-0.178140014,-0.003847413,0.995994210
18.171389,-2.729568481,-6.088645935,-1.956413269,-0.177895874,-0.002870850,0.998923898
18.172014,-2.836380005,-6.203086853,-1.834342957,-0.177773803,-0.003481202,0.998069406
18.172641,-3.057632446,-6.081016541,-1.796195984,-0.180337280,-0.006288819,0.997336984
18.173267,-3.042373657,-5.791099548,-1.719902039,-0.176064819,-0.007631592,0.998923898
18.173892,-3.095779419,-5.897911072,-1.651237488,-0.177163452,-0.007143311,1.001731515
18.174517,-3.133926392,-5.989463806,-1.635978699,-0.180825561,-0.006899171,1.000754952
18.175143,-3.233108521,-5.676658630,-1.429985046,-0.178506225,-0.010195069,1.003196359
18.175768,-3.149185181,-5.516441345,-1.483390808,-0.181191772,-0.012270264,1.004294991
18.176393,-3.080520630,-5.402000427,-1.643608093,-0.181924194,-0.011659913,1.006003976
18.177019,-2.981338501,-5.684288025,-1.460502625,-0.181435913,-0.015077882,1.001731515
18.177646,-3.141555786,-5.287559509,-1.407096863,-0.182778686,-0.015199952,1.004783273
18.178272,-2.630386353,-5.279930115,-1.254508972,-0.182168335,-0.015566163,1.003684640
18.180111,-2.271804810,-4.875572205,-1.384208679,-0.183999389,-0.015688233,1.005271554
18.180737,-1.913223267,-4.990013123,-1.048515320,-0.185708374,-0.016054444,1.006248116
18.181362,-1.753005981,-4.799278259,-1.216362000,-0.183633178,-0.015322022,1.007102609
18.181987,-1.577529907,-4.700096130,-1.155326843,-0.188515991,-0.016664796,1.003928781
18.182612,-1.234207153,-4.547508240,-1.117179871,-0.187539428,-0.016176514,1.006614327
18.183237,-1.028213501,-4.448326111,-1.162956238,-0.188149780,-0.015077882,1.005881906
18.183863,-0.707778931,-4.433067322,-1.132438660,-0.185952514,-0.014223389,1.007102609
18.184488,-0.440750122,-4.204185486,-1.040885925,-0.187417358,-0.009706788,1.001731515
18.185114,-0.227127075,-4.036338806,-1.017997742,-0.188882202,-0.011537842,1.003440499
18.197858,5.624618530,-4.097373962,-0.918815613,-0.196694702,-0.004335694,0.982444406
18.198626,6.074752808,-4.135520935,-0.903556824,-0.197182983,-0.004091553,0.983787179
18.200425,6.296005249,-4.158409119,-0.987480164,-0.196694702,-0.001283936,0.985984445
18.201051,6.296005249,-4.196556091,-0.926445007,-0.196816772,0.000547118,0.982932687
18.201678,6.372299194,-4.303367615,-0.689933777,-0.200723022,0.001035400,0.985740304
18.202304,6.524887085,-4.249961853,-1.010368347,-0.199624389,0.001645751,0.985740304
18.202931,6.501998901,-4.211814880,-0.750968933,-0.204995483,0.002744384,0.986350656
18.203558,6.578292847,-4.379661560,-0.812004089,-0.203530639,0.001889892,0.987083077
18.204184,6.326522827,-4.272850037,-0.651786804,-0.205239624,0.005063720,0.985984445
18.204810,6.517257690,-4.211814880,-0.499198914,-0.206338257,0.002378173,0.984397531
18.205435,6.402816772,-4.333885193,-0.636528015,-0.208779663,0.005063720,0.983420968
18.206061,6.250228882,-4.295738220,-0.453422546,-0.210976928,0.004819579,0.987693429
18.206687,6.357040405,-4.249961853,-0.422904968,-0.212075561,0.004819579,0.984397531
18.207313,6.265487671,-4.349143982,-0.552604675,-0.215249389,0.005185790,0.987205148
18.207938,6.158676147,-4.516990662,-0.293205261,-0.216592163,0.004209228,0.981101632
18.208564,5.731430054,-4.280479431,-0.407646179,-0.217812866,0.005674072,0.982566476
18.209190,5.853500366,-4.196556091,-0.377128601,-0.219888061,0.005552001,0.981589913
18.209817,5.952682495,-4.425437927,-0.346611023,-0.220620483,0.005796142,0.983787179
18.210442,5.891647339,-4.379661560,-0.178764343,-0.218423218,0.003598876,0.984153390
18.211069,5.578842163,-4.448326111,-0.094841003,-0.220132202,0.002011962,0.984397531
18.211695,5.578842163,-4.310997009,-0.285575867,-0.222451538,0.002256103,0.983543038
18.212320,5.616989136,-4.516990662,-0.201652527,-0.218545288,0.005185790,0.985007882
18.212947,5.510177612,-4.440696716,-0.140617371,-0.223061889,0.005552001,0.987815499
18.213574,5.349960327,-4.578025818,-0.079582214,-0.222695678,0.001889892,0.985252023
18.214199,5.380477905,-4.463584900,0.103523254,-0.223306030,0.001279540,0.985984445
18.214896,5.090560913,-4.555137634,0.156929016,-0.220376343,0.002011962,0.985252023
18.215523,5.395736694,-4.661949158,-0.232170105,-0.221474975,-0.000185303,0.985496163
18.216149,5.494918823,-4.730613708,-0.049064636,-0.222451538,0.000425048,0.990256906
18.216776,5.273666382,-4.654319763,0.217964172,-0.217934936,0.001523681,0.989402413
18.217401,5.327072144,-4.715354919,0.126411438,-0.221841186,-0.001039796,0.990623116
18.218026,5.136337280,-4.700096130,0.317146301,-0.222695678,-0.002382569,0.989524484
18.218653,5.494918823,-4.578025818,0.332405090,-0.225869507,-0.004091553,0.993674874
18.220418,5.678024292,-4.883201599,0.523139954,-0.221108764,-0.003847413,0.995627999
18.221043,5.616989136,-4.913719177,0.416328430,-0.220742553,-0.007265382,0.997459054
18.221780,5.830612183,-4.761131287,0.584175110,-0.221352905,-0.008241944,0.996360421
18.222407,6.097640991,-4.654319763,0.523139954,-0.223550171,-0.008608155,0.998801827
18.223032,6.135787964,-4.753501892,0.698616028,-0.222939819,-0.013246827,0.999290109
18.223659,5.822982788,-4.516990662,0.568916321,-0.222695678,-0.012270264,1.000754952
18.224284,6.494369507,-4.799278259,0.629951477,-0.223794311,-0.012880616,0.999778390
18.224911,6.761398315,-4.600914001,0.713874817,-0.225869507,-0.013979249,1.001975656
18.225537,6.814804077,-4.631431580,0.767280579,-0.225869507,-0.011415772,1.004905343
18.226163,7.058944702,-4.547508240,0.813056946,-0.226357788,-0.012636475,1.006370187
18.226789,7.295455933,-4.646690369,0.866462708,-0.224404663,-0.010805421,1.007224679
18.227414,7.425155640,-4.501731873,0.988533020,-0.222085327,-0.010805421,1.007835031
18.228040,7.524337769,-4.379661560,1.102973938,-0.222207397,-0.009950928,1.009544015
18.228666,7.745590210,-4.486473083,0.896980286,-0.223306030,-0.012148194,1.014304757
18.229293,7.921066284,-4.181297302,1.072456360,-0.223916382,-0.009218507,1.013206124
18.229918,7.928695679,-4.326255798,1.186897278,-0.218423218,-0.006899171,1.014548898
18.243814,7.303085327,-1.312644958,1.965095520,-0.213662475,0.024839111,1.021751046
18.244554,7.142868042,-1.228721619,1.911689758,-0.210488647,0.022641845,1.025779366
18.245180,6.936874390,-0.900657654,2.110054016,-0.210366577,0.026670165,1.026145577
18.245806,6.646957397,-0.770957947,1.934577942,-0.207314819,0.028257079,1.026755929
18.246433,6.524887085,-0.679405212,1.995613098,-0.207925171,0.030454345,1.026877999
18.247060,6.242599487,-0.519187927,2.270271301,-0.207925171,0.030698486,1.029563546
18.247686,6.120529175,-0.229270935,2.110054016,-0.203408569,0.029599853,1.028464913
18.248313,5.700912476,-0.038536072,2.079536438,-0.204263061,0.028989501,1.030540109
18.248940,5.441513062,-0.084312439,2.293159485,-0.201821655,0.031430908,1.029685616
18.249567,5.433883667,0.197975159,2.239753723,-0.199014038,0.030454345,1.029197335
18.250192,5.090560913,0.526039124,2.224494934,-0.199136108,0.029477783,1.030906320
18.250819,4.754867554,0.503150940,2.171089172,-0.199380249,0.028257079,1.030540109
18.251446,4.709091187,0.815956116,2.369453430,-0.198159546,0.031064697,1.029075265
18.252072,4.335250854,1.159278870,2.331306458,-0.198769897,0.030332275,1.029563546
18.252697,4.243698120,1.281349182,2.300788879,-0.195596069,0.032407470,1.030662179
18.253324,4.175033569,1.510231018,2.346565247,-0.196328491,0.033750243,1.029563546
18.253950,4.159774780,1.662818909,2.445747375,-0.194619507,0.030820556,1.029807687
18.254576,4.014816284,1.830665588,2.285530090,-0.193032593,0.032041259,1.031760812
18.255201,3.808822632,1.983253479,2.499153137,-0.193032593,0.029111572,1.029807687
18.255827,3.694381714,2.112953186,2.247383118,-0.194009155,0.027890868,1.028220773
18.256453,3.671493530,2.425758362,2.361824036,-0.191079468,0.028623290,1.028220773
18.257079,3.778305054,2.456275940,2.476264954,-0.189370483,0.030820556,1.028586984
18.257704,3.709640503,2.479164124,2.384712219,-0.188638061,0.028623290,1.026511788
18.258329,3.778305054,2.563087463,2.377082825,-0.188760132,0.032285400,1.026755929
18.258954,3.640975952,3.020851135,2.666999817,-0.185586303,0.029966064,1.023215890
18.259580,3.824081421,3.097145081,2.270271301,-0.186929077,0.031186767,1.021018624
18.260205,3.862228394,3.264991760,2.316047668,-0.186318725,0.030088134,1.020896554
18.260832,3.816452026,3.570167542,2.430488586,-0.184975952,0.027158447,1.018577218
18.261458,3.846969604,3.570167542,2.224494934,-0.185464233,0.030454345,1.020530343
18.262084,3.938522339,3.646461487,2.354194641,-0.186074585,0.030210204,1.017600656
18.263893,4.442062378,3.989784241,2.270271301,-0.189492553,0.026792236,1.014304757
18.264519,4.617538452,4.233924866,2.430488586,-0.190469116,0.027524658,1.014793038
18.265145,4.510726929,4.211036682,2.262641907,-0.193276733,0.027646728,1.011008859
18.265771,4.960861206,4.455177307,2.529670715,-0.190102905,0.031675048,1.007835031
18.266398,4.945602417,4.355995178,2.087165833,-0.190469116,0.035581298,1.006003976
18.267024,5.136337280,4.424659729,2.354194641,-0.189248413,0.039731689,1.005149484
18.267651,5.327072144,4.546730042,2.232124329,-0.187173218,0.040952392,1.001487374
18.268276,5.464401245,4.310218811,2.140571594,-0.185342163,0.040952392,1.002708077
18.268901,5.838241577,4.493324280,2.079536438,-0.188638061,0.037046142,1.003440499
18.269528,5.830612183,4.508583069,2.049018860,-0.187905639,0.036557861,1.003318429
18.270153,6.013717651,4.447547913,2.110054016,-0.183633178,0.040097900,1.004050851
18.270779,5.990829468,4.539100647,2.056648254,-0.180947632,0.039853759,1.003318429
18.271405,6.303634644,4.546730042,2.255012512,-0.179604858,0.041196533,0.999778390
18.272032,6.349411011,4.607765198,1.919319153,-0.180093139,0.045102783,0.996116281
18.272658,6.181564331,4.844276428,1.774360657,-0.182290405,0.047910400,0.993674874
18.273285,6.372299194,4.737464905,1.858283997,-0.184243530,0.048642822,0.993919015
18.273912,6.303634644,4.935829163,2.010871887,-0.183511108,0.049253173,0.992210031
18.274538,6.402816772,4.653541565,1.835395813,-0.185586303,0.048154540,0.991111398
18.275164,6.418075562,4.645912170,1.804878235,-0.187661499,0.049863525,0.987815499
18.289125,4.152145386,3.066627502,0.568916321,-0.178017944,0.074277587,0.955100656
18.289857,4.037704468,2.677528381,0.477363586,-0.179848999,0.073178954,0.954856515
18.290483,3.679122925,2.822486877,0.469734192,-0.179726928,0.072446533,0.955344796
18.291108,3.656234741,2.746192932,0.607063293,-0.178750366,0.072568603,0.955588937
18.291733,3.557052612,2.540199280,0.484992981,-0.178994507,0.069883056,0.956077218
18.292359,3.503646851,2.196876526,0.355293274,-0.179604858,0.071592040,0.955222726
18.292986,3.297653198,2.326576233,0.294258118,-0.177285522,0.073789306,0.957297921
18.293612,3.022994995,2.242652893,0.134040833,-0.181680053,0.072690673,0.955711007
18.294237,2.817001343,1.945106506,0.248481750,-0.179604858,0.073545165,0.954734445
18.294862,2.733078003,1.876441956,0.164558411,-0.178872436,0.068906493,0.957297921
18.295487,2.687301636,1.762001038,-0.033805847,-0.179238647,0.067197509,0.955955148
18.296112,2.504196167,1.517860413,-0.018547058,-0.179726928,0.065732665,0.960593820
18.296739,2.534713745,1.342384338,-0.216911316,-0.177529663,0.065122314,0.959495187
18.297364,2.412643433,1.288978577,-0.331352234,-0.179238647,0.065244384,0.961814523
18.297989,2.374496460,1.235572815,-0.163505554,-0.179482788,0.067563720,0.960715890
18.298614,2.260055542,1.151649475,-0.140617371,-0.179604858,0.063535400,0.960105538
18.299239,2.252426147,0.953285217,-0.392387390,-0.178506225,0.066343017,0.963279366
18.299864,2.092208862,0.930397034,-0.354240417,-0.180093139,0.062436767,0.959495187
18.300489,2.382125854,0.838844299,-0.453422546,-0.181191772,0.057431884,0.961326241
18.301115,2.206649780,0.846473694,-0.506828308,-0.183389038,0.057798095,0.958640695
18.301740,2.389755249,0.663368225,-0.720451355,-0.183511108,0.057309814,0.965232491
18.302367,2.221908569,0.487892151,-0.651786804,-0.183877319,0.056211181,0.961448312
18.302992,2.176132202,0.342933655,-0.827262878,-0.186929077,0.052915283,0.962791085
18.303619,2.328720093,0.579444885,-0.804374695,-0.186562866,0.053891845,0.962180734
18.304244,2.572860718,0.724403381,-0.865409851,-0.188027710,0.052304931,0.962913156
18.304870,2.549972534,0.281898499,-0.918815613,-0.187295288,0.051328368,0.960471749
18.305497,2.534713745,0.228492737,-0.873039246,-0.191201538,0.050107665,0.966941476
18.306124,2.603378296,0.373451233,-0.918815613,-0.192544311,0.048886962,0.966209054
18.306749,2.794113159,0.152198792,-0.949333191,-0.192056030,0.047177978,0.964500070
18.307376,3.022994995,0.167457581,-0.964591980,-0.190591186,0.042661376,0.966453195
18.309146,3.267135620,0.075904846,-1.315544128,-0.194985718,0.042417236,0.968772531
18.309772,3.518905640,0.007240295,-1.254508972,-0.196572632,0.039487548,0.971336007
18.310397,3.801193237,-0.328453064,-1.300285339,-0.195840210,0.037168212,0.971458077
18.311024,4.129257202,-0.130088806,-1.613090515,-0.194741577,0.037168212,0.971458077
18.311649,4.007186890,-0.152976990,-1.376579285,-0.196206421,0.035337158,0.973533273
18.312274,4.480209351,-0.221641541,-1.262138367,-0.194131225,0.036679931,0.973777413
18.312900,4.503097534,-0.183494568,-1.429985046,-0.193032593,0.037534423,0.971702218
18.313525,5.021896362,-0.168235779,-1.674125671,-0.194863647,0.036313720,0.978294015
18.314151,5.090560913,-0.282676697,-1.513908386,-0.194497436,0.035703368,0.977195382
18.314777,5.143966675,-0.183494568,-1.658866882,-0.197427124,0.035581298,0.975974679
18.315403,5.441513062,-0.267417908,-1.590202332,-0.196206421,0.033872314,0.974631906
18.316028,5.838241577,-0.008018494,-1.643608093,-0.194497436,0.034360595,0.977195382
18.316655,5.929794312,-0.221641541,-1.658866882,-0.193154663,0.034970947,0.975242257
18.317382,5.967941284,-0.198753357,-1.674125671,-0.193520874,0.037778564,0.975974679
18.318009,6.128158569,0.144569397,-1.712272644,-0.194009155,0.037656493,0.974876046
18.318635,6.418075562,-0.152976990,-1.750419617,-0.197671264,0.035581298,0.972922921
18.319264,6.418075562,-0.244529724,-1.780937195,-0.199746460,0.034238525,0.971824288
18.319890,6.700363159,0.014869690,-1.826713562,-0.197793335,0.037778564,0.975608468
18.320516,6.944503784,-0.229270935,-1.864860535,-0.193398803,0.036557861,0.971336007
18.334453,3.763046265,-1.228721619,-2.253959656,-0.204263061,0.065732665,0.953147531
18.335179,3.541793823,-1.152427673,-2.284477234,-0.202065796,0.064023681,0.955588937
18.335804,3.076400757,-1.152427673,-2.353141785,-0.198159546,0.071347900,0.955344796
18.336429,2.641525269,-1.320274353,-2.124259949,-0.198891968,0.072568603,0.955711007
18.337056,2.160873413,-1.236351013,-2.177665710,-0.199014038,0.074643798,0.956809640
18.337681,1.718368530,-1.327903748,-2.314994812,-0.199136108,0.077451415,0.957175851
18.338307,1.062240601,-1.388938904,-2.429435730,-0.197060913,0.076474853,0.957908273
18.338934,0.718917847,-1.259239197,-2.276847839,-0.197427124,0.078427978,0.960105538
18.339559,0.306930542,-1.282127380,-2.406547546,-0.194009155,0.077573486,0.958884835
18.340184,-0.074539185,-1.449974060,-2.391288757,-0.195229858,0.075742431,0.957053781
18.340809,-0.684890747,-1.388938904,-2.543876648,-0.194497436,0.081113525,0.960960031
18.341436,-1.035842896,-1.152427673,-2.520988464,-0.193276733,0.079282470,0.961326241
18.342061,-1.455459595,-1.243980408,-2.528617859,-0.193520874,0.080747314,0.964866281
18.342688,-2.180252075,-1.366050720,-2.582023621,-0.193154663,0.077085204,0.965110421
18.343315,-2.332839966,-1.236351013,-2.627799988,-0.194131225,0.080259033,0.967185616
18.343940,-2.874526978,-1.327903748,-2.543876648,-0.190469116,0.078794189,0.968772531
18.344566,-3.217849731,-1.190574646,-2.742240906,-0.191079468,0.079892822,0.967185616
18.345191,-3.591690063,-1.297386169,-2.795646667,-0.191933960,0.078305908,0.965354562
18.345816,-3.751907349,-1.236351013,-2.795646667,-0.190713257,0.076963134,0.968772531
18.346441,-4.141006470,-1.160057068,-2.994010925,-0.187783569,0.075498290,0.968040109
18.347067,-4.392776489,-1.228721619,-2.719352722,-0.190591186,0.075254150,0.968894601
18.347692,-4.713211060,-1.160057068,-3.009269714,-0.190835327,0.074155517,0.968894601
18.348318,-4.934463501,-1.152427673,-3.055046082,-0.189248413,0.073545165,0.970359445
18.348945,-4.934463501,-1.137168884,-2.948234558,-0.189858764,0.072568603,0.968162179
18.349572,-5.247268677,-1.205833435,-2.940605164,-0.189370483,0.069272704,0.971336007
18.350197,-5.376968384,-0.931175232,-3.116081238,-0.191567749,0.067807861,0.971702218
18.350824,-5.659255981,-0.847251892,-3.268669128,-0.193398803,0.065122314,0.972190499
18.351451,-5.346450806,-0.816734314,-3.261039734,-0.189858764,0.065122314,0.970481515
18.352077,-5.552444458,-0.595481873,-3.367851257,-0.193032593,0.062802978,0.972068429
18.352704,-5.376968384,-0.755699158,-3.497550964,-0.193032593,0.059629150,0.971946359
18.354492,-4.957351685,-0.542076111,-3.497550964,-0.195107788,0.053281493,0.970237374
18.355117,-4.621658325,-0.603111267,-3.825614929,-0.195473999,0.053159423,0.968894601
18.355743,-4.453811646,-0.297935486,-3.680656433,-0.193154663,0.051084228,0.973899484
18.356368,-4.125747681,-0.282676697,-3.871391296,-0.194619507,0.046567626,0.969504952
18.356994,-3.698501587,-0.343711853,-3.825614929,-0.193642944,0.046811767,0.972312570
18.357619,-3.332290649,-0.168235779,-3.940055847,-0.196816772,0.044370361,0.973899484
18.358246,-3.011856079,-0.389488220,-3.802726746,-0.192666382,0.043882079,0.973533273
18.358872,-2.477798462,-0.381858826,-3.970573425,-0.193520874,0.040464111,0.968772531
18.359497,-2.004776001,-0.366600037,-4.146049500,-0.193765014,0.039487548,0.967673898
18.366723,4.022445679,-0.625999451,-4.702995300,-0.197671264,0.028257079,0.953879952
18.367348,4.632797241,-0.778587341,-4.779289246,-0.198037475,0.031675048,0.950217843
18.367974,5.082931519,-0.893028259,-4.954765320,-0.202309936,0.029233642,0.952170968
18.368599,5.502548218,-0.938804626,-5.031059265,-0.208047241,0.030088134,0.952048898
18.369225,6.105270386,-1.121910095,-4.962394714,-0.202920288,0.031552978,0.947288156
18.369850,6.555404663,-1.266868591,-4.985282898,-0.206948608,0.032163329,0.950339913
18.370475,6.807174683,-1.358421326,-5.176017761,-0.210122436,0.030454345,0.949729562
18.371101,7.112350464,-1.465232849,-5.076835632,-0.206094116,0.032529540,0.947776437
18.371726,7.547225952,-1.419456482,-5.107353210,-0.210488647,0.031675048,0.947288156
18.385747,6.700363159,-2.540977478,-5.153129578,-0.222817749,0.026181884,0.958396554
18.386514,5.884017944,-2.212913513,-5.252311707,-0.220986694,0.027280517,0.953269601
18.387140,5.670394897,-2.067955017,-4.985282898,-0.222573608,0.025083251,0.954856515
18.387765,5.151596069,-2.205284119,-5.046318054,-0.225503296,0.025327392,0.954368234
18.388391,4.503097534,-2.128990173,-5.122612000,-0.228555053,0.022153564,0.953513741
18.389017,4.381027222,-1.930625916,-4.908988953,-0.227822632,0.024106689,0.953147531
18.389642,3.976669312,-2.228172302,-5.038688660,-0.227944702,0.023496337,0.951072335
18.390269,3.328170776,-2.174766541,-4.817436218,-0.230508178,0.022519775,0.952415109
18.390895,3.015365601,-2.205284119,-4.733512878,-0.229165405,0.025449462,0.952537179
18.391522,2.313461304,-1.991661072,-4.855583191,-0.229897827,0.021909423,0.950706124
18.392148,1.870956421,-1.915367126,-4.764030457,-0.230874389,0.023862548,0.949729562
18.392775,1.298751831,-2.006919861,-4.542778015,-0.231484741,0.018613525,0.949729562
18.393401,0.863876343,-1.991661072,-4.504631042,-0.232705444,0.019590087,0.951194406
