time,gyro x,gyro y,gyro z,accel x,accel y,accel z
7.575233,-18.827590942,14.571754456,0.538398743,-0.245278686,-0.347597420,0.766990304
7.585019,3.534164429,4.867164612,1.843025208,-0.231850952,-0.417543709,0.819724679
7.585644,3.534164429,4.867164612,1.843025208,-0.231850952,-0.417543709,0.819724679
7.586269,3.976669312,5.263893127,1.598884583,-0.236733764,-0.423036873,0.821067452
7.586894,6.883468628,4.478065491,1.835395813,-0.238564819,-0.431337655,0.808738351
7.587521,8.371200562,4.188148499,1.949836731,-0.235024780,-0.431703866,0.808372140
7.588147,9.958114624,3.615943909,2.056648254,-0.233437866,-0.435243905,0.815818429
7.588772,11.125411987,3.242103577,2.186347961,-0.230141968,-0.426698983,0.822166085
7.589397,12.430038452,2.669898987,2.110054016,-0.226357788,-0.412172616,0.825584054
7.590022,13.192977905,2.807228088,2.407600403,-0.217568725,-0.393617928,0.821555734
7.590649,13.643112183,2.677528381,2.476264954,-0.210854858,-0.379457772,0.825828195
7.591275,14.436569214,2.273170471,2.697517395,-0.213296264,-0.364687264,0.828269601
7.591900,14.673080444,2.105323792,2.964546204,-0.211221069,-0.359194100,0.830588937
7.592526,14.802780151,2.036659241,2.827217102,-0.210000366,-0.355776131,0.833030343
7.593153,14.970626831,1.914588928,3.033210754,-0.213418335,-0.351137459,0.828513741
7.593779,15.260543823,1.853553772,2.995063782,-0.212441772,-0.345400155,0.830344796
7.594406,15.191879272,1.624671936,3.140022278,-0.212197632,-0.332826912,0.829978585
7.595032,15.481796265,1.227943420,3.361274719,-0.210976928,-0.327211678,0.831199288
7.595658,15.024032593,1.227943420,3.376533508,-0.211343139,-0.318422616,0.832297921
7.596283,15.222396851,0.960914612,3.223945618,-0.209756225,-0.309023201,0.839011788
7.596908,14.764633179,1.060096741,3.300239563,-0.210366577,-0.302675545,0.841209054
7.597534,14.558639526,0.999061584,3.475715637,-0.207803100,-0.297060311,0.841453195
7.598159,14.055099487,1.319496155,3.368904114,-0.207436889,-0.292299569,0.843162179
7.598784,13.208236694,1.525489807,3.429939270,-0.209390014,-0.291200936,0.844260812
7.599409,13.208236694,1.273719788,3.552009583,-0.212319702,-0.291689217,0.846702218
7.600034,12.971725464,1.556007385,3.590156555,-0.218057007,-0.290956795,0.846702218
7.600660,12.620773315,1.792518616,3.338386536,-0.217446655,-0.286806405,0.851707101
7.601286,12.422409058,1.769630432,3.498603821,-0.224892944,-0.282167733,0.856467843
7.601912,11.895980835,1.929847717,3.277351379,-0.222451538,-0.277651131,0.859397531
7.602538,11.575546265,2.013771057,3.490974426,-0.220864624,-0.270937264,0.865012765
7.603164,11.369552612,2.204505920,3.437568665,-0.220498413,-0.271181405,0.871970773
7.604932,10.499801636,2.570716858,3.559638977,-0.223672241,-0.263368905,0.875266671
7.605557,10.049667358,2.807228088,3.513862610,-0.225991577,-0.269350350,0.876609445
7.606182,9.744491577,2.784339905,3.422309875,-0.227822632,-0.266908944,0.875877023
7.606809,9.652938843,2.814857483,3.330757141,-0.231362671,-0.267153084,0.873313546
7.607578,8.851852417,2.936927795,3.368904114,-0.236245483,-0.250673592,0.867820382
7.608334,8.539047241,2.631752014,3.277351379,-0.235635132,-0.251650155,0.865745187
7.609057,8.218612671,2.715675354,3.246833801,-0.240517944,-0.250795662,0.862937570
7.609814,7.821884155,2.334205627,3.170539856,-0.242837280,-0.242983162,0.857200265
7.610553,7.348861694,2.173988342,3.323127747,-0.243081421,-0.236879647,0.855735421
7.611298,6.318893433,1.128761292,3.231575012,-0.251870483,-0.223207772,0.853049874
7.611924,5.647506714,0.594703674,3.140022278,-0.251992553,-0.225649178,0.850974679
7.612549,5.067672729,0.327674866,2.964546204,-0.259194702,-0.218935311,0.846091866
7.613174,4.464950562,-0.130088806,2.918769836,-0.256265014,-0.218202889,0.842795968
7.613801,3.869857788,-0.694664001,3.025581360,-0.255166382,-0.217714608,0.836814523
7.614427,3.442611694,-1.175315857,2.583076477,-0.258584350,-0.213075936,0.832908273
7.615052,2.824630737,-1.610191345,2.827217102,-0.251992553,-0.212465584,0.831809640
7.615679,2.267684937,-1.922996521,2.583076477,-0.250283569,-0.215395272,0.831565499
7.616304,1.787033081,-2.174766541,2.598335266,-0.246255249,-0.216493905,0.829002023
7.630678,-2.302322388,-7.172019958,-0.094841003,-0.271279663,-0.238954842,1.013450265
7.631402,-1.394424438,-7.828147888,0.034858704,-0.266274780,-0.229921639,1.028586984
7.632027,-1.821670532,-7.988365173,-0.171134949,-0.255044311,-0.210878670,1.022361398
7.632653,-2.729568481,-7.584007263,-0.422904968,-0.251382202,-0.225527108,1.032371163
7.633279,-1.928482056,-7.820518494,-0.346611023,-0.271890014,-0.222597420,1.056785226
7.633905,-2.782974243,-7.454307556,-0.499198914,-0.220742553,-0.198549569,1.013938546
7.634530,-4.133377075,-5.890281677,-0.857780457,-0.195229858,-0.186220467,0.975486398
7.635156,-6.185684204,-3.425987244,-1.246879578,-0.178506225,-0.190614998,0.926047921
7.635781,-6.879959106,-0.969322205,-1.414726257,-0.197671264,-0.234316170,0.903953195
7.636407,-5.102310181,-0.450523376,-1.368949890,-0.229287475,-0.264955819,0.917136788
7.637034,-3.164443970,-0.641258240,-0.941703796,-0.242348999,-0.279482186,0.923972726
7.637659,-3.156814575,0.114051819,-1.460502625,-0.225869507,-0.229555428,0.907493234
7.638285,-4.278335571,1.594154358,-1.887748718,-0.226846069,-0.194277108,0.914939523
7.638911,-4.736099243,2.318946838,-1.399467468,-0.248818725,-0.185243905,0.914207101
7.639538,-5.155715942,1.838294983,-1.796195984,-0.255288452,-0.184023201,0.917502999
7.640163,-5.918655396,1.716224670,-1.780937195,-0.281045288,-0.189394295,0.955222726
7.640789,-6.658706665,0.938026428,-1.773307800,-0.304848999,-0.190981209,0.986228585
7.641416,-7.444534302,-0.664146423,-1.994560242,-0.313882202,-0.178163826,1.010276437
7.642043,-8.649978638,-2.052696228,-2.078483582,-0.303017944,-0.168398201,1.021628976
7.642669,-11.144790649,-2.418907166,-2.574394226,-0.258218139,-0.129335701,0.999290109
7.643295,-14.486465454,-2.006919861,-2.658317566,-0.247964233,-0.138124764,0.976096749
7.643921,-16.065750122,-2.174766541,-2.223442078,-0.259438843,-0.174501717,0.965110421
7.644548,-16.668472290,-3.013999939,-2.154777527,-0.254433960,-0.202211678,0.940818429
7.645173,-18.362197876,-2.388389587,-2.437065125,-0.236733764,-0.222109139,0.893088937
7.645798,-19.384536743,-1.640708923,-2.849052429,-0.251870483,-0.258852303,0.878684640
7.646423,-19.117507935,-1.449974060,-3.329704285,-0.249551147,-0.287538826,0.866233468
7.647048,-18.011245728,-1.060874939,-3.169487000,-0.244057983,-0.301454842,0.852317452
7.647674,-17.248306274,-1.305015564,-2.803276062,-0.245278686,-0.312319100,0.864890695
7.648299,-16.111526489,-1.480491638,-2.978752136,-0.248086303,-0.296816170,0.857078195
7.648925,-16.119155884,-1.427085876,-3.047416687,-0.256875366,-0.296816170,0.860862374
7.650701,-13.815078735,-2.441795349,-3.184745789,-0.277993530,-0.299623787,0.932761788
7.651327,-13.281021118,-3.654869080,-3.161857605,-0.287881225,-0.307924569,0.960471749
7.651954,-12.975845337,-4.570396423,-3.253410339,-0.277993530,-0.301576912,0.976096749
7.652579,-12.899551392,-5.066307068,-3.634880066,-0.277139038,-0.308534920,0.986961007
7.653206,-12.876663208,-5.424888611,-3.772209167,-0.275796264,-0.315981209,0.994407296
7.653832,-12.289199829,-5.928428650,-3.772209167,-0.259072632,-0.324159920,0.988059640
7.654457,-11.488113403,-6.340415955,-3.810356140,-0.247475952,-0.332826912,0.991843820
7.655083,-10.305557251,-6.340415955,-3.673027039,-0.252358764,-0.328920662,1.001609445
7.655710,-8.428726196,-7.492454529,-3.535697937,-0.287026733,-0.357485116,1.054343820
7.656336,-5.521926880,-9.613426208,-3.184745789,-0.330727905,-0.392275155,1.122703195
7.656962,-2.378616333,-12.039573669,-3.108451843,-0.318765014,-0.306825936,1.177878976
7.657587,-1.867446899,-14.496238708,-3.322074890,-0.339028686,-0.304506600,1.255393624
7.658214,-1.875076294,-16.342552185,-3.367851257,-0.310708374,-0.301332772,1.277610421
7.658839,-2.866897583,-16.746910095,-4.085014343,-0.249917358,-0.274965584,1.259788156
7.659466,-4.606399536,-15.228660583,-4.291007996,-0.152993530,-0.232240975,1.187278390
7.660092,-7.108840942,-11.467369080,-4.741142273,-0.102090210,-0.233095467,1.077659249
7.660718,-8.115921021,-7.370384216,-4.542778015,-0.129189819,-0.278017342,1.021751046
7.661344,-5.041275024,-5.493553162,-4.130790710,-0.168984741,-0.380922616,1.001975656
7.677263,-16.317520142,5.492774963,-5.610893250,-0.246011108,-0.394716561,0.864768624
7.678006,-14.387283325,4.531471252,-5.305717468,-0.246377319,-0.398744881,0.833274484
7.678632,-13.647232056,4.226295471,-5.214164734,-0.218423218,-0.416200936,0.826682687
7.679259,-12.273941040,4.348365784,-5.404899597,-0.232705444,-0.414369881,0.828025460
7.679886,-11.266860962,4.195777893,-4.863212585,-0.224282593,-0.401430428,0.802634835
7.680511,-10.687026978,4.874794006,-5.267570496,-0.196450561,-0.416200936,0.775901437
7.681138,-9.687576294,5.477516174,-5.534599304,-0.225747436,-0.452577889,0.777122140
7.681764,-7.002029419,4.844276428,-5.114982605,-0.247964233,-0.460024178,0.803733468
7.682391,-3.957901001,3.127662659,-4.588554382,-0.268594116,-0.451113045,0.814841866
7.683017,-2.393875122,1.937477112,-4.596183777,-0.272256225,-0.461489022,0.826560616
7.683644,-0.585708618,0.892250061,-4.840324402,-0.284341186,-0.425722420,0.828025460
7.684270,-0.402603149,0.442115784,-4.931877136,-0.256020874,-0.391176522,0.800803781
7.684896,-0.738296509,0.754920959,-5.519340515,-0.210244507,-0.379457772,0.768943429
7.685521,-0.692520142,1.502601624,-5.206535339,-0.212685913,-0.402651131,0.752097726
7.686147,1.321640015,1.006690979,-4.565666199,-0.231973022,-0.443910897,0.749534249
7.686774,3.320541382,0.510780334,-4.046867371,-0.250649780,-0.468202889,0.734885812
7.687401,5.815353394,0.007240295,-4.329154968,-0.292153686,-0.471620858,0.763328195
7.688028,8.447494507,-1.511009216,-4.405448914,-0.299722046,-0.452089608,0.772971749
7.688654,9.675827026,-2.426536560,-4.580924988,-0.280557007,-0.427553475,0.763816476
7.689280,9.736862183,-2.144248962,-4.710624695,-0.266885132,-0.423158944,0.755759835
7.689907,11.239852905,-2.487571716,-4.687736511,-0.254189819,-0.408266366,0.759910226
7.690533,12.285079956,-2.998741150,-4.268119812,-0.243447632,-0.422914803,0.752952218
7.691158,13.650741577,-2.991111755,-4.046867371,-0.268227905,-0.437197030,0.766257882
7.691783,15.916671753,-3.746421814,-3.726432800,-0.296548218,-0.421205819,0.793235421
7.692410,16.923751831,-4.951866150,-3.642509460,-0.299722046,-0.401186287,0.819968820
7.693035,17.488327026,-5.501182556,-3.840873718,-0.313760132,-0.376283944,0.843894601
7.693662,16.870346069,-5.943687439,-3.947685242,-0.295815796,-0.363954842,0.833152413
7.694288,16.229476929,-5.958946228,-4.016349792,-0.301064819,-0.368959725,0.840842843
7.694913,16.473617554,-6.943138123,-3.711174011,-0.298745483,-0.373232186,0.836082101
7.695540,16.435470581,-7.400901794,-3.436515808,-0.291177124,-0.385073006,0.823386788
7.697316,17.244186401,-7.759483337,-3.238151550,-0.298623413,-0.412050545,0.811057687
7.697941,17.671432495,-8.232505798,-3.123710632,-0.311074585,-0.410829842,0.812278390
7.698568,18.358078003,-8.667381287,-2.711723328,-0.317178100,-0.398500741,0.831077218
7.699193,18.640365601,-9.117515564,-3.039787292,-0.299966186,-0.385317147,0.839500070
7.699819,17.480697632,-8.263023376,-2.971122742,-0.262124389,-0.346132576,0.818137765
7.700444,15.977706909,-6.729515076,-3.070304871,-0.246987671,-0.350038826,0.801536202
7.701069,14.810409546,-5.112083435,-2.971122742,-0.243813843,-0.368349373,0.790671945
7.701694,15.008773804,-3.952415466,-2.986381531,-0.270547241,-0.400575936,0.807395577
7.702321,16.214218140,-4.196556091,-2.253959656,-0.310220093,-0.418398201,0.845847726
7.702946,17.000045776,-4.745872498,-2.009819031,-0.331460327,-0.391542733,0.876487374
7.703571,16.679611206,-5.646141052,-2.292106628,-0.345132202,-0.366152108,0.908469796
7.704196,16.671981812,-6.615074158,-2.215812683,-0.340859741,-0.373232186,0.949973702
7.704822,16.275253296,-7.400901794,-2.131889343,-0.323159546,-0.360292733,0.959495187
7.705447,15.153732300,-7.477195740,-2.139518738,-0.299111694,-0.329897225,0.933494210
7.706072,13.833847046,-7.080467224,-2.116630554,-0.277871460,-0.346742928,0.932883859
7.706697,13.055648804,-6.515892029,-1.765678406,-0.264932007,-0.353090584,0.912009835
7.707323,12.239303589,-5.585105896,-1.704643250,-0.268472046,-0.366396248,0.894309640
7.707950,11.972274780,-4.814537048,-1.582572937,-0.275552124,-0.392031014,0.884421945
7.722265,-1.936111450,-0.313194275,-0.163505554,-0.315347046,-0.179628670,0.887717843
7.722957,-5.888137817,-1.480491638,-0.491569519,-0.364663452,-0.218202889,0.884544015
7.723582,-7.543716431,-3.952415466,-0.964591980,-0.374184936,-0.262026131,0.904807687
7.724208,-8.649978638,-6.744773865,-0.567863464,-0.346108764,-0.278627694,0.908469796
7.724833,-9.962234497,-8.804710388,-0.224540710,-0.315224975,-0.286684334,0.909934640
7.725458,-11.381301880,-9.880455017,-0.049064636,-0.284341186,-0.292909920,0.902488351
7.726083,-13.013992310,-10.132225037,-0.453422546,-0.255410522,-0.314272225,0.890647531
7.726708,-13.998184204,-9.514244080,-0.232170105,-0.232949585,-0.331362069,0.873313546
7.727334,-14.043960571,-9.010704041,-0.026176453,-0.220742553,-0.345522225,0.867576241
7.727960,-14.326248169,-8.079917908,-0.110099792,-0.217812866,-0.368105233,0.876609445
7.728586,-13.403091431,-7.103355408,0.126411438,-0.238442749,-0.393129647,0.903220773
7.729211,-12.853775024,-6.904991150,-0.010917664,-0.257729858,-0.381288826,0.918235421
7.729836,-12.571487427,-6.508262634,0.095893860,-0.246865600,-0.375307381,0.925193429
7.730461,-12.098464966,-5.951316833,-0.323722839,-0.256387085,-0.391176522,0.935691476
7.731086,-11.251602173,-6.164939880,0.080635071,-0.270547241,-0.393129647,0.943381906
7.731712,-10.412368774,-6.599815369,0.195075989,-0.258706421,-0.386537850,0.947410226
7.732337,-10.091934204,-6.370933533,0.118782043,-0.257241577,-0.375673592,0.941672921
7.732962,-10.320816040,-5.951316833,0.202705383,-0.258462280,-0.365175545,0.944602609
7.733588,-10.343704224,-5.470664978,0.111152649,-0.255410522,-0.356020272,0.939963937
7.734214,-10.893020630,-5.699546814,0.301887512,-0.263833374,-0.356752694,0.930686593
7.734840,-10.412368774,-5.325706482,0.347663879,-0.266640991,-0.369448006,0.926780343
7.735465,-10.404739380,-5.165489197,0.324775696,-0.274697632,-0.386049569,0.916038156
7.736091,-9.695205688,-5.402000427,0.195075989,-0.284829468,-0.376161873,0.907249093
7.736716,-9.390029907,-5.356224060,0.156929016,-0.284097046,-0.363222420,0.895896554
7.737341,-9.588394165,-5.264671326,0.210334778,-0.274453491,-0.354067147,0.888572335
7.737968,-9.733352661,-5.226524353,0.225593567,-0.275185913,-0.355287850,0.891013741
7.738595,-9.832534790,-5.302818298,0.309516907,-0.276772827,-0.354189217,0.895530343
7.739221,-10.023269653,-5.058677673,0.492622375,-0.287515014,-0.357973397,0.894675851
7.739847,-10.015640259,-5.142601013,0.195075989,-0.296426147,-0.355165780,0.890891671
7.740472,-9.977493286,-5.791099548,0.172187805,-0.304482788,-0.356874764,0.901145577
7.742246,-10.709915161,-6.607444763,0.523139954,-0.295449585,-0.343569100,0.915671945
7.742872,-11.350784302,-6.676109314,0.607063293,-0.293008178,-0.344789803,0.918235421
7.743499,-11.312637329,-6.698997498,0.401069641,-0.293008178,-0.352480233,0.914817452
7.744125,-11.419448853,-6.782920837,0.439216614,-0.295571655,-0.361635506,0.920310616
7.744752,-11.541519165,-6.584556580,0.515510559,-0.293984741,-0.365541756,0.916770577
7.745378,-11.472854614,-6.622703552,0.416328430,-0.289956421,-0.372133553,0.913596749
7.746008,-11.221084595,-6.531150818,0.629951477,-0.283974975,-0.373354256,0.912986398
7.746633,-11.205825806,-6.554039001,0.576545715,-0.276772827,-0.374208748,0.913840890
7.747259,-10.999832153,-6.012351990,0.469734192,-0.277261108,-0.378114998,0.915916085
7.747884,-10.847244263,-5.882652283,0.568916321,-0.281167358,-0.381044686,0.916892648
7.748510,-10.679397583,-5.775840759,0.530769348,-0.283974975,-0.382143319,0.918235421
7.749136,-10.336074829,-5.539329529,0.652839661,-0.281045288,-0.382387459,0.920310616
7.749762,-10.267410278,-5.470664978,0.576545715,-0.283852905,-0.379213631,0.917625070
7.750387,-10.137710571,-5.325706482,0.599433899,-0.281045288,-0.379213631,0.913108468
7.751014,-9.756240845,-5.089195251,0.507881165,-0.279580444,-0.383364022,0.911399484
7.751641,-9.740982056,-4.806907654,0.752021790,-0.280434936,-0.384706795,0.917014718
7.752267,-9.412918091,-4.822166443,0.614692688,-0.281777710,-0.389467537,0.918967843
7.766246,-4.736099243,-4.829795837,1.682807922,-0.245278686,-0.389223397,0.873069406
7.766973,-4.636917114,-4.753501892,1.957466125,-0.231850952,-0.390322030,0.866843820
7.767598,-4.148635864,-4.974754333,2.239753723,-0.235879272,-0.385439217,0.865256906
7.768225,-3.873977661,-5.226524353,2.239753723,-0.239053100,-0.384462655,0.864402413
7.768850,-3.996047974,-5.386741638,2.178718567,-0.238931030,-0.380800545,0.859519601
7.769476,-3.996047974,-5.691917419,2.544929504,-0.241860718,-0.373964608,0.854514718
7.770101,-4.018936157,-5.989463806,2.544929504,-0.233804077,-0.369081795,0.855125070
7.770728,-3.866348267,-6.317527771,2.735664368,-0.234902710,-0.368105233,0.851951241
7.771354,-3.957901001,-6.683738708,2.773811340,-0.230386108,-0.365785897,0.853049874
7.771979,-3.919754028,-6.828697205,2.758552551,-0.230386108,-0.365419686,0.849753976
7.772605,-3.988418579,-7.202537537,2.819587708,-0.227334350,-0.363832772,0.846336007
7.773231,-3.889236450,-7.225425720,2.872993469,-0.220986694,-0.358461678,0.844871163
7.773857,-3.790054321,-7.591636658,3.170539856,-0.219888061,-0.362245858,0.847190499
7.774483,-3.568801880,-7.995994568,3.193428040,-0.221963257,-0.361635506,0.847312570
7.775110,-3.507766724,-8.102806091,3.109504700,-0.218423218,-0.356996834,0.848899484
7.775735,-3.370437622,-8.491905212,3.223945618,-0.215615600,-0.354067147,0.852805734
7.776361,-3.423843384,-8.453758240,3.361274719,-0.212441772,-0.352602303,0.854514718
7.776988,-3.339920044,-8.774192810,3.620674133,-0.218301147,-0.351747811,0.856589913
7.777614,-3.088150024,-9.094627380,3.300239563,-0.207681030,-0.346376717,0.857322335
7.778241,-2.927932739,-9.117515564,3.407051086,-0.206460327,-0.341615975,0.857444406
7.778866,-2.836380005,-9.346397400,3.384162903,-0.207803100,-0.339052498,0.861106515
7.779492,-2.782974243,-9.582908630,3.826667786,-0.206582397,-0.336244881,0.862815499
7.780118,-2.744827271,-9.704978943,3.460456848,-0.206216186,-0.330385506,0.862937570
7.780743,-2.508316040,-10.048301697,3.567268372,-0.209512085,-0.327089608,0.869407296
7.781368,-2.554092407,-10.368736267,3.658821106,-0.209145874,-0.324159920,0.873801827
7.781993,-2.584609985,-10.406883240,3.712226868,-0.201211303,-0.318178475,0.875022531
7.782618,-2.500686646,-10.445030212,3.651191711,-0.203164428,-0.312074959,0.875266671
7.783244,-2.523574829,-10.719688416,3.742744446,-0.204507202,-0.314760506,0.878562570
7.783870,-2.477798462,-10.811241150,3.620674133,-0.205605835,-0.313295662,0.878806710
7.784495,-2.493057251,-10.704429626,3.597785950,-0.219277710,-0.303407967,0.886863351
7.786257,-3.072891235,-11.551292419,3.674079895,-0.217446655,-0.277651131,0.901145577
7.786884,-3.378067017,-11.520774841,3.498603821,-0.214516968,-0.284364998,0.902610421
7.787510,-3.278884888,-11.215599060,3.529121399,-0.220254272,-0.286684334,0.904075265
7.788136,-3.408584595,-11.291893005,3.559638977,-0.230386108,-0.281923592,0.906272531
7.788762,-3.248367310,-11.001976013,3.445198059,-0.238931030,-0.277773201,0.907493234
7.789387,-3.492507935,-11.192710876,3.323127747,-0.236733764,-0.272280037,0.909568429
7.790012,-3.538284302,-11.032493591,3.368904114,-0.239175171,-0.266420662,0.911399484
7.790638,-3.843460083,-10.994346619,3.262092590,-0.247475952,-0.259584725,0.914695382
7.791264,-4.163894653,-11.070640564,3.140022278,-0.254922241,-0.255068123,0.918845773
7.791890,-4.362258911,-10.872276306,3.040840149,-0.259927124,-0.246645272,0.920920968
7.792515,-4.514846802,-10.933311462,2.941658020,-0.265298218,-0.242372811,0.917625070
7.793140,-4.995498657,-10.803611755,3.033210754,-0.263345093,-0.237978280,0.911521554
7.793766,-5.354080200,-10.719688416,2.804328918,-0.264565796,-0.235658944,0.912864327
7.794391,-5.453262329,-10.628135681,2.674629211,-0.269082397,-0.229067147,0.915305734
7.795017,-6.086502075,-10.521324158,2.506782532,-0.272012085,-0.228945076,0.909080148
7.795642,-6.124649048,-10.345848083,2.468635559,-0.273598999,-0.224672616,0.911765695
7.796268,-6.460342407,-10.254295349,2.430488586,-0.271645874,-0.220644295,0.906882882
7.796893,-6.834182739,-10.170372009,2.087165833,-0.274087280,-0.222597420,0.904807687
7.810827,-9.756240845,-13.321311951,-2.017448425,-0.288857788,-0.232851326,0.865256906
7.811533,-9.550247192,-13.504417419,-2.391288757,-0.281777710,-0.237245858,0.863914132
7.812158,-9.382400513,-13.710411072,-2.444694519,-0.278970093,-0.237123787,0.861594796
7.812785,-9.123001099,-14.084251404,-2.673576355,-0.276284546,-0.240297616,0.860862374
7.813410,-8.825454712,-14.084251404,-2.582023621,-0.276528686,-0.243227303,0.862449288
7.814035,-8.566055298,-14.137657166,-2.856681824,-0.276772827,-0.243593514,0.862083077
7.814661,-8.253250122,-14.419944763,-3.047416687,-0.274941772,-0.245180428,0.862205148
7.815286,-8.215103149,-14.488609314,-3.238151550,-0.271767944,-0.244936287,0.866233468
7.815911,-7.986221313,-14.412315369,-3.558586121,-0.270547241,-0.246889412,0.865745187
7.816538,-7.574234009,-14.519126892,-3.558586121,-0.266518921,-0.251283944,0.867087960
7.817163,-7.574234009,-14.679344177,-3.726432800,-0.267983764,-0.255556405,0.866477609
7.817788,-7.513198853,-14.587791443,-3.932426453,-0.262978882,-0.252382576,0.865012765
7.818415,-7.192764282,-14.610679626,-3.886650085,-0.261391968,-0.253603280,0.866477609
7.819040,-7.131729126,-14.778526306,-4.062126160,-0.259316772,-0.257265389,0.866355538
7.819667,-7.002029419,-14.488609314,-4.252861023,-0.258706421,-0.256044686,0.866965890
7.820292,-7.124099731,-14.374168396,-4.313896179,-0.257973999,-0.256044686,0.867698312
7.820918,-7.024917603,-14.435203552,-4.329154968,-0.254678100,-0.256410897,0.867454171
7.821543,-6.696853638,-14.213951111,-4.695365906,-0.250649780,-0.254579842,0.865989327
7.822168,-6.971511841,-13.824851990,-4.611442566,-0.248818725,-0.255556405,0.865501046
7.822795,-7.047805786,-13.977439880,-4.664848328,-0.243203491,-0.259340584,0.868674874
7.823420,-7.085952759,-13.664634705,-4.916618347,-0.242959350,-0.262148201,0.864402413
7.824046,-7.146987915,-13.351829529,-4.939506531,-0.245766968,-0.265444100,0.862083077
7.824672,-7.299575806,-13.367088318,-5.229423523,-0.239907593,-0.264589608,0.857200265
7.825297,-7.253799438,-12.909324646,-5.404899597,-0.239663452,-0.269106209,0.856467843
7.825924,-7.459793091,-12.794883728,-5.404899597,-0.240762085,-0.274355233,0.857810616
7.826550,-7.635269165,-12.421043396,-5.374382019,-0.239297241,-0.274355233,0.856345773
7.835060,-8.245620728,-9.704978943,-6.076286316,-0.224282593,-0.327577889,0.825217843
7.835685,-8.024368286,-9.750755310,-5.740592957,-0.227578491,-0.329042733,0.823386788
7.836312,-7.650527954,-9.766014099,-5.977104187,-0.223183960,-0.329775155,0.821067452
7.836939,-7.475051880,-9.567649841,-5.961845398,-0.222085327,-0.336000741,0.819114327
7.837565,-7.391128540,-9.720237732,-5.839775085,-0.224404663,-0.340639412,0.820457101
7.838190,-7.024917603,-9.498985291,-5.946586609,-0.225869507,-0.342470467,0.819114327
7.838817,-6.788406372,-9.460838318,-6.007621765,-0.226113647,-0.342348397,0.817893624
7.839442,-6.284866333,-9.674461365,-5.877922058,-0.206826538,-0.350282967,0.815452218
7.840068,-5.743179321,-9.285362244,-5.740592957,-0.208779663,-0.358705819,0.815330148
7.840693,-5.178604126,-9.033592224,-6.007621765,-0.210976928,-0.362734139,0.821067452
7.841320,-4.484329224,-9.140403748,-5.977104187,-0.212441772,-0.363832772,0.821921945
7.841945,-3.820571899,-9.140403748,-5.809257507,-0.215615600,-0.359682381,0.826438546
7.842571,-3.164443970,-9.170921326,-5.984733582,-0.211953491,-0.358949959,0.832175851
7.843196,-2.828750610,-9.430320740,-5.893180847,-0.212441772,-0.358217537,0.838889718
7.843822,-2.264175415,-9.354026794,-5.870292664,-0.211343139,-0.361635506,0.844627023
7.844448,-1.577529907,-9.636314392,-5.786369324,-0.215981811,-0.366152108,0.848411202
7.845073,-1.234207153,-9.811790466,-5.793998718,-0.216470093,-0.366152108,0.842185616
7.845700,-0.570449829,-9.888084412,-5.656669617,-0.215005249,-0.368837655,0.841086984
7.846326,0.169601440,-9.872825623,-5.755851746,-0.204507202,-0.368593514,0.837791085
7.846951,0.940170288,-9.926231384,-5.580375671,-0.208901733,-0.374574959,0.839011788
7.847576,2.038803101,-9.529502869,-5.725334167,-0.219521850,-0.372865975,0.843650460
7.848201,2.824630737,-10.063560486,-5.549858093,-0.221230835,-0.367983162,0.845603585
7.862241,17.640914917,-9.498985291,-4.756401062,-0.167031616,-0.341982186,0.952659249
7.862995,17.984237671,-9.224327087,-4.893730164,-0.161782593,-0.337587655,0.955955148
7.863622,18.503036499,-9.086997986,-4.725883484,-0.162515014,-0.336855233,0.956687570
7.864248,18.739547729,-8.911521912,-4.702995300,-0.161172241,-0.338930428,0.959006906
7.864874,19.471969604,-8.858116150,-4.451225281,-0.162026733,-0.339052498,0.956687570
7.865500,19.616928101,-8.652122498,-4.603813171,-0.165688843,-0.339052498,0.957053781
7.866126,19.929733276,-8.446128845,-4.542778015,-0.165322632,-0.334047616,0.959983468
7.866752,20.311203003,-8.461387634,-4.306266785,-0.166177124,-0.335512459,0.964133859
7.867378,20.501937866,-8.407981873,-4.222343445,-0.162637085,-0.336489022,0.968284249
7.868008,20.677413940,-8.140953064,-4.344413757,-0.162026733,-0.333559334,0.967063546
7.868633,20.997848511,-8.240135193,-4.123161316,-0.166177124,-0.335024178,0.968406320
7.869259,21.188583374,-7.881553650,-4.077384949,-0.176186889,-0.333559334,0.974387765
7.869884,21.257247925,-8.102806091,-3.955314636,-0.170571655,-0.328310311,0.976951241
7.870510,21.341171265,-8.224876404,-3.909538269,-0.163247436,-0.330995858,0.980247140
7.871136,21.386947632,-7.706077576,-3.947685242,-0.161782593,-0.330995858,0.983420968
7.871761,21.837081909,-7.698448181,-3.787467957,-0.166665405,-0.333681405,0.980735421
7.872387,22.012557983,-7.408531189,-4.001091003,-0.173745483,-0.334169686,0.981345773
7.873012,21.936264038,-7.667930603,-3.512809753,-0.170693725,-0.333803475,0.983054757
7.873639,22.188034058,-7.461936951,-3.604362488,-0.163491577,-0.334169686,0.983909249
7.874266,22.302474976,-7.095726013,-3.543327332,-0.169228882,-0.331606209,0.980857491
7.874892,22.317733765,-6.935508728,-3.238151550,-0.172524780,-0.328188241,0.979758859
7.875517,21.928634644,-6.874473572,-3.436515808,-0.173501343,-0.326845467,0.972800851
7.876143,21.913375854,-6.760032654,-3.253410339,-0.181924194,-0.332216561,0.972678781
7.876768,22.050704956,-7.027061462,-3.093193054,-0.185464233,-0.324037850,0.974876046
7.877393,21.921005249,-7.049949646,-3.024528503,-0.188638061,-0.319765389,0.969260812
7.878020,21.600570679,-6.996543884,-3.070304871,-0.189126343,-0.318056405,0.966941476
7.878647,21.165695190,-7.164390564,-3.093193054,-0.196816772,-0.319155037,0.960227609
7.879272,20.761337280,-7.103355408,-2.971122742,-0.198281616,-0.324892342,0.958152413
7.879897,20.425643921,-7.172019958,-2.932975769,-0.203652710,-0.328188241,0.956321359
7.880523,20.448532104,-7.362754822,-2.849052429,-0.207192749,-0.327333748,0.950339913
7.882301,19.533004761,-7.744224548,-2.604911804,-0.222329468,-0.326357186,0.949363351
7.882926,19.395675659,-8.072288513,-2.559135437,-0.216836303,-0.329164803,0.953269601
7.883552,18.937911987,-8.240135193,-2.788017273,-0.217812866,-0.330507576,0.949485421
7.884178,18.579330444,-8.194358826,-2.482841492,-0.219399780,-0.324648201,0.951560616
7.884803,18.495407104,-8.514793396,-2.643058777,-0.221841186,-0.327577889,0.952048898
7.885430,18.228378296,-8.629234314,-2.482841492,-0.224282593,-0.328798592,0.954246163
7.886055,17.778244019,-8.881004333,-2.604911804,-0.227822632,-0.328432381,0.961326241
7.886681,17.221298218,-9.186180115,-2.597282410,-0.230996460,-0.329775155,0.964377999
7.887308,16.923751831,-9.369285583,-2.383659363,-0.224282593,-0.337343514,0.968528390
7.887934,17.373886108,-9.300621033,-2.513359070,-0.204263061,-0.356020272,1.004783273
7.888561,16.748275757,-8.369834900,-3.100822449,-0.173135132,-0.244081795,1.017722726
7.889188,14.558639526,-7.576377869,-2.871940613,-0.207192749,-0.230043709,1.040794015
7.889815,12.605514526,-7.851036072,-2.627799988,-0.268349975,-0.268129647,1.049705148
7.890441,11.407699585,-9.018333435,-2.566764832,-0.285683960,-0.294863045,1.057029366
7.891068,10.820236206,-10.040672302,-2.803276062,-0.242715210,-0.293031991,1.031882882
7.891693,10.179367065,-9.529502869,-2.665946960,-0.197793335,-0.282045662,0.990623116
7.892318,9.805526733,-8.667381287,-2.604911804,-0.202432007,-0.289980233,0.970359445
7.906317,-10.748062134,-1.091392517,-1.986930847,-0.251260132,-0.348207772,0.960715890
7.907332,-10.954055786,-0.862510681,-1.994560242,-0.247964233,-0.359804451,0.951560616
7.908133,-11.701736450,-0.595481873,-1.941154480,-0.244302124,-0.366030037,0.933250070
7.908758,-11.724624634,-0.267417908,-1.903007507,-0.239175171,-0.369325936,0.926536202
7.909383,-11.854324341,0.075904846,-1.956413269,-0.239297241,-0.372621834,0.921897531
7.910008,-12.151870728,0.236122131,-1.750419617,-0.243569702,-0.376650155,0.922385812
7.910635,-12.289199829,0.228492737,-1.742790222,-0.242837280,-0.375673592,0.923606515
7.911261,-12.464675903,0.281898499,-1.841972351,-0.242593139,-0.372743905,0.921531320
7.911886,-13.052139282,0.259010315,-1.658866882,-0.242226928,-0.376650155,0.920310616
7.912512,-13.555679321,0.167457581,-1.536796570,-0.237588257,-0.376772225,0.914573312
7.913137,-14.013442993,0.068275452,-1.498649597,-0.233071655,-0.376894295,0.910178781
7.913764,-14.196548462,0.152198792,-1.483390808,-0.241006225,-0.388979256,0.904441476
7.914390,-14.608535767,0.037757874,-1.170585632,-0.243935913,-0.396669686,0.900413156
7.915015,-14.829788208,-0.030906677,-1.254508972,-0.238320678,-0.401796639,0.892356515
7.915640,-14.875564575,-0.084312439,-1.368949890,-0.235513061,-0.408632576,0.885154366
7.916266,-14.867935181,-0.175865173,-0.987480164,-0.237832397,-0.417421639,0.880271554
7.916893,-14.501724243,0.091163635,-0.979850769,-0.239419311,-0.421938241,0.873069406
7.917518,-14.417800903,-0.046165466,-0.712821960,-0.241616577,-0.418764412,0.871360421
7.918143,-14.272842407,-0.145347595,-0.552604675,-0.240273803,-0.416323006,0.869407296
7.918770,-14.616165161,-0.122459412,-0.636528015,-0.232583374,-0.411562264,0.875510812
7.919395,-14.692459106,-0.099571228,-0.384757996,-0.237344116,-0.409853280,0.882346749
7.920022,-14.959487915,-0.206382751,-0.277946472,-0.237954468,-0.412782967,0.885520577
7.920648,-15.264663696,-0.000389099,-0.262687683,-0.241738647,-0.417665780,0.887351632
7.921275,-15.432510376,-0.030906677,-0.201652527,-0.236489624,-0.421205819,0.885398507
7.921902,-15.447769165,0.213233948,-0.216911316,-0.232583374,-0.422670662,0.888084054
7.922527,-15.424880981,0.266639709,0.011970520,-0.225869507,-0.423036873,0.888572335
7.923153,-15.340957642,0.510780334,0.256111145,-0.227212280,-0.425844491,0.891624093
7.923778,-15.165481567,0.678627014,0.248481750,-0.226479858,-0.431459725,0.891990304
7.924403,-14.990005493,0.999061584,0.553657532,-0.225869507,-0.428285897,0.895164132
7.926247,-14.669570923,1.456825256,0.759651184,-0.221597046,-0.425478280,0.899924874
7.926872,-14.486465454,1.792518616,0.904609680,-0.220254272,-0.420961678,0.897361398
7.927498,-14.326248169,2.143470764,1.064826965,-0.224770874,-0.421694100,0.897971749
7.928123,-14.158401489,2.250282288,1.209785461,-0.218911499,-0.421327889,0.897605538
7.928749,-14.028701782,2.486793518,1.049568176,-0.219765991,-0.421205819,0.896751046
7.929375,-14.074478149,2.524940491,1.354743958,-0.221352905,-0.414247811,0.897605538
7.930009,-13.899002075,2.944557190,1.568367004,-0.222939819,-0.415590584,0.893088937
7.930636,-13.853225708,3.120033264,1.545478821,-0.221719116,-0.415102303,0.894553781
7.931261,-13.525161743,2.997962952,1.873542786,-0.220864624,-0.412660897,0.892844796
7.931886,-13.555679321,3.188697815,1.629402161,-0.217568725,-0.413515389,0.893699288
7.932511,-13.227615356,3.257362366,1.896430969,-0.217324585,-0.406801522,0.891624093
7.933136,-13.128433228,3.295509338,1.926948547,-0.209878296,-0.406069100,0.894675851
7.933761,-12.983474731,3.486244202,1.812507629,-0.208901733,-0.399721444,0.899558663
7.934386,-12.777481079,3.455726624,2.003242493,-0.210000366,-0.392275155,0.900046945
7.935013,-12.754592896,3.814308167,1.812507629,-0.208413452,-0.393129647,0.901145577
7.935639,-12.930068970,3.661720276,2.377082825,-0.208657593,-0.391420662,0.901145577
7.936266,-12.899551392,3.966896057,2.399971008,-0.209267944,-0.390077889,0.904075265
7.936893,-12.678298950,3.982154846,2.277900696,-0.205849975,-0.392763436,0.907127023
7.937519,-12.357864380,4.020301819,2.369453430,-0.206216186,-0.389223397,0.905295968
7.951609,-2.363357544,5.195228577,2.438117981,-0.217324585,-0.330385506,0.940940499
7.952621,-0.997695923,4.775611877,2.071907043,-0.220010132,-0.323305428,0.944602609
7.953350,-0.280532837,4.874794006,2.041389465,-0.214150757,-0.322939217,0.947654366
7.954130,0.436630249,5.004493713,1.949836731,-0.216103882,-0.319399178,0.951560616
7.954864,1.878585815,5.126564026,1.713325500,-0.223306030,-0.314028084,0.959373116
7.955623,2.389755249,5.157081604,1.568367004,-0.224892944,-0.308534920,0.961936593
7.956364,3.022994995,5.149452209,1.499702454,-0.230996460,-0.310610116,0.962302804
7.957126,3.808822632,5.164710999,1.514961243,-0.232827514,-0.308901131,0.967185616
7.957850,4.419174194,5.088417053,1.347114563,-0.235635132,-0.308779061,0.966941476
7.958626,5.754318237,5.393592834,1.125862122,-0.238686889,-0.303163826,0.974265695
7.959356,6.357040405,5.385963440,0.996162415,-0.236611694,-0.305361092,0.979392648
7.960074,6.837692261,5.187599182,1.003791809,-0.241860718,-0.301210701,0.976585031
7.960798,7.554855347,5.408851624,0.759651184,-0.242959350,-0.302431405,0.981834054
7.961528,8.195724487,5.569068909,0.729133606,-0.244546264,-0.301943123,0.980002999
7.962232,8.600082397,5.767433167,0.607063293,-0.244180053,-0.298525155,0.986228585
7.962912,9.607162476,5.958168030,0.553657532,-0.247231811,-0.296572030,0.985374093
7.963648,10.331954956,6.194679260,0.462104797,-0.250283569,-0.299501717,0.990989327
7.964410,10.812606812,6.415931702,0.050117493,-0.252236694,-0.295717537,0.988425851
7.965152,11.277999878,6.759254456,0.126411438,-0.246865600,-0.297060311,0.987937570
7.965888,11.819686890,7.011024475,0.050117493,-0.245278686,-0.290712655,0.984763741
7.966664,12.140121460,7.117835999,-0.285575867,-0.247231811,-0.292177498,0.988914132
7.967410,12.994613647,7.972328186,-0.522087097,-0.245522827,-0.288027108,0.977439523
7.968161,13.192977905,8.002845764,-0.445793152,-0.248330444,-0.290224373,0.976707101
7.968882,13.360824585,8.239356995,-0.590751648,-0.244790405,-0.292787850,0.967429757
7.969636,13.696517944,8.231727600,-0.575492859,-0.247475952,-0.300112069,0.965354562
7.971671,14.306869507,8.163063049,-0.895927429,-0.247109741,-0.295717537,0.937034249
7.972446,14.139022827,8.323280334,-1.033256531,-0.254311889,-0.296205819,0.927390695
7.973197,14.001693726,8.262245178,-1.147697449,-0.258218139,-0.298647225,0.918845773
7.973992,13.810958862,8.163063049,-1.040885925,-0.254556030,-0.302553475,0.915549874
7.974737,13.849105835,7.918922424,-1.162956238,-0.246743530,-0.302919686,0.915183663
7.975525,13.177719116,7.491676331,-1.429985046,-0.242715210,-0.303530037,0.908347726
7.976309,13.185348511,7.400123596,-1.559684753,-0.244057983,-0.313295662,0.905418038
7.977051,12.986984253,6.957618713,-1.597831726,-0.242348999,-0.317568123,0.904929757
7.977839,12.956466675,6.370155334,-1.506278992,-0.237710327,-0.317812264,0.904563546
7.978619,13.093795776,5.599586487,-1.613090515,-0.237588257,-0.329653084,0.900291085
7.979371,13.261642456,5.271522522,-1.765678406,-0.234536499,-0.331850350,0.899924874
7.980135,13.284530640,4.912940979,-1.964042664,-0.233193725,-0.337343514,0.899924874
7.980932,13.292160034,4.294960022,-1.849601746,-0.230752319,-0.336000741,0.901877999
7.981696,13.658370972,3.676979065,-2.025077820,-0.228188843,-0.337709725,0.906516671
7.982466,13.627853394,3.600685120,-1.880119324,-0.230141968,-0.341982186,0.912986398
7.983207,13.971176147,3.188697815,-2.093742371,-0.229165405,-0.343813241,0.914451241
7.983991,13.528671265,2.738563538,-2.177665710,-0.224404663,-0.340395272,0.918479562
7.984758,13.902511597,2.692787170,-2.337882996,-0.223183960,-0.341493905,0.922629952
7.985513,13.582077026,2.051918030,-2.154777527,-0.227944702,-0.337343514,0.927756906
7.986293,13.833847046,1.922218323,-2.078483582,-0.227700561,-0.339052498,0.931052804
7.987040,13.452377319,1.899330139,-2.170036316,-0.225137085,-0.335146248,0.931296945
7.987837,13.208236694,1.937477112,-2.299736023,-0.224648803,-0.330141366,0.937766671
7.988540,12.483444214,2.181617737,-2.238700867,-0.225991577,-0.324037850,0.942527413
8.002911,-12.022171021,12.366859436,-1.292655945,-0.249917358,-0.322573006,0.900901437
8.003941,-12.930068970,12.496559143,-1.193473816,-0.257973999,-0.328920662,0.894919991
8.004697,-13.830337524,12.893287659,-1.361320496,-0.267983764,-0.332826912,0.885886788
8.005491,-15.287551880,13.335792542,-1.079032898,-0.267129272,-0.343447030,0.869651437
8.006262,-15.913162231,13.389198303,-1.231620789,-0.261758178,-0.341249764,0.862083077
8.007071,-16.805801392,13.694374084,-1.048515320,-0.267251343,-0.345766366,0.858420968
8.007837,-17.263565063,14.068214417,-1.254508972,-0.271645874,-0.347597420,0.852683663
8.008602,-17.950210571,13.923255920,-1.147697449,-0.284463257,-0.358095467,0.837546945
8.009349,-18.125686646,13.625709534,-0.873039246,-0.282021850,-0.362856209,0.834006906
8.010142,-18.423233032,13.808815002,-1.117179871,-0.271401733,-0.366152108,0.826194406
8.010876,-18.362197876,13.656227112,-1.086662292,-0.267129272,-0.369448006,0.822654366
8.011657,-18.278274536,13.381568909,-1.033256531,-0.277993530,-0.376161873,0.815330148
8.012427,-18.064651489,13.282386780,-0.934074402,-0.284829468,-0.380678475,0.814597726
8.013214,-17.812881470,12.786476135,-1.079032898,-0.265420288,-0.382265389,0.813254952
8.013957,-17.591629028,13.038246155,-1.140068054,-0.257485718,-0.387148201,0.813621163
8.014702,-17.049942017,13.015357971,-0.979850769,-0.272988647,-0.384828866,0.810691476
8.015495,-16.660842896,12.328712463,-1.162956238,-0.266763061,-0.383364022,0.805198312
8.016265,-16.370925903,12.092201233,-1.170585632,-0.258096069,-0.389101326,0.809592843
8.016890,-15.791091919,11.962501526,-1.017997742,-0.251504272,-0.392641366,0.810935616
8.017515,-15.211257935,11.802284241,-1.239250183,-0.254311889,-0.393984139,0.811912179
8.018166,-14.684829712,11.519996643,-0.819633484,-0.248696655,-0.393129647,0.813743234
8.018938,-14.158401489,11.092750549,-1.079032898,-0.245278686,-0.397524178,0.813254952
8.019645,-13.631973267,11.039344788,-1.071403503,-0.232827514,-0.396913826,0.814231515
8.020409,-12.190017700,10.932533264,-0.873039246,-0.229653686,-0.400087655,0.819968820
8.021200,-11.427078247,10.566322327,-0.979850769,-0.225137085,-0.398622811,0.821067452
8.023254,-8.993301392,10.230628967,-0.819633484,-0.218423218,-0.406069100,0.833640695
8.024009,-8.276138306,10.299293518,-1.025627136,-0.215371460,-0.399599373,0.837791085
8.024732,-6.612930298,10.123817444,-0.682304382,-0.217446655,-0.400698006,0.844627023
8.025492,-5.743179321,9.734718323,-0.628898621,-0.212807983,-0.398744881,0.847312570
8.026216,-4.758987427,10.421363831,-0.613639832,-0.202676147,-0.398012459,0.851829171
8.026875,-4.217300415,10.169593811,-0.331352234,-0.202187866,-0.396669686,0.859153390
8.027500,-3.309402466,10.207740784,-0.689933777,-0.206460327,-0.392519295,0.861350656
8.028125,-2.531204224,10.398475647,-0.445793152,-0.217080444,-0.396547616,0.865623116
8.028750,-1.913223267,9.994117737,-0.552604675,-0.210122436,-0.395693123,0.872947335
8.029377,-1.249465942,10.329811096,-0.506828308,-0.199624389,-0.391786873,0.876487374
8.030006,-0.669631958,10.360328674,-0.316093445,-0.205849975,-0.384462655,0.875999093
8.030632,0.192489624,10.230628967,-0.087211609,-0.214761108,-0.382631600,0.879172921
8.031258,0.779953003,10.329811096,-0.232170105,-0.211465210,-0.382143319,0.882346749
8.031883,1.344528198,10.345069885,-0.270317078,-0.207192749,-0.372621834,0.888084054
8.032508,1.962509155,10.398475647,-0.285575867,-0.206704468,-0.374574959,0.894187570
8.033134,2.633895874,10.421363831,-0.094841003,-0.213174194,-0.365541756,0.896140695
8.033760,3.343429565,10.215370178,-0.079582214,-0.224404663,-0.365907967,0.900657296
8.034407,3.511276245,10.222999573,-0.026176453,-0.215981811,-0.363466561,0.906150460
8.035176,4.358139038,10.154335022,-0.079582214,-0.213906616,-0.361147225,0.912620187
8.035813,4.785385132,10.139076233,-0.110099792,-0.213540405,-0.357118905,0.913596749
8.036551,5.739059448,10.383216858,0.073005676,-0.213296264,-0.343935311,0.922507882
8.037334,6.158676147,10.001747131,0.065376282,-0.220254272,-0.340395272,0.925559640
8.038131,6.639328003,10.161964417,-0.003288269,-0.225991577,-0.335146248,0.926902413
8.052462,8.371200562,6.316749573,-1.262138367,-0.260049194,-0.271547616,0.972434640
8.053208,7.989730835,6.583778381,-1.223991394,-0.262856811,-0.269106209,0.968650460
8.053834,7.867660522,6.637184143,-1.307914734,-0.259438843,-0.271181405,0.967063546
8.054461,7.486190796,6.759254456,-1.262138367,-0.256020874,-0.273256600,0.961814523
8.055087,6.944503784,7.102577209,-1.552055359,-0.252724975,-0.273500741,0.957297921
8.055714,6.707992554,7.346717834,-1.475761414,-0.263955444,-0.276918709,0.953025460
8.056339,6.425704956,7.369606018,-1.506278992,-0.268960327,-0.281313241,0.949851632
8.056966,6.585922241,6.988136292,-1.605461121,-0.272134155,-0.282411873,0.951560616
8.057592,6.044235229,7.094947815,-1.605461121,-0.271767944,-0.283876717,0.948752999
8.058217,5.670394897,7.049171448,-1.727531433,-0.266152710,-0.283022225,0.947898507
8.058843,5.388107300,7.117835999,-1.925895691,-0.267739624,-0.283754647,0.946067452
8.059470,5.044784546,7.049171448,-1.971672058,-0.269570678,-0.282778084,0.938010812
8.060096,4.861679077,6.965248108,-1.712272644,-0.270303100,-0.289980233,0.936790109
8.060723,4.663314819,6.850807190,-1.979301453,-0.269692749,-0.298647225,0.937888741
8.061349,4.739608765,6.888954163,-2.063224792,-0.269570678,-0.299501717,0.928977609
8.061974,4.693832397,6.782142639,-1.956413269,-0.272866577,-0.304140389,0.922507882
8.062601,4.777755737,6.690589905,-2.353141785,-0.273598999,-0.309389412,0.918479562
8.063228,4.648056030,6.621925354,-1.994560242,-0.274453491,-0.321840584,0.915794015
8.063854,5.006637573,6.759254456,-2.208183289,-0.271890014,-0.324404061,0.909446359
8.064480,5.220260620,6.797401428,-2.353141785,-0.272256225,-0.328188241,0.905295968
8.065105,5.670394897,6.736366272,-2.093742371,-0.272866577,-0.336244881,0.900779366
8.065730,6.074752808,6.599037170,-2.154777527,-0.277505249,-0.340273201,0.897727609
8.066355,6.784286499,6.530372620,-2.307365417,-0.277505249,-0.349062264,0.894553781
8.066980,7.554855347,6.454078674,-2.459953308,-0.279946655,-0.351625741,0.890647531
8.067606,8.279647827,6.469337463,-2.368400574,-0.275185913,-0.352114022,0.893211007
8.068231,8.920516968,6.469337463,-2.475212097,-0.272866577,-0.355165780,0.888694406
8.068858,9.912338257,6.469337463,-2.528617859,-0.269692749,-0.359926522,0.888816476
8.069483,10.354843140,6.545631409,-2.444694519,-0.271645874,-0.365907967,0.883567452
8.070109,11.567916870,6.583778381,-2.612541199,-0.270425171,-0.365663826,0.884177804
8.070734,12.513961792,6.560890198,-2.406547546,-0.272866577,-0.372499764,0.879661202
8.072519,15.588607788,6.789772034,-2.620170593,-0.271035522,-0.373110116,0.867454171
8.073144,16.565170288,6.896583557,-2.658317566,-0.276284546,-0.376283944,0.860984445
8.073770,17.755355835,6.835548401,-2.635429382,-0.278725952,-0.375917733,0.863059640
8.074395,18.846359253,6.682960510,-2.589653015,-0.276772827,-0.374941170,0.858298898
8.075022,19.700851440,6.728736877,-2.620170593,-0.278115600,-0.368105233,0.852927804
8.075647,20.807113647,6.499855042,-2.757499695,-0.280557007,-0.368593514,0.846458077
8.076272,21.516647339,6.507484436,-2.627799988,-0.277871460,-0.371401131,0.842918038
8.077040,22.638168335,6.484596252,-2.864311218,-0.278359741,-0.363100350,0.839744210
8.084242,30.000534058,3.623573303,-3.085563660,-0.278970093,-0.321108162,0.797996163
8.084867,30.351486206,3.036109924,-2.963493347,-0.281045288,-0.326601326,0.794334054
8.085492,30.542221069,2.624122620,-2.994010925,-0.280068725,-0.325868905,0.797507882
8.086119,31.251754761,2.173988342,-3.261039734,-0.279214233,-0.327455819,0.796653390
8.086745,31.602706909,1.578895569,-3.230522156,-0.271401733,-0.324892342,0.803733468
8.087370,31.808700562,1.319496155,-3.337333679,-0.275430053,-0.319155037,0.810569406
8.087996,32.647933960,0.876991272,-3.367851257,-0.276162475,-0.325990975,0.816917062
8.088622,32.914962769,0.243751526,-3.360221863,-0.280312866,-0.326357186,0.829002023
8.089248,33.532943726,-0.236900330,-3.421257019,-0.277139038,-0.329897225,0.838035226
8.089874,33.937301636,-0.664146423,-3.589103699,-0.268716186,-0.330141366,0.851829171
8.103865,33.510055542,-1.472862244,-3.802726746,-0.220376343,-0.267153084,1.044334054
8.104595,33.037033081,-1.503379822,-3.657768250,-0.216348022,-0.276186287,1.045066476
8.105221,32.304611206,-0.984580994,-3.619621277,-0.219643921,-0.285097420,1.049216866
8.105848,31.900253296,-0.732810974,-3.764579773,-0.216470093,-0.282045662,1.051780343
8.106473,31.091537476,-0.030906677,-3.604362488,-0.214883178,-0.275698006,1.052756906
8.107098,30.382003784,0.510780334,-3.520439148,-0.218789428,-0.271913826,1.050315499
8.107724,29.435958862,0.693885803,-3.611991882,-0.216103882,-0.275575936,1.055442452
8.108349,28.558578491,1.517860413,-3.779838562,-0.213052124,-0.277162850,1.060813546
8.108975,27.711715698,2.143470764,-3.512809753,-0.214150757,-0.285951912,1.065452218
8.109601,27.032699585,2.776710510,-3.879020691,-0.206460327,-0.284364998,1.068503976
8.110227,26.582565308,3.379432678,-3.848503113,-0.205117553,-0.284487069,1.069968820
8.110854,25.636520386,4.127113342,-3.680656433,-0.207681030,-0.285829842,1.072044015
8.111480,25.056686401,4.745094299,-3.726432800,-0.205239624,-0.289125741,1.075217843
8.112106,24.049606323,5.164710999,-3.604362488,-0.215249389,-0.301698983,1.082175851
8.112732,23.790206909,5.721656799,-3.276298523,-0.223428100,-0.305116951,1.088401437
8.113357,23.279037476,5.637733459,-3.604362488,-0.222329468,-0.308534920,1.089622140
8.113983,22.821273804,6.187049866,-3.642509460,-0.214150757,-0.308412850,1.095359445
8.114610,22.271957397,6.805030823,-3.497550964,-0.216103882,-0.306825936,1.095725656
8.115237,21.470870972,6.866065979,-3.520439148,-0.207558960,-0.307192147,1.097434640
8.115864,21.234359741,7.575599670,-3.390739441,-0.229287475,-0.316347420,1.097312570
8.116489,21.211471558,7.438270569,-3.291557312,-0.233315796,-0.326235116,1.103904366
8.117114,20.776596069,7.758705139,-3.329704285,-0.228555053,-0.330385506,1.100486398
8.117741,20.418014526,8.246986389,-3.169487000,-0.240884155,-0.333315194,1.097922921
8.118367,20.196762085,8.437721252,-3.268669128,-0.225991577,-0.341493905,1.092673898
8.118993,20.326461792,8.987037659,-3.138969421,-0.232461303,-0.348696053,1.097190499
8.119620,20.440902710,9.078590393,-3.016899109,-0.229775757,-0.351503670,1.103049874
8.120246,20.410385132,9.223548889,-2.795646667,-0.234902710,-0.356508553,1.102927804
8.120871,20.524826050,9.788124084,-2.879570007,-0.242715210,-0.355043709,1.104270577
8.121496,20.830001831,9.780494690,-2.803276062,-0.236367553,-0.357240975,1.108909249
8.122122,20.814743042,10.108558655,-2.734611511,-0.236489624,-0.352236092,1.108176827
8.123932,20.524826050,11.077491760,-2.765129089,-0.225137085,-0.350771248,1.098533273
8.124559,20.036544800,11.825172424,-2.658317566,-0.230386108,-0.359316170,1.090598702
8.125186,20.250167847,12.504188538,-2.810905457,-0.233804077,-0.362489998,1.092795968
8.125811,20.730819702,12.549964905,-2.635429382,-0.242348999,-0.373842537,1.096580148
8.126438,21.173324585,12.611000061,-2.383659363,-0.238686889,-0.370546639,1.103904366
8.127064,21.707382202,12.633888245,-2.482841492,-0.250283569,-0.363588631,1.110007882
8.127689,21.684494019,12.626258850,-2.406547546,-0.248208374,-0.362612069,1.114524484
8.128315,21.562423706,12.710182190,-2.437065125,-0.247475952,-0.367250741,1.127463937
8.128941,22.233810425,12.755958557,-2.284477234,-0.249307007,-0.352358162,1.140769601
8.129567,22.622909546,12.191383362,-2.147148132,-0.254922241,-0.366030037,1.156516671
8.130193,22.683944702,12.023536682,-2.009819031,-0.247598022,-0.348818123,1.147239327
8.130818,21.692123413,12.794105530,-1.918266296,-0.239907593,-0.340517342,1.141379952
8.131443,21.890487671,12.839881897,-1.994560242,-0.257363647,-0.397402108,1.175559640
8.132069,24.659957886,11.603919983,-1.765678406,-0.294839233,-0.467836678,1.228049874
8.132694,29.275741577,8.651344299,-1.475761414,-0.311440796,-0.491030037,1.289817452
8.133321,31.617965698,6.553260803,-0.842521667,-0.307778686,-0.429384530,1.302878976
8.133946,31.244125366,6.148902893,-1.071403503,-0.285561889,-0.398500741,1.328147531
8.134571,33.700790405,4.355995178,-1.162956238,-0.369546264,-0.473818123,1.461814523
8.148566,29.184188843,26.015846252,-0.964591980,-0.251015991,-0.428652108,1.288474679
8.149354,29.306259155,27.274696350,-2.856681824,-0.280434936,-0.313173592,1.233298898
8.149980,27.948226929,29.548255920,-2.299736023,-0.189858764,-0.229311287,1.181419015
8.150605,27.788009644,31.463233948,-2.002189636,-0.116494507,-0.226747811,1.188132882
8.151232,27.681198120,33.683387756,-1.315544128,-0.118569702,-0.212587655,1.184104562
8.151859,25.689926147,36.216346741,-0.712821960,-0.155434936,-0.220644295,1.196799874
8.152484,23.263778687,38.291542053,-1.239250183,-0.224892944,-0.230531991,1.221824288
8.153109,21.455612183,39.733497620,-1.796195984,-0.272378296,-0.202944100,1.229148507
8.153736,19.311752319,40.313331604,-2.246330261,-0.267617553,-0.165712655,1.237327218
8.154361,16.977157593,40.435401917,-2.398918152,-0.261758178,-0.149843514,1.239280343
8.154986,14.627304077,40.069190979,-2.055595398,-0.241982788,-0.156191170,1.254661202
8.155612,11.926498413,40.259925842,-1.834342957,-0.232583374,-0.179506600,1.260642648
8.156237,9.439315796,40.763465881,-1.643608093,-0.238931030,-0.208803475,1.261619210
8.156862,6.906356812,41.267005920,-1.674125671,-0.251992553,-0.226381600,1.252708077
8.157487,5.205001831,41.289894104,-1.941154480,-0.255532593,-0.230654061,1.242698312
8.158113,4.144515991,41.114418030,-1.719902039,-0.257851928,-0.232363045,1.226096749
8.158738,3.190841675,40.999977112,-1.460502625,-0.263100952,-0.245912850,1.215720773
8.159364,2.412643433,41.274635315,-1.491020203,-0.266396850,-0.263246834,1.211936593
8.159991,1.626815796,41.106788635,-1.544425964,-0.271767944,-0.289980233,1.201926827
8.160618,1.382675171,41.457740784,-1.826713562,-0.253945678,-0.305727303,1.197898507
8.161245,1.283493042,41.640846252,-1.697013855,-0.239419311,-0.327577889,1.188499093
8.161871,1.809921265,42.701332092,-2.131889343,-0.216348022,-0.346987069,1.174338937
8.162497,2.984848022,43.487159729,-1.697013855,-0.211221069,-0.362612069,1.160544991
8.163123,4.228439331,44.021217346,-1.429985046,-0.224038452,-0.380556405,1.150169015
8.163749,5.555953979,44.852821350,-1.361320496,-0.244668335,-0.397890389,1.141624093
8.164375,7.203903198,45.562355042,-1.513908386,-0.242226928,-0.413881600,1.138816476
8.165008,9.118881226,46.241371155,-1.788566589,-0.248086303,-0.425112069,1.138938546
8.165634,10.858383179,46.828834534,-2.147148132,-0.238686889,-0.423769295,1.134666085
8.166260,12.872543335,46.950904846,-1.765678406,-0.245766968,-0.420107186,1.133811593
8.166886,14.535751343,47.385780334,-1.414726257,-0.240151733,-0.411684334,1.127830148
8.168700,20.158615112,47.759620667,-1.483390808,-0.245644897,-0.408876717,1.109031320
8.169325,21.585311890,47.629920959,-1.719902039,-0.244668335,-0.405824959,1.102073312
8.169952,22.928085327,47.462074280,-1.735160828,-0.246011108,-0.402773201,1.093406320
8.170577,24.698104858,47.057716370,-1.658866882,-0.253701538,-0.393984139,1.084861398
8.171202,25.956954956,46.569435120,-1.498649597,-0.251260132,-0.390932381,1.075217843
8.171827,27.253952026,46.287147522,-1.452873230,-0.247720093,-0.386659920,1.067527413
8.172452,28.261032104,46.119300842,-1.437614441,-0.243935913,-0.386415780,1.051780343
8.173079,28.848495483,46.020118713,-1.666496277,-0.238198608,-0.382631600,1.031150460
8.173704,29.649581909,45.943824768,-1.536796570,-0.251138061,-0.378237069,1.014793038
8.174331,30.885543823,45.745460510,-1.460502625,-0.247475952,-0.379213631,0.993796945
8.174957,32.380905151,45.318214417,-1.544425964,-0.261147827,-0.383364022,0.982200265
8.175582,33.616867065,45.180885315,-1.513908386,-0.256142944,-0.377870858,0.970115304
8.176207,34.448471069,44.921485901,-1.544425964,-0.252358764,-0.376528084,0.952048898
8.176833,34.898605347,45.150367737,-1.429985046,-0.256875366,-0.366640389,0.941428781
8.177459,35.600509644,45.066444397,-1.559684753,-0.262612671,-0.359926522,0.934836984
8.178085,36.935653687,45.074073792,-1.414726257,-0.262490600,-0.365053475,0.929343820
8.178712,37.675704956,44.684974670,-1.391838074,-0.261514038,-0.358583748,0.924583077
8.179349,38.194503784,44.776527405,-1.208732605,-0.240029663,-0.348940194,0.915794015
8.193268,20.059432983,33.599464417,2.354194641,-0.231850952,-0.333071053,0.778220773
8.193981,19.670333862,33.828346252,2.605964661,-0.226113647,-0.353456795,0.761863351
8.194607,19.098129272,34.179298401,3.101875305,-0.235879272,-0.365297616,0.743186593
8.195232,18.846359253,34.926979065,3.201057434,-0.251015991,-0.358339608,0.736472726
8.195858,18.258895874,35.262672424,3.185798645,-0.265054077,-0.333071053,0.724631906
8.196484,17.404403687,35.453407288,3.346015930,-0.273354858,-0.290224373,0.710105538
8.197109,16.633834839,35.216896057,3.361274719,-0.275796264,-0.258364022,0.700950265
8.197735,14.970626831,35.575477600,3.429939270,-0.279824585,-0.247377694,0.703391671
8.198360,13.391342163,35.552589417,3.506233215,-0.286294311,-0.258486092,0.700217843
8.198987,11.812057495,35.895912170,3.315498352,-0.291177124,-0.264345467,0.692161202
8.199614,10.202255249,35.819618225,3.269721985,-0.270913452,-0.266420662,0.685081124
8.200240,9.286727905,36.124794006,3.529121399,-0.323525757,-0.241152108,0.672874093
8.200865,7.997360229,35.697547913,3.819038391,-0.312417358,-0.264711678,0.676536202
8.201490,7.005538940,35.026161194,3.437568665,-0.332558960,-0.252260506,0.678855538
8.202115,6.112899780,34.484474182,3.422309875,-0.326943725,-0.256410897,0.688743234
8.202741,4.876937866,33.912269592,3.475715637,-0.327676147,-0.274111092,0.694480538
8.203367,4.136886597,33.370582581,3.475715637,-0.322060913,-0.270571053,0.707542062
8.203992,3.640975952,33.034889221,3.468086243,-0.316689819,-0.274111092,0.713035226
8.204619,2.939071655,32.279579163,3.536750793,-0.310220093,-0.280092537,0.718406320
8.205246,2.488937378,32.096473694,3.170539856,-0.306802124,-0.298036873,0.727073312
8.205872,2.183761597,31.966773987,3.231575012,-0.313515991,-0.307192147,0.741355538
8.206499,2.694931030,31.211463928,3.407051086,-0.316201538,-0.318544686,0.757346749
8.207125,3.297653198,30.303565979,3.468086243,-0.320229858,-0.333925545,0.776511788
8.207752,4.144515991,29.899208069,3.506233215,-0.327554077,-0.338686287,0.793967843
8.208377,4.670944214,29.273597717,3.559638977,-0.328530639,-0.341371834,0.815208077
8.209007,5.586471558,28.480140686,3.490974426,-0.326211303,-0.340883553,0.827659249
8.209632,6.166305542,27.854530334,3.681709290,-0.329140991,-0.340883553,0.842185616
8.210258,7.181015015,27.061073303,3.643562317,-0.325723022,-0.348696053,0.858787179
8.210885,8.394088745,26.374427795,3.574897766,-0.315591186,-0.345156014,0.862937570
8.211512,9.317245483,26.412574768,3.300239563,-0.322427124,-0.349062264,0.866965890
8.213281,13.009872437,25.397865295,3.422309875,-0.311196655,-0.352846444,0.876975656
8.213907,14.001693726,25.580970764,3.361274719,-0.312173218,-0.341371834,0.878562570
8.214534,14.825668335,25.718299866,3.208686829,-0.315591186,-0.330507576,0.875999093
8.215160,15.626754761,25.832740784,3.094245911,-0.320840210,-0.321718514,0.875632882
8.215786,16.099777222,26.519386292,2.934028625,-0.321328491,-0.314150155,0.879294991
8.216411,16.870346069,26.374427795,3.315498352,-0.333413452,-0.315737069,0.881003976
8.217038,17.412033081,26.282875061,3.140022278,-0.328896850,-0.305361092,0.881614327
8.217664,17.228927612,26.534645081,2.918769836,-0.326577514,-0.279604256,0.880515695
8.218290,16.504135132,27.152626038,3.033210754,-0.326089233,-0.239565194,0.875266671
8.218916,15.680160522,27.236549377,2.827217102,-0.336221069,-0.212831795,0.864768624
8.219542,14.329757690,27.579872131,2.613594055,-0.340981811,-0.207704842,0.864402413
8.220169,13.025131226,27.358619690,2.796699524,-0.356850952,-0.206850350,0.865989327
8.220795,11.804428101,27.106849670,2.712776184,-0.358926147,-0.208925545,0.864402413
8.221422,10.759201050,27.053443909,2.422859192,-0.361245483,-0.206972420,0.858665109
8.222048,9.340133667,26.870338440,2.712776184,-0.355874389,-0.187319100,0.849143624
8.222674,7.295455933,26.977149963,2.384712219,-0.352944702,-0.158998787,0.841697335
8.223300,5.403366089,27.068702698,2.544929504,-0.343667358,-0.143617928,0.834128976
8.223926,3.175582886,27.267066956,2.575447083,-0.347207397,-0.136537850,0.831077218
8.224552,1.054611206,27.518836975,2.651741028,-0.350991577,-0.139101326,0.829734445
8.238512,-9.466323853,27.808753967,-0.194023132,-0.342812866,-0.251650155,0.850608468
8.239248,-8.161697388,28.358070374,-0.407646179,-0.330239624,-0.246645272,0.833518624
8.239874,-5.972061157,28.747169495,-0.255058289,-0.320473999,-0.231996834,0.816062570
8.240500,-4.118118286,28.991310120,-0.270317078,-0.318642944,-0.223329842,0.811301827
8.241127,-2.172622681,29.624549866,-0.461051941,-0.328774780,-0.234316170,0.810569406
8.241752,-0.784072876,30.715553284,-0.850151062,-0.328530639,-0.240663826,0.811301827
8.242378,2.961959839,31.402198792,-1.437614441,-0.343667358,-0.248720467,0.812766671
8.243006,4.770126343,31.226722717,-1.613090515,-0.345376343,-0.241884530,0.814841866
8.243632,6.685104370,30.715553284,-1.704643250,-0.340249389,-0.234804451,0.816794991
8.244258,8.470382690,30.654518127,-1.750419617,-0.338906616,-0.220522225,0.816917062
8.244885,9.431686401,30.654518127,-1.697013855,-0.350015014,-0.207582772,0.813621163
8.245511,9.820785522,30.212013245,-2.009819031,-0.356484741,-0.198915780,0.807883859
8.246137,10.499801636,29.807655334,-1.895378113,-0.359048218,-0.195986092,0.805930734
8.246762,11.361923218,29.128639221,-2.238700867,-0.353677124,-0.195986092,0.803977609
8.247387,11.865463257,28.701393127,-2.368400574,-0.348061889,-0.199159920,0.798118234
8.248012,12.430038452,28.052894592,-2.307365417,-0.344643921,-0.199770272,0.793357491
8.248637,13.131942749,27.549354553,-2.421806335,-0.340615600,-0.193788826,0.786887765
8.249264,13.299789429,26.794044495,-2.505729675,-0.343179077,-0.189638436,0.779929757
8.249891,13.337936401,26.366798401,-2.734611511,-0.334756225,-0.187197030,0.779563546
8.250518,13.749923706,26.191322327,-2.887199402,-0.328774780,-0.190370858,0.773093820
8.251143,14.154281616,25.779335022,-3.024528503,-0.321206421,-0.201723397,0.769919991
8.251769,14.642562866,25.863258362,-3.177116394,-0.315102905,-0.211244881,0.768455148
8.252395,15.184249878,25.596229553,-3.116081238,-0.313393921,-0.219545662,0.763450265
8.253021,15.909042358,25.359718323,-3.200004578,-0.310830444,-0.229677498,0.757346749
8.253646,16.694869995,25.527565002,-3.535697937,-0.304238647,-0.228334725,0.757835031
8.254272,17.541732788,25.756446838,-3.680656433,-0.301919311,-0.229189217,0.755271554
8.254898,18.037643433,26.008216858,-3.657768250,-0.297158569,-0.225160897,0.756003976
8.255524,18.777694702,25.962440491,-4.008720398,-0.292519897,-0.221864998,0.758567452
8.256149,19.342269897,26.282875061,-3.810356140,-0.292764038,-0.226381600,0.763572335
8.256776,19.876327515,26.412574768,-3.650138855,-0.295815796,-0.224306405,0.762595773
8.258556,20.456161499,26.778785706,-4.107902527,-0.295327514,-0.207826912,0.776023507
8.259182,20.517196655,26.580421448,-4.001091003,-0.300332397,-0.199281991,0.775901437
8.259808,20.540084839,26.694862366,-4.199455261,-0.300820678,-0.186098397,0.784446359
8.260434,20.120468140,26.588050842,-4.245231628,-0.305337280,-0.174745858,0.791038156
8.261059,19.319381714,26.397315979,-4.130790710,-0.306924194,-0.171572030,0.791770577
8.261685,18.579330444,26.023475647,-4.237602234,-0.303872436,-0.160097420,0.790794015
8.262310,17.556991577,26.015846252,-4.161308289,-0.306680053,-0.151918709,0.786155343
8.262936,16.382064819,25.596229553,-4.138420105,-0.311929077,-0.148256600,0.778709054
8.263563,15.214767456,25.306312561,-4.161308289,-0.311074585,-0.141664803,0.764426827
8.264188,14.100875854,25.092689514,-4.458854675,-0.310830444,-0.141542733,0.752708077
8.264813,12.758102417,25.008766174,-4.207084656,-0.309243530,-0.140566170,0.737449288
8.265438,11.583175659,25.069801331,-4.390190125,-0.308389038,-0.139833748,0.727805734
8.266065,10.270919800,25.176612854,-4.497001648,-0.313149780,-0.144716561,0.713035226
8.266691,9.195175171,25.138465881,-4.603813171,-0.310464233,-0.142397225,0.702170968
8.267317,7.852401733,24.917213440,-4.580924988,-0.301919311,-0.144838631,0.691184640
8.267944,6.761398315,25.138465881,-4.725883484,-0.304116577,-0.146913826,0.683005929
8.268569,5.815353394,25.046913147,-4.748771667,-0.303994507,-0.142397225,0.674949288
8.282488,-13.219985962,15.708534241,-5.565116882,-0.335854858,-0.219301522,0.652854562
8.283251,-13.143692017,15.258399963,-5.771110535,-0.335244507,-0.224550545,0.655540109
8.283876,-12.815628052,14.922706604,-5.778739929,-0.336831421,-0.227968514,0.658713937
8.284501,-12.388381958,14.258949280,-5.809257507,-0.333535522,-0.227968514,0.662253976
8.285127,-12.243423462,14.136878967,-5.923698425,-0.334023803,-0.231752694,0.666404366
8.285752,-11.823806763,13.862220764,-5.999992371,-0.329385132,-0.233461678,0.670554757
8.286379,-11.327896118,13.373939514,-5.893180847,-0.328774780,-0.236025155,0.672507882
8.287007,-10.877761841,12.923805237,-5.908439636,-0.325723022,-0.237123787,0.673728585
8.287633,-10.381851196,12.794105530,-5.992362976,-0.323159546,-0.241030037,0.677268624
8.288258,-9.618911743,12.611000061,-6.137321472,-0.318154663,-0.241518319,0.679465890
8.288884,-8.909378052,12.046424866,-6.022880554,-0.318032593,-0.240663826,0.680198312
8.289511,-8.367691040,11.863319397,-6.389091492,-0.315224975,-0.238710701,0.680442452
8.290136,-7.566604614,11.672584534,-6.404350281,-0.310220093,-0.239687264,0.683127999
8.290762,-7.017288208,11.359779358,-6.221244812,-0.308144897,-0.241152108,0.685203195
8.291388,-6.208572388,11.001197815,-6.427238464,-0.305825561,-0.241518319,0.684714913
8.292013,-5.369338989,10.924903870,-6.495903015,-0.303140014,-0.241152108,0.683372140
8.292638,-4.705581665,10.718910217,-6.602714539,-0.303994507,-0.240297616,0.681052804
8.293265,-4.095230103,10.596839905,-6.511161804,-0.299844116,-0.239321053,0.676047921
8.293890,-3.393325806,10.345069885,-6.694267273,-0.305093139,-0.243715584,0.676169991
8.294516,-2.676162720,10.284034729,-6.823966980,-0.307412475,-0.239076912,0.673240304
8.295142,-1.890335083,9.910194397,-6.686637878,-0.312173218,-0.239076912,0.668479562
8.295768,-1.356277466,9.482948303,-6.968925476,-0.316323608,-0.234926522,0.661643624
8.296393,-0.929031372,9.467689514,-6.526420593,-0.321938843,-0.230654061,0.657615304
8.297019,-0.196609497,9.093849182,-6.778190613,-0.327798218,-0.227968514,0.648582101
8.297645,0.398483276,8.864967346,-7.113883972,-0.333291382,-0.225038826,0.644431710
8.298271,0.596847534,8.361427307,-7.007072449,-0.336465210,-0.216249764,0.638572335
8.298897,0.764694214,7.834999084,-6.915519714,-0.340127319,-0.208925545,0.633567452
8.299524,1.268234253,7.606117249,-7.090995789,-0.349404663,-0.202944100,0.630149484
8.300150,1.367416382,7.018653870,-7.251213074,-0.351846069,-0.195009530,0.623435616
8.300775,1.092758179,6.484596252,-7.129142761,-0.359658569,-0.189028084,0.617332101
8.302538,0.085678101,4.813758850,-7.403800964,-0.371987671,-0.170351326,0.607200265
8.303164,-0.265274048,4.317848206,-7.312248230,-0.375649780,-0.165712655,0.597556710
8.303791,-0.730667114,3.478614807,-7.663200378,-0.380166382,-0.161196053,0.596458077
8.304417,-1.264724731,2.730934143,-7.609794617,-0.380410522,-0.155702889,0.594138741
8.305042,-1.844558716,2.021400452,-7.525871277,-0.383340210,-0.153017342,0.593406320
8.305669,-2.668533325,1.105873108,-7.724235535,-0.382607788,-0.149355233,0.590842843
8.306296,-3.271255493,0.632850647,-7.609794617,-0.383950561,-0.141542733,0.590110421
8.306923,-4.179153442,-0.336082458,-7.716606140,-0.382241577,-0.142763436,0.592918038
8.307550,-4.881057739,-1.182945251,-8.006523132,-0.384316772,-0.141298592,0.594871163
8.308175,-5.689773560,-1.778038025,-7.960746765,-0.380288452,-0.140322030,0.595115304
8.308801,-6.559524536,-2.235801697,-8.014152527,-0.380044311,-0.139345467,0.598289132
8.309428,-7.513198853,-3.013999939,-8.021781921,-0.380898803,-0.139467537,0.604514718
8.310053,-8.489761353,-3.647239685,-8.212516785,-0.378213257,-0.138735116,0.611961007
8.310680,-9.542617798,-4.547508240,-8.319328308,-0.378457397,-0.137270272,0.615867257
8.311305,-10.061416626,-5.119712830,-8.655021667,-0.372842163,-0.140077889,0.625877023
8.311930,-11.015090942,-5.714805603,-8.426139832,-0.370278686,-0.138735116,0.634055734
8.312556,-11.846694946,-6.210716248,-8.487174988,-0.368203491,-0.139345467,0.642112374
8.313183,-12.678298950,-6.836326599,-8.685539246,-0.365517944,-0.140688241,0.646628976
8.327154,-13.174209595,-11.383445740,-10.547111511,-0.391396850,-0.240907967,0.765891671
8.334603,-1.470718384,-12.321861267,-11.203239441,-0.393105835,-0.276430428,0.775535226
8.335229,-0.448379517,-12.428672791,-11.355827332,-0.392495483,-0.279848397,0.776145577
8.335856,0.886764526,-12.649925232,-11.523674011,-0.387246460,-0.281435311,0.775901437
8.336483,1.954879761,-12.848289490,-11.493156433,-0.389321655,-0.284975350,0.776633859
8.337108,3.244247437,-12.810142517,-11.317680359,-0.383096069,-0.285707772,0.774436593
8.337734,4.091110229,-13.031394958,-11.607597351,-0.381875366,-0.289736092,0.778586984
8.338359,5.311813354,-13.008506775,-11.508415222,-0.377969116,-0.287172616,0.775779366
8.338984,6.227340698,-13.359458923,-11.653373718,-0.373940796,-0.290956795,0.775657296
8.339611,7.127609253,-13.397605896,-11.622856140,-0.373818725,-0.288637459,0.777000070
8.340237,7.898178101,-13.611228943,-11.538932800,-0.369668335,-0.287050545,0.777610421
8.340864,8.813705444,-13.496788025,-11.653373718,-0.365762085,-0.289736092,0.783225656
8.341490,9.652938843,-13.855369568,-11.935661316,-0.361001343,-0.290224373,0.783958077
8.342116,10.515060425,-13.870628357,-11.783073425,-0.358926147,-0.289491951,0.784812570
8.342742,11.186447144,-13.840110779,-11.760185242,-0.351723999,-0.290102303,0.787620187
8.343367,11.888351440,-14.023216248,-11.645744324,-0.353921264,-0.291445076,0.793845773
8.343993,12.361373901,-14.152915955,-11.805961609,-0.350259155,-0.287660897,0.792136788
8.344619,12.796249390,-14.084251404,-11.661003113,-0.348061889,-0.289980233,0.791160226
8.345245,13.131942749,-14.030845642,-11.599967957,-0.342934936,-0.292543709,0.791404366
8.347142,13.841476440,-13.924034119,-11.439750671,-0.334023803,-0.290956795,0.801414132
8.347769,14.093246460,-13.786705017,-11.287162781,-0.329629272,-0.293154061,0.809348702
8.348395,14.062728882,-13.779075623,-11.348197937,-0.327309936,-0.291445076,0.808372140
8.349020,14.146652222,-13.817222595,-11.264274597,-0.322549194,-0.287660897,0.814597726
8.349646,14.024581909,-13.557823181,-11.180351257,-0.317910522,-0.293276131,0.817527413
8.350272,13.940658569,-13.237388611,-11.088798523,-0.314614624,-0.293276131,0.818381906
8.350897,13.627853394,-13.176353455,-10.806510925,-0.314126343,-0.294008553,0.821799874
8.351523,13.185348511,-13.008506775,-10.791252136,-0.306435913,-0.292909920,0.821677804
8.352150,12.788619995,-12.726219177,-10.531852722,-0.305215210,-0.296083748,0.823630929
8.352777,12.369003296,-12.558372498,-10.379264832,-0.302773803,-0.295595467,0.822410226
8.353403,11.911239624,-12.367637634,-10.318229675,-0.297280639,-0.299135506,0.823020577
8.354029,11.232223511,-12.024314880,-10.074089050,-0.295937866,-0.299379647,0.826072335
8.354654,10.660018921,-12.085350037,-9.929130554,-0.295937866,-0.300722420,0.820335031
8.355279,10.225143433,-11.734397888,-9.791801453,-0.294228882,-0.299989998,0.816794991
8.355904,9.584274292,-11.604698181,-9.631584167,-0.291299194,-0.302553475,0.816917062
8.356530,8.912887573,-11.314781189,-9.334037781,-0.290688843,-0.302431405,0.812156320
8.357155,8.622970581,-11.215599060,-9.135673523,-0.292153686,-0.303896248,0.812156320
8.357780,7.593002319,-11.162193298,-9.196708679,-0.292153686,-0.304628670,0.807883859
8.358405,7.066574097,-10.849388123,-8.998344421,-0.286782593,-0.306703866,0.807395577
8.359031,6.494369507,-10.811241150,-8.723686218,-0.290322632,-0.309389412,0.805198312
8.359656,5.815353394,-10.673912048,-8.632133484,-0.292519897,-0.310365975,0.801414132
8.360281,5.014266968,-10.605247498,-8.464286804,-0.291665405,-0.313295662,0.797507882
8.360907,4.274215698,-10.605247498,-8.075187683,-0.287148803,-0.313906014,0.795554757
8.361532,3.694381714,-10.498435974,-8.006523132,-0.287515014,-0.314638436,0.794211984
8.362157,3.175582886,-10.162742615,-7.777641296,-0.288979858,-0.317812264,0.789451241
8.362782,2.511825562,-10.269554138,-7.449577332,-0.289956421,-0.321718514,0.788718820
8.363408,1.947250366,-10.300071716,-7.174919128,-0.287881225,-0.321352303,0.782493234
8.364033,1.481857300,-10.139854431,-7.121513367,-0.288613647,-0.322206795,0.785544991
8.378079,-4.865798950,-14.221580505,-2.559135437,-0.290078491,-0.335512459,0.747336984
8.379128,-5.163345337,-14.580162048,-2.147148132,-0.291543335,-0.329286873,0.746482491
8.379851,-5.155715942,-14.870079041,-1.956413269,-0.292641968,-0.330385506,0.746482491
8.380476,-5.254898071,-15.266807556,-1.620719910,-0.295937866,-0.324770272,0.748191476
8.381102,-5.384597778,-15.388877869,-1.674125671,-0.298867553,-0.322328866,0.745017648
8.381727,-5.582962036,-16.029747009,-1.376579285,-0.299966186,-0.322695076,0.747214913
8.382354,-5.872879028,-16.228111267,-1.147697449,-0.305093139,-0.319765389,0.745139718
8.382979,-5.834732056,-16.579063416,-0.964591980,-0.304238647,-0.316225350,0.746604562
8.383605,-6.124649048,-16.899497986,-1.079032898,-0.309975952,-0.314394295,0.745017648
8.384230,-6.239089966,-17.349632263,-0.674674988,-0.313760132,-0.306825936,0.742576241
8.384942,-6.475601196,-17.570884705,-0.628898621,-0.310586303,-0.306825936,0.741721749
8.385568,-6.704483032,-18.028648376,-0.499198914,-0.318276733,-0.300600350,0.743186593
8.386194,-6.895217896,-18.127830505,-0.422904968,-0.318765014,-0.299867928,0.747459054
8.386820,-7.040176392,-18.654258728,-0.209281921,-0.319741577,-0.296816170,0.742454171
8.387446,-7.246170044,-18.906028748,-0.087211609,-0.325845093,-0.292421639,0.746116281
8.388072,-7.436904907,-19.264610291,-0.041435242,-0.326455444,-0.289125741,0.746360421
8.388697,-7.749710083,-19.722373962,0.111152649,-0.329629272,-0.284364998,0.747214913
8.389324,-7.841262817,-20.073326111,0.149299622,-0.331216186,-0.283632576,0.751731515
8.389950,-8.047256470,-20.363243103,0.286628723,-0.336831421,-0.281191170,0.755881906
8.390576,-8.482131958,-20.645530701,0.561286926,-0.337930053,-0.279360116,0.757835031
8.391202,-8.733901978,-21.126182556,0.462104797,-0.341592163,-0.278627694,0.758323312
8.391827,-9.046707153,-21.347434998,0.698616028,-0.344033569,-0.277284920,0.763206124
8.392452,-9.222183228,-21.606834412,0.767280579,-0.347329468,-0.278261483,0.765037179
8.393077,-9.458694458,-22.255332947,0.820686340,-0.349160522,-0.275453866,0.771751046
8.393704,-9.534988403,-22.262962341,0.927497864,-0.355630249,-0.274111092,0.771995187
8.394330,-9.725723267,-22.507102966,0.973274231,-0.359780639,-0.275331795,0.778953195
8.394956,-10.053787231,-23.033531189,0.965644836,-0.361489624,-0.273500741,0.779685616
8.395583,-10.137710571,-23.086936951,1.186897278,-0.363808960,-0.270693123,0.781882882
8.396209,-10.023269653,-23.338706970,1.293708801,-0.366982788,-0.268739998,0.783958077
8.397994,-10.404739380,-24.269493103,1.461555481,-0.370766968,-0.269228280,0.793113351
8.398619,-10.267410278,-24.483116150,1.423408508,-0.371621460,-0.270448983,0.793235421
8.399245,-10.168228149,-24.757774353,1.377632141,-0.373940796,-0.269716561,0.796287179
8.399872,-10.114822388,-24.986656189,1.537849426,-0.375771850,-0.272157967,0.796653390
8.400498,-9.901199341,-25.322349548,1.308967590,-0.374307007,-0.271791756,0.800803781
8.401125,-9.596023560,-25.497825623,1.316596985,-0.375405639,-0.272280037,0.812278390
8.401750,-9.191665649,-25.749595642,1.469184875,-0.374307007,-0.274965584,0.811668038
8.402375,-8.825454712,-25.947959900,1.339485168,-0.369057983,-0.273744881,0.815940499
8.403006,-8.527908325,-26.314170837,1.255561829,-0.367471069,-0.275575936,0.821555734
8.403631,-8.352432251,-26.230247498,1.537849426,-0.368203491,-0.275942147,0.826560616
8.404256,-7.627639771,-26.619346619,1.507331848,-0.366982788,-0.279604256,0.830222726
8.404882,-7.291946411,-26.764305115,1.453926086,-0.366616577,-0.278749764,0.833152413
8.405509,-6.780776978,-26.825340271,1.446296692,-0.366982788,-0.279360116,0.837302804
8.406136,-6.101760864,-27.031333923,1.507331848,-0.364663452,-0.284242928,0.842795968
8.406762,-5.392227173,-27.367027283,1.415779114,-0.367348999,-0.291200936,0.843894601
8.407388,-4.758987427,-27.618797302,1.408149719,-0.367226928,-0.293886483,0.847190499
8.408015,-3.973159790,-27.557762146,1.537849426,-0.367593139,-0.296083748,0.851096749
8.408640,-3.050003052,-27.588279724,1.476814270,-0.367959350,-0.296449959,0.854026437
8.409265,-2.309951782,-27.939231873,1.446296692,-0.364785522,-0.297060311,0.856467843
8.423224,15.886154175,-28.984458923,1.667549133,-0.365151733,-0.289858162,0.923728585
8.423975,16.404953003,-29.167564392,1.644660950,-0.364785522,-0.291689217,0.924705148
8.424601,17.175521851,-28.953941345,1.553108215,-0.364541382,-0.292299569,0.925559640
8.425226,17.534103394,-28.870018005,1.629402161,-0.367348999,-0.294130623,0.928123116
8.425853,18.266525269,-28.763206482,1.812507629,-0.363442749,-0.296938241,0.933372140
8.426479,18.640365601,-28.641136169,1.690437317,-0.366616577,-0.295717537,0.937644601
8.427105,19.105758667,-28.656394958,1.713325500,-0.366128296,-0.294008553,0.941550851
8.427731,19.578781128,-28.580101013,1.942207336,-0.364297241,-0.293520272,0.945335031
8.428357,19.998397827,-28.419883728,1.926948547,-0.364175171,-0.293276131,0.948752999
8.428982,20.364608765,-28.313072205,2.003242493,-0.364541382,-0.295107186,0.954490304
8.429608,20.868148804,-28.206260681,2.079536438,-0.364907593,-0.297182381,0.955588937
8.430235,21.097030640,-27.977378845,1.949836731,-0.363564819,-0.300356209,0.954124093
8.430862,21.623458862,-28.145225525,1.850654602,-0.364053100,-0.304018319,0.961448312
8.431488,21.623458862,-27.908714294,2.049018860,-0.361245483,-0.301698983,0.962058663
8.432114,22.226181030,-27.603538513,2.201606750,-0.363320678,-0.303774178,0.959617257
8.432741,22.638168335,-27.527244568,2.140571594,-0.359292358,-0.310854256,0.963157296
8.433367,23.202743530,-27.489097595,2.399971008,-0.360146850,-0.312074959,0.965964913
8.433994,23.439254761,-27.473838806,2.132942200,-0.355752319,-0.311464608,0.968528390
8.434621,24.034347534,-27.367027283,2.445747375,-0.354409546,-0.315981209,0.967795968
8.435248,24.286117554,-27.199180603,2.438117981,-0.355996460,-0.319277108,0.965110421
8.435875,24.873580933,-26.932151794,2.728034973,-0.355264038,-0.319277108,0.969382882
8.436500,25.384750366,-26.878746033,2.850105286,-0.353188843,-0.322695076,0.967429757
8.437125,25.827255249,-26.749046326,2.651741028,-0.353188843,-0.325380623,0.973655343
8.437751,26.544418335,-26.390464783,2.857734680,-0.350015014,-0.325258553,0.975242257
8.438377,26.941146851,-26.207359314,2.857734680,-0.349404663,-0.329286873,0.978171945
8.439008,27.269210815,-25.970848083,3.063728333,-0.348061889,-0.333315194,0.979880929
8.439633,27.871932983,-25.864036560,3.078987122,-0.348428100,-0.337221444,0.976951241
8.440259,28.352584839,-25.665672302,3.391792297,-0.346597046,-0.336855233,0.980369210
8.440884,28.810348511,-25.688560486,3.269721985,-0.343057007,-0.341982186,0.982566476
8.441509,29.611434937,-25.490196228,3.452827454,-0.343911499,-0.342714608,0.982566476
8.443296,31.251754761,-24.689109802,3.933479309,-0.338662475,-0.349428475,0.987571359
8.443922,31.717147827,-24.544151306,4.070808411,-0.340859741,-0.353578866,0.983665109
8.444547,32.556381226,-24.559410095,4.475166321,-0.337685913,-0.352236092,0.983054757
8.445173,32.739486694,-24.040611267,4.467536926,-0.335122436,-0.355165780,0.984397531
8.445799,33.624496460,-24.231346130,4.787971497,-0.335854858,-0.354433358,0.988181710
8.446424,34.196701050,-23.674400330,4.803230286,-0.334023803,-0.354311287,0.985740304
8.447051,34.829940796,-23.636253357,5.009223938,-0.334023803,-0.358461678,0.985862374
8.447678,35.325851440,-23.399742126,5.238105774,-0.331704468,-0.357607186,0.985984445
8.448303,35.859909058,-23.216636658,5.268623352,-0.331948608,-0.358949959,0.986350656
8.448929,36.447372437,-22.941978455,5.650093079,-0.329140991,-0.362612069,0.988547921
8.449555,36.691513062,-22.888572693,5.756904602,-0.329140991,-0.356264412,0.982200265
8.450181,37.416305542,-22.499473572,5.817939758,-0.323403686,-0.359194100,0.984885812
8.450806,37.973251343,-22.499473572,6.092597961,-0.321816772,-0.356508553,0.984519601
8.451432,38.408126831,-22.400291443,6.306221008,-0.320473999,-0.359194100,0.987815499
8.452058,38.583602905,-21.934898376,6.496955872,-0.318276733,-0.356508553,0.983787179
8.452684,38.965072632,-21.789939880,6.809761047,-0.316445678,-0.357973397,0.987083077
8.453310,39.552536011,-21.423728943,6.725837708,-0.316811889,-0.355654061,0.985129952
8.467543,37.233200073,-17.204673767,11.677314758,-0.327187866,-0.299257576,0.911277413
8.468277,36.577072144,-17.227561951,12.013008118,-0.328530639,-0.293764412,0.907493234
8.469068,35.791244507,-17.761619568,12.188484192,-0.334390014,-0.290224373,0.902244210
8.469808,35.219039917,-17.593772888,12.424995422,-0.338906616,-0.290834725,0.895652413
8.470603,34.524765015,-17.769248962,12.356330872,-0.337807983,-0.283876717,0.895774484
8.471396,32.708969116,-18.066795349,12.882759094,-0.340615600,-0.280336678,0.889304757
8.472217,32.007064819,-18.379600525,12.951423645,-0.340371460,-0.274233162,0.886008859
8.472992,31.083908081,-18.661888123,13.287117004,-0.344521850,-0.275942147,0.887473702
8.473786,29.260482788,-19.188316345,13.477851868,-0.344643921,-0.271913826,0.890403390
8.474563,28.291549683,-19.348533630,13.851692200,-0.342202514,-0.268739998,0.894919991
8.475384,27.284469604,-19.386680603,14.156867981,-0.341714233,-0.267519295,0.893699288
8.476185,26.414718628,-19.836814880,14.339973450,-0.342568725,-0.266420662,0.892722726
8.476810,25.369491577,-19.859703064,14.179756165,-0.343667358,-0.267153084,0.898582101
8.477435,24.263229370,-20.027549744,14.729072571,-0.342202514,-0.264223397,0.902488351
8.478060,23.645248413,-20.187767029,14.797737122,-0.338662475,-0.262880623,0.904563546
8.478687,22.691574097,-20.401390076,14.927436829,-0.334634155,-0.257021248,0.905173898
8.479313,21.951522827,-20.492942810,15.209724426,-0.333169311,-0.261659920,0.910667062
8.479939,20.707931519,-20.553977966,15.263130188,-0.333047241,-0.257387459,0.918235421
8.480566,19.845809937,-20.813377380,15.240242004,-0.328408569,-0.252870858,0.918967843
8.481191,18.983688354,-20.729454041,15.392829895,-0.326821655,-0.252382576,0.921409249
8.481818,18.098678589,-20.843894958,15.957405090,-0.327309936,-0.252016366,0.925193429
8.482443,17.419662476,-20.859153748,15.827705383,-0.323891968,-0.251406014,0.931052804
8.483196,15.199508667,-20.660789490,16.018440247,-0.320229858,-0.250673592,0.937156320
8.483889,14.489974976,-20.477684021,16.323616028,-0.320107788,-0.248598397,0.944968820
8.484699,13.879623413,-20.607383728,16.407539368,-0.319375366,-0.245912850,0.948264718
8.485495,13.025131226,-20.347984314,16.712715149,-0.319253296,-0.249086678,0.945335031
8.487614,10.339584351,-19.684226990,16.987373352,-0.313882202,-0.246645272,0.959495187
8.488435,9.530868530,-19.539268494,17.124702454,-0.314370483,-0.248842537,0.959739327
8.489181,9.157028198,-19.234092712,17.345954895,-0.312783569,-0.246401131,0.965842843
8.489963,8.386459351,-18.783958435,17.498542786,-0.315102905,-0.250917733,0.972678781
8.490726,7.913436890,-18.440635681,17.666389465,-0.312783569,-0.252382576,0.973655343
8.491505,7.501449585,-18.188865662,17.864753723,-0.312417358,-0.249574959,0.974143624
8.492241,7.333602905,-18.249900818,17.986824036,-0.312295288,-0.251650155,0.978049874
8.493050,7.165756226,-17.731101990,17.864753723,-0.313882202,-0.252016366,0.983665109
8.493814,6.944503784,-17.136009216,17.963935852,-0.317300171,-0.252382576,0.984275460
8.494580,6.982650757,-16.701133728,17.834236145,-0.319863647,-0.254701912,0.982200265
8.495334,7.112350464,-16.792686462,18.047859192,-0.316933960,-0.250063241,0.985129952
8.496122,7.081832886,-16.388328552,18.230964661,-0.316933960,-0.252382576,0.985496163
8.496876,7.310714722,-16.113670349,18.330146790,-0.321328491,-0.255800545,0.984153390
8.497503,7.661666870,-15.770347595,18.154670715,-0.324258178,-0.257387459,0.982200265
8.498174,7.730331421,-15.571983337,18.360664368,-0.327309936,-0.257875741,0.981711984
8.498882,8.050765991,-15.594871521,18.452217102,-0.331582397,-0.257875741,0.978171945
8.499529,8.691635132,-15.427024841,18.368293762,-0.332436889,-0.260317147,0.974631906
8.500291,9.004440308,-15.167625427,18.513252258,-0.337685913,-0.261781991,0.972922921
8.501051,9.431686401,-15.297325134,18.566658020,-0.340371460,-0.261049569,0.971946359
8.501839,10.118331909,-14.976890564,18.528511047,-0.346352905,-0.260073006,0.964866281
8.502630,11.094894409,-14.847190857,18.581916809,-0.351968139,-0.259828866,0.960837960
8.517111,33.738937378,-17.250450134,18.391181946,-0.401894897,-0.299867928,0.954002023
8.518200,36.447372437,-17.441184998,18.543769836,-0.406167358,-0.301332772,0.959495187
8.519020,37.690963745,-17.334373474,18.345405579,-0.410317749,-0.305849373,0.956931710
8.519784,39.048995972,-17.372520447,18.520881653,-0.408242553,-0.305727303,0.957419991
8.520586,41.681137085,-17.555625916,18.414070129,-0.410317749,-0.307680428,0.958030343
8.521410,43.107833862,-17.700584412,18.490364075,-0.412270874,-0.309145272,0.958274484
8.522219,44.633712769,-17.715843201,18.642951965,-0.410195678,-0.309999764,0.954856515
8.522890,45.938339233,-17.860801697,18.620063782,-0.411660522,-0.311586678,0.956077218
8.523515,47.426071167,-17.998130798,18.353034973,-0.413735718,-0.316225350,0.954734445
8.524141,48.616256714,-17.959983826,18.665840149,-0.414712280,-0.315737069,0.952903390
8.524768,50.088729858,-18.249900818,18.490364075,-0.413247436,-0.317201912,0.950461984
8.525394,51.416244507,-18.120201111,18.490364075,-0.409219116,-0.319277108,0.950339913
8.526021,52.903976440,-18.356712341,18.818428040,-0.408974975,-0.322573006,0.949851632
8.526648,54.048385620,-18.539817810,18.711616516,-0.408852905,-0.321840584,0.947532296
8.527275,55.627670288,-18.600852966,18.627693176,-0.403970093,-0.323549569,0.946921945
8.527901,57.008590698,-18.913658142,18.818428040,-0.402383178,-0.328066170,0.948752999
8.528527,58.435287476,-19.050987244,18.665840149,-0.397256225,-0.328920662,0.946311593
8.529154,59.694137573,-19.272239685,18.635322571,-0.395547241,-0.334657967,0.944846749
8.529780,61.197128296,-19.279869080,18.696357727,-0.392739624,-0.334657967,0.943626046
8.530407,62.654342651,-19.417198181,18.726875305,-0.390786499,-0.337343514,0.944968820
8.531033,64.317550659,-19.440086365,18.940498352,-0.389443725,-0.339052498,0.946677804
8.531660,65.423812866,-19.569786072,18.879463196,-0.382973999,-0.342714608,0.947654366
8.532286,66.827621460,-19.752891541,18.963386536,-0.381387085,-0.344911873,0.945090890
8.532913,68.322982788,-19.859703064,19.009162903,-0.374673218,-0.344179451,0.948997140
8.533538,69.505538940,-20.111473083,19.260932922,-0.369180053,-0.344789803,0.951194406
8.534163,70.894088745,-19.905479431,18.978645325,-0.370156616,-0.348696053,0.954124093
8.534788,72.107162476,-19.981773376,19.321968079,-0.363198608,-0.351015389,0.950339913
8.535414,73.358383179,-20.126731873,19.314338684,-0.362588257,-0.351259530,0.954490304
8.537202,76.989974976,-20.317466736,19.787361145,-0.353432983,-0.354677498,0.957053781
8.537827,78.157272339,-20.256431580,19.642402649,-0.352090210,-0.354433358,0.953635812
8.538452,79.118576050,-20.416648865,19.901802063,-0.346841186,-0.353456795,0.954002023
8.539079,80.118026733,-20.363243103,20.191719055,-0.340493530,-0.352114022,0.957297921
8.539704,81.193771362,-20.485313416,20.313789368,-0.339150757,-0.353700936,0.957297921
8.540330,81.964340210,-20.363243103,20.344306946,-0.333291382,-0.352724373,0.955100656
8.540956,82.666244507,-20.477684021,20.664741516,-0.325356811,-0.352236092,0.954612374
8.541582,83.452072144,-20.599754333,20.680000305,-0.323159546,-0.347963631,0.954734445
8.542208,84.260787964,-20.416648865,20.901252747,-0.317910522,-0.345644295,0.950706124
8.542835,84.779586792,-20.264060974,21.153022766,-0.310830444,-0.344301522,0.952659249
8.543460,85.351791382,-20.401390076,21.442939758,-0.307778686,-0.338564217,0.952659249
8.544086,85.489120483,-20.103843689,21.381904602,-0.303384155,-0.333925545,0.953757882
8.544712,86.046066284,-20.203025818,21.771003723,-0.300576538,-0.333193123,0.946433663
8.545339,86.053695679,-20.103843689,21.954109192,-0.299722046,-0.328676522,0.952293038
8.545966,85.794296265,-19.859703064,22.045661926,-0.293496460,-0.324770272,0.950828195
8.546592,86.023178101,-19.791038513,22.114326477,-0.289590210,-0.320009530,0.952293038
8.547217,85.740890503,-19.630821228,22.465278625,-0.283364624,-0.313051522,0.953025460
8.547843,85.679855347,-19.691856384,22.579719543,-0.277139038,-0.307558358,0.955222726
8.548469,85.023727417,-19.340904236,22.923042297,-0.271645874,-0.298647225,0.951926827
8.549095,84.459152222,-19.409568787,22.999336243,-0.272134155,-0.290224373,0.954002023
8.563023,42.024459839,-13.931663513,28.179695129,-0.296304077,-0.196230233,0.964011788
8.563748,39.583053589,-13.687522888,28.309394836,-0.298867553,-0.201235116,0.967918038
8.564374,36.943283081,-13.374717712,28.469612122,-0.300698608,-0.203188241,0.969504952
8.565009,34.402694702,-13.237388611,28.729011536,-0.301308960,-0.206606209,0.972556710
8.565635,31.968917847,-12.909324646,29.072334290,-0.300820678,-0.210756600,0.971336007
8.566260,29.741134644,-12.436302185,29.240180969,-0.303262085,-0.216127694,0.979636788
8.566885,27.177658081,-12.131126404,29.385139465,-0.305093139,-0.218691170,0.978660226
8.567512,25.026168823,-12.169273376,29.491950989,-0.304604858,-0.223940194,0.981467843
8.568137,22.653427124,-12.054832458,30.010749817,-0.301308960,-0.225893319,0.984763741
8.568762,20.654525757,-11.520774841,29.820014954,-0.299233764,-0.231508553,0.984397531
8.569388,18.380966187,-11.269004822,30.216743469,-0.295693725,-0.240541756,0.988059640
8.570014,16.542282104,-10.933311462,30.468513489,-0.291177124,-0.250429451,0.995261788
8.570640,14.642562866,-10.666282654,30.720283508,-0.281289428,-0.261293709,1.001609445
8.571265,12.704696655,-10.231407166,30.964424133,-0.261758178,-0.266542733,1.007346749
8.571892,10.995712280,-10.162742615,30.552436829,-0.163125366,-0.243959725,1.016257882
8.572517,9.561386108,-10.795982361,29.736091614,-0.096230835,-0.196352303,1.006492257
8.573142,9.179916382,-9.201438904,31.185676575,-0.109536499,-0.152529061,1.006980538
8.573769,7.638778687,-8.163841248,32.177497864,-0.141152710,-0.174013436,0.998679757
8.574395,4.884567261,-7.141502380,32.627632141,-0.224770874,-0.250917733,1.023337960
8.575020,1.710739136,-5.943687439,31.986763000,-0.241616577,-0.300478280,1.064109445
8.575647,-0.662002563,-4.852684021,31.429817200,-0.214761108,-0.316469491,1.085593820
8.576273,-1.165542603,-4.089744568,31.788398743,-0.174355835,-0.315981209,1.054099679
8.576900,-0.456008911,-4.120262146,32.986213684,-0.173379272,-0.291078866,1.009055734
8.577525,0.070419312,-4.059226990,34.039070129,-0.233071655,-0.287050545,0.973044991
8.586057,4.457321167,-3.715904236,36.213447571,-0.388833374,-0.326357186,0.916160226
8.586684,4.136886597,-3.754051208,36.358406067,-0.437539428,-0.333559334,0.909812570
8.587309,4.037704468,-4.661949158,35.809089661,-0.458413452,-0.336733162,0.914573312
8.587934,3.473129272,-5.806358337,35.885383606,-0.440591186,-0.348451912,0.917014718
8.588561,3.053512573,-6.584556580,36.060859680,-0.410195678,-0.359194100,0.911887765
8.589255,3.183212280,-7.759483337,36.709358215,-0.379678100,-0.366884530,0.906882882
8.589880,3.366317749,-8.003623962,37.014533997,-0.365029663,-0.365785897,0.905540109
8.590505,2.946701050,-8.629234314,37.724067688,-0.361611694,-0.353823006,0.905051827
8.591132,2.771224976,-8.774192810,37.876655579,-0.352090210,-0.342104256,0.903220773
8.591757,2.534713745,-8.804710388,37.792732239,-0.335854858,-0.336244881,0.900779366
8.592383,2.084579468,-8.804710388,38.258125305,-0.315224975,-0.342104256,0.912009835
8.593010,2.092208862,-8.675010681,38.494636536,-0.294350952,-0.345644295,0.931541085
8.593637,2.191390991,-8.560569763,38.685371399,-0.283364624,-0.355287850,0.950339913
8.594263,1.687850952,-8.583457947,39.410163879,-0.269326538,-0.362612069,0.962913156
8.594889,1.062240601,-8.301170349,39.608528137,-0.258706421,-0.368715584,0.966941476
8.595516,0.375595093,-8.446128845,40.020515442,-0.253457397,-0.377260506,0.974509835
8.596143,0.329818726,-8.865745544,40.455390930,-0.242715210,-0.393373787,0.988792062
8.596768,0.291671753,-8.789451599,41.081001282,-0.227334350,-0.420107186,1.009788156
8.597393,0.535812378,-9.010704041,41.409065247,-0.203164428,-0.430971444,1.027366281
8.598019,0.902023315,-9.048851013,41.653205872,-0.180215210,-0.427431405,1.035422921
8.598644,1.108016968,-9.361656189,42.248298645,-0.161294311,-0.410219491,1.037376046
8.599270,1.611557007,-9.422691345,42.522956848,-0.147378296,-0.396791756,1.033103585
8.599895,1.931991577,-9.354026794,43.003608704,-0.136147827,-0.393984139,1.028709054
8.613949,34.952011108,-5.974205017,50.518562317,-0.156533569,-0.479921639,1.015525460
8.614766,38.858261108,-5.958946228,51.113655090,-0.152505249,-0.489809334,1.015647531
8.615393,41.063156128,-6.111534119,51.586677551,-0.151772827,-0.486513436,1.016990304
8.616018,42.909469604,-6.149681091,51.754524231,-0.147256225,-0.476381600,1.010520577
8.616643,45.137252808,-6.462486267,52.158882141,-0.143105835,-0.464174569,1.005271554
8.617270,47.036972046,-6.721885681,52.723457336,-0.135415405,-0.459169686,1.002586007
8.617897,49.142684937,-7.118614197,52.853157043,-0.135781616,-0.459780037,1.000877023
8.618523,50.912704468,-6.889732361,53.333808899,-0.126504272,-0.455995858,0.997947335
8.619148,52.697982788,-7.004173279,53.661872864,-0.121987671,-0.450136483,0.994895577
8.619775,54.033126831,-7.431419373,54.028083801,-0.111855835,-0.442079842,0.991355538
8.620401,56.123580933,-7.461936951,54.249336243,-0.108804077,-0.433901131,0.988914132
8.621027,57.763900757,-7.782371521,54.661323547,-0.106606811,-0.424257576,0.987083077
8.621653,59.503402710,-7.790000916,54.852058411,-0.101601928,-0.417665780,0.983420968
8.622279,60.815658569,-8.041770935,55.241157532,-0.098794311,-0.411318123,0.982078195
8.622904,62.196578979,-8.186729431,55.553962708,-0.097695678,-0.405336678,0.981711984
8.623530,63.585128784,-8.217247009,55.759956360,-0.095742553,-0.395326912,0.984275460
8.624155,65.019454956,-8.469017029,56.103279114,-0.095864624,-0.384950936,0.982322335
8.624781,66.118087769,-8.705528259,56.362678528,-0.098428100,-0.377260506,0.983054757
8.625408,67.460861206,-9.079368591,56.767036438,-0.101723999,-0.367983162,0.982566476
8.626034,68.269577026,-9.323509216,57.133247375,-0.109048218,-0.359926522,0.984031320
8.626661,69.139328003,-9.453208923,57.079841614,-0.112710327,-0.353700936,0.986838937
8.627288,69.970932007,-9.682090759,57.430793762,-0.113931030,-0.350282967,0.986961007
8.627915,70.909347534,-10.002525330,57.728340149,-0.121621460,-0.340883553,0.986350656
8.628540,71.901168823,-10.116966248,58.071662903,-0.129678100,-0.335512459,0.988547921
8.629166,72.763290405,-10.345848083,58.262397766,-0.137856811,-0.331728280,0.989280343
8.629791,73.785629272,-10.460289001,58.453132629,-0.145425171,-0.327089608,0.992576241
8.630416,74.731674194,-10.475547791,58.735420227,-0.153970093,-0.320375741,0.996238351
8.631042,75.418319702,-10.803611755,58.842231750,-0.155190796,-0.309633553,0.999168038
8.631668,76.402511597,-10.994346619,58.964302063,-0.155312866,-0.303896248,1.002341866
8.632294,76.967086792,-10.963829041,59.147407532,-0.156167358,-0.291200936,1.002952218
8.634112,78.775253296,-11.146934509,59.528877258,-0.143960327,-0.261049569,1.023826241
8.634738,78.904953003,-11.070640564,59.765388489,-0.143472046,-0.253359139,1.027366281
8.635364,79.500045776,-10.719688416,59.895088196,-0.138589233,-0.247621834,1.034446359
8.635990,79.881515503,-10.162742615,60.047676086,-0.140176147,-0.243227303,1.040061593
8.636616,80.247726440,-10.185630798,60.185005188,-0.146035522,-0.240785897,1.046287179
8.637243,80.423202515,-9.804161072,60.421516418,-0.156045288,-0.238100350,1.050315499
8.637869,80.613937378,-9.399803162,60.406257629,-0.162026733,-0.235048592,1.051658273
8.638496,81.003036499,-8.888633728,60.795356750,-0.175332397,-0.232973397,1.056541085
8.639122,81.651535034,-8.530052185,60.833503723,-0.184609741,-0.231630623,1.058127999
8.639749,81.872787476,-8.041770935,61.062385559,-0.197915405,-0.233217537,1.056419015
8.640375,82.536544800,-7.645042419,61.352302551,-0.215859741,-0.234072030,1.058738351
8.641007,82.918014526,-7.210166931,61.138679504,-0.233071655,-0.227480233,1.057761788
8.641633,83.940353394,-6.744773865,61.352302551,-0.248574585,-0.235414803,1.054099679
8.642260,84.329452515,-6.477745056,61.565925598,-0.265420288,-0.237367928,1.056174874
8.642886,85.168685913,-6.264122009,61.626960754,-0.279092163,-0.235781014,1.054832101
8.643511,85.893478394,-6.019981384,61.802436829,-0.291055053,-0.230654061,1.049461007
8.644136,86.809005737,-5.844505310,62.168647766,-0.302407593,-0.225527108,1.046775460
8.644762,87.358322144,-5.966575623,62.161018372,-0.312295288,-0.217470467,1.044211984
8.658714,87.007369995,-4.204185486,60.345222473,-0.313515991,-0.027040772,1.037986398
8.659482,85.809555054,-4.089744568,59.910346985,-0.306802124,-0.017885499,1.043113351
8.660108,84.359970093,-3.761680603,59.765388489,-0.300332397,-0.006288819,1.050315499
8.660734,82.658615112,-3.525169373,59.460212708,-0.297890991,-0.001894288,1.056541085
8.661359,81.422653198,-3.097923279,59.315254211,-0.289590210,0.001645751,1.065940499
8.661984,79.736557007,-2.708824158,58.872749329,-0.285439819,0.010312743,1.070945382
8.662610,77.966537476,-2.243431091,58.674385071,-0.283730835,0.012632079,1.076438546
8.663235,76.326217651,-1.938255310,58.445503235,-0.282754272,0.021421142,1.086082101
8.663860,74.334945679,-1.190574646,58.163215637,-0.275796264,0.022763915,1.097678781
8.664485,72.336044312,-0.610740662,57.926704407,-0.268716186,0.024228759,1.106711984
8.665111,70.123519897,0.045387268,57.407905579,-0.263711303,0.028623290,1.119895577
8.665738,68.055953979,0.968544006,57.438423157,-0.259438843,0.029111572,1.127708077
8.666365,66.171493530,1.655189514,57.217170715,-0.255654663,0.027158447,1.137351632
8.666990,63.974227905,3.074256897,56.889106750,-0.252358764,0.029721923,1.149314523
8.667616,61.418380737,4.188148499,56.812812805,-0.246255249,0.030332275,1.159080148
8.668242,59.350814819,5.332557678,56.606819153,-0.242226928,0.031186767,1.168357491
8.668869,57.008590698,6.370155334,56.164314270,-0.234048218,0.034726806,1.176169991
8.669496,54.620590210,7.583229065,56.179573059,-0.216714233,0.034726806,1.191062570
8.670122,52.415695190,8.948890686,56.026985168,-0.202432007,0.039365478,1.197776437
8.670749,50.302352905,10.589210510,55.676033020,-0.189980835,0.038266845,1.206077218
8.671376,48.051681519,11.947242737,55.286933899,-0.172158569,0.038266845,1.216209054
8.672006,46.014633179,13.663856506,55.286933899,-0.160195678,0.039609618,1.225486398
8.672631,44.137802124,15.449134827,54.699470520,-0.141885132,0.043393798,1.232200265
8.673257,42.459335327,16.967384338,54.363777161,-0.119424194,0.046201415,1.237937570
8.673882,40.689315796,18.813697815,53.616096497,-0.097207397,0.048764892,1.246970773
8.674507,39.300765991,20.415870667,52.876045227,-0.076821655,0.056821533,1.247947335
8.675132,37.576522827,22.124855042,52.425910950,-0.062539428,0.061338134,1.262473702
8.675758,36.218490601,23.780433655,52.059700012,-0.050332397,0.054135986,1.266502023
8.676383,34.395065308,26.000587463,51.365425110,-0.046426147,0.048520751,1.268943429
8.677009,32.907333374,27.839271545,50.739814758,-0.048745483,0.038633056,1.273704171
8.678855,28.261032104,33.042518616,49.061347961,-0.058266968,0.017148681,1.269797921
8.679482,26.941146851,34.759132385,48.634101868,-0.061929077,0.013120361,1.268333077
8.680107,25.506820679,36.712257385,48.565437317,-0.070840210,0.005185790,1.258811593
8.680734,23.767318726,38.482276917,47.962715149,-0.077065796,-0.001283936,1.248923898
8.681359,22.218551636,40.404884338,47.749092102,-0.087441772,-0.011904053,1.238181710
8.681985,20.624008179,42.205421448,47.337104797,-0.093301147,-0.024233155,1.229514718
8.682612,19.006576538,44.158546448,47.283699036,-0.103921264,-0.035707764,1.216819406
8.683238,17.488327026,45.249549866,47.283699036,-0.112588257,-0.044374757,1.204246163
8.683863,16.069259644,47.301856995,47.146369934,-0.120522827,-0.053530030,1.188499093
8.684488,14.634933472,48.942176819,47.131111145,-0.127358764,-0.061708741,1.167747140
8.685113,13.307418823,49.895851135,46.986152649,-0.122109741,-0.056703858,1.149680734
8.685739,12.002792358,51.040260315,46.711494446,-0.103799194,-0.044374757,1.135520577
8.686364,10.217514038,51.841346741,46.673347473,-0.071816772,-0.024111085,1.112815499
8.686990,8.859481812,52.825538635,46.406318665,-0.037270874,-0.016664796,1.101096749
8.687615,7.356491089,54.015724182,46.444465637,-0.001260132,-0.012514405,1.096580148
8.688240,5.357589722,55.152503967,46.696235657,0.015341431,-0.022157960,1.084495187
8.688866,3.503646851,56.426612854,46.825935364,0.015463501,-0.034609132,1.068503976
8.689491,1.939620972,57.448951721,47.085334778,-0.004189819,-0.045595460,1.041038156
8.703540,-13.822708130,32.111732483,49.923469543,-0.214394897,-0.093935303,0.701804757
8.704364,-14.776382446,30.044166565,50.259162903,-0.205605835,-0.104067139,0.710960031
8.704990,-15.096817017,28.335182190,50.701667786,-0.187783569,-0.116518311,0.720115304
8.705615,-15.493545532,26.473609924,50.953437805,-0.169595093,-0.123964600,0.736228585
8.706241,-15.844497681,25.024024963,51.098396301,-0.152261108,-0.126528084,0.750144601
8.706868,-15.905532837,23.780433655,51.716377258,-0.133462280,-0.126283944,0.762351632
8.707494,-16.195449829,22.269813538,52.113105774,-0.120034546,-0.126161873,0.776389718
8.708119,-16.302261353,21.354286194,52.227546692,-0.099404663,-0.123476319,0.795798898
8.708745,-16.065750122,20.446388245,52.670051575,-0.077554077,-0.127504647,0.817649484
8.709370,-15.989456177,19.561378479,53.074409485,-0.055825561,-0.126894295,0.841453195
8.709995,-15.821609497,18.722145081,53.181221008,-0.038735718,-0.123354249,0.864036202
8.710621,-15.623245239,18.317787170,53.623725891,-0.026894897,-0.126039803,0.877586007
8.711247,-15.211257935,17.806617737,53.959419250,-0.024819702,-0.123964600,0.898337960
8.711872,-14.555130005,17.234413147,54.386665344,-0.017861694,-0.123964600,0.917136788
8.712498,-13.929519653,16.814796448,54.356147766,-0.010659546,-0.124086671,0.936668038
8.713123,-12.937698364,16.112892151,54.516365051,0.004233032,-0.122621827,0.951194406
8.713749,-11.755142212,15.761940002,54.913093567,0.014120728,-0.114565186,0.966453195
8.714375,-10.908279419,15.342323303,54.935981750,0.024252564,-0.110781007,0.981223702
8.715006,-9.817276001,15.227882385,55.233528137,0.024862915,-0.112245850,0.982810616
8.715631,-8.512649536,15.510169983,55.195381165,0.021200806,-0.107485108,0.997092843
8.716258,-7.307205200,15.395729065,55.309822083,0.014486939,-0.105287842,1.007590890
8.716884,-5.727920532,15.517799377,55.119087219,0.014120728,-0.105654053,1.007835031
8.717509,-4.079971313,15.899269104,55.347969055,0.005209595,-0.101991944,1.011985421
8.718135,-2.317581177,16.212074280,55.126716614,-0.003945678,-0.099550538,1.020286202
8.718760,-0.478897095,16.700355530,55.149604797,-0.010293335,-0.099550538,1.023704171
8.719386,1.634445190,16.837684631,54.997016907,-0.021645874,-0.093447022,1.024924874
8.720011,3.343429565,17.379371643,54.791023254,-0.032632202,-0.078310303,1.034202218
8.720637,5.143966675,18.058387756,54.813911438,-0.046426147,-0.071474366,1.043967843
8.721264,7.211532593,18.279640198,54.562141418,-0.066811889,-0.064638428,1.040427804
8.721891,9.225692749,18.783180237,54.523994446,-0.085366577,-0.052065186,1.046531320
8.723740,14.375534058,19.897071838,53.730537415,-0.117593139,-0.035585694,1.061668038
8.724366,16.023483276,20.263282776,53.761054993,-0.137978882,-0.027406983,1.061668038
8.724993,17.556991577,20.499794006,53.623725891,-0.156045288,-0.019960694,1.058005929
8.725618,19.113388062,20.843116760,53.112556458,-0.172036499,-0.012758546,1.060081124
8.726245,20.555343628,21.201698303,53.013374329,-0.189736694,0.004819579,1.062156320
8.726872,21.707382202,21.537391663,52.738716125,-0.196328491,0.016050048,1.059470773
8.727499,22.844161987,22.193519592,52.296211243,-0.205361694,0.028867431,1.058860421
8.728125,23.996200562,22.468177795,51.952888489,-0.211343139,0.039609618,1.061057687
8.728752,24.919357300,22.872535706,51.441719055,-0.218789428,0.049009033,1.060081124
8.729378,25.712814331,23.246376038,51.121284485,-0.228799194,0.061338134,1.058494210
8.730009,26.063766479,23.902503967,50.961067200,-0.240029663,0.076596923,1.056907296
8.730634,26.483383179,24.192420959,50.526191711,-0.251992553,0.084531493,1.051658273
8.731259,27.223434448,24.383155823,49.999763489,-0.255166382,0.092221923,1.054343820
8.731885,27.490463257,24.650184631,49.725105286,-0.256875366,0.101865478,1.055686593
8.732511,27.520980835,25.130836487,49.191047668,-0.265176147,0.119199462,1.052390695
8.733137,26.986923218,25.428382874,48.855354309,-0.283730835,0.132993400,1.043601632
8.733764,26.918258667,26.092140198,48.527290344,-0.308999389,0.143003166,1.032249093
8.734389,26.414718628,26.244728088,47.932197571,-0.328286499,0.148740470,1.028220773
8.748344,8.233871460,25.374977112,38.593818665,-0.399453491,0.098813720,0.979148507
8.749120,8.081283569,25.374977112,38.403083801,-0.394570678,0.070859618,0.982078195
8.749747,8.096542358,25.336830139,38.143684387,-0.390908569,0.048398681,0.986594796
8.750373,8.249130249,25.397865295,37.563850403,-0.407388061,0.047300048,0.982078195
8.751006,9.157028198,25.313941956,36.991645813,-0.444009155,0.066220947,0.969382882
8.751632,10.469284058,25.062171936,36.236335754,-0.476479858,0.098813720,0.952659249
8.752258,11.216964722,24.650184631,35.671760559,-0.512490630,0.153989494,0.936423898
8.752885,11.308517456,23.933021545,34.946968079,-0.551919341,0.190854728,0.904319406
8.753512,10.789718628,23.269264221,33.672859192,-0.582803130,0.182798088,0.909202218
8.754138,10.186996460,23.254005432,33.123542786,-0.567544341,0.124570556,0.975608468
8.754765,8.577194214,23.582069397,32.444526672,-0.494424194,0.056089111,1.061179757
8.755390,6.273117065,23.864356995,32.558967590,-0.391518921,0.040708251,1.130881906
8.756017,4.632797241,25.764076233,33.039619446,-0.312905639,0.097104736,1.148337960
8.756643,3.373947144,27.854530334,34.107734680,-0.300332397,0.167173088,1.099143624
8.757269,2.527084351,30.120460510,34.702827454,-0.366250366,0.223935783,1.032004952
8.757894,1.298751831,31.936256409,34.321357727,-0.462685913,0.226987541,0.992210031
8.758521,-1.119766235,33.301918030,33.329536438,-0.528481841,0.166562736,0.981834054
8.759147,-2.859268188,34.141151428,32.246162415,-0.525796294,0.067197509,0.990989327
8.759773,-3.629837036,34.377662659,31.590034485,-0.492593139,-0.025942139,0.997581124
8.760398,-2.714309692,33.851234436,31.750251770,-0.454873413,-0.086489014,0.992332101
8.761023,-0.913772583,32.676307678,32.620002747,-0.458169311,-0.099916749,0.958518624
8.761648,0.871505737,30.959693909,33.283760071,-0.486123413,-0.087709717,0.911765695
8.762275,1.771774292,29.052345276,33.382942200,-0.518594146,-0.079286866,0.859153390
8.762900,2.931442261,27.206031799,32.635261536,-0.525918365,-0.085512452,0.813010812
8.763525,4.602279663,25.481788635,31.773139954,-0.492226928,-0.099306397,0.784934640
8.764152,7.028427124,23.627845764,31.094123840,-0.427407593,-0.113710694,0.774314523
8.764777,10.072555542,21.789161682,30.636360168,-0.363198608,-0.119325928,0.765403390
8.765403,12.948837280,20.362464905,30.674507141,-0.314858764,-0.112489991,0.757835031
8.766028,15.199508667,19.004432678,30.933906555,-0.288125366,-0.091982178,0.754417062
8.766653,16.122665405,18.066017151,30.643989563,-0.274087280,-0.063417725,0.754417062
8.768468,16.710128784,15.113441467,29.705574036,-0.199380249,-0.029604249,0.757712960
8.769095,16.977157593,13.946144104,29.743721008,-0.176919311,-0.029848389,0.766990304
8.769720,16.961898804,12.687294006,29.751350403,-0.166665405,-0.025087647,0.779807687
8.770345,16.656723022,11.695472717,29.820014954,-0.156289428,-0.014223389,0.788718820
8.770970,16.176071167,10.718910217,29.530097961,-0.149575561,-0.008730225,0.797629952
8.771595,15.168991089,10.062782288,29.743721008,-0.140664428,-0.011171632,0.807151437
8.772221,13.810958862,9.063331604,29.781867981,-0.129311889,-0.010683350,0.819114327
8.772846,12.063827515,8.803932190,29.942085266,-0.120156616,-0.017885499,0.839377999
8.773472,10.949935913,8.376686096,30.232002258,-0.111001343,-0.035707764,0.856467843
8.774097,9.782638550,8.056251526,30.392219543,-0.106118530,-0.044130616,0.871116281
8.774722,8.889999390,8.010475159,30.552436829,-0.101479858,-0.052797608,0.894309640
8.775347,7.974472046,7.880775452,30.766059875,-0.103555053,-0.050600342,0.912498116
8.775972,6.936874390,8.094398499,31.101753235,-0.104775757,-0.045717530,0.925071359
8.776598,5.708541870,8.231727600,31.017829895,-0.104531616,-0.036562257,0.946067452
8.777223,4.602279663,8.788673401,31.246711731,-0.103677124,-0.041445069,0.966941476
8.777850,3.267135620,8.887855530,31.513740540,-0.094155639,-0.051088624,0.990134835
8.778475,1.809921265,9.162513733,32.169868469,-0.084145874,-0.066103272,1.012229562
8.779100,-0.242385864,9.513465881,32.558967590,-0.081704468,-0.077944092,1.027122140
8.793144,-13.242874146,7.957069397,40.035774231,-0.081094116,0.037046142,0.809592843
8.794016,-14.265213013,8.079139709,39.631416321,-0.003091186,-0.020937257,0.844260812
8.794642,-14.669570923,8.002845764,40.577461243,0.023764282,-0.069643311,0.860496163
8.795267,-13.822708130,7.735816956,41.393806458,-0.009316772,-0.086611085,0.853416085
8.795892,-12.769851685,6.896583557,42.172004700,-0.079263061,-0.089052491,0.833518624
8.796518,-11.350784302,5.652992249,42.164375305,-0.154214233,-0.076113038,0.816917062
8.797144,-9.832534790,4.195777893,41.744758606,-0.183022827,-0.053285889,0.814841866
8.797770,-9.016189575,2.524940491,41.218330383,-0.155557007,-0.030824952,0.825706124
8.798395,-8.054885864,1.700965881,40.745307922,-0.097939819,-0.027651124,0.844504952
8.799020,-6.971511841,1.136390686,41.119148254,-0.056680053,-0.032778077,0.868430734
8.799645,-6.246719360,0.854103088,41.866828918,-0.060220093,-0.029970460,0.884299874
8.800270,-5.735549927,0.571815491,42.301704407,-0.108559936,-0.015444092,0.895042062
8.800896,-5.521926880,0.037757874,42.095710754,-0.160683960,-0.002870850,0.903586984
8.801521,-5.087051392,-0.725181580,41.813423157,-0.192666382,0.001889892,0.927390695
8.802146,-4.499588013,-1.877220154,41.195442200,-0.190469116,0.014585204,0.944236398
8.802773,-4.408035278,-3.349693298,41.248847961,-0.171792358,0.021299072,0.958518624
8.803399,-3.667984009,-4.105003357,41.401435852,-0.147500366,0.020810790,0.979514718
8.804025,-2.821121216,-4.227073669,41.355659485,-0.138345093,0.015439697,0.991111398
8.804651,-2.195510864,-4.890830994,41.615058899,-0.154092163,0.015561767,0.992210031
8.805276,-2.012405396,-5.012901306,41.851570129,-0.172890991,0.024594970,0.988059640
8.805901,-1.722488403,-5.257041931,41.355659485,-0.191201538,0.043637939,0.985252023
8.806528,-1.165542603,-5.516441345,41.286994934,-0.195107788,0.048032470,0.987937570
8.807153,-0.333938599,-5.501182556,41.096260071,-0.181313843,0.043027587,0.999045968
8.807779,0.634994507,-5.791099548,41.103889465,-0.168008178,0.029843993,1.011130929
8.808406,1.123275757,-5.287559509,41.088630676,-0.162881225,0.025449462,1.023093820
8.809031,1.802291870,-4.990013123,41.340400696,-0.167153686,0.022275634,1.030418038
8.809657,2.389755249,-4.448326111,41.477729797,-0.183389038,0.023984618,1.032371163
8.810282,3.434982300,-4.257591248,41.302253723,-0.198159546,0.038999267,1.038840890
8.810908,4.190292358,-4.227073669,41.248847961,-0.201821655,0.048642822,1.049583077
8.811534,5.105819702,-3.914268494,40.989448547,-0.200723022,0.051084228,1.063865304
8.813363,7.440414429,-2.853782654,40.974189758,-0.196816772,0.077085204,1.078269601
8.813988,8.561935425,-2.144248962,40.791084290,-0.210244507,0.078672118,1.084251046
8.814613,9.301986694,-1.495750427,40.524055481,-0.219888061,0.071958251,1.093284249
8.815240,10.362472534,-1.312644958,40.684272766,-0.223794311,0.062192626,1.091819406
8.815865,11.155929565,-0.839622498,40.546943665,-0.239785522,0.055600829,1.091575265
8.816492,12.574996948,-0.267417908,40.218879700,-0.253701538,0.053769775,1.092673898
8.817117,13.925399780,-0.122459412,40.051033020,-0.259438843,0.050840087,1.096458077
8.817744,15.046920776,0.007240295,40.096809387,-0.261880249,0.050351806,1.094504952
8.818370,16.221847534,-0.008018494,39.997627258,-0.263711303,0.052671142,1.094993234
8.818996,17.274703979,0.304786682,39.982368469,-0.269082397,0.061460204,1.091209054
8.819622,18.892135620,0.465003967,39.646675110,-0.264687866,0.059262939,1.097190499
8.820249,20.082321167,0.953285217,39.593269348,-0.270058960,0.066587158,1.097312570
8.820874,21.684494019,1.479713440,39.494087219,-0.275674194,0.078183837,1.090598702
8.821500,22.828903198,1.517860413,39.150764465,-0.284097046,0.091367431,1.083152413
8.822126,24.110641479,1.647560120,39.013435364,-0.293740600,0.095273681,1.077537179
8.822752,25.407638550,1.685707092,38.746406555,-0.296059936,0.079404540,1.073142648
8.823378,26.315536499,1.678077698,38.593818665,-0.293984741,0.071714111,1.076316476
8.824006,27.467575073,1.815406799,38.288642883,-0.286904663,0.060971923,1.073386788
8.844698,58.839645386,-2.205284119,32.177497864,-0.151284546,0.196592033,1.079490304
8.845494,59.060897827,-1.694114685,31.841804504,-0.151528686,0.216245353,1.089866281
8.846121,59.282150269,-1.213462830,31.429817200,-0.139443725,0.205259025,1.103416085
8.846746,58.999862671,-0.847251892,31.460334778,-0.136269897,0.198056877,1.106467843
8.847372,58.854904175,-0.435264587,31.307746887,-0.143227905,0.201474845,1.112205148
8.847997,58.641281128,0.312416077,30.819465637,-0.139932007,0.207334220,1.121604562
8.848623,58.870162964,0.938026428,30.514289856,-0.127847046,0.219785392,1.130759835
8.849249,59.007492065,1.220314026,30.232002258,-0.107095093,0.238095939,1.136619210
8.849874,58.740463257,1.906959534,30.148078918,-0.098672241,0.254087150,1.131126046
8.850499,58.030929565,2.654640198,30.163337708,-0.099404663,0.264585197,1.129417062
8.851125,57.565536499,3.364173889,29.598762512,-0.107461303,0.257627189,1.132712960
8.851752,56.978073120,4.493324280,29.377510071,-0.098672241,0.252500236,1.150046945
8.852377,56.627120972,5.324928284,28.881599426,-0.085732788,0.257505119,1.154075265
8.853009,56.009140015,5.691139221,28.591682434,-0.069619507,0.273984611,1.153953195
8.853636,55.574264526,6.660072327,28.492500305,-0.056924194,0.279355705,1.150169015
8.854262,54.620590210,7.720558167,28.431465149,-0.050820678,0.281186759,1.147605538
8.854888,53.750839233,8.414833069,28.233100891,-0.053506225,0.280698478,1.145530343
8.855515,52.652206421,9.475318909,27.576972961,-0.052285522,0.290464103,1.147605538
8.856142,51.996078491,10.345069885,27.134468079,-0.038491577,0.298764884,1.146995187
8.856768,51.057662964,11.046974182,26.539375305,-0.019692749,0.304990470,1.144431710
8.857393,50.424423218,11.870948792,26.447822571,-0.010293335,0.300595939,1.141257882
8.858020,49.432601929,12.954322815,26.264717102,-0.002358764,0.308774650,1.140159249
8.858645,48.364486694,13.877479553,26.028205872,-0.000649780,0.314634025,1.138938546
8.859271,47.509994507,14.899818420,25.318672180,-0.005044311,0.319638908,1.137229562
8.859896,46.663131714,16.105262756,25.013496399,-0.008950561,0.322568595,1.131370187
8.860523,46.197738647,16.837684631,24.639656067,-0.014687866,0.328427970,1.129661202
8.861150,45.167770386,17.966835022,24.151374817,-0.033364624,0.327207267,1.128440499
8.861777,44.252243042,19.027320862,23.945381165,-0.059609741,0.329160392,1.120627999
8.862402,43.298568726,20.141212463,23.464729309,-0.094155639,0.331723869,1.118674874
8.863027,42.497482300,20.736305237,22.800971985,-0.140054077,0.342466056,1.105857491
8.864862,38.553085327,22.056190491,21.496345520,-0.270058960,0.364560783,1.063377023
8.865487,37.233200073,22.010414124,20.878364563,-0.306313843,0.369809806,1.048362374
8.866114,35.402145386,22.315589905,20.466377258,-0.334390014,0.368711174,1.033103585
8.866740,33.723678589,22.185890198,19.985725403,-0.361001343,0.373838127,1.018699288
8.867367,31.953659058,22.071449280,19.535591125,-0.389932007,0.381162345,1.006370187
8.867992,30.298080444,21.964637756,19.169380188,-0.411050171,0.383847892,0.992332101
8.868617,28.238143921,21.766273499,18.765022278,-0.429848999,0.386289299,0.980613351
8.869244,26.147689819,21.339027405,18.261482239,-0.448037475,0.389707267,0.974387765
8.869869,24.164047241,21.155921936,17.803718567,-0.448403686,0.389829338,0.974143624
8.870495,22.012557983,21.041481018,17.666389465,-0.442910522,0.387265861,0.969504952
8.871120,19.761886597,21.064369202,16.956855774,-0.436562866,0.391294181,0.974631906
8.871745,18.022384644,20.766822815,16.666938782,-0.426308960,0.398252189,0.978538156
8.872372,16.046371460,21.140663147,16.346504211,-0.420449585,0.401548088,0.977317452
8.873007,14.032211304,20.820228577,16.041328430,-0.418618530,0.406308830,0.984763741
8.873633,11.987533569,20.980445862,15.476753235,-0.413125366,0.400937736,0.996360421
8.874258,9.561386108,21.262733459,15.156318665,-0.403970093,0.394712150,1.011619210
8.874883,7.768478394,21.491615295,14.477302551,-0.394326538,0.395810783,1.021873116
8.875509,6.128158569,21.674720764,13.844062805,-0.380044311,0.400571525,1.035178781
8.876135,4.533615112,22.117225647,13.508369446,-0.374917358,0.403867424,1.040671945
8.890204,-8.794937134,39.756385803,-4.077384949,-0.495889038,0.413633049,1.138084054
8.890981,-8.466873169,40.999977112,-5.069206238,-0.529824615,0.394590080,1.136619210
8.891606,-8.024368286,42.197792053,-6.106803894,-0.562539458,0.375913322,1.133933663
8.892232,-7.688674927,43.532936096,-7.258842468,-0.602822661,0.360288322,1.127219796
8.892858,-6.117019653,44.753639221,-7.960746765,-0.642373443,0.357358634,1.125022531
8.893483,-5.010757446,45.837013245,-8.952568054,-0.688638091,0.363095939,1.112083077
8.894109,-3.591690063,46.752540588,-10.219047546,-0.726846099,0.368955314,1.104758859
8.894734,-2.355728149,47.690956116,-11.317680359,-0.763100982,0.366269767,1.100730538
8.895360,-1.188430786,48.606483459,-12.568901062,-0.803262115,0.372129142,1.093040109
8.895986,1.466598511,49.972145081,-15.132377625,-0.877847075,0.374570549,1.070212960
8.896664,2.717819214,50.544349670,-16.330192566,-0.901894927,0.365537345,1.063743234
8.897289,4.220809937,50.757972717,-17.337272644,-0.929604888,0.354062736,1.049949288
8.897914,5.029525757,51.070777893,-18.329093933,-0.957070708,0.353086174,1.032737374
8.898539,5.670394897,50.780860901,-19.404838562,-0.986489654,0.360898674,1.010398507
8.899164,6.570663452,50.880043030,-20.495841980,-1.013345122,0.371885002,0.981223702
8.899791,7.455673218,50.338356018,-21.869132996,-1.030923247,0.382871330,0.949607491
8.900418,7.943954468,50.208656311,-23.082206726,-1.046670318,0.379575431,0.931541085
8.901043,7.814254761,49.613563538,-23.791740417,-1.048257232,0.367246330,0.916404366
8.901669,7.196273804,49.354164124,-24.669120789,-1.037515044,0.348935783,0.902732491
8.902294,6.730880737,49.003211975,-25.851676941,-1.024575591,0.329770744,0.884666085
8.902921,6.387557983,48.820106506,-26.339958191,-1.003213286,0.325986564,0.865989327
8.903546,5.945053101,48.148719788,-27.057121277,-0.976968169,0.331357658,0.843406320
8.904171,5.281295776,47.660438538,-27.888725281,-0.949502349,0.337217033,0.833030343
8.904796,4.373397827,47.629920959,-28.537223816,-0.910073638,0.340268791,0.822654366
8.905422,3.343429565,47.523109436,-29.468009949,-0.869424224,0.337583244,0.814597726
8.906049,1.901473999,47.271339417,-30.406425476,-0.828164458,0.332822502,0.815452218
8.906676,0.299301147,47.156898499,-30.795524597,-0.784585357,0.321103752,0.816550851
8.907303,-1.638565063,46.775428772,-31.184623718,-0.740884185,0.306821525,0.816306710
8.907929,-3.461990356,46.508399963,-31.749198914,-0.697305083,0.305356681,0.819236398
8.908556,-5.415115356,46.340553284,-32.069633484,-0.655312896,0.303403556,0.818259835
8.910338,-12.769851685,45.837013245,-33.664176941,-0.534829497,0.287290275,0.815818429
8.910965,-15.043411255,45.653907776,-34.030387878,-0.497964233,0.272275627,0.814109445
8.911591,-17.309341431,45.386878967,-34.450004578,-0.461343139,0.259580314,0.819358468
8.912216,-19.918594360,45.302955627,-34.991691589,-0.418008178,0.254575431,0.824241281
8.912842,-22.161636353,45.257179260,-35.380790710,-0.381387085,0.248593986,0.822166085
8.913467,-24.679336548,45.653907776,-35.541007996,-0.350503296,0.246396720,0.820945382
8.914094,-27.288589478,45.425025940,-35.808036804,-0.329995483,0.241758049,0.817649484
8.914720,-29.905471802,45.615760803,-36.197135925,-0.314126343,0.231015861,0.816672921
8.915345,-32.476577759,45.875160217,-36.647270203,-0.298989624,0.220273674,0.811301827
8.915971,-35.085830688,45.867530823,-36.807487488,-0.284829468,0.205747306,0.808494210
8.916597,-37.420425415,45.859901428,-37.311027527,-0.272622436,0.192441642,0.803123116
8.917222,-39.991531372,46.187965393,-37.387321472,-0.269326538,0.177182853,0.797019601
8.917848,-42.265090942,46.287147522,-37.478874207,-0.268594116,0.166074455,0.793601632
8.918475,-44.561538696,46.325294495,-37.623832703,-0.275918335,0.155576408,0.788596749
8.919100,-46.888504028,46.577064514,-37.669609070,-0.288491577,0.147885978,0.778342843
8.919725,-49.009475708,46.554176331,-38.112113953,-0.295449585,0.142759025,0.768088937
8.920350,-51.542434692,46.691505432,-38.432548523,-0.299111694,0.140317619,0.756003976
8.934314,-69.257888794,37.398902893,-39.226005554,-0.594033599,-0.132509530,0.588035226
8.935051,-68.403396606,36.201087952,-39.218376160,-0.590859771,-0.130068123,0.584739327
8.935677,-67.648086548,35.224525452,-39.401481628,-0.581094146,-0.132875741,0.591697335
8.936302,-66.778335571,34.156410217,-39.264152527,-0.573525786,-0.133119881,0.595115304
8.936927,-66.610488892,33.355323792,-39.012382507,-0.564126372,-0.141054451,0.596702218
8.937553,-66.320571899,32.088844299,-39.172599792,-0.548745513,-0.145693123,0.601951241
8.938179,-66.396865845,31.409828186,-38.752983093,-0.540322661,-0.149599373,0.604148507
8.938804,-66.091690063,30.181495667,-38.508842468,-0.535195708,-0.153749764,0.606834054
8.939430,-65.855178833,28.976051331,-38.379142761,-0.525308013,-0.151308358,0.603904366
8.940055,-65.969619751,27.808753967,-38.096855164,-0.514443755,-0.149721444,0.599387765
8.940681,-66.213760376,26.649085999,-37.669609070,-0.502969146,-0.154115975,0.593284249
8.941308,-66.465530396,25.596229553,-37.417839050,-0.492226928,-0.164491951,0.584983468
8.941933,-67.052993774,24.703590393,-36.929557800,-0.483071655,-0.174745858,0.579490304
