time,gyro x,gyro y,gyro z,accel x,accel y,accel z
13.574446,-0.34526062,0.076904297,-0.32006073,-0.004148316,0.006174317,1.001775265
13.594958,-0.116378784,0.046386719,-0.106437683,-0.003293823,0.003366699,0.998235226
13.595583,-0.337631226,0.054016113,-0.045402527,-0.00182898,-0.001882324,1.003240108
13.596209,-0.055343628,-0.106201172,0.061408997,0.000490356,0.000925293,1.003240108
13.596835,0.097244263,0.084533691,-0.106437683,-0.003537964,0.003244629,1.000920773
13.59746,-0.10874939,0.046386719,0.069038391,-0.001462769,0.001657715,1.001653194
13.598086,-0.154525757,0.176086426,-0.014884949,-0.004270386,0.000681152,0.999577999
13.598712,-0.101119995,0.023498535,0.00037384,-0.001706909,-0.00041748,1.000554562
13.599337,0.150650024,-0.098571777,0.091926575,-0.004148316,-0.001394043,1.002873898
13.599964,0.020950317,0.008239746,-0.06829071,-0.003293823,-0.001271973,1.001531124
13.600591,-0.001937866,0.023498535,-0.022514343,-0.004270386,0.001779785,0.999333858
13.601217,0.05909729,-0.129089355,0.114814758,-0.001706909,0.003977051,1.001409054
13.601842,0.234573364,-0.068054199,-0.014884949,-0.003049683,-0.00041748,0.999577999
13.602468,0.081985474,-0.197753906,-0.007255554,-0.002439331,-0.001760254,1.000310421
13.603094,0.028579712,-0.182495117,0.08429718,-0.001462769,-0.001027832,1.000676632
13.60372,0.234573364,0.03112793,0.015632629,0.001100708,-0.00005127,1.000554562
13.604347,0.196426392,-0.068054199,-0.053031921,-0.001218628,0.001657715,1.001286983
13.604973,0.005691528,-0.213012695,-0.091178894,-0.001706909,0.000314941,0.999700069
13.605598,-0.055343628,-0.014648438,-0.014884949,0.000856567,0.001535645,0.997624874
13.606558,0.089614868,-0.05279541,-0.007255554,-0.000364136,0.002145996,1.002263546
13.607183,0.074356079,0.038757324,0.061408997,-0.000242066,0.002390137,0.99994421
13.607808,-0.062973022,-0.014648438,-0.15221405,-0.001706909,0.002145996,1.00385046
13.608477,-0.139266968,-0.235900879,0.206367493,0.001466919,0.001901855,1.004094601
13.609104,-0.139266968,-0.235900879,0.206367493,0.001466919,0.001901855,1.004094601
13.60973,0.020950317,0.061645508,-0.06829071,-0.001096558,0.000314941,1.00385046
13.610357,-0.17741394,-0.075683594,0.061408997,-0.001096558,-0.002248535,1.008367062
13.610984,-0.085861206,0.015869141,-0.175102234,-0.003049683,-0.002492676,1.009465694
13.611609,0.066726685,-0.014648438,0.091926575,0.001466919,0.002268066,1.009953976
13.612234,-0.192672729,-0.083312988,0.008003235,-0.00195105,0.000925293,1.010564327
13.61286,-0.307113647,0.023498535,0.16822052,-0.002561402,-0.00005127,1.012395382
13.613486,-0.146896362,-0.098571777,-0.106437683,-0.000119995,0.001291504,1.014470577
13.614111,-0.207931519,0.160827637,-0.297172546,0.000368286,0.001535645,1.015813351
13.614738,-0.131637573,0.054016113,-0.007255554,-0.001218628,0.001657715,1.016179562
13.615364,-0.200302124,-0.029907227,0.008003235,-0.000608277,0.001291504,1.01947546
13.615989,-0.352890015,0.282897949,0.00037384,0.000978637,-0.00041748,1.019231319
13.616614,-0.253707886,0.107421875,-0.106437683,-0.000242066,-0.001516113,1.017644405
13.617241,-0.116378784,-0.045166016,0.038520813,0.000978637,0.000314941,1.02350378
13.617868,-0.253707886,0.008239746,0.061408997,-0.000364136,-0.001760254,1.021184444
13.618495,-0.268966675,0.069274902,-0.075920105,-0.000852417,-0.001760254,1.019963741
13.61912,0.020950317,0.18371582,-0.030143738,0.000124145,-0.000905762,1.023747921
13.619747,-0.185043335,0.221862793,0.114814758,0.002443481,-0.001149902,1.022161007
13.620373,-0.360519409,0.000610352,-0.0835495,-0.000364136,-0.00041748,1.01959753
13.621005,-0.192672729,0.3515625,-0.06829071,-0.000242066,-0.003591309,1.018743038
13.621631,-0.215560913,0.122680664,-0.014884949,0.001222778,-0.001149902,1.01947546
13.622256,-0.146896362,0.198974609,0.160591125,0.000124145,-0.002736816,1.018376827
13.622881,-0.062973022,0.076904297,-0.030143738,-0.002927613,-0.001149902,1.01959753
13.623507,-0.093490601,-0.014648438,-0.014884949,0.00207727,-0.002614746,1.020085812
13.624133,-0.276596069,0.145568848,0.061408997,0.003053833,-0.002614746,1.016667843
13.62476,-0.124008179,0.153198242,0.061408997,0.002931762,-0.000783691,1.015813351
13.637943,-0.047714233,0.191345215,-0.15221405,0.002809692,-0.001638184,1.005925655
13.638669,-0.124008179,0.122680664,-0.0835495,0.004274536,0.000559082,1.004949093
13.639296,-0.238449097,-0.182495117,-0.053031921,0.006838012,0.001413574,1.00372839
13.639923,-0.116378784,0.107421875,-0.136955261,0.005373169,-0.001516113,1.004460812
13.64055,-0.093490601,0.153198242,0.206367493,0.00586145,0.000681152,1.001897335
13.641177,-0.02482605,0.069274902,0.160591125,0.005251098,-0.000783691,1.001286983
13.641804,-0.276596069,-0.022277832,-0.030143738,0.006838012,-0.00005127,1.002385616
13.642431,-0.047714233,-0.029907227,0.061408997,0.006471802,-0.00017334,0.999089718
13.643058,-0.276596069,-0.007019043,-0.121696472,0.005373169,-0.001149902,1.000432491
13.643684,-0.10874939,0.03112793,-0.091178894,0.004762817,-0.00029541,0.999700069
13.644311,-0.185043335,0.206604004,0.137702942,0.006471802,0.000681152,0.998357296
13.644936,-0.085861206,0.09979248,-0.098808289,0.005373169,-0.001271973,1.000188351
13.645562,-0.200302124,0.107421875,-0.037773132,0.003908325,0.000314941,1.002873898
13.646188,-0.162155151,0.069274902,0.008003235,0.00586145,0.000925293,1.002385616
13.646815,-0.276596069,0.191345215,0.023262024,0.003297973,-0.002492676,1.003484249
13.64744,-0.330001831,0.145568848,0.08429718,0.002199341,-0.00029541,1.006291866
13.648066,-0.34526062,0.122680664,-0.007255554,0.00598352,-0.001638184,1.003484249
13.648693,-0.352890015,0.191345215,-0.06829071,0.005129028,-0.00017334,1.001164913
13.649318,-0.192672729,0.11505127,-0.007255554,0.005617309,0.002390137,1.003240108
13.649944,-0.26133728,0.206604004,-0.182731628,0.005495239,0.002878418,1.001775265
13.650571,-0.42918396,0.198974609,-0.175102234,0.005495239,0.002023926,1.002385616
13.651197,-0.314743042,0.237121582,-0.014884949,0.004274536,0.000314941,1.004216671
13.651824,-0.330001831,0.008239746,-0.114067078,0.007204223,0.002634277,1.004094601
13.65245,-0.307113647,0.18371582,0.061408997,0.004030395,0.000070801,1.00775671
13.653075,-0.391036987,0.092163086,-0.098808289,0.004762817,-0.000661621,1.006658077
13.653701,-0.5131073,0.09979248,-0.06829071,0.003297973,-0.001149902,1.008855343
13.654328,-0.474960327,0.008239746,0.00037384,-0.001340698,-0.00420166,1.010076046
13.654954,-0.452072144,0.26763916,0.038520813,0.004640747,-0.00005127,1.009465694
13.655579,-0.093490601,0.092163086,0.076667786,0.00573938,-0.000783691,1.008855343
13.656204,-0.444442749,0.168457031,-0.007255554,0.002809692,-0.001394043,1.009709835
13.656831,-0.383407593,0.069274902,-0.030143738,0.002443481,0.001413574,1.010564327
13.657457,-0.253707886,-0.007019043,-0.121696472,0.001222778,0.000559082,1.009709835
13.658083,-0.352890015,0.168457031,-0.045402527,0.004518677,0.005319824,1.007024288
13.658708,-0.253707886,0.023498535,-0.060661316,-0.000242066,-0.001638184,1.011052608
13.659334,-0.185043335,-0.022277832,-0.022514343,0.0019552,-0.004567871,1.009587765
13.65996,-0.093490601,-0.090942383,0.030891418,0.004640747,0.002145996,1.01154089
13.660586,-0.307113647,-0.151977539,0.053779602,0.002443481,-0.00029541,1.008611202
13.661213,-0.154525757,0.107421875,0.023262024,0.005006958,0.00385498,1.00775671
13.661839,-0.383407593,-0.037536621,-0.114067078,0.000124145,-0.005300293,1.01178503
13.662466,-0.116378784,-0.037536621,-0.098808289,-0.000974488,-0.001149902,1.008244991
13.663092,-0.299484253,0.061645508,-0.037773132,0.004396606,0.002512207,1.002751827
13.663717,-0.452072144,-0.060424805,-0.007255554,0.00573938,0.005563965,1.003362179
13.664342,-0.413925171,0.061645508,0.015632629,0.003297973,0.005197754,1.002751827
13.664967,-0.444442749,0.11505127,-0.053031921,0.005617309,0.001901855,1.004460812
13.665593,-0.688583374,0.244750977,-0.129325867,0.0019552,-0.00041748,1.001531124
13.666218,-0.59703064,-0.090942383,-0.030143738,0.002199341,-0.002248535,1.003118038
13.666843,-0.535995483,0.092163086,-0.114067078,-0.001096558,0.000437012,1.003240108
13.667468,-0.330001831,0.244750977,-0.106437683,-0.002805542,-0.003713379,0.998357296
13.682097,0.066726685,0.076904297,0.198738098,-0.003049683,-0.001638184,1.001409054
13.682831,0.013320923,-0.014648438,0.160591125,-0.003415894,0.002756348,1.00006628
13.68349,-0.02482605,0.092163086,0.114814758,-0.003415894,-0.002248535,0.999211788
13.684115,0.165908813,0.069274902,0.038520813,-0.000852417,0.000437012,1.001409054
13.684741,0.104873657,-0.05279541,-0.014884949,-0.000486206,0.001413574,0.998601437
13.685367,0.074356079,0.054016113,-0.037773132,-0.005613159,0.004587403,0.999700069
13.685993,0.150650024,-0.037536621,0.00037384,-0.008420777,-0.001027832,1.000676632
13.686619,0.280349731,-0.037536621,-0.022514343,-0.002683472,0.002145996,0.997991085
13.687244,0.150650024,0.084533691,-0.06829071,-0.003415894,0.000925293,0.998113155
13.68787,0.394790649,0.054016113,0.038520813,-0.000852417,0.002878418,1.001164913
13.688495,0.14302063,0.092163086,0.160591125,-0.002927613,0.000803223,0.996770382
13.68912,-0.062973022,0.084533691,0.023262024,-0.003171753,0.000681152,0.998723507
13.689746,0.173538208,-0.083312988,-0.030143738,0.0019552,0.00385498,0.995671749
13.690372,-0.009567261,0.023498535,-0.075920105,-0.001218628,0.005686035,0.99591589
13.691005,-0.055343628,0.343933105,-0.014884949,-0.003415894,-0.000661621,0.99591589
13.69163,-0.101119995,0.260009766,0.122444153,-0.005369019,-0.001394043,0.997502804
13.692256,-0.307113647,0.038757324,0.030891418,-0.007322144,-0.001516113,1.000554562
13.692881,-0.02482605,0.198974609,-0.091178894,-0.003537964,-0.000539551,0.997991085
13.693507,-0.017196655,0.015869141,-0.045402527,-0.004026245,0.001657715,1.000432491
13.69526,0.173538208,0.046386719,-0.045402527,-0.003782105,-0.001638184,0.998967648
13.695885,0.204055786,0.237121582,0.038520813,-0.000608277,-0.001638184,1.001775265
13.696511,0.066726685,0.11505127,0.053779602,-0.003049683,0.000925293,0.997380733
13.697137,-0.062973022,-0.029907227,-0.091178894,-0.003293823,0.000314941,0.99994421
13.697762,0.181167603,0.145568848,0.023262024,-0.00207312,0.000559082,0.997624874
13.698388,0.280349731,0.252380371,0.145332336,-0.003537964,0.002023926,0.999577999
13.699014,0.188796997,0.107421875,-0.167472839,-0.004026245,-0.00017334,0.998235226
13.69964,0.104873657,0.069274902,0.183479309,-0.000974488,0.001291504,0.997746944
13.700265,-0.02482605,0.176086426,-0.144584656,-0.002561402,0.00373291,1.001653194
13.700891,0.05909729,0.061645508,0.08429718,-0.004270386,0.001291504,1.001042843
13.701516,0.089614868,0.038757324,-0.0835495,-0.002439331,0.001779785,1.002263546
13.702142,0.089614868,0.18371582,-0.060661316,-0.00195105,0.002268066,1.002141476
13.702769,0.043838501,0.122680664,0.114814758,-0.000119995,-0.00029541,1.004094601
13.703395,0.14302063,-0.029907227,0.046150208,-0.003415894,-0.001149902,1.004949093
13.704021,0.074356079,0.168457031,0.061408997,-0.000364136,-0.000783691,1.005193233
13.704646,-0.009567261,-0.007019043,-0.037773132,0.001711059,-0.000905762,1.007146358
13.705271,0.135391235,0.092163086,0.076667786,0.002687622,0.002023926,1.008489132
13.705896,0.173538208,-0.014648438,-0.175102234,-0.00182898,-0.003225098,1.008977413
13.706522,-0.10874939,0.160827637,-0.037773132,-0.003293823,-0.004445801,1.008977413
13.707147,0.036209106,0.038757324,0.053779602,-0.000608277,0.001047363,1.010564327
13.707772,0.066726685,0.221862793,-0.175102234,-0.002805542,0.001901855,1.010686398
13.708425,-0.078231812,0.03112793,-0.014884949,-0.000486206,-0.002736816,1.012395382
13.70905,-0.040084839,0.214233398,-0.060661316,-0.000730347,-0.00029541,1.008855343
13.709675,-0.032455444,0.000610352,-0.014884949,-0.000364136,0.000314941,1.012151241
13.710301,-0.169784546,-0.037536621,-0.175102234,0.000612427,-0.000661621,1.009709835
13.710927,-0.085861206,-0.060424805,-0.129325867,-0.001218628,-0.00420166,1.012517452
13.711554,-0.055343628,-0.045166016,-0.030143738,0.000246216,-0.001149902,1.014836788
13.71218,-0.017196655,-0.159606934,0.122444153,-0.00182898,-0.002370605,1.016789913
13.712807,-0.154525757,0.084533691,0.107185364,-0.000608277,-0.001271973,1.015080929
13.713434,-0.146896362,0.061645508,-0.129325867,-0.001584839,-0.003347168,1.017888546
13.726426,0.051467896,-0.098571777,-0.053031921,0.003297973,-0.001027832,1.011174679
13.727156,0.066726685,-0.174865723,-0.022514343,0.005251098,0.000437012,1.010076046
13.727781,0.043838501,0.000610352,0.008003235,0.001711059,0.004343262,1.004949093
13.728407,-0.413925171,0.046386719,0.08429718,0.009157348,0.010568848,1.000798702
13.729034,-0.543624878,0.11505127,0.023262024,-0.000608277,-0.00432373,1.010198116
13.72966,-0.490219116,-0.037536621,0.099555969,-0.006101441,-0.018483886,1.023869991
13.730287,-0.009567261,0.191345215,-0.182731628,-0.000852417,-0.006154785,1.017766476
13.730912,0.173538208,0.061645508,0.076667786,0.003786255,0.008127442,1.008977413
13.731538,-0.139266968,0.09979248,-0.037773132,0.003053833,0.008493653,1.003240108
13.732165,-0.391036987,0.153198242,-0.037773132,0.00207727,-0.003713379,1.004827023
13.732791,-0.185043335,0.076904297,0.038520813,0.008791137,-0.007497558,1.012395382
13.733416,-0.238449097,0.206604004,-0.213249207,-0.001706909,0.006906739,0.999455929
13.734043,-0.223190308,0.09979248,0.175849915,-0.007078003,-0.015676269,1.01569128
13.73467,0.013320923,-0.060424805,-0.007255554,0.001344848,-0.006887207,1.012395382
13.735295,0.265090942,-0.22064209,0.00037384,-0.003537964,0.000559082,1.008244991
13.735921,0.081985474,-0.167236328,-0.037773132,0.003420044,0.005441895,0.998723507
13.736548,-0.001937866,-0.090942383,-0.144584656,0.007692505,0.000192871,1.002873898
13.737174,-0.360519409,0.298156738,0.023262024,0.010255981,0.011057129,0.993352413
13.737799,-0.574142456,0.404968262,-0.167472839,-0.003049683,-0.008962402,1.002873898
13.738426,-0.146896362,-0.190124512,0.114814758,-0.003171753,-0.018605957,1.013616085
13.739052,0.265090942,0.076904297,-0.106437683,0.00573938,0.005686035,0.997869015
13.739679,-0.116378784,-0.05279541,-0.190361023,-0.001706909,0.003244629,0.998235226
13.740305,-0.040084839,-0.258789062,0.08429718,0.000246216,-0.00822998,1.005559444
13.740931,-0.047714233,0.214233398,0.053779602,0.013307739,0.002268066,1.002019405
13.741557,-0.291854858,0.198974609,-0.182731628,0.004640747,0.013254395,0.993596554
13.742184,-0.467330933,0.061645508,0.160591125,0.001100708,-0.006276855,1.002263546
13.74281,-0.200302124,0.137939453,-0.243766785,0.006715942,-0.009816894,1.003118038
13.743436,-0.085861206,0.09979248,0.137702942,0.006471802,-0.001394043,1.000188351
13.744061,-0.200302124,0.145568848,-0.060661316,0.005617309,0.007150879,0.994451046
13.744686,-0.413925171,0.076904297,-0.197990417,0.009157348,0.006662598,0.994573116
13.745311,-0.42918396,0.3515625,0.046150208,0.009523559,0.000314941,0.996526241
13.745936,-0.658065796,0.427856445,-0.182731628,0.005617309,0.00373291,0.992375851
13.746563,-0.711471558,0.366821289,-0.007255554,0.00183313,0.001169434,0.996404171
13.747188,-0.520736694,0.382080078,0.061408997,-0.008542847,-0.035207521,1.018987179
13.747814,0.158279419,0.076904297,0.023262024,-0.007322144,-0.025441894,1.016057491
13.74844,0.501602173,-0.274047852,0.091926575,0.008180786,0.010812989,0.994573116
13.749066,0.036209106,0.015869141,-0.022514343,0.009279419,0.020456543,0.986760616
13.749692,0.127761841,-0.106201172,-0.053031921,-0.000364136,-0.006520996,0.999089718
13.750318,0.287979126,0.160827637,-0.007255554,0.00573938,-0.008596191,1.006413937
13.750945,-0.017196655,0.054016113,-0.007255554,0.007692505,0.010080567,0.998601437
13.751572,-0.246078491,-0.144348145,-0.23613739,-0.000608277,0.000437012,0.999333858
13.752197,-0.169784546,-0.060424805,-0.022514343,0.011720825,0.002268066,0.994817257
13.752823,-0.215560913,0.11505127,-0.114067078,0.005129028,-0.000661621,0.997380733
13.753449,-0.268966675,0.168457031,-0.060661316,0.001466919,0.000803223,1.00006628
13.754076,-0.26133728,-0.037536621,0.122444153,0.004518677,0.006174317,0.994939327
13.754702,-0.42918396,-0.075683594,0.046150208,-0.000852417,-0.009206543,1.002385616
13.755328,0.089614868,-0.213012695,-0.030143738,-0.00597937,-0.030202636,1.014836788
13.755953,0.272720337,-0.205383301,0.023262024,0.012819458,0.013620606,0.999700069
13.768614,0.196426392,-0.190124512,-0.075920105,0.010255981,0.024973145,0.987493038
13.769336,0.05909729,0.000610352,0.076667786,-0.00597937,-0.009328613,1.005559444
13.769962,0.555007935,-0.45715332,-0.121696472,-0.00182898,-0.019582519,1.016423702
13.770589,0.616043091,-0.098571777,0.137702942,0.003420044,0.005441895,0.998967648
13.771215,0.181167603,-0.258789062,-0.053031921,0.006227661,0.019479981,0.994328976
13.771841,-0.017196655,-0.357971191,-0.098808289,0.000490356,-0.001638184,1.00385046
13.772468,0.455825806,-0.197753906,-0.014884949,-0.009275269,-0.029226074,1.022649288
13.773094,1.234024048,-0.54107666,0.00037384,0.002321411,-0.002980957,1.01544714
13.773719,0.936477661,-0.342712402,0.038520813,0.014284302,0.036203612,0.987859249
13.774346,-0.154525757,0.153198242,-0.014884949,0.010133911,0.034738768,0.981023312
13.774972,-0.10874939,-0.060424805,0.107185364,-0.015989136,-0.03459717,1.018987179
13.775598,0.524490356,-0.37322998,0.008003235,0.002443481,-0.023000488,1.022771358
13.776223,0.806777954,-0.174865723,-0.075920105,0.004884887,0.028391114,0.993230343
13.776849,0.410049438,-0.251159668,0.229255676,-0.017820191,-0.007741699,1.009221554
13.777474,0.738113403,-0.655517578,-0.007255554,0.019167114,-0.006032715,1.010442257
13.778099,0.562637329,-0.075683594,-0.114067078,0.012819458,0.03547119,0.986760616
13.778726,-0.520736694,0.343933105,0.137702942,0.013185669,0.038522948,0.980168819
13.779353,-0.970870972,0.298156738,-0.06829071,-0.019162964,-0.021901855,1.016301632
13.779978,0.532119751,0.092163086,0.030891418,0.028688598,0.044626463,0.983342648
13.780605,-0.5131073,0.374450684,-0.098808289,-0.000974488,0.045603026,0.975163937
13.781231,-0.5131073,0.374450684,-0.098808289,-0.000974488,0.045603026,0.975163937
13.781856,-0.795394897,0.321044922,-0.0835495,-0.012937378,-0.049978029,1.036687374
13.782482,-0.146896362,0.397338867,-0.106437683,0.014772583,0.03180908,0.991155148
13.783107,-1.039535522,0.397338867,-0.045402527,-0.00988562,0.018625489,0.995549679
13.783733,-0.299484253,-0.159606934,-0.037773132,-0.027097534,-0.077565916,1.052068233
13.784358,1.714675903,-0.487670898,-0.091178894,-0.001096558,-0.035451662,1.03888464
13.784983,1.432388306,-0.342712402,0.137702942,0.013307739,0.065988772,0.977971554
13.78561,0.05909729,-0.380859375,-0.205619812,0.0019552,0.028879395,0.98834753
13.786235,-0.467330933,0.275268555,0.160591125,0.001344848,-0.008596191,1.006902218
13.786861,0.722854614,-0.464782715,-0.15221405,-0.024289917,-0.059987795,1.049993038
13.787486,1.943557739,-0.487670898,-0.312431335,0.006105591,0.002756348,1.019841671
13.788111,0.677078247,-0.235900879,-0.045402527,0.02527063,0.082590334,0.962590694
13.788738,-0.986129761,0.244750977,-0.129325867,0.005251098,0.034250487,0.978703976
13.789364,-0.940353394,0.221862793,-0.045402527,-0.009275269,-0.051076662,1.032292843
13.789989,0.265090942,-0.045166016,0.236885071,-0.012327027,-0.033986818,1.033635616
13.790615,0.814407349,-0.129089355,0.099555969,-0.003293823,0.016794434,1.012151241
13.79124,0.081985474,-0.228271484,0.175849915,0.010744262,0.034250487,0.993474483
13.791866,-0.482589722,-0.037536621,0.030891418,-0.006223511,-0.005422363,1.008122921
13.792492,0.112503052,0.008239746,0.076667786,-0.005246948,-0.022268066,1.025945187
13.793119,0.661819458,-0.113830566,0.08429718,0.000490356,0.002023926,1.012517452
13.793744,0.356643677,-0.045166016,-0.23613739,0.001588989,0.021066895,0.997869015
13.795464,0.257461548,0.290527344,0.046150208,0.027834106,0.061716307,0.974675655
13.79609,-1.245529175,0.229492188,0.038520813,-0.005369019,0.022653809,0.990056515
13.796715,-1.108200073,0.321044922,-0.053031921,0.00207727,-0.019582519,1.017522335
13.797342,-0.795394897,0.458374023,-0.136955261,0.004640747,-0.012868652,1.014958858
13.797969,-0.558883667,0.511779785,0.015632629,-0.00182898,0.019724121,1.000920773
13.798595,-0.658065796,0.3515625,0.046150208,-0.019529175,-0.021535644,1.026677608
13.799221,-0.238449097,0.069274902,-0.022514343,0.007082153,-0.011525879,1.018865108
13.799846,-0.032455444,0.290527344,0.030891418,-0.012815308,-0.010915527,1.01556921
13.81248,-2.092391968,0.427856445,0.015632629,-0.0136698,-0.057424318,1.023137569
13.813198,-0.604660034,-0.258789062,-0.022514343,0.011720825,-0.041677248,1.035710812
13.813824,0.471084595,-0.075683594,0.038520813,-0.028928589,-0.055837404,1.039861202
13.81445,1.783340454,-0.472412109,-0.030143738,0.010988403,0.009348145,1.021794796
13.815077,-0.062973022,0.107421875,-0.060661316,0.052980591,0.143503413,0.924138546
13.815704,-3.160507202,0.527038574,-0.045402527,-0.028928589,0.019602051,0.975896358
13.81633,-1.649887085,0.076904297,0.046150208,-0.016233277,-0.138234869,1.070500851
13.816956,1.653640747,-0.083312988,-0.220878601,0.017091919,-0.044729006,1.051457882
13.817582,0.265090942,0.366821289,0.023262024,-0.01354773,0.086374514,0.963811398
13.818208,-18.68632507,9.483947754,-0.671012878,0.784425914,1.718332529,0.034368038
13.818834,-41.47532654,12.40600586,0.244514465,-0.508420765,-0.527883291,1.148747921
13.81946,-15.04710388,4.067077637,-0.747306824,-0.067746952,-1.23845458,1.64825964
13.820086,1.226394653,6.790771484,-0.114067078,-0.01745398,0.110056154,1.030583858
13.820711,-5.006820679,1.831665039,0.275032043,-0.235715702,-0.013601074,1.049626827
13.821336,-4.121810913,-0.464782715,-0.251396179,0.166261837,0.095529787,0.950139523
13.821963,-4.732162476,3.723754883,-0.014884949,-0.037839722,-0.049001466,1.024846554
13.822588,-2.862960815,1.358642578,0.297920227,-0.007810425,-0.029470215,1.041448116
13.823213,-2.138168335,0.687255859,-0.274284363,0.002199341,0.020822754,1.005193233
13.823839,-3.328353882,1.907958984,-0.15221405,0.012575317,0.040354002,0.992497921
13.824466,-4.091293335,2.129211426,0.206367493,-0.019162964,-0.049245607,1.022771358
13.825092,-2.687484741,0.580444336,-0.075920105,-0.010740113,-0.018117676,1.024114132
13.825717,-3.27494812,1.434936523,0.046150208,0.018800903,0.056589354,0.982976437
13.843679,-2.840072632,1.129760742,-0.23613739,-0.001706909,-0.002126465,0.998845577
13.844304,-2.809555054,1.213684082,-0.167472839,-0.002317261,-0.00810791,1.004704952
13.844929,-2.61882019,1.259460449,-0.136955261,0.000368286,0.005930176,0.998479366
13.845555,-2.916366577,1.236572266,-0.259025574,0.001711059,0.00751709,0.996770382
13.84618,-2.901107788,1.221313477,0.008003235,-0.00182898,-0.011281738,1.004704952
13.846805,-2.718002319,1.122131348,-0.136955261,-0.003537964,-0.00432373,1.008122921
13.847431,-2.885848999,0.969543457,-0.075920105,-0.002683472,0.001291504,1.006780148
13.848056,-2.840072632,0.946655273,0.069038391,-0.003904175,-0.012868652,1.006413937
13.848681,-2.992660522,1.236572266,-0.037773132,0.01379602,0.024729004,0.989568233
13.849308,-3.4427948,1.366271973,-0.15221405,0.000124145,-0.003713379,1.000188351
13.849934,-3.343612671,1.320495605,-0.175102234,0.007204223,0.007028809,0.998723507
13.850559,-3.625900269,1.221313477,-0.098808289,-0.000730347,0.002634277,0.996404171
13.851186,-3.648788452,1.534118652,-0.0835495,-0.001706909,-0.007619629,1.003240108
13.851812,-3.618270874,1.335754395,-0.213249207,-0.00207312,-0.001027832,0.998845577
13.852437,-3.397018433,1.351013184,-0.098808289,0.004030395,0.00348877,0.995061398
13.853062,-3.892929077,1.717224121,0.00037384,0.000734497,-0.002492676,1.000920773
13.853688,-4.045516968,1.396789551,-0.121696472,0.000856567,0.00361084,1.005681515
13.854315,-3.961593628,1.595153809,-0.037773132,-0.002439331,-0.00017334,1.000920773
13.854942,-4.030258179,1.747741699,-0.144584656,-0.004758667,-0.004567871,1.000798702
13.855569,-3.93107605,1.610412598,-0.06829071,-0.000242066,-0.003591309,1.000920773
13.856195,-3.938705444,1.404418945,-0.060661316,-0.000486206,-0.003713379,1.002263546
13.856822,-4.022628784,1.73248291,-0.121696472,-0.002683472,-0.001516113,1.001286983
13.857447,-4.053146362,1.511230469,-0.007255554,-0.004880738,-0.002858887,1.006413937
13.858073,-3.908187866,1.389160156,-0.007255554,-0.001218628,-0.002248535,1.004460812
13.8587,-3.961593628,1.49597168,0.023262024,-0.00573523,-0.003347168,1.008244991
13.859325,-3.786117554,1.343383789,-0.220878601,-0.003293823,-0.009450683,1.007512569
13.872046,-2.183944702,0.748291016,-0.014884949,-0.008909058,-0.009206543,1.004216671
13.872806,-1.901657104,0.527038574,0.008003235,-0.001706909,-0.007863769,1.006780148
13.873432,-1.832992554,0.51940918,-0.0835495,-0.006101441,-0.005910644,1.00763464
13.874057,-1.710922241,0.771179199,0.114814758,-0.002561402,-0.006887207,1.010564327
13.874683,-1.886398315,0.389709473,-0.106437683,-0.007810425,-0.000661621,1.006902218
13.87531,-1.756698608,0.511779785,-0.037773132,0.000368286,-0.007863769,1.008733273
13.875935,-1.619369507,0.549926758,-0.06829071,-0.004270386,-0.001516113,1.007146358
13.876561,-1.985580444,0.717773438,-0.114067078,-0.006101441,-0.00420166,1.004704952
13.877195,-1.817733765,0.458374023,-0.053031921,-0.004514527,-0.01189209,1.007268429
13.877821,-1.695663452,0.26763916,-0.053031921,-0.003782105,-0.002248535,1.005071163
13.878446,-1.588851929,0.58807373,-0.144584656,-0.004026245,-0.001149902,1.005315304
13.879071,-1.504928589,0.534667969,-0.091178894,-0.006101441,-0.005422363,1.010076046
13.879697,-1.344711304,0.282897949,-0.022514343,-0.004514527,-0.007375488,1.007390499
13.880324,-1.268417358,0.366821289,-0.167472839,-0.003293823,-0.006276855,1.00787878
13.880949,-1.40574646,0.389709473,-0.0835495,-0.002439331,-0.00017334,1.009465694
13.881575,-1.15397644,0.321044922,-0.091178894,-0.005124878,-0.007131347,1.00763464
13.8822,-1.199752808,0.412597656,-0.037773132,-0.001584839,-0.006520996,1.005193233
13.882826,-1.08531189,0.3515625,-0.121696472,-0.004758667,-0.006154785,1.007390499
13.883452,-0.864059448,0.397338867,-0.136955261,-0.004636597,-0.012258301,1.005681515
13.884079,-0.703842163,0.443115234,0.091926575,-0.003660034,-0.010915527,1.003240108
13.884705,-0.520736694,0.374450684,-0.159843445,-0.002683472,-0.006765136,1.005193233
13.88533,-0.66569519,0.237121582,0.061408997,-0.001706909,-0.002614746,1.005071163
13.885956,-0.398666382,0.3515625,-0.136955261,-0.003049683,-0.001394043,1.004338741
13.886582,-0.66569519,0.290527344,-0.037773132,-0.004514527,0.000192871,1.007512569
13.887209,-0.726730347,0.412597656,0.008003235,-0.004636597,-0.006520996,1.006169796
13.887834,-0.42918396,0.313415527,-0.037773132,-0.002927613,-0.006154785,1.00385046
13.88846,-0.398666382,0.389709473,-0.007255554,-0.003660034,0.001535645,1.006536007
13.889085,-0.535995483,0.176086426,-0.075920105,-0.004148316,-0.002614746,1.005803585
13.889711,-0.413925171,0.282897949,-0.045402527,-0.00207312,-0.00810791,1.007024288
13.890336,-0.200302124,0.328674316,-0.022514343,-0.000364136,-0.005056152,1.009343624
13.890963,-0.474960327,0.328674316,-0.15221405,-0.003537964,-0.002858887,1.005803585
13.89159,-0.375778198,0.176086426,0.00037384,-0.000852417,-0.003347168,1.008367062
13.892217,-0.360519409,0.015869141,0.015632629,-0.001096558,-0.001149902,1.006169796
13.892843,-0.146896362,0.191345215,-0.190361023,-0.003660034,-0.005422363,1.006536007
13.893469,-0.398666382,0.09979248,0.145332336,-0.001584839,-0.006887207,1.005681515
13.894095,-0.34526062,0.023498535,-0.15221405,-0.001218628,-0.005300293,1.007512569
13.895848,-0.352890015,0.198974609,0.046150208,0.000612427,-0.005422363,1.009587765
13.896475,-0.352890015,0.023498535,-0.251396179,-0.003782105,-0.005788574,1.007024288
13.897101,-0.398666382,0.092163086,-0.182731628,-0.001706909,-0.003591309,1.009221554
13.897727,0.005691528,-0.083312988,-0.007255554,-0.002561402,-0.004445801,1.008611202
13.898353,-0.215560913,0.107421875,0.015632629,-0.001340698,-0.004567871,1.006169796
13.89898,-0.017196655,0.160827637,0.046150208,-0.001340698,-0.005178222,1.005681515
13.899607,-0.146896362,0.076904297,-0.030143738,-0.000486206,0.001413574,1.005071163
13.900232,-0.474960327,0.038757324,0.091926575,0.001344848,-0.004934082,1.006291866
13.900857,-0.139266968,0.054016113,-0.259025574,0.003053833,-0.009084472,1.004827023
13.901482,-0.207931519,-0.083312988,-0.045402527,-0.000486206,-0.004934082,1.006413937
13.902109,-0.154525757,-0.174865723,0.030891418,-0.001584839,-0.001149902,1.005193233
13.902734,-0.131637573,-0.060424805,-0.106437683,-0.000364136,-0.010427246,1.005071163
13.915358,0.722854614,-0.159606934,0.030891418,0.004518677,0.006662598,1.003118038
13.916059,0.509231567,-0.014648438,0.137702942,0.001711059,-0.004812011,1.008244991
13.916684,0.486343384,-0.365600586,-0.022514343,0.003664184,-0.00420166,1.005193233
13.917309,0.776260376,-0.319824219,-0.075920105,0.000856567,-0.005910644,1.004094601
13.917936,0.616043091,-0.296936035,-0.0835495,0.002931762,-0.006887207,1.003606319
13.918561,0.692337036,-0.327453613,0.076667786,0.001588989,-0.002004395,1.002873898
13.919187,0.623672485,-0.357971191,-0.220878601,0.003542114,-0.003469238,1.004949093
13.919812,0.501602173,-0.342712402,0.107185364,0.004762817,-0.001882324,1.001531124
13.920437,0.539749146,-0.319824219,-0.190361023,-0.000119995,-0.006765136,1.007024288
13.921062,0.562637329,-0.312194824,-0.23613739,0.002199341,-0.00420166,1.005193233
13.921688,0.455825806,-0.403747559,0.038520813,0.002809692,-0.009694824,1.006047726
13.922313,0.776260376,-0.396118164,-0.190361023,0.000978637,-0.005910644,1.002263546
13.922939,0.524490356,-0.274047852,0.091926575,-0.002561402,-0.00005127,1.004460812
13.923566,0.31086731,-0.258789062,-0.121696472,0.004030395,-0.010183105,1.004949093
13.924192,0.661819458,-0.342712402,-0.037773132,0.001711059,-0.000905762,1.000554562
13.924819,0.349014282,-0.335083008,-0.014884949,-0.000608277,0.004709473,1.004094601
13.925445,0.043838501,-0.441894531,0.099555969,0.001222778,0.002878418,1.004949093
13.92607,0.120132446,-0.266418457,-0.075920105,0.006227661,0.001047363,1.003118038
13.926697,-0.055343628,-0.312194824,-0.075920105,0.000978637,-0.006887207,1.008244991
13.927324,-0.055343628,-0.548706055,-0.007255554,0.000612427,-0.006520996,1.00385046
13.927951,0.120132446,-0.464782715,0.069038391,0.002199341,-0.001394043,1.002873898
13.928577,-0.02482605,-0.235900879,-0.037773132,0.002199341,-0.002492676,1.004460812
13.929203,-0.17741394,-0.38848877,0.236885071,0.001222778,-0.005910644,1.00372839
13.92983,-0.131637573,-0.434265137,0.069038391,0.002443481,-0.006765136,1.002141476
13.930455,0.05909729,-0.495300293,-0.23613739,0.002565552,-0.005544433,1.00372839
13.93108,-0.001937866,-0.571594238,-0.037773132,0.0019552,-0.00407959,1.002507687
13.931706,-0.070602417,-0.37322998,-0.053031921,0.004152466,-0.008962402,1.004460812
13.932331,0.234573364,-0.533447266,0.061408997,0.002565552,-0.007375488,1.004582882
13.932958,0.097244263,-0.548706055,0.038520813,0.002565552,-0.005056152,1.004460812
13.933584,0.448196411,-0.37322998,-0.213249207,0.001711059,-0.00822998,1.004949093
13.934209,0.349014282,-0.258789062,0.122444153,0.003175903,-0.005910644,1.002141476
13.934835,0.387161255,-0.296936035,0.08429718,0.004152466,-0.005544433,1.002995968
13.93546,0.287979126,-0.602111816,-0.037773132,-0.000242066,-0.002736816,1.003484249
13.936087,0.455825806,-0.594482422,0.030891418,0.00207727,-0.004934082,1.004827023
13.936713,0.387161255,-0.434265137,-0.243766785,-0.000242066,-0.005422363,1.00372839
13.937339,0.577896118,-0.243530273,0.114814758,0.004518677,-0.002614746,1.005193233
13.937964,0.326126099,-0.365600586,0.107185364,-0.000119995,-0.005300293,1.005193233
13.938591,0.524490356,-0.556335449,0.099555969,0.001222778,-0.004445801,1.003240108
13.939216,0.616043091,-0.45715332,-0.0835495,0.003297973,-0.002858887,1.005803585
13.939841,0.455825806,-0.350341797,-0.007255554,0.001711059,-0.005788574,1.004338741
13.940468,0.501602173,-0.480041504,0.030891418,-0.000119995,-0.008962402,1.005559444
13.941093,0.570266724,-0.342712402,0.08429718,-0.001340698,-0.003835449,1.007390499
13.941719,0.837295532,-0.403747559,0.076667786,0.000002075,-0.006276855,1.004216671
13.942346,0.562637329,-0.274047852,-0.0835495,0.000124145,-0.004812011,1.00385046
13.942972,0.684707642,-0.609741211,-0.190361023,0.000734497,-0.002614746,1.004827023
13.943598,0.623672485,-0.525817871,0.175849915,0.000246216,-0.005910644,1.002873898
13.944223,0.761001587,-0.357971191,0.015632629,-0.003660034,-0.005788574,1.007146358
13.944848,0.516860962,-0.571594238,-0.106437683,0.001344848,-0.005788574,1.005925655
13.957494,0.936477661,-0.380859375,0.076667786,-0.000242066,-0.003591309,1.005437374
13.958221,0.95173645,-0.45715332,-0.06829071,-0.000608277,-0.001394043,1.002995968
13.958846,0.974624634,-0.419006348,0.00037384,-0.001462769,-0.003103027,1.003240108
13.959473,1.005142212,-0.350341797,0.091926575,-0.003293823,-0.004934082,1.001409054
13.9601,1.03565979,-0.365600586,0.114814758,-0.00195105,-0.00420166,1.00006628
13.960727,1.195877075,-0.434265137,0.00037384,-0.003782105,-0.003957519,1.00006628
13.961352,1.279800415,-0.403747559,-0.144584656,-0.002683472,-0.001882324,1.000798702
13.961977,0.928848267,-0.37322998,-0.129325867,0.001222778,-0.004445801,0.998235226
13.962602,1.20350647,-0.480041504,-0.022514343,-0.002927613,-0.001638184,1.00372839
13.963227,1.317947388,-0.556335449,0.00037384,0.002199341,-0.002614746,1.003484249
13.963853,1.272171021,-0.312194824,0.099555969,-0.004270386,-0.003591309,1.005437374
13.964478,1.104324341,-0.602111816,-0.022514343,-0.002195191,-0.002614746,1.008244991
13.965103,1.172988892,-0.495300293,-0.136955261,-0.003782105,-0.00432373,1.010076046
13.965729,1.333206177,-0.411376953,-0.136955261,-0.00597937,-0.005178222,1.013005733
13.966354,1.363723755,-0.38848877,-0.0835495,-0.003293823,-0.002980957,1.012639523
13.966979,1.134841919,-0.571594238,-0.06829071,-0.004636597,-0.002248535,1.011907101
13.967606,1.317947388,-0.45715332,-0.075920105,-0.001462769,-0.001516113,1.008977413
13.968233,1.241653442,-0.38848877,0.08429718,-0.001096558,-0.003469238,1.009343624
13.968859,1.333206177,-0.525817871,0.130073547,-0.004758667,-0.001882324,1.012517452
13.969486,1.424758911,-0.464782715,-0.358207703,-0.002317261,-0.000783691,1.011418819
13.970112,1.394241333,-0.396118164,0.297920227,-0.004026245,-0.001271973,1.016301632
13.970737,1.195877075,-0.449523926,-0.121696472,-0.002317261,-0.002614746,1.016545773
13.971363,1.28742981,-0.579223633,-0.053031921,-0.000364136,-0.001882324,1.014714718
13.971989,1.348464966,-0.632629395,0.023262024,-0.004026245,-0.001271973,1.011174679
13.972615,1.378982544,-0.525817871,0.038520813,-0.00207312,-0.002004395,1.006047726
13.973242,1.111953735,-0.480041504,-0.014884949,-0.002317261,-0.00420166,1.002873898
13.973868,1.485794067,-0.449523926,0.107185364,-0.001096558,-0.002614746,1.002629757
13.974493,1.295059204,-0.45715332,0.008003235,-0.002439331,-0.003103027,1.003118038
13.975118,1.241653442,-0.411376953,-0.136955261,-0.000852417,-0.003347168,1.004460812
13.975743,1.096694946,-0.472412109,0.015632629,-0.003049683,-0.002248535,1.000554562
13.97637,1.478164673,-0.647888184,0.023262024,-0.000242066,-0.002126465,1.003118038
13.977005,1.386611938,-0.571594238,-0.098808289,-0.000364136,-0.00005127,1.002629757
13.977631,1.35609436,-0.632629395,-0.014884949,-0.002927613,0.001047363,1.002263546
13.978258,1.28742981,-0.449523926,0.015632629,-0.001462769,-0.005544433,1.004582882
13.978884,1.134841919,-0.411376953,0.053779602,-0.004148316,-0.00041748,1.00397253
13.97951,1.150100708,-0.54107666,0.099555969,-0.003415894,0.000192871,1.00787878
13.980135,1.195877075,-0.434265137,-0.045402527,-0.00195105,-0.002492676,1.009465694
13.98076,1.28742981,-0.335083008,0.038520813,-0.00207312,-0.001149902,1.009831905
13.981386,1.172988892,-0.365600586,0.137702942,-0.001706909,0.001901855,1.005437374
13.982011,1.218765259,-0.472412109,-0.197990417,-0.002439331,-0.001394043,1.004216671
13.982637,1.20350647,-0.54107666,-0.15221405,-0.001584839,-0.002004395,1.004827023
13.983262,1.226394653,-0.403747559,0.213996887,-0.00182898,0.001779785,1.004949093
13.983887,1.050918579,-0.403747559,0.023262024,-0.00195105,-0.002248535,1.006658077
13.984514,1.050918579,-0.518188477,-0.030143738,-0.00195105,-0.002004395,1.004094601
13.98514,1.058547974,-0.571594238,0.16822052,-0.003293823,0.000192871,1.009343624
13.985765,1.005142212,-0.525817871,0.015632629,-0.001218628,-0.004567871,1.005681515
13.986391,1.111953735,-0.426635742,-0.06829071,-0.001584839,-0.001027832,1.005925655
13.987016,0.982254028,-0.411376953,0.175849915,0.000246216,-0.001271973,1.008489132
14.000783,1.172988892,-0.464782715,0.114814758,0.001100708,-0.002004395,0.997991085
14.001466,1.165359497,-0.510559082,0.053779602,-0.003171753,-0.003103027,1.001775265
14.002091,1.272171021,-0.380859375,-0.045402527,-0.001584839,-0.001394043,0.99982214
14.002717,1.226394653,-0.396118164,0.114814758,-0.001706909,-0.00407959,0.999333858
14.003342,1.378982544,-0.487670898,-0.167472839,-0.002927613,-0.000661621,0.999089718
14.003968,1.317947388,-0.45715332,-0.23613739,-0.001340698,0.000925293,0.99994421
14.004595,0.905960083,-0.365600586,-0.037773132,-0.000119995,-0.00407959,1.000310421
14.00522,1.226394653,-0.441894531,0.114814758,-0.000852417,-0.002492676,0.999333858
14.005845,1.195877075,-0.472412109,0.130073547,0.001222778,-0.001394043,1.002263546
14.006472,1.28742981,-0.396118164,-0.0835495,-0.003293823,-0.001394043,1.001042843
14.007099,1.111953735,-0.434265137,-0.167472839,0.00207727,0.000314941,1.000188351
14.007724,1.180618286,-0.411376953,0.030891418,-0.00182898,-0.001149902,0.998845577
14.00835,1.35609436,-0.426635742,0.076667786,-0.002317261,-0.005666504,1.002385616
14.008977,1.317947388,-0.411376953,-0.297172546,0.001344848,0.000803223,1.000798702
14.009604,1.211135864,-0.365600586,-0.0835495,-0.000242066,-0.001394043,1.000432491
14.01023,1.317947388,-0.602111816,0.091926575,-0.000242066,-0.002980957,0.997380733
14.010857,1.058547974,-0.37322998,-0.06829071,-0.00207312,-0.00005127,1.00006628
14.011482,1.378982544,-0.533447266,0.191108704,-0.000852417,-0.002248535,1.002751827
14.012109,1.28742981,-0.251159668,-0.037773132,-0.001340698,-0.001638184,1.002507687
14.012734,1.241653442,-0.495300293,-0.014884949,0.000490356,-0.002614746,1.001653194
14.013359,1.325576782,-0.38848877,-0.197990417,0.000002075,-0.000905762,1.002019405
14.013984,1.424758911,-0.464782715,0.091926575,-0.002317261,0.000070801,1.003118038
14.014609,1.363723755,-0.350341797,0.08429718,-0.000242066,0.000070801,1.003240108
14.015236,1.272171021,-0.411376953,-0.243766785,0.001344848,0.001047363,1.003240108
14.0159,1.28742981,-0.396118164,0.00037384,-0.000486206,-0.00041748,1.000676632
14.016527,1.264541626,-0.548706055,0.16822052,-0.00182898,0.000314941,1.00372839
14.017153,1.371353149,-0.434265137,-0.045402527,-0.003049683,0.000437012,1.005071163
14.01778,1.417129517,-0.312194824,0.076667786,0.001222778,0.000803223,1.004460812
14.018406,1.35609436,-0.525817871,0.130073547,0.00207727,-0.002614746,1.00397253
14.019033,1.295059204,-0.45715332,0.00037384,0.001344848,-0.002736816,1.005925655
14.019658,1.180618286,-0.510559082,0.198738098,-0.000608277,-0.003103027,1.005559444
14.020283,1.134841919,-0.472412109,-0.037773132,0.000856567,-0.004445801,1.006536007
14.020908,1.234024048,-0.480041504,-0.045402527,0.003908325,-0.002736816,1.003240108
14.021533,1.195877075,-0.487670898,-0.053031921,0.002565552,-0.00029541,1.00372839
14.022158,1.333206177,-0.342712402,0.053779602,0.002199341,-0.001882324,1.00397253
14.022784,1.234024048,-0.487670898,-0.0835495,-0.000364136,-0.000539551,1.006536007
14.02341,1.226394653,-0.335083008,0.08429718,0.001588989,-0.00029541,1.006169796
14.024036,1.234024048,-0.365600586,0.053779602,0.001222778,0.000314941,1.00385046
14.024663,1.340835571,-0.419006348,0.038520813,0.000368286,0.001413574,1.00372839
14.025289,1.111953735,-0.625,-0.037773132,-0.00182898,-0.002370605,1.004216671
14.025916,1.310317993,-0.289306641,0.046150208,-0.000486206,-0.00432373,1.003240108
14.026543,1.226394653,-0.518188477,0.229255676,0.000978637,-0.002004395,1.00372839
14.027169,1.386611938,-0.426635742,-0.037773132,0.002687622,-0.001638184,1.004704952
14.027794,1.295059204,-0.571594238,-0.075920105,-0.000730347,-0.001394043,1.005803585
14.02842,1.127212524,-0.266418457,0.030891418,-0.001218628,0.002268066,1.004827023
14.029045,1.150100708,-0.441894531,-0.075920105,0.00183313,-0.00432373,1.003118038
14.02967,1.180618286,-0.54107666,-0.15221405,-0.000974488,-0.005178222,1.006536007
14.030296,1.630752563,-0.579223633,0.061408997,-0.002561402,0.002512207,1.013005733
14.042945,1.211135864,-0.693664551,0.038520813,0.00207727,-0.002858887,1.011052608
14.043686,1.363723755,-0.426635742,0.030891418,0.002931762,-0.002614746,1.008000851
14.044311,1.104324341,-0.602111816,0.061408997,-0.002683472,-0.005056152,1.008855343
14.044936,1.241653442,-0.609741211,0.08429718,0.002321411,0.002023926,1.002873898
14.045561,1.325576782,-0.403747559,0.053779602,0.000612427,-0.00041748,1.008367062
14.046186,1.378982544,-0.632629395,0.053779602,0.000490356,-0.003713379,1.009465694
14.046812,1.378982544,-0.54107666,0.015632629,-0.000608277,-0.001149902,1.006169796
14.047438,1.378982544,-0.396118164,-0.106437683,0.002199341,0.001657715,1.007024288
14.048064,1.310317993,-0.716552734,-0.075920105,-0.000119995,-0.006887207,1.005681515
14.04869,1.317947388,-0.449523926,0.099555969,-0.002561402,-0.011159668,1.009465694
14.049315,1.699417114,-0.563964844,-0.045402527,-0.002317261,-0.005666504,1.008855343
14.04994,1.554458618,-0.846252441,0.183479309,-0.001340698,0.002268066,1.008000851
14.050566,1.20350647,-0.701293945,0.16822052,0.004762817,0.017526856,0.999577999
14.051193,1.11958313,-0.739440918,-0.091178894,-0.003293823,-0.009084472,1.008367062
14.051818,1.508682251,-0.724182129,0.08429718,0.000246216,-0.009450683,1.013249874
14.052443,1.478164673,-0.640258789,0.046150208,0.002199341,0.012277832,1.002629757
14.053069,1.180618286,-0.731811523,-0.037773132,-0.000486206,-0.010305176,1.010198116
14.053695,1.592605591,-0.670776367,-0.098808289,0.001711059,-0.003835449,1.010808468
14.054321,1.60786438,-0.670776367,0.061408997,0.00207727,0.00373291,1.006413937
14.054947,1.218765259,-0.678405762,-0.136955261,0.001222778,-0.006032715,1.009343624
14.055573,1.272171021,-0.441894531,0.122444153,0.001344848,0.003000488,1.005559444
14.0562,1.073806763,-0.594482422,0.023262024,0.001100708,-0.000539551,1.003118038
14.056825,1.218765259,-0.502929688,0.046150208,0.001222778,-0.012258301,1.009831905
14.057458,1.501052856,-0.930175781,-0.144584656,0.001588989,-0.004689941,1.01154089
14.058085,1.584976196,-0.777587891,-0.030143738,-0.00195105,0.001657715,1.005315304
14.058712,1.577346802,-0.991210938,-0.0835495,-0.001340698,-0.011770019,1.010808468
14.059337,1.661270142,-0.617370605,0.145332336,0.005617309,0.010446778,1.004949093
14.059962,1.157730103,-0.670776367,0.00037384,0.00573938,0.017038574,0.997136593
14.060587,1.226394653,-0.747070312,0.038520813,-0.000486206,-0.008596191,1.005803585
14.061213,1.417129517,-0.472412109,0.008003235,0.000490356,-0.006032715,1.008122921
14.061838,1.447647095,-0.647888184,-0.129325867,0.002931762,0.005563965,1.003118038
14.062463,1.272171021,-0.502929688,-0.144584656,0.003297973,0.004099121,1.004094601
14.063089,1.150100708,-0.419006348,0.191108704,-0.000852417,-0.007497558,1.010320187
14.063714,1.378982544,-0.510559082,-0.007255554,0.003053833,-0.004812011,1.00763464
14.06434,1.325576782,-0.518188477,-0.167472839,0.000978637,0.001291504,1.005925655
14.064966,1.256912231,-0.70892334,0.053779602,0.001588989,0.000803223,1.004827023
14.065591,1.432388306,-0.45715332,0.00037384,0.000490356,-0.004934082,1.00763464
14.066218,1.371353149,-0.731811523,0.015632629,-0.000119995,-0.002736816,1.00775671
14.066844,1.172988892,-0.892028809,0.030891418,-0.001218628,-0.001149902,1.005681515
14.067469,1.455276489,-0.525817871,-0.053031921,0.002687622,-0.001394043,1.004949093
14.068095,1.386611938,-0.686035156,0.069038391,0.000246216,-0.003835449,1.006413937
14.06872,1.256912231,-0.701293945,0.08429718,0.000734497,-0.000905762,1.006902218
14.069345,1.241653442,-0.686035156,-0.091178894,-0.000242066,-0.000905762,1.006169796
14.069971,1.462905884,-0.518188477,-0.030143738,0.0019552,0.000314941,1.007024288
14.070596,1.485794067,-0.609741211,-0.121696472,-0.002439331,-0.003103027,1.005193233
14.071222,1.623123169,-0.594482422,0.023262024,0.003786255,-0.000905762,1.004704952
14.071847,1.623123169,-0.594482422,0.023262024,0.003786255,-0.000905762,1.004704952
14.072473,1.493423462,-0.800476074,0.030891418,0.000124145,-0.001760254,1.003240108
14.073098,1.409500122,-0.70892334,-0.091178894,0.001344848,0.002145996,1.004216671
14.104276,0.4634552,-0.05279541,-0.053031921,0.000856567,-0.002126465,1.001531124
14.105008,0.509231567,-0.205383301,0.099555969,-0.000486206,-0.002004395,1.007512569
14.105635,0.37953186,-0.266418457,-0.167472839,0.003297973,0.004953614,1.006291866
14.10626,0.242202759,-0.144348145,0.114814758,0.001100708,0.003977051,1.002141476
14.106885,0.204055786,0.015869141,0.152961731,0.001711059,-0.001516113,1.002995968
14.107511,0.280349731,-0.029907227,-0.0835495,0.000124145,-0.002492676,1.006658077
14.108138,0.326126099,0.084533691,-0.106437683,-0.000852417,0.000070801,1.008244991
14.108764,0.295608521,-0.129089355,-0.144584656,-0.000119995,-0.003835449,1.004704952
14.10939,0.22694397,-0.045166016,0.08429718,0.000002075,-0.00005127,1.005681515
14.110016,0.22694397,-0.068054199,-0.098808289,0.000246216,-0.002492676,1.003606319
14.110642,0.287979126,0.107421875,0.015632629,0.000002075,0.001657715,1.003606319
14.111268,0.089614868,0.000610352,0.107185364,0.001100708,-0.00029541,1.004704952
14.111893,0.249832153,-0.098571777,-0.182731628,-0.002561402,-0.007863769,1.00775671
14.112519,0.440567017,-0.121459961,-0.098808289,0.001711059,-0.000905762,1.002385616
14.113144,0.112503052,-0.090942383,-0.121696472,-0.002195191,0.004221192,1.005071163
14.113771,-0.040084839,-0.068054199,0.091926575,-0.001340698,0.002145996,1.006780148
14.114396,0.318496704,-0.014648438,-0.0835495,-0.000852417,-0.001149902,1.008611202
14.115023,0.295608521,-0.129089355,-0.053031921,0.000002075,-0.002004395,1.008733273
14.115648,0.242202759,0.069274902,0.130073547,-0.00207312,-0.003103027,1.010076046
14.116273,0.089614868,-0.151977539,-0.06829071,0.000978637,-0.003347168,1.008855343
14.116899,0.280349731,-0.151977539,0.122444153,0.000246216,0.001535645,1.00006628
14.117525,0.173538208,0.000610352,-0.014884949,-0.000730347,0.00361084,1.001286983
14.118184,0.249832153,-0.075683594,-0.022514343,-0.000730347,-0.002614746,1.006169796
14.118811,0.349014282,-0.106201172,0.008003235,0.001711059,-0.002736816,1.007390499
14.119438,0.196426392,-0.068054199,0.061408997,0.001100708,0.001901855,1.007146358
14.120064,0.394790649,0.000610352,0.130073547,-0.004880738,-0.006154785,1.009221554
14.120689,0.394790649,-0.235900879,0.076667786,-0.000119995,-0.00005127,1.008611202
14.121316,0.295608521,-0.106201172,0.023262024,-0.001462769,0.006174317,1.00397253
14.121941,0.14302063,-0.235900879,0.030891418,-0.002927613,-0.00017334,1.008489132
14.122566,0.249832153,-0.151977539,0.023262024,-0.000852417,-0.002370605,1.010442257
14.123191,0.356643677,-0.190124512,0.061408997,-0.000974488,-0.005910644,1.009831905
14.123817,0.333755493,-0.144348145,0.038520813,-0.003782105,-0.002980957,1.012273312
14.124442,0.936477661,-0.449523926,0.053779602,-0.010618042,-0.02385498,1.019841671
14.125069,1.539199829,-0.670776367,-0.075920105,-0.007810425,-0.028615722,1.027654171
14.125695,1.562088013,-0.525817871,-0.053031921,0.010744262,0.026560059,0.997624874
14.126321,0.822036743,-0.342712402,-0.014884949,0.010622192,0.038645018,0.98053503
14.126946,0.005691528,-0.197753906,0.107185364,0.004396606,0.016916504,0.991521358
14.127571,-0.093490601,-0.13671875,-0.075920105,-0.000119995,-0.005422363,1.00775671
14.128198,0.097244263,-0.098571777,-0.121696472,-0.007444214,-0.012868652,1.018865108
14.128823,0.455825806,0.000610352,0.145332336,0.003908325,-0.011525879,1.008122921
14.12945,0.440567017,-0.121459961,0.053779602,-0.008542847,0.017893067,1.005803585
14.130076,-0.169784546,-0.213012695,-0.114067078,0.011110473,0.02717041,0.995305538
14.130703,-0.497848511,-0.05279541,-0.014884949,-0.00207312,-0.008596191,0.997991085
14.131328,0.104873657,-0.258789062,0.114814758,-0.015134644,-0.041799318,1.026677608
14.131953,0.905960083,-0.617370605,0.053779602,-0.013303589,-0.025441894,1.027532101
14.13258,1.241653442,-1.11328125,0.00037384,0.002931762,0.016428223,1.000798702
14.133206,0.677078247,-0.701293945,0.175849915,0.01355188,0.032175291,0.986028194
14.133832,-0.093490601,-0.289306641,-0.129325867,0.010988403,0.012521973,0.99213171
14.146574,0.280349731,-0.090942383,0.236885071,0.001100708,-0.001760254,1.005071163
14.14733,-0.02482605,-0.037536621,0.038520813,0.000612427,0.002756348,1.005071163
14.147956,-0.062973022,0.046386719,0.152961731,0.004274536,0.000192871,1.004216671
14.148581,0.181167603,0.015869141,-0.213249207,-0.000852417,-0.000783691,1.005071163
14.149208,0.013320923,-0.029907227,-0.045402527,-0.001706909,-0.00029541,1.004582882
14.149835,-0.215560913,0.015869141,-0.06829071,-0.000242066,0.001413574,1.003240108
14.150461,0.066726685,0.137939453,-0.037773132,-0.000486206,-0.001394043,1.005315304
14.151086,0.120132446,-0.113830566,0.107185364,-0.002439331,0.001047363,1.002629757
14.151711,-0.169784546,-0.266418457,-0.144584656,-0.002317261,0.001169434,1.004582882
14.152336,-0.070602417,-0.129089355,0.015632629,0.003420044,-0.001149902,1.006536007
14.152962,0.05909729,-0.060424805,0.16822052,-0.00195105,-0.002370605,1.004582882
14.153588,0.257461548,-0.319824219,0.107185364,0.001222778,-0.000905762,1.004094601
14.154215,0.181167603,-0.098571777,-0.037773132,0.002687622,-0.001027832,1.00397253
14.15484,-0.085861206,-0.113830566,-0.0835495,0.001222778,-0.00005127,1.004704952
14.155466,0.173538208,-0.113830566,-0.15221405,-0.000119995,0.000192871,1.004827023
14.156092,-0.001937866,-0.060424805,-0.0835495,0.001344848,-0.000661621,1.003118038
14.156718,-0.055343628,-0.007019043,-0.007255554,0.000978637,0.001047363,1.004704952
14.157344,0.135391235,0.03112793,-0.060661316,-0.002195191,-0.000539551,1.007146358
14.157969,0.104873657,-0.05279541,-0.136955261,-0.000608277,-0.002736816,1.00397253
14.158594,0.22694397,0.008239746,-0.136955261,0.002443481,0.000437012,1.003362179
14.159221,0.394790649,-0.029907227,-0.114067078,0.000246216,-0.001516113,1.006780148
14.159847,0.280349731,-0.090942383,0.191108704,0.001100708,-0.005788574,1.005559444
14.160472,0.242202759,0.076904297,0.08429718,0.000124145,0.000314941,1.006169796
14.161097,0.242202759,-0.144348145,-0.121696472,-0.002317261,-0.001394043,1.007390499
14.161723,0.249832153,-0.213012695,0.137702942,-0.001218628,-0.003225098,1.006536007
14.162348,0.22694397,-0.235900879,0.137702942,-0.00195105,-0.001638184,1.007024288
14.162975,0.287979126,-0.045166016,0.206367493,-0.000486206,0.000437012,1.003484249
14.1636,0.257461548,0.03112793,-0.091178894,0.002443481,0.000925293,1.001409054
14.164225,0.196426392,-0.205383301,0.038520813,0.000246216,0.000192871,1.004216671
14.164852,0.211685181,-0.174865723,0.008003235,-0.000364136,0.000681152,1.004460812
14.165478,0.074356079,-0.068054199,-0.15221405,0.001466919,0.001413574,1.005681515
14.166105,0.173538208,-0.258789062,0.030891418,0.003664184,-0.000905762,1.005071163
14.166731,0.211685181,-0.13671875,-0.014884949,0.000856567,-0.00029541,1.004460812
14.167356,0.234573364,-0.037536621,-0.060661316,-0.000242066,0.001657715,1.004216671
14.167982,0.104873657,-0.121459961,0.015632629,-0.000852417,0.003122559,1.003240108
14.168608,0.318496704,-0.106201172,-0.014884949,0.004030395,-0.00029541,1.001286983
14.169235,0.097244263,-0.075683594,0.00037384,-0.001340698,-0.002004395,1.004338741
14.169862,0.188796997,-0.190124512,-0.037773132,0.003175903,0.000314941,1.003606319
14.170488,0.066726685,-0.144348145,-0.15221405,-0.000119995,0.000192871,1.005925655
14.171114,-0.055343628,0.069274902,-0.030143738,0.00183313,-0.00041748,1.002385616
14.17174,0.135391235,0.046386719,-0.075920105,0.001222778,0.000559082,1.005315304
14.172367,0.043838501,-0.075683594,-0.106437683,0.000612427,0.000314941,1.002629757
14.172993,-0.062973022,0.09979248,-0.037773132,-0.002927613,0.001779785,1.004582882
14.173619,-0.093490601,-0.182495117,-0.022514343,-0.000486206,0.001169434,1.005925655
14.174245,0.173538208,0.023498535,0.069038391,0.003297973,0.001047363,1.002873898
14.174872,0.173538208,-0.068054199,-0.045402527,0.000978637,0.000681152,1.004704952
14.175497,0.22694397,-0.037536621,-0.0835495,0.001100708,-0.002126465,1.003240108
14.176124,0.120132446,-0.022277832,-0.014884949,0.003420044,0.001535645,1.002873898
14.17675,0.051467896,0.130310059,-0.114067078,0.000612427,0.002390137,1.004827023
14.189338,0.127761841,-0.281677246,-0.007255554,0.00183313,0.001535645,1.00787878
14.190041,0.181167603,-0.075683594,-0.075920105,0.000978637,0.000559082,1.002873898
14.190667,0.112503052,-0.014648438,-0.037773132,0.004640747,0.002512207,1.004704952
14.191294,-0.009567261,-0.098571777,0.023262024,0.000612427,-0.000539551,1.002263546
14.191921,0.081985474,0.046386719,0.107185364,-0.000608277,0.001779785,1.00397253
14.192548,0.14302063,-0.098571777,0.008003235,0.002443481,0.001413574,1.006658077
14.193174,0.303237915,-0.182495117,-0.129325867,0.003175903,0.002756348,1.005315304
14.1938,0.097244263,-0.007019043,0.122444153,0.002687622,0.002390137,1.006047726
14.194426,0.14302063,0.160827637,-0.175102234,0.001344848,0.00373291,1.007390499
14.195052,0.028579712,-0.274047852,0.00037384,0.00207727,0.00373291,1.007024288
14.195679,0.135391235,-0.106201172,0.114814758,0.002687622,0.003000488,1.006169796
14.196304,0.165908813,0.008239746,-0.045402527,0.003053833,0.002756348,1.005559444
14.196929,0.028579712,0.130310059,0.015632629,0.000734497,0.00361084,1.006291866
14.197555,0.013320923,0.023498535,0.114814758,0.002687622,-0.002004395,1.007390499
14.19818,-0.101119995,-0.13671875,-0.053031921,0.000978637,0.000925293,1.00775671
14.198807,0.05909729,0.03112793,0.053779602,-0.000608277,0.00348877,1.008244991
14.199432,0.089614868,-0.068054199,0.015632629,0.000612427,-0.001516113,1.00763464
14.200057,0.005691528,-0.243530273,0.076667786,0.002443481,-0.00041748,1.008489132
14.200682,0.05909729,-0.060424805,-0.007255554,-0.00207312,0.001169434,1.008122921
14.201307,0.081985474,0.168457031,0.122444153,0.002687622,0.001779785,1.004949093
14.201932,0.120132446,-0.05279541,-0.106437683,0.001588989,0.004099121,1.006047726
14.202557,-0.185043335,0.076904297,-0.129325867,0.000002075,0.000314941,1.006902218
14.204297,0.081985474,-0.151977539,-0.022514343,-0.000119995,-0.000783691,1.006413937
14.204924,0.051467896,-0.007019043,0.053779602,0.001100708,-0.000539551,1.008122921
14.205551,-0.009567261,-0.090942383,0.08429718,0.002565552,0.000559082,1.006536007
14.206177,-0.017196655,-0.007019043,-0.022514343,0.001588989,0.001535645,1.005925655
14.206804,0.158279419,0.122680664,0.107185364,-0.000608277,0.001901855,1.004704952
14.20743,-0.047714233,-0.007019043,-0.136955261,0.003297973,0.002512207,1.004582882
14.208056,0.257461548,-0.197753906,0.053779602,0.002809692,0.001413574,1.006169796
14.208682,-0.062973022,0.229492188,0.091926575,0.002687622,0.000437012,1.008367062
14.209308,-0.009567261,0.046386719,-0.014884949,0.004030395,0.002878418,1.00397253
14.209935,-0.032455444,-0.113830566,-0.106437683,-0.001096558,0.002390137,1.008733273
14.21056,0.066726685,0.130310059,0.053779602,0.000734497,0.001047363,1.006291866
14.211185,-0.10874939,0.054016113,-0.091178894,0.001588989,0.000925293,1.006291866
14.21181,0.120132446,-0.30456543,0.130073547,0.0019552,0.001047363,1.005071163
14.212435,0.066726685,-0.144348145,-0.098808289,0.000612427,0.00373291,1.006658077
14.213061,-0.02482605,0.061645508,-0.129325867,-0.002317261,0.000925293,1.008000851
14.213686,-0.009567261,-0.13671875,-0.007255554,0.003908325,-0.00005127,1.005315304
14.214312,0.104873657,-0.098571777,-0.007255554,0.000002075,-0.000783691,1.006413937
14.214938,0.081985474,0.076904297,-0.106437683,0.001711059,0.002756348,1.005559444
14.215563,-0.185043335,0.084533691,-0.060661316,0.000124145,0.001413574,1.006291866
14.21619,-0.017196655,0.008239746,0.130073547,0.004762817,0.001169434,1.011418819
14.216816,0.043838501,-0.060424805,0.213996887,-0.000730347,0.005563965,1.008122921
14.217441,-0.062973022,0.015869141,-0.182731628,0.001466919,0.000192871,1.008855343
14.218067,0.089614868,-0.129089355,-0.114067078,0.002565552,0.000437012,1.00763464
14.218693,-0.10874939,-0.05279541,0.160591125,0.000368286,0.001779785,1.007390499
14.219319,-0.040084839,0.130310059,-0.358207703,0.000856567,0.003244629,1.008000851
14.219945,-0.078231812,-0.098571777,-0.175102234,0.002321411,0.001657715,1.007268429
14.220619,0.066726685,0.038757324,0.091926575,0.000368286,0.000559082,1.008489132
14.233296,0.020950317,-0.113830566,-0.060661316,0.001222778,0.001779785,1.004582882
14.234049,-0.009567261,-0.251159668,-0.060661316,0.001100708,0.000070801,1.005193233
14.234674,0.020950317,0.03112793,0.114814758,0.002931762,0.000070801,1.005437374
14.235299,0.051467896,-0.121459961,0.206367493,0.001344848,-0.001027832,1.00385046
14.235924,-0.093490601,-0.05279541,-0.182731628,0.003420044,0.001901855,1.004094601
14.23655,0.249832153,-0.167236328,0.008003235,0.000490356,-0.001271973,1.007146358
14.237177,-0.001937866,0.023498535,0.053779602,0.002931762,0.001901855,1.004216671
14.237803,-0.085861206,-0.007019043,-0.23613739,0.001466919,0.003122559,1.005315304
14.23843,-0.10874939,-0.213012695,0.145332336,0.003664184,0.001413574,1.004216671
14.239056,-0.101119995,0.107421875,-0.106437683,-0.000608277,-0.000539551,1.005559444
14.239682,-0.047714233,-0.235900879,-0.136955261,0.003542114,-0.000905762,1.007390499
14.240309,-0.055343628,-0.014648438,-0.144584656,-0.000364136,-0.000661621,1.006047726
14.240936,-0.124008179,0.137939453,0.107185364,0.002687622,0.000681152,1.005315304
14.241561,0.089614868,-0.190124512,0.08429718,-0.001096558,-0.001149902,1.003362179
14.242188,0.066726685,-0.045166016,-0.007255554,-0.000242066,-0.002248535,1.00385046
14.242815,0.097244263,-0.190124512,-0.136955261,0.003053833,-0.002492676,1.004582882
14.243441,0.081985474,-0.022277832,-0.175102234,0.001222778,-0.001027832,1.003118038
14.244067,-0.192672729,-0.029907227,0.145332336,0.001100708,0.001169434,1.005315304
14.244692,-0.032455444,0.061645508,-0.106437683,-0.001340698,-0.001027832,1.002995968
14.245318,0.173538208,-0.098571777,0.023262024,0.001344848,0.002023926,1.00372839
14.245944,-0.009567261,-0.121459961,-0.030143738,-0.000242066,0.001657715,1.005193233
14.246571,-0.040084839,0.137939453,-0.022514343,0.002443481,0.002756348,1.006780148
14.247197,-0.062973022,-0.060424805,-0.220878601,0.000856567,0.000925293,1.006169796
14.247824,-0.070602417,-0.37322998,0.137702942,0.000490356,0.002512207,1.005681515
14.24845,-0.070602417,-0.182495117,0.008003235,0.000246216,0.000070801,1.005803585
14.249076,0.013320923,0.03112793,-0.190361023,0.004396606,0.000559082,1.004216671
14.249702,-0.116378784,-0.129089355,0.259773254,0.003175903,0.000314941,1.003362179
14.250329,-0.055343628,-0.037536621,0.191108704,0.002687622,0.000803223,1.008244991
14.250955,-0.131637573,0.221862793,-0.205619812,-0.001096558,-0.003103027,1.002629757
14.25158,0.081985474,-0.060424805,0.030891418,0.001466919,0.001535645,1.004582882
14.252207,-0.154525757,0.206604004,0.145332336,0.001222778,0.000803223,1.005193233
14.252834,0.188796997,-0.121459961,0.046150208,0.002809692,0.000070801,1.005803585
14.25346,-0.040084839,-0.014648438,0.038520813,0.001588989,0.000681152,1.006413937
14.254087,-0.207931519,0.076904297,0.061408997,-0.000974488,-0.000539551,1.00385046
14.254714,0.020950317,0.153198242,-0.075920105,0.000368286,0.001169434,1.003118038
14.255339,-0.116378784,-0.174865723,-0.030143738,-0.000730347,-0.000539551,1.006658077
14.255966,0.051467896,-0.083312988,0.091926575,0.000612427,-0.000783691,1.005803585
14.256593,-0.078231812,-0.13671875,0.00037384,0.003053833,-0.00005127,1.003362179
14.25722,-0.185043335,-0.05279541,0.038520813,0.001100708,-0.000905762,1.005193233
14.257846,-0.032455444,-0.045166016,-0.06829071,-0.00207312,0.000925293,1.002263546
14.258471,0.150650024,0.046386719,-0.060661316,0.001222778,0.002145996,1.004582882
14.259098,-0.070602417,-0.075683594,-0.053031921,0.000734497,0.001657715,1.005315304
14.259725,0.013320923,0.076904297,-0.022514343,0.003053833,-0.000783691,1.008244991
14.26035,-0.10874939,0.008239746,0.107185364,0.005006958,0.000070801,1.00397253
14.260975,0.112503052,-0.167236328,-0.007255554,0.000246216,0.000314941,1.005803585
14.2616,-0.062973022,-0.037536621,0.099555969,-0.001584839,0.002512207,1.002263546
14.262226,0.020950317,0.054016113,0.221626282,0.001222778,0.000437012,1.00397253
14.262851,-0.001937866,-0.129089355,-0.190361023,0.001711059,0.000314941,1.004582882
14.275432,0.051467896,-0.167236328,-0.037773132,-0.000119995,-0.00029541,1.000676632
14.276124,-0.040084839,-0.121459961,-0.014884949,-0.000974488,0.002023926,1.005193233
14.276749,0.219314575,0.214233398,0.023262024,-0.003293823,0.003366699,1.005193233
14.277376,-0.085861206,-0.22064209,-0.022514343,-0.004270386,-0.001027832,1.005315304
14.278003,-0.101119995,0.008239746,-0.075920105,0.001222778,-0.001027832,1.004338741
14.278628,0.036209106,0.130310059,-0.06829071,0.000490356,0.001901855,1.004582882
14.279254,0.043838501,0.076904297,-0.022514343,-0.003293823,-0.002858887,1.004582882
14.279881,-0.032455444,-0.014648438,-0.23613739,0.000002075,0.000925293,1.00397253
14.280507,0.028579712,-0.098571777,0.099555969,0.001222778,0.000681152,1.004216671
14.281133,0.066726685,-0.213012695,-0.030143738,0.000246216,0.000314941,1.00763464
14.28176,-0.040084839,0.084533691,0.030891418,0.001588989,0.002634277,1.005315304
14.282385,-0.040084839,-0.167236328,0.145332336,-0.000852417,0.002512207,1.005803585
14.283011,-0.017196655,0.046386719,0.030891418,-0.000119995,0.003244629,1.005315304
14.283636,-0.162155151,0.023498535,-0.220878601,-0.000486206,0.000192871,1.007512569
14.284262,-0.139266968,0.008239746,0.145332336,-0.000974488,-0.000539551,1.004827023
14.284889,0.112503052,0.09979248,0.130073547,-0.002439331,0.000803223,1.00385046
14.285514,0.104873657,0.023498535,-0.037773132,-0.001096558,0.002023926,1.007146358
14.28614,0.013320923,-0.068054199,0.046150208,-0.000242066,0.000925293,1.006413937
14.286766,0.097244263,0.008239746,-0.045402527,0.000612427,0.003122559,1.006169796
14.287391,0.081985474,0.023498535,-0.022514343,-0.002927613,-0.002614746,1.006291866
14.288017,-0.062973022,-0.022277832,0.00037384,-0.000730347,0.000681152,1.006780148
14.288642,0.104873657,-0.098571777,0.152961731,0.001466919,0.001779785,1.004827023
14.289267,0.318496704,-0.05279541,-0.075920105,-0.000974488,0.001047363,1.004338741
14.289894,0.097244263,-0.007019043,-0.053031921,0.000856567,0.000925293,1.005071163
14.290519,0.051467896,-0.060424805,-0.007255554,-0.000242066,0.002145996,1.009343624
14.291145,-0.10874939,-0.113830566,-0.022514343,0.0019552,0.000192871,1.007268429
14.29177,0.249832153,-0.037536621,-0.167472839,0.000856567,-0.000905762,1.004827023
14.292396,0.097244263,0.054016113,-0.144584656,0.000734497,0.002512207,1.005681515
14.293022,-0.009567261,-0.083312988,-0.022514343,0.001222778,0.001291504,1.008489132
14.293649,-0.017196655,-0.182495117,-0.205619812,0.000490356,0.002390137,1.005681515
14.294275,-0.078231812,-0.029907227,0.069038391,-0.000364136,0.000437012,1.008244991
14.2949,0.013320923,-0.243530273,0.00037384,0.000124145,-0.00005127,1.008244991
14.295526,0.287979126,-0.121459961,0.053779602,-0.001218628,0.000437012,1.008977413
14.296152,-0.070602417,-0.174865723,-0.121696472,0.001588989,0.000803223,1.008244991
14.296778,0.05909729,0.03112793,-0.037773132,-0.001340698,0.001413574,1.006169796
14.297404,0.127761841,-0.014648438,0.069038391,-0.001462769,-0.001516113,1.004460812
14.29803,0.135391235,-0.014648438,-0.014884949,-0.000242066,0.002390137,1.004827023
14.298656,-0.055343628,-0.029907227,0.038520813,0.000124145,-0.000905762,1.009099483
14.299283,0.013320923,-0.029907227,0.038520813,-0.000608277,-0.002126465,1.00763464
14.29991,0.013320923,0.176086426,0.00037384,-0.000852417,0.002268066,1.006902218
14.300537,0.051467896,0.069274902,-0.098808289,0.000734497,0.002268066,1.007268429
14.301162,0.013320923,-0.029907227,-0.022514343,-0.000364136,-0.000783691,1.00372839
14.301788,-0.070602417,0.298156738,-0.075920105,-0.001218628,0.000314941,1.006902218
14.302414,-0.185043335,0.061645508,0.053779602,0.003542114,0.000925293,1.005925655
14.30304,0.089614868,-0.182495117,0.175849915,-0.000119995,-0.001027832,1.005803585
14.304751,0.074356079,-0.083312988,-0.014884949,-0.002195191,0.000437012,1.004827023
14.305378,0.14302063,-0.106201172,-0.197990417,0.001344848,0.001169434,1.006658077
14.306004,0.05909729,-0.106201172,0.152961731,-0.000242066,0.000070801,1.002873898
14.306631,0.173538208,-0.037536621,0.137702942,0.00183313,0.000192871,1.002751827
14.319296,0.089614868,-0.159606934,-0.060661316,-0.000486206,0.001047363,1.003118038
14.320031,-0.154525757,0.069274902,0.122444153,0.002809692,-0.000661621,1.006658077
14.320658,0.081985474,0.015869141,-0.053031921,0.004274536,-0.00017334,1.005315304
14.321283,-0.085861206,-0.121459961,0.183479309,-0.00182898,-0.00029541,1.004582882
14.321909,0.051467896,0.198974609,-0.106437683,0.001222778,-0.00041748,1.00372839
14.322534,0.112503052,-0.014648438,0.015632629,0.000856567,0.000803223,1.004216671
14.323237,0.020950317,0.008239746,-0.0835495,-0.001340698,-0.002858887,1.004704952
14.323863,0.097244263,-0.083312988,0.069038391,0.000734497,0.001779785,1.007390499
14.324488,-0.047714233,-0.045166016,-0.106437683,0.000368286,-0.001638184,1.007268429
14.325114,-0.070602417,0.069274902,-0.106437683,0.001344848,-0.000539551,1.005681515
14.32574,0.066726685,0.069274902,0.038520813,0.000002075,0.002634277,1.00787878
14.326366,-0.26133728,-0.045166016,-0.106437683,-0.002195191,0.001779785,1.00775671
14.326992,-0.009567261,0.03112793,0.091926575,-0.002195191,0.001901855,1.009343624
14.327617,0.005691528,0.000610352,-0.136955261,0.003297973,-0.00005127,1.007024288
14.328244,0.127761841,-0.13671875,0.046150208,0.00183313,-0.00041748,1.006902218
14.32887,-0.017196655,0.168457031,0.08429718,-0.000608277,0.001901855,1.002751827
14.329497,0.120132446,-0.22064209,0.091926575,0.002931762,-0.001394043,1.008000851
14.330123,-0.085861206,-0.05279541,-0.0835495,0.000856567,0.002390137,1.004704952
14.33075,0.120132446,-0.014648438,0.061408997,-0.000119995,-0.000661621,1.004094601
14.331376,-0.032455444,0.038757324,-0.030143738,0.002687622,0.000925293,1.005559444
14.332004,-0.017196655,-0.167236328,0.008003235,0.003297973,0.000070801,1.007024288
14.33263,-0.17741394,-0.098571777,-0.030143738,0.000734497,0.001535645,1.00397253
14.333256,-0.062973022,0.153198242,0.030891418,0.000124145,-0.000539551,1.005437374
14.333882,-0.093490601,-0.060424805,0.053779602,-0.000364136,-0.001271973,1.006047726
14.334508,0.081985474,-0.090942383,-0.114067078,0.001466919,-0.00029541,1.005803585
14.335133,0.150650024,-0.045166016,0.023262024,0.0019552,-0.002736816,1.004338741
14.353124,0.005691528,-0.037536621,0.099555969,0.00183313,-0.00005127,1.00775671
14.35375,0.120132446,-0.190124512,0.00037384,0.004274536,-0.00017334,1.005193233
14.354376,0.135391235,-0.029907227,0.023262024,0.000490356,-0.00005127,1.006291866
14.355003,-0.17741394,0.015869141,-0.129325867,0.001222778,0.001535645,1.008489132
14.355628,0.14302063,-0.121459961,-0.014884949,-0.000119995,0.001535645,1.006536007
14.356254,0.051467896,-0.197753906,0.015632629,0.001588989,-0.00005127,1.007024288
14.356879,0.089614868,-0.068054199,-0.06829071,0.001344848,-0.00041748,1.004216671
14.357505,-0.139266968,-0.197753906,0.122444153,0.000978637,0.002145996,1.006536007
14.358132,0.081985474,-0.022277832,0.038520813,0.000490356,0.000437012,1.004094601
14.358757,-0.02482605,0.008239746,-0.167472839,0.001100708,-0.00029541,1.006658077
14.359383,-0.047714233,-0.045166016,-0.045402527,0.000734497,-0.001027832,1.004827023
14.360009,-0.009567261,-0.037536621,0.099555969,-0.000119995,0.001779785,1.007146358
14.360635,0.081985474,-0.075683594,-0.053031921,0.002443481,-0.00041748,1.005437374
14.36126,-0.017196655,-0.060424805,0.099555969,0.00207727,0.002145996,1.005925655
14.361887,0.135391235,-0.014648438,-0.129325867,0.003420044,0.002512207,1.006658077
14.362512,0.173538208,0.076904297,0.00037384,-0.001584839,-0.00029541,1.006902218
14.363138,-0.02482605,-0.197753906,-0.030143738,0.002931762,0.001047363,1.006902218
14.363763,-0.017196655,0.038757324,-0.098808289,0.000124145,-0.002614746,1.005925655
14.364389,0.104873657,0.107421875,-0.060661316,-0.000242066,-0.001271973,1.004704952
14.365014,0.051467896,0.076904297,0.023262024,0.000490356,-0.00041748,1.004704952
14.365639,-0.040084839,0.000610352,0.206367493,0.0019552,-0.00029541,1.005437374
14.366266,0.081985474,-0.190124512,-0.129325867,0.00207727,0.000070801,1.008122921
14.378923,-0.093490601,0.054016113,-0.098808289,0.000246216,-0.00005127,1.00372839
14.379638,0.066726685,-0.05279541,0.008003235,0.001588989,0.002878418,1.004827023
14.380265,0.043838501,0.069274902,0.00037384,0.001344848,0.002145996,1.006536007
14.380892,-0.131637573,0.191345215,-0.0835495,-0.001706909,-0.00017334,1.004827023
14.381517,-0.124008179,-0.05279541,0.107185364,-0.000119995,0.001779785,1.005559444
14.382144,-0.162155151,-0.083312988,0.038520813,0.003664184,0.001535645,1.005193233
14.38277,-0.009567261,0.069274902,0.046150208,0.000002075,-0.00017334,1.005193233
14.383395,-0.055343628,-0.075683594,-0.106437683,0.000124145,0.000681152,1.006536007
14.384021,0.013320923,-0.075683594,-0.030143738,-0.000242066,0.000559082,1.005681515
14.384647,0.028579712,0.11505127,-0.136955261,0.001588989,0.001047363,1.004460812
14.385273,0.104873657,-0.014648438,-0.06829071,0.000002075,0.001657715,1.006413937
14.3859,0.051467896,-0.159606934,-0.014884949,0.000490356,0.000925293,1.004338741
14.386525,0.066726685,0.038757324,-0.159843445,0.00207727,-0.001394043,1.002263546
14.38715,0.043838501,-0.029907227,-0.022514343,-0.000608277,-0.00005127,1.003362179
14.387775,-0.154525757,-0.151977539,0.053779602,0.000612427,0.001901855,1.004460812
14.388401,0.043838501,-0.151977539,0.00037384,0.003786255,0.000559082,1.007390499
14.389027,-0.009567261,-0.129089355,-0.136955261,0.0019552,-0.001516113,1.008855343
14.389652,-0.040084839,-0.129089355,0.198738098,0.002443481,0.000925293,1.00787878
14.390279,-0.001937866,-0.13671875,-0.060661316,0.002321411,0.000070801,1.005315304
14.390906,-0.032455444,-0.121459961,0.114814758,0.0019552,0.004831543,1.006658077
14.391531,0.051467896,0.046386719,0.046150208,0.000856567,0.000559082,1.005803585
14.392157,-0.078231812,-0.029907227,-0.121696472,0.003664184,0.002023926,1.009831905
14.392782,-0.124008179,-0.159606934,-0.037773132,-0.001462769,0.001779785,1.007268429
14.393407,0.013320923,0.160827637,0.122444153,0.001100708,0.002512207,1.007390499
14.394032,-0.116378784,-0.068054199,-0.007255554,0.001100708,-0.001760254,1.002629757
14.394657,0.112503052,0.046386719,-0.060661316,0.000734497,-0.00005127,1.004216671
14.395283,0.188796997,-0.029907227,0.008003235,0.00207727,0.002023926,1.005681515
14.395909,-0.124008179,0.237121582,-0.144584656,0.000612427,0.000314941,1.006291866
14.396535,-0.085861206,-0.060424805,0.130073547,0.000978637,0.000803223,1.006902218
14.39716,-0.154525757,-0.159606934,-0.053031921,0.001466919,0.003366699,1.004582882
14.397787,0.051467896,-0.014648438,0.091926575,0.002931762,0.003000488,1.005071163
14.398414,-0.02482605,0.008239746,-0.106437683,0.002687622,0.001047363,1.006902218
14.39904,0.081985474,-0.113830566,-0.175102234,0.000490356,0.001535645,1.004460812
14.399667,0.005691528,-0.083312988,0.00037384,0.0019552,0.001291504,1.006047726
14.400293,0.05909729,-0.121459961,-0.014884949,0.000002075,-0.00029541,1.00372839
14.400918,0.14302063,0.11505127,-0.251396179,0.001711059,0.002634277,1.006169796
14.401545,-0.10874939,0.000610352,0.099555969,0.001588989,0.001901855,1.006291866
14.402171,0.028579712,0.023498535,-0.053031921,0.000368286,0.001047363,1.005193233
14.402797,0.074356079,-0.045166016,-0.121696472,0.001466919,-0.00017334,1.006536007
14.403422,0.005691528,0.03112793,-0.060661316,0.001711059,-0.00041748,1.006169796
14.40518,-0.192672729,-0.075683594,-0.06829071,0.003175903,0.004221192,1.005315304
14.405806,-0.146896362,-0.121459961,-0.007255554,-0.000974488,0.000070801,1.004216671
14.406431,0.013320923,-0.090942383,-0.129325867,-0.001096558,0.001535645,1.004338741
14.407058,-0.02482605,0.09979248,-0.121696472,-0.000608277,0.000681152,1.00397253
14.407683,0.036209106,0.054016113,0.053779602,0.000368286,0.001169434,1.00397253
14.40831,-0.009567261,-0.090942383,-0.060661316,-0.00195105,0.001047363,1.005559444
14.408935,0.074356079,0.000610352,0.061408997,0.000490356,-0.00017334,1.00385046
14.409562,-0.139266968,0.015869141,-0.0835495,-0.000119995,-0.00029541,1.006902218
14.410187,0.036209106,-0.13671875,0.00037384,-0.00195105,-0.001516113,1.006413937
14.42288,0.043838501,0.038757324,-0.06829071,-0.000608277,-0.00029541,1.002873898
14.423621,-0.040084839,0.03112793,0.099555969,0.001344848,-0.000539551,1.002019405
14.424247,0.089614868,-0.05279541,-0.014884949,0.000246216,0.002756348,1.003362179
14.424873,0.051467896,0.03112793,-0.030143738,-0.000852417,0.00348877,1.004094601
14.425499,0.104873657,0.038757324,0.275032043,0.002321411,-0.001027832,1.004338741
14.426124,0.020950317,-0.106201172,0.130073547,0.001100708,0.002512207,1.004216671
14.426749,-0.146896362,-0.014648438,0.008003235,0.000734497,0.002023926,1.004949093
14.427407,0.013320923,-0.090942383,0.107185364,0.000978637,0.001291504,1.007390499
14.428032,0.028579712,0.084533691,0.061408997,-0.000119995,0.000314941,1.004582882
14.428657,-0.169784546,-0.090942383,-0.167472839,-0.000364136,0.001291504,1.003240108
14.429284,-0.062973022,-0.037536621,-0.014884949,0.000978637,0.003366699,1.001409054
14.429909,0.036209106,-0.022277832,-0.129325867,-0.000974488,0.000803223,1.004460812
14.430535,0.097244263,-0.098571777,0.145332336,0.00183313,-0.000905762,1.005925655
14.431161,-0.02482605,0.000610352,-0.022514343,0.000734497,0.001535645,1.006536007
14.431787,-0.062973022,0.054016113,-0.259025574,-0.002317261,0.002634277,1.004827023
14.432413,-0.207931519,-0.251159668,-0.007255554,-0.002195191,-0.001027832,1.005681515
14.433039,-0.139266968,-0.060424805,0.030891418,-0.000974488,0.000314941,1.00397253
14.433666,-0.085861206,0.008239746,0.030891418,-0.000364136,0.000192871,1.00397253
14.434292,-0.070602417,-0.13671875,-0.007255554,0.002199341,0.001413574,1.002873898
14.434917,0.219314575,-0.05279541,-0.007255554,0.001222778,0.000437012,1.005437374
14.435542,0.043838501,0.015869141,0.297920227,0.001222778,-0.00005127,1.005315304
14.436168,-0.02482605,-0.045166016,0.015632629,-0.000730347,0.001779785,1.003484249
14.436794,-0.047714233,-0.098571777,0.08429718,0.001711059,0.002634277,1.005315304
14.43742,-0.009567261,-0.113830566,0.076667786,-0.002195191,-0.000905762,1.004949093
14.438046,0.066726685,0.09979248,-0.136955261,-0.001340698,-0.00041748,1.008367062
14.438671,-0.200302124,0.008239746,-0.007255554,0.004762817,-0.001027832,1.004827023
14.439296,-0.146896362,0.015869141,-0.060661316,0.000124145,0.000070801,1.002873898
14.439922,0.280349731,0.054016113,0.046150208,0.00207727,0.00385498,1.005193233
14.440547,0.020950317,0.023498535,-0.014884949,0.003297973,-0.002736816,1.005803585
14.441173,-0.200302124,-0.022277832,0.08429718,-0.000242066,0.001657715,1.001775265
14.441799,-0.017196655,-0.05279541,0.130073547,-0.000364136,0.000559082,1.004949093
14.442426,-0.116378784,0.076904297,0.008003235,0.004518677,0.000559082,1.004827023
14.443051,-0.162155151,0.023498535,0.08429718,0.000856567,0.002878418,1.004949093
14.443677,-0.001937866,-0.075683594,0.091926575,-0.000486206,-0.000661621,1.006658077
14.444303,0.104873657,-0.068054199,-0.197990417,0.00207727,0.000070801,1.004827023
14.444928,0.089614868,0.046386719,0.008003235,0.000246216,0.001901855,1.005559444
14.445554,-0.116378784,-0.075683594,-0.014884949,-0.001584839,-0.00005127,1.004827023
14.446181,-0.040084839,0.000610352,-0.167472839,0.001222778,-0.000539551,1.005803585
14.446807,0.219314575,0.038757324,0.046150208,0.001711059,0.000070801,1.008122921
14.447432,-0.070602417,-0.060424805,-0.091178894,0.00207727,0.001291504,1.005071163
14.448059,-0.10874939,0.069274902,0.046150208,-0.000119995,0.001291504,1.008244991
14.448686,0.097244263,0.084533691,-0.030143738,0.001222778,0.001535645,1.008489132
14.449312,-0.131637573,-0.045166016,-0.251396179,0.001711059,0.001413574,1.006047726
14.449937,0.036209106,-0.075683594,0.008003235,0.000978637,-0.00005127,1.007268429
14.450563,0.265090942,0.137939453,-0.075920105,0.000612427,-0.000661621,1.004460812
14.451189,-0.093490601,0.046386719,-0.014884949,0.000246216,0.002756348,1.006169796
14.451815,0.089614868,-0.121459961,-0.022514343,-0.001462769,0.003366699,1.006413937
14.452442,-0.055343628,-0.182495117,-0.205619812,-0.000852417,0.001047363,1.004460812
14.46533,0.081985474,-0.022277832,0.046150208,0.00183313,0.002512207,1.000920773
14.466059,-0.062973022,-0.098571777,0.099555969,0.002199341,0.001169434,1.004094601
14.466685,-0.131637573,0.015869141,-0.0835495,0.002321411,0.001413574,1.00385046
14.467312,-0.246078491,0.015869141,0.053779602,-0.001218628,0.002512207,1.001286983
14.467937,-0.207931519,-0.029907227,0.023262024,0.000368286,0.00348877,1.002995968
14.468564,-0.131637573,0.000610352,0.213996887,0.000246216,0.000314941,1.00397253
14.469189,-0.093490601,-0.098571777,-0.15221405,0.001100708,0.004221192,1.002385616
14.469816,-0.131637573,-0.075683594,-0.114067078,0.001344848,-0.000905762,1.003362179
14.470442,-0.078231812,-0.113830566,-0.007255554,0.001222778,0.000314941,1.00397253
14.471067,-0.162155151,0.107421875,-0.060661316,0.000856567,0.000437012,1.006047726
14.471693,-0.070602417,-0.060424805,-0.030143738,-0.000608277,0.001535645,1.004949093
14.47232,-0.093490601,-0.167236328,0.023262024,0.00207727,0.002512207,1.001286983
14.472946,-0.001937866,0.11505127,-0.251396179,-0.001706909,0.003000488,1.001897335
14.473572,-0.215560913,-0.068054199,-0.106437683,0.000368286,0.001535645,1.004338741
14.474198,-0.10874939,-0.090942383,-0.289543152,-0.000730347,-0.00041748,1.002019405
14.474825,-0.055343628,0.198974609,-0.121696472,0.000612427,0.001047363,1.004338741
14.475452,-0.085861206,-0.144348145,0.076667786,0.003175903,0.002023926,1.006413937
14.476078,0.020950317,0.023498535,-0.136955261,0.00183313,0.001047363,1.007146358
14.476705,0.112503052,0.03112793,0.053779602,0.001100708,0.00361084,1.00763464
14.477332,-0.223190308,-0.060424805,0.107185364,-0.001218628,-0.001271973,1.00775671
14.477958,-0.085861206,-0.174865723,0.160591125,-0.000119995,-0.002492676,1.00397253
14.478583,-0.055343628,-0.022277832,-0.022514343,0.000246216,0.000314941,1.003606319
14.479209,0.028579712,-0.144348145,-0.129325867,0.000246216,-0.000539551,1.002385616
14.479835,-0.17741394,-0.022277832,0.023262024,-0.000242066,-0.001394043,1.004094601
14.480461,-0.299484253,-0.289306641,0.122444153,0.000490356,0.00361084,1.00385046
14.481088,-0.154525757,0.03112793,0.015632629,0.00183313,-0.001516113,1.006536007
14.481714,-0.154525757,-0.068054199,0.00037384,-0.000486206,-0.000783691,1.006413937
14.482339,0.066726685,-0.235900879,0.030891418,0.001222778,0.002268066,1.004704952
14.482966,0.173538208,-0.029907227,0.114814758,-0.000364136,0.001413574,1.005925655
14.483591,-0.253707886,-0.090942383,-0.037773132,0.000124145,-0.00029541,1.008244991
14.484217,-0.230819702,-0.068054199,0.023262024,-0.000364136,0.001413574,1.005315304
14.484842,0.036209106,0.11505127,0.008003235,0.000612427,0.003122559,1.005071163
14.485467,-0.101119995,0.061645508,-0.144584656,0.001588989,0.002512207,1.004949093
14.486093,-0.101119995,-0.13671875,0.236885071,-0.000119995,0.000925293,1.004949093
14.486718,-0.001937866,-0.037536621,-0.0835495,0.000002075,0.002634277,1.00763464
14.487343,-0.062973022,-0.075683594,0.130073547,0.000124145,0.000070801,1.005803585
14.487969,0.028579712,-0.022277832,0.069038391,0.001711059,-0.001271973,1.005803585
14.488594,-0.062973022,0.054016113,0.107185364,0.003053833,0.000070801,1.006658077
14.489221,0.028579712,-0.113830566,-0.007255554,-0.001096558,0.003000488,1.004827023
14.489846,0.043838501,0.069274902,0.00037384,0.000246216,0.000681152,1.005925655
14.490471,0.14302063,0.084533691,-0.197990417,0.001222778,0.002756348,1.006536007
14.491096,-0.078231812,0.046386719,0.038520813,0.001100708,0.000681152,1.005925655
14.491721,0.043838501,-0.167236328,-0.037773132,-0.001706909,0.001291504,1.006047726
14.492346,0.028579712,0.09979248,0.015632629,0.003786255,-0.001516113,1.005071163
14.492971,-0.062973022,-0.167236328,-0.091178894,0.000246216,0.000192871,1.004949093
14.493596,0.066726685,0.038757324,-0.114067078,0.000734497,0.000314941,1.005071163
14.494222,-0.124008179,-0.007019043,-0.23613739,0.001344848,0.002145996,1.006047726
14.494847,-0.093490601,-0.060424805,0.038520813,0.000856567,0.000314941,1.005559444
14.495474,-0.131637573,0.092163086,0.061408997,-0.00182898,0.000314941,1.006658077
14.509296,-0.062973022,0.069274902,0.152961731,-0.000974488,-0.001882324,1.00372839
14.510039,0.020950317,-0.235900879,-0.091178894,0.001222778,0.001535645,1.004827023
14.510666,0.043838501,-0.029907227,-0.175102234,0.00207727,0.000681152,1.002873898
14.511291,-0.085861206,0.015869141,0.061408997,0.001711059,-0.001394043,1.005803585
14.511918,-0.001937866,-0.098571777,0.061408997,0.000368286,0.002145996,1.006536007
14.512545,0.05909729,-0.121459961,0.130073547,0.000368286,-0.00005127,1.005193233
14.513172,-0.093490601,0.008239746,0.030891418,0.000734497,0.001169434,1.003118038
14.513798,0.097244263,-0.014648438,-0.014884949,0.002809692,-0.000539551,1.004949093
14.514433,0.036209106,0.046386719,0.091926575,0.003053833,0.001657715,1.005071163
14.515059,0.14302063,-0.007019043,-0.075920105,-0.000974488,0.001291504,1.005193233
14.515685,0.043838501,-0.113830566,0.038520813,0.000124145,-0.001760254,1.005071163
14.51631,-0.093490601,-0.014648438,-0.129325867,0.001344848,-0.000783691,1.004460812
14.516937,-0.078231812,0.092163086,-0.144584656,0.001100708,0.002145996,1.008611202
14.517562,0.005691528,-0.106201172,0.122444153,0.001466919,-0.001516113,1.009709835
14.518188,0.14302063,-0.129089355,-0.030143738,0.000856567,-0.002248535,1.007024288
14.518815,-0.192672729,0.298156738,-0.129325867,0.002321411,0.003000488,1.008855343
14.519441,0.074356079,-0.007019043,0.069038391,0.004030395,0.000681152,1.006169796
14.520066,-0.169784546,-0.075683594,0.069038391,0.000124145,0.000070801,1.00775671
14.520692,0.05909729,0.03112793,-0.182731628,0.00183313,0.002756348,1.00397253
14.521317,-0.085861206,-0.007019043,0.076667786,-0.000242066,-0.000905762,1.006536007
14.521942,-0.200302124,0.061645508,0.030891418,0.002809692,-0.001027832,1.005559444
14.522567,-0.040084839,0.130310059,-0.06829071,0.000246216,-0.000783691,1.005315304
14.523193,-0.10874939,-0.022277832,0.107185364,-0.001706909,0.000314941,1.005925655
14.52382,-0.085861206,-0.144348145,0.122444153,0.003664184,0.000070801,1.006780148
14.524446,-0.062973022,-0.113830566,-0.274284363,-0.000364136,-0.000905762,1.003606319
14.525072,0.020950317,0.008239746,-0.129325867,0.002199341,0.000314941,1.003240108
14.525697,0.043838501,-0.205383301,-0.060661316,0.002199341,0.000314941,1.005803585
14.526323,-0.02482605,0.11505127,0.145332336,0.001100708,-0.003591309,1.006047726
14.526949,-0.047714233,0.076904297,-0.144584656,0.002443481,0.000559082,1.005437374
14.527598,-0.078231812,-0.060424805,0.046150208,0.003420044,-0.00041748,1.005925655
14.528225,-0.223190308,-0.205383301,-0.159843445,-0.001584839,-0.000783691,1.008122921
14.52885,-0.10874939,0.008239746,-0.045402527,-0.000852417,-0.000661621,1.00787878
14.529477,0.036209106,0.015869141,0.145332336,0.000612427,-0.000661621,1.005071163
14.530104,-0.093490601,0.069274902,-0.098808289,0.003664184,-0.001882324,1.008855343
14.530731,-0.185043335,0.069274902,-0.114067078,0.002199341,-0.000783691,1.010076046
14.531357,-0.032455444,-0.068054199,-0.106437683,0.001344848,0.000803223,1.00787878
14.531982,-0.009567261,-0.121459961,0.053779602,-0.001096558,-0.001027832,1.006413937
14.532608,-0.055343628,-0.159606934,0.038520813,0.000124145,-0.00017334,1.007146358
14.533233,-0.26133728,-0.022277832,-0.014884949,-0.000974488,-0.001149902,1.00787878
14.53386,-0.085861206,-0.014648438,-0.114067078,0.0019552,-0.00041748,1.006413937
14.534485,-0.047714233,-0.060424805,-0.15221405,0.001222778,0.000314941,1.004582882
14.535111,0.036209106,0.015869141,0.023262024,-0.000730347,-0.001027832,1.006902218
14.535738,-0.101119995,0.008239746,-0.007255554,-0.001706909,-0.001271973,1.007512569
14.536364,0.066726685,-0.083312988,0.137702942,-0.000364136,0.001169434,1.008244991
14.536991,-0.070602417,0.038757324,0.00037384,-0.000364136,0.002145996,1.005803585
14.537617,0.005691528,-0.159606934,-0.014884949,0.001466919,-0.00005127,1.00397253
14.538242,-0.040084839,0.03112793,0.023262024,0.000612427,-0.001760254,1.006047726
14.538868,-0.062973022,0.038757324,0.030891418,-0.000364136,0.002634277,1.005803585
14.551529,-0.207931519,0.206604004,-0.144584656,0.000368286,-0.002004395,1.002873898
14.552208,-0.139266968,0.054016113,-0.030143738,0.002687622,0.000070801,1.002629757
14.552835,0.028579712,-0.106201172,0.069038391,0.002199341,-0.001149902,1.00372839
14.553461,-0.001937866,0.09979248,-0.121696472,-0.000974488,-0.001882324,1.002385616
14.554087,-0.062973022,0.122680664,0.046150208,0.001588989,-0.001027832,1.004949093
14.554713,0.066726685,0.084533691,0.046150208,0.003542114,-0.00041748,1.00787878
14.55534,-0.078231812,-0.060424805,-0.114067078,0.003297973,0.001901855,1.005559444
14.555965,-0.154525757,-0.029907227,-0.06829071,-0.000119995,0.000314941,1.004216671
14.556591,-0.131637573,-0.014648438,-0.007255554,0.000002075,-0.00017334,1.006291866
14.557217,0.135391235,0.023498535,-0.144584656,0.0019552,-0.001149902,1.005803585
14.557842,-0.017196655,0.107421875,0.008003235,-0.000119995,-0.00420166,1.005437374
14.558469,-0.154525757,0.092163086,0.160591125,0.003297973,0.001413574,1.004338741
14.559095,-0.055343628,-0.251159668,-0.014884949,-0.000119995,-0.001271973,1.004827023
14.559722,-0.085861206,0.046386719,-0.030143738,0.000612427,0.001413574,1.008367062
14.560348,0.005691528,-0.129089355,-0.014884949,-0.001218628,-0.001638184,1.008367062
14.560973,-0.001937866,-0.060424805,0.267402649,-0.000852417,-0.00029541,1.006413937
14.561598,-0.047714233,-0.106201172,-0.182731628,0.000734497,-0.001027832,1.00763464
14.562224,-0.207931519,0.000610352,-0.045402527,0.001466919,0.000925293,1.006413937
14.56285,0.097244263,0.046386719,-0.030143738,0.000978637,-0.001882324,1.006658077
14.563475,0.081985474,0.03112793,0.137702942,0.000490356,-0.000661621,1.005803585
14.564101,-0.139266968,0.092163086,-0.167472839,-0.000242066,-0.001149902,1.006536007
14.564726,0.127761841,0.046386719,-0.014884949,0.003297973,0.002756348,1.008000851
14.565352,0.005691528,-0.090942383,-0.030143738,0.001344848,0.001657715,1.009099483
14.565977,-0.085861206,0.046386719,-0.098808289,0.000978637,0.000559082,1.005925655
14.566602,-0.070602417,0.008239746,0.061408997,0.000978637,0.001047363,1.00372839
14.567229,-0.040084839,-0.167236328,-0.0835495,0.000856567,0.000925293,1.007390499
14.567856,-0.070602417,-0.174865723,-0.091178894,0.000856567,0.001169434,1.005681515
14.568481,0.020950317,0.11505127,0.053779602,0.002443481,-0.001882324,1.005315304
14.569106,-0.093490601,0.122680664,-0.121696472,-0.000242066,0.000437012,1.006658077
14.569733,-0.085861206,-0.037536621,-0.037773132,0.001100708,-0.00029541,1.005925655
14.570359,-0.055343628,0.015869141,-0.045402527,-0.001340698,0.000925293,1.004460812
14.570984,-0.02482605,-0.083312988,-0.091178894,0.002565552,-0.001882324,1.005437374
14.57161,-0.124008179,-0.090942383,-0.06829071,0.000002075,0.000803223,1.00787878
14.572235,-0.200302124,-0.014648438,-0.136955261,-0.000242066,-0.000783691,1.008367062
14.57286,-0.040084839,-0.197753906,0.008003235,0.001344848,-0.001027832,1.007146358
14.573485,-0.017196655,-0.182495117,-0.053031921,0.000490356,0.000314941,1.00397253
14.574111,0.089614868,0.084533691,0.030891418,0.001588989,0.000681152,1.005681515
14.574737,0.112503052,-0.083312988,0.00037384,-0.000974488,-0.001271973,1.007268429
14.575363,-0.040084839,-0.075683594,0.015632629,-0.001096558,0.000803223,1.00385046
14.575989,-0.154525757,-0.060424805,-0.197990417,0.000124145,0.002634277,1.002507687
14.576614,-0.131637573,0.03112793,0.023262024,0.002687622,0.000559082,1.004949093
14.577241,-0.116378784,-0.174865723,-0.175102234,0.001222778,-0.001638184,1.007146358
14.577866,-0.253707886,0.008239746,0.023262024,0.001100708,0.000314941,1.007268429
14.578491,-0.162155151,0.008239746,-0.106437683,0.001100708,0.000314941,1.004827023
14.579118,-0.02482605,-0.159606934,-0.037773132,-0.000608277,0.002023926,1.004704952
14.579743,-0.085861206,-0.060424805,0.008003235,0.004396606,0.001901855,1.004827023
14.580369,-0.162155151,-0.029907227,0.008003235,0.001344848,0.001657715,1.003118038
14.581003,-0.101119995,-0.144348145,-0.037773132,0.004518677,0.000192871,1.008000851
14.581628,-0.10874939,-0.029907227,0.091926575,0.001466919,-0.00005127,1.007024288
14.613849,-0.207931519,-0.083312988,-0.060661316,0.000734497,0.000925293,1.00372839
14.614593,-0.009567261,0.076904297,-0.053031921,0.001222778,0.002268066,0.99994421
14.615218,-0.040084839,-0.014648438,0.061408997,0.001466919,0.001657715,1.002263546
14.615864,-0.040084839,-0.182495117,-0.007255554,0.0019552,-0.00029541,1.004582882
14.616489,-0.268966675,-0.090942383,-0.053031921,0.000002075,0.00385498,1.002019405
14.617114,0.081985474,0.09979248,-0.007255554,-0.002439331,-0.001027832,1.004949093
14.617741,-0.26133728,-0.022277832,-0.106437683,0.002199341,0.002268066,1.009099483
14.618368,-0.116378784,-0.068054199,0.053779602,0.000124145,-0.002614746,1.004582882
14.618993,0.120132446,-0.022277832,0.00037384,0.002687622,-0.002126465,1.002385616
14.619619,-0.017196655,-0.090942383,-0.159843445,-0.000119995,0.001779785,0.998357296
14.620245,-0.200302124,-0.083312988,-0.060661316,0.0019552,0.003000488,0.99994421
14.62087,-0.215560913,-0.205383301,-0.06829071,0.002687622,0.001413574,1.001531124
14.621497,-0.093490601,0.145568848,0.069038391,0.000978637,-0.002614746,1.000432491
14.622122,-0.162155151,-0.083312988,0.107185364,-0.000242066,0.001779785,1.001653194
14.622749,-0.040084839,0.168457031,-0.022514343,-0.001706909,0.000803223,1.000188351
14.623374,-0.009567261,0.046386719,-0.053031921,0.003786255,0.001535645,1.00397253
14.624006,-0.02482605,-0.060424805,-0.037773132,-0.000486206,0.002878418,1.004338741
14.624631,-0.268966675,0.015869141,-0.014884949,0.00183313,-0.000661621,1.00787878
14.625256,-0.047714233,0.008239746,-0.106437683,0.000978637,0.000925293,1.004338741
14.625882,0.081985474,-0.083312988,0.122444153,0.001222778,0.002512207,1.000798702
14.626507,-0.055343628,0.092163086,-0.075920105,0.00207727,0.000803223,1.002507687
14.627134,0.028579712,-0.029907227,0.069038391,-0.001096558,0.003000488,1.002385616
14.62776,-0.124008179,-0.205383301,-0.045402527,0.001588989,-0.00005127,1.00385046
14.628385,-0.238449097,-0.05279541,-0.030143738,-0.000852417,0.000437012,1.005071163
14.62901,0.036209106,-0.007019043,0.00037384,0.000856567,0.000925293,1.004094601
14.629637,0.127761841,0.015869141,0.038520813,-0.000486206,0.001779785,1.00385046
14.630263,-0.055343628,-0.090942383,-0.030143738,-0.002439331,0.000314941,1.007146358
14.630888,0.005691528,0.046386719,-0.06829071,0.000002075,-0.00041748,1.005071163
14.631515,0.05909729,-0.129089355,-0.037773132,0.000124145,0.006174317,1.007268429
14.63214,0.028579712,-0.296936035,-0.114067078,0.000368286,-0.00017334,1.008733273
14.632766,0.097244263,0.122680664,0.145332336,0.000246216,0.000070801,1.008855343
14.633393,0.081985474,-0.174865723,-0.106437683,-0.001706909,0.001169434,1.005071163
14.634019,-0.284225464,-0.190124512,0.053779602,0.000246216,0.000192871,1.003484249
14.634645,-0.139266968,-0.068054199,0.038520813,0.002931762,0.00348877,1.002507687
14.63527,-0.116378784,-0.205383301,-0.167472839,0.001222778,-0.001149902,1.002629757
14.635896,-0.02482605,-0.075683594,0.061408997,-0.000364136,0.000070801,1.001409054
14.636521,-0.032455444,0.137939453,-0.091178894,0.001588989,0.000437012,1.004094601
14.637148,-0.009567261,0.09979248,0.015632629,0.002321411,0.002268066,1.006169796
14.637773,-0.009567261,-0.144348145,-0.0835495,-0.003415894,0.003122559,1.006169796
14.6384,-0.10874939,-0.060424805,-0.098808289,-0.000242066,0.003122559,1.005681515
14.639026,-0.101119995,0.122680664,0.069038391,-0.002561402,0.001779785,1.005437374
14.639652,-0.009567261,-0.106201172,-0.022514343,0.000734497,0.000681152,1.008855343
14.640277,-0.02482605,-0.159606934,0.046150208,-0.000486206,-0.001760254,1.007268429
14.640903,0.066726685,0.015869141,0.08429718,0.000856567,0.001657715,1.009465694
14.641529,-0.17741394,0.023498535,0.030891418,0.000856567,0.002023926,1.006536007
14.642155,-0.070602417,-0.022277832,-0.098808289,-0.000852417,0.00373291,1.005193233
14.642781,-0.124008179,-0.060424805,-0.014884949,0.001100708,0.003122559,1.008367062
14.643407,-0.02482605,-0.060424805,0.046150208,-0.000608277,0.000681152,1.008977413
14.656138,-0.062973022,0.015869141,0.030891418,-0.001340698,0.003244629,1.003362179
14.656873,-0.093490601,-0.090942383,0.038520813,-0.000364136,-0.001149902,1.002263546
14.657498,-0.116378784,0.076904297,0.00037384,-0.000852417,0.001169434,1.004949093
14.658124,0.020950317,0.000610352,0.038520813,-0.000364136,-0.001516113,1.004460812
14.658751,-0.085861206,-0.05279541,-0.037773132,-0.001218628,0.002268066,1.005071163
14.659376,-0.146896362,-0.022277832,-0.114067078,0.000734497,0.001413574,1.006169796
14.660003,0.112503052,0.038757324,-0.106437683,-0.00182898,0.001413574,1.007268429
14.660628,-0.085861206,-0.022277832,0.023262024,-0.001584839,0.000314941,1.008244991
14.661253,-0.040084839,-0.159606934,-0.053031921,0.000612427,0.001291504,1.010198116
14.661878,-0.047714233,0.092163086,0.008003235,-0.002317261,0.000314941,1.009953976
14.662503,0.150650024,-0.037536621,0.023262024,-0.003660034,-0.001271973,1.007146358
14.663129,-0.200302124,0.076904297,0.107185364,0.001222778,0.000681152,1.00775671
14.663755,-0.017196655,0.061645508,-0.106437683,-0.001218628,0.003122559,1.008855343
14.664381,-0.116378784,0.038757324,0.236885071,0.000612427,0.000559082,1.004460812
14.665006,-0.017196655,-0.022277832,0.008003235,0.001222778,-0.001638184,1.009831905
14.665632,-0.10874939,0.015869141,-0.106437683,0.00183313,-0.000783691,1.007390499
14.666257,-0.070602417,-0.029907227,0.015632629,0.000612427,0.004221192,1.008244991
14.666883,-0.040084839,0.11505127,-0.106437683,-0.003171753,0.002756348,1.007024288
14.66751,-0.352890015,-0.22064209,0.038520813,0.000002075,0.001047363,1.004582882
14.668136,-0.001937866,-0.129089355,0.00037384,0.000490356,0.001657715,1.006413937
14.668763,-0.093490601,-0.243530273,0.107185364,0.002565552,0.001291504,1.007024288
14.66939,-0.268966675,-0.037536621,0.114814758,0.000368286,0.000681152,1.006047726
14.670017,0.051467896,0.107421875,-0.007255554,0.003297973,0.002390137,1.006291866
14.670643,-0.040084839,-0.144348145,0.038520813,0.001222778,0.002268066,1.006536007
14.67127,-0.101119995,-0.045166016,0.061408997,0.000490356,0.000314941,1.007146358
14.671896,-0.124008179,-0.068054199,-0.15221405,-0.000364136,-0.00017334,1.00775671
14.672521,-0.276596069,-0.037536621,0.076667786,0.001100708,0.001413574,1.001775265
14.673148,-0.169784546,0.130310059,-0.037773132,0.004030395,0.001901855,1.005193233
14.673775,0.013320923,-0.151977539,-0.136955261,0.002321411,0.000192871,1.006291866
14.674401,-0.009567261,-0.075683594,-0.098808289,-0.000364136,0.002390137,1.003484249
14.675027,-0.291854858,-0.05279541,-0.007255554,-0.000852417,-0.00005127,1.006902218
14.675652,0.051467896,-0.106201172,0.221626282,0.000734497,-0.001271973,1.005925655
14.676279,0.043838501,-0.090942383,0.069038391,0.003908325,0.001291504,1.004582882
14.676905,0.104873657,-0.121459961,-0.159843445,0.004030395,-0.00005127,1.003606319
14.67753,-0.032455444,0.122680664,-0.136955261,0.002199341,0.001169434,1.002751827
14.678156,-0.154525757,0.107421875,-0.197990417,0.002443481,0.000681152,1.005193233
14.678781,-0.009567261,0.046386719,0.16822052,0.001466919,0.000559082,1.004704952
14.679407,-0.055343628,-0.312194824,-0.190361023,0.004884887,-0.00017334,1.009099483
14.680033,-0.001937866,0.092163086,0.069038391,0.000124145,-0.001394043,1.004582882
14.680658,0.013320923,-0.022277832,-0.060661316,0.003297973,-0.00017334,1.006413937
14.681284,-0.162155151,0.198974609,-0.205619812,0.002931762,0.000314941,1.006169796
14.681909,-0.192672729,-0.13671875,0.091926575,0.001344848,-0.00041748,1.004827023
14.682536,0.089614868,-0.151977539,-0.098808289,0.000734497,0.00348877,1.006047726
14.683163,-0.116378784,0.076904297,-0.053031921,0.001711059,0.000314941,1.005071163
14.683789,-0.032455444,0.03112793,-0.053031921,0.002443481,-0.000539551,1.002629757
14.684416,-0.078231812,-0.045166016,0.107185364,0.001466919,-0.001516113,1.005803585
14.685041,-0.017196655,-0.05279541,-0.06829071,0.004518677,-0.001027832,1.005071163
14.685666,-0.246078491,-0.014648438,0.038520813,0.003053833,0.000314941,1.006169796
14.686291,-0.124008179,-0.106201172,0.122444153,0.005495239,0.000559082,1.005559444
14.699003,0.127761841,0.015869141,-0.037773132,0.001222778,-0.000661621,1.00372839
14.699742,-0.131637573,0.008239746,-0.022514343,0.002809692,-0.001638184,1.004827023
14.700368,-0.116378784,-0.174865723,0.114814758,0.002809692,0.000314941,1.004827023
14.700993,0.120132446,-0.045166016,-0.144584656,0.000978637,-0.001516113,1.004704952
14.701619,-0.101119995,-0.068054199,-0.106437683,0.002565552,-0.00005127,1.00372839
14.702244,-0.139266968,-0.129089355,0.290290833,0.001222778,0.001169434,1.005803585
14.702869,-0.017196655,0.206604004,-0.075920105,0.0019552,0.000314941,1.003240108
14.703495,0.028579712,0.038757324,0.107185364,0.003420044,-0.001271973,1.003484249
14.704122,0.005691528,-0.022277832,0.122444153,0.003786255,0.003000488,1.003240108
14.704749,0.188796997,0.298156738,-0.167472839,-0.000364136,0.000437012,1.006536007
14.705375,-0.001937866,0.09979248,0.015632629,0.003908325,-0.001516113,1.003606319
14.706005,0.051467896,-0.213012695,0.038520813,0.0019552,-0.001027832,1.004582882
14.706631,-0.062973022,0.03112793,0.175849915,0.001222778,0.000681152,1.004704952
14.707256,-0.169784546,0.069274902,0.08429718,0.001222778,0.000681152,1.005803585
14.707883,-0.185043335,-0.197753906,0.076667786,0.004396606,0.000070801,1.004827023
14.708508,0.013320923,-0.022277832,-0.06829071,0.001588989,0.001779785,1.005925655
14.709133,0.020950317,0.137939453,0.00037384,0.002443481,-0.001760254,1.00372839
14.709758,0.104873657,-0.068054199,-0.091178894,-0.000608277,-0.00005127,1.006780148
14.710383,-0.253707886,-0.121459961,0.046150208,-0.000608277,0.000070801,1.006047726
14.711009,-0.131637573,-0.037536621,-0.129325867,0.000490356,0.000681152,1.00775671
14.711634,-0.040084839,0.076904297,0.038520813,0.002565552,0.001657715,1.004827023
14.712259,0.104873657,-0.098571777,-0.091178894,0.004030395,-0.000905762,1.004827023
14.71399,-0.017196655,-0.045166016,-0.06829071,0.002931762,0.000314941,1.004827023
14.714615,-0.017196655,0.038757324,-0.15221405,0.000124145,-0.002004395,1.005437374
14.715242,0.043838501,-0.075683594,0.069038391,0.003053833,0.001535645,1.00372839
14.715867,0.120132446,0.160827637,-0.053031921,0.000978637,0.002023926,1.002629757
14.716492,0.013320923,0.092163086,0.00037384,0.001222778,0.003977051,1.00397253
14.717118,-0.02482605,-0.037536621,-0.075920105,0.000856567,0.003000488,1.00385046
14.717744,-0.078231812,-0.05279541,0.046150208,0.0019552,-0.00029541,1.003606319
14.718369,0.135391235,-0.090942383,-0.030143738,0.002687622,0.000070801,1.00763464
14.718995,-0.093490601,0.000610352,0.015632629,0.002931762,0.000314941,1.00787878
14.719622,0.013320923,-0.121459961,0.175849915,0.003542114,-0.001027832,1.009221554
14.720248,-0.001937866,0.061645508,-0.053031921,0.000002075,-0.001638184,1.006536007
14.720873,-0.10874939,0.137939453,0.023262024,0.000368286,-0.000539551,1.006536007
14.721499,-0.040084839,-0.106201172,0.015632629,-0.00195105,0.000437012,1.004216671
14.722126,-0.047714233,0.076904297,-0.167472839,-0.000608277,0.001413574,1.006047726
14.722751,-0.085861206,0.084533691,-0.159843445,0.001100708,0.001413574,1.004338741
14.723377,-0.017196655,-0.266418457,0.00037384,-0.000119995,-0.000539551,1.002873898
14.724004,-0.169784546,-0.068054199,-0.053031921,0.001466919,0.001413574,1.003118038
14.72463,0.074356079,0.130310059,-0.129325867,-0.000364136,0.001779785,1.008489132
14.725256,-0.02482605,-0.075683594,0.015632629,-0.000119995,0.002756348,1.002751827
14.725881,-0.017196655,-0.083312988,-0.114067078,0.00183313,-0.000539551,1.006658077
14.726507,0.020950317,0.015869141,0.053779602,0.004396606,-0.002370605,1.003240108
14.727132,-0.101119995,-0.281677246,-0.030143738,-0.000119995,0.000803223,1.004460812
14.727758,0.020950317,0.023498535,-0.037773132,0.001100708,0.003977051,1.006169796
14.728383,-0.124008179,0.038757324,0.00037384,0.000734497,0.000925293,1.005193233
14.729008,0.020950317,-0.007019043,0.061408997,-0.000608277,0.001535645,1.005071163
14.729634,-0.047714233,-0.014648438,-0.060661316,-0.000364136,-0.001638184,1.004216671
14.742381,-0.26133728,-0.106201172,0.008003235,0.00183313,0.002023926,1.00385046
14.743104,-0.055343628,0.03112793,0.114814758,0.000002075,0.001779785,1.00397253
14.74373,-0.162155151,-0.068054199,-0.030143738,0.001588989,-0.003591309,1.003118038
14.744356,-0.017196655,0.046386719,0.023262024,-0.00195105,0.000070801,1.004949093
14.744981,-0.032455444,0.046386719,-0.045402527,0.002931762,0.001657715,1.003362179
14.745607,0.074356079,-0.090942383,-0.121696472,-0.000486206,-0.000783691,1.004216671
14.746232,0.181167603,-0.05279541,0.038520813,0.000734497,0.000192871,1.006780148
14.746858,-0.085861206,0.000610352,0.053779602,0.000002075,-0.000783691,1.005071163
14.747483,-0.02482605,-0.090942383,0.008003235,-0.000119995,0.000925293,1.003362179
14.748108,-0.253707886,-0.007019043,0.069038391,-0.000730347,-0.00005127,1.004216671
14.748733,-0.131637573,-0.129089355,0.236885071,-0.001340698,0.000192871,1.007390499
14.74936,0.005691528,0.023498535,-0.037773132,0.000612427,-0.00017334,1.006902218
14.749987,-0.154525757,-0.144348145,-0.037773132,-0.002439331,-0.001638184,1.005681515
14.750612,-0.101119995,-0.05279541,-0.098808289,0.000978637,0.003000488,1.002751827
14.751238,-0.116378784,-0.098571777,0.091926575,0.00183313,-0.001516113,1.001164913
14.751863,-0.001937866,-0.106201172,0.114814758,-0.000242066,0.000314941,1.002507687
14.752489,-0.070602417,-0.014648438,-0.136955261,0.003542114,0.001291504,1.000798702
14.753116,-0.17741394,-0.129089355,0.122444153,0.002321411,0.000681152,1.004582882
14.753741,-0.124008179,-0.144348145,0.099555969,0.000612427,-0.001638184,1.003362179
14.754366,-0.124008179,0.107421875,-0.007255554,-0.000608277,-0.000539551,1.003606319
14.754991,0.020950317,-0.090942383,0.08429718,-0.001218628,-0.002736816,1.007268429
14.755616,-0.055343628,0.09979248,-0.060661316,0.000124145,0.000925293,1.005437374
14.756241,-0.169784546,-0.060424805,-0.014884949,-0.001706909,0.001169434,1.004338741
14.756868,-0.047714233,0.000610352,0.00037384,0.000978637,-0.001027832,1.001775265
14.757494,-0.101119995,-0.167236328,-0.114067078,0.001222778,0.001169434,1.004460812
14.75812,0.150650024,-0.022277832,0.00037384,0.001222778,0.001413574,1.00372839
14.758746,-0.062973022,0.046386719,-0.136955261,-0.000608277,0.001779785,1.003362179
14.759371,-0.017196655,0.054016113,-0.06829071,0.001344848,0.003244629,1.003362179
14.760004,0.097244263,-0.151977539,-0.114067078,-0.000730347,0.001779785,1.005437374
14.76063,0.066726685,0.023498535,-0.022514343,-0.000974488,0.000070801,1.005315304
14.761255,-0.047714233,0.061645508,-0.106437683,-0.00195105,0.000681152,1.005925655
14.76188,-0.078231812,0.09979248,-0.045402527,0.000978637,-0.000539551,1.006658077
14.762505,-0.215560913,0.023498535,0.00037384,0.001588989,0.002512207,1.003240108
14.763131,-0.040084839,-0.060424805,-0.098808289,0.000490356,-0.000539551,1.005559444
14.763756,0.005691528,0.023498535,-0.007255554,0.000368286,-0.002004395,1.005925655
14.764381,-0.055343628,-0.022277832,-0.022514343,-0.000486206,0.001657715,1.004460812
14.765008,0.127761841,0.015869141,-0.114067078,0.000612427,0.000803223,1.005193233
14.765635,-0.009567261,0.023498535,-0.091178894,-0.000119995,-0.000661621,1.006291866
14.766261,-0.009567261,-0.007019043,0.061408997,0.000734497,0.000192871,1.006413937
14.766888,-0.192672729,-0.251159668,0.076667786,0.000490356,-0.002126465,1.006536007
14.767515,-0.017196655,0.008239746,0.08429718,-0.002317261,-0.00041748,1.005193233
14.76814,-0.070602417,-0.060424805,-0.06829071,0.000124145,0.000681152,1.007024288
14.768766,0.005691528,0.191345215,-0.175102234,-0.000730347,-0.002004395,1.005681515
14.769392,0.074356079,-0.098571777,0.023262024,-0.000852417,0.000559082,1.004704952
14.770018,-0.047714233,0.130310059,0.061408997,-0.00182898,-0.002248535,1.006169796
14.770645,-0.101119995,0.046386719,-0.014884949,0.002687622,0.001657715,1.004582882
14.771272,-0.055343628,-0.068054199,0.08429718,0.000368286,0.000192871,1.002141476
14.771897,-0.085861206,0.069274902,0.069038391,0.000002075,0.002390137,1.003240108
14.772523,0.074356079,0.061645508,0.053779602,0.002443481,0.003366699,1.002507687
14.785256,-0.02482605,-0.029907227,-0.030143738,0.003297973,0.000681152,1.005193233
14.786003,0.013320923,0.054016113,0.069038391,-0.001340698,-0.000661621,1.004460812
14.786628,-0.017196655,-0.007019043,-0.060661316,-0.00207312,-0.00041748,1.00775671
14.787255,-0.154525757,-0.022277832,-0.129325867,-0.001584839,-0.000783691,1.004949093
14.787881,-0.040084839,-0.075683594,-0.037773132,0.001711059,0.001169434,1.00385046
14.788507,-0.131637573,-0.098571777,0.030891418,-0.001340698,-0.00029541,1.004582882
14.789132,-0.070602417,-0.014648438,-0.220878601,0.000368286,-0.000661621,1.004460812
14.789759,-0.131637573,-0.05279541,-0.037773132,-0.000608277,0.000314941,1.005437374
14.790386,0.020950317,0.107421875,-0.0835495,0.002565552,-0.001882324,1.006902218
14.791012,-0.085861206,0.214233398,0.00037384,-0.000730347,0.001047363,1.008489132
14.791639,-0.032455444,-0.045166016,-0.075920105,0.001588989,0.004587403,1.006291866
14.792265,0.005691528,-0.113830566,-0.06829071,0.003908325,0.000803223,1.004704952
14.792892,-0.223190308,0.015869141,0.152961731,-0.001706909,-0.000539551,1.005925655
14.793517,-0.146896362,-0.014648438,-0.121696472,0.002321411,0.001901855,1.005071163
14.794142,-0.017196655,-0.022277832,-0.182731628,0.004152466,0.003366699,1.006780148
14.794768,-0.047714233,-0.258789062,0.038520813,0.000124145,0.000070801,1.006658077
14.795393,-0.009567261,-0.075683594,-0.114067078,0.00183313,-0.001516113,1.006413937
14.796019,-0.017196655,-0.068054199,-0.037773132,0.000734497,0.001535645,1.005193233
14.796644,-0.10874939,0.046386719,-0.037773132,0.000856567,0.003000488,1.008000851
14.797269,-0.032455444,0.008239746,-0.045402527,0.003175903,-0.000783691,1.008244991
14.797896,0.089614868,-0.121459961,0.069038391,0.001100708,0.001169434,1.008489132
14.798521,-0.154525757,-0.121459961,0.023262024,0.002809692,-0.000661621,1.004338741
14.799147,-0.078231812,0.046386719,-0.114067078,-0.000242066,0.001779785,1.004094601
14.799774,-0.017196655,-0.05279541,0.038520813,0.0019552,0.002878418,1.006169796
14.8004,-0.146896362,-0.075683594,0.076667786,0.004518677,0.001291504,1.00385046
14.801026,-0.062973022,0.069274902,-0.030143738,0.003786255,-0.00005127,1.002019405
14.801651,-0.062973022,0.260009766,-0.159843445,0.003908325,0.001901855,1.004704952
14.802277,-0.169784546,0.145568848,0.08429718,0.001711059,0.001901855,1.005925655
14.802904,-0.040084839,-0.007019043,-0.091178894,0.002443481,0.000803223,1.005559444
14.803531,-0.055343628,0.084533691,-0.098808289,0.002565552,0.000559082,1.004827023
14.804158,-0.131637573,-0.113830566,0.00037384,0.000368286,-0.002004395,1.007268429
14.804785,0.074356079,0.023498535,0.053779602,0.002199341,0.002756348,1.006780148
14.80541,-0.17741394,0.11505127,-0.205619812,0.001222778,-0.00017334,1.008611202
14.806035,-0.116378784,0.046386719,0.221626282,0.003297973,0.002023926,1.005559444
14.806662,-0.146896362,-0.266418457,-0.091178894,-0.000852417,-0.002858887,1.004216671
14.807288,-0.185043335,-0.190124512,-0.06829071,0.000856567,0.000437012,1.005925655
14.807913,-0.017196655,0.107421875,0.015632629,0.00183313,0.000437012,1.008855343
14.808538,-0.047714233,0.214233398,0.061408997,0.000246216,0.001413574,1.006902218
14.809163,-0.001937866,-0.151977539,0.137702942,0.00183313,-0.00041748,1.005803585
14.809788,-0.009567261,-0.014648438,0.061408997,0.00183313,0.000925293,1.006291866
14.810413,0.05909729,0.084533691,-0.159843445,0.001222778,0.000681152,1.007146358
14.811038,-0.032455444,-0.075683594,-0.06829071,0.002687622,0.000437012,1.005315304
14.811664,-0.131637573,-0.05279541,-0.053031921,0.001466919,0.002145996,1.007024288
14.81229,-0.124008179,-0.045166016,0.076667786,-0.001584839,0.00361084,1.006536007
14.814032,-0.078231812,-0.213012695,0.030891418,0.002199341,0.002878418,1.006047726
14.814657,-0.062973022,0.107421875,-0.075920105,-0.000364136,-0.001638184,1.008733273
14.815282,-0.230819702,0.054016113,-0.014884949,0.003175903,0.002756348,1.009221554
14.815907,-0.139266968,-0.129089355,-0.159843445,0.001711059,0.000070801,1.00787878
14.828546,0.036209106,-0.029907227,0.08429718,0.002687622,-0.00041748,1.004704952
14.82926,0.028579712,-0.014648438,-0.007255554,0.001344848,-0.00029541,1.004216671
14.829886,0.074356079,0.000610352,-0.175102234,0.002565552,0.001901855,1.006902218
14.830511,-0.009567261,0.015869141,0.023262024,0.000490356,0.002268066,1.002263546
14.831137,-0.017196655,-0.029907227,-0.045402527,0.003175903,0.002268066,1.006047726
14.831763,-0.200302124,-0.045166016,-0.167472839,0.003664184,0.001413574,1.004582882
14.832389,-0.154525757,-0.129089355,0.099555969,0.003542114,0.001169434,1.007512569
14.833014,-0.032455444,-0.083312988,0.099555969,0.000368286,0.002268066,1.003484249
14.833639,-0.139266968,0.008239746,-0.15221405,0.00598352,0.002878418,1.00763464
14.834265,-0.284225464,-0.098571777,-0.075920105,0.003053833,0.000437012,1.006047726
14.834937,-0.093490601,-0.014648438,-0.007255554,0.000612427,0.000925293,1.003240108
14.835564,-0.047714233,0.076904297,-0.197990417,-0.000486206,0.000559082,1.005437374
14.83619,-0.223190308,0.069274902,-0.014884949,0.001466919,0.001291504,1.005437374
14.836815,-0.10874939,0.008239746,0.130073547,-0.001096558,0.002756348,1.006291866
14.83744,-0.116378784,0.015869141,-0.175102234,-0.000242066,0.005441895,1.002995968
14.838065,0.112503052,-0.029907227,0.152961731,0.002687622,-0.00005127,1.004827023
14.838692,-0.070602417,0.023498535,-0.15221405,0.001100708,0.003977051,1.00385046
14.839317,-0.055343628,-0.121459961,0.069038391,0.001222778,0.001779785,1.00385046
14.839943,-0.169784546,-0.075683594,-0.114067078,0.003420044,0.001535645,1.006902218
14.840569,-0.032455444,-0.090942383,-0.15221405,0.0019552,0.000803223,1.005071163
14.841195,-0.040084839,0.122680664,0.275032043,0.000368286,0.003122559,1.005559444
14.841821,0.066726685,0.023498535,-0.098808289,0.004274536,0.000803223,1.003240108
14.842446,-0.062973022,-0.05279541,-0.007255554,0.000978637,-0.001638184,1.00397253
14.843071,-0.040084839,0.03112793,-0.045402527,0.001344848,0.000803223,1.00385046
14.843696,-0.10874939,0.069274902,0.122444153,0.000978637,-0.00017334,1.002019405
14.844322,-0.238449097,-0.205383301,0.191108704,-0.001584839,-0.001882324,1.002385616
14.844949,-0.154525757,-0.151977539,0.076667786,-0.001706909,0.000192871,1.006902218
14.863004,-0.085861206,0.076904297,0.152961731,-0.000242066,-0.001149902,1.006291866
14.863629,-0.207931519,0.038757324,-0.037773132,0.005251098,-0.001516113,1.006291866
14.864255,0.05909729,0.015869141,-0.06829071,0.00207727,-0.00005127,1.005071163
14.864881,-0.101119995,-0.060424805,-0.121696472,0.000612427,0.000559082,1.006658077
14.865506,0.005691528,0.092163086,0.00037384,0.00183313,0.001291504,1.004582882
14.866131,-0.26133728,0.11505127,-0.053031921,-0.000119995,-0.001638184,1.006413937
14.866757,-0.200302124,-0.151977539,-0.121696472,0.000246216,0.000925293,1.004582882
14.867382,-0.070602417,-0.174865723,-0.129325867,-0.000852417,0.001169434,1.004582882
14.868008,-0.009567261,0.015869141,-0.098808289,-0.001218628,0.001901855,1.002019405
14.868633,0.043838501,-0.090942383,-0.06829071,0.00207727,-0.001760254,1.006413937
14.86926,-0.116378784,-0.151977539,0.061408997,-0.001340698,-0.000783691,1.003240108
14.869886,0.066726685,0.092163086,0.107185364,-0.000242066,-0.00017334,1.005437374
14.870512,0.013320923,-0.022277832,0.091926575,0.000002075,0.001779785,1.003606319
14.871139,-0.192672729,0.03112793,-0.197990417,-0.000242066,0.000314941,1.005193233
14.871764,0.028579712,0.061645508,-0.007255554,0.003053833,0.001779785,1.005681515
14.872389,-0.162155151,0.046386719,-0.007255554,-0.001218628,-0.001149902,1.006413937
14.873014,-0.162155151,-0.045166016,-0.053031921,-0.000242066,0.00348877,1.006291866
14.873641,-0.055343628,0.046386719,0.213996887,-0.000974488,0.002268066,1.005315304
14.874267,-0.124008179,-0.075683594,0.08429718,-0.001584839,0.00361084,1.004704952
14.874893,0.005691528,0.11505127,-0.0835495,-0.002317261,0.000314941,1.006413937
14.87552,0.043838501,0.023498535,0.076667786,-0.000852417,0.000803223,1.004827023
14.876145,-0.02482605,-0.167236328,0.091926575,0.000368286,0.002023926,1.004949093
14.888928,0.051467896,-0.190124512,-0.114067078,-0.00195105,0.003244629,1.004827023
14.889691,-0.085861206,-0.068054199,0.16822052,-0.000608277,-0.003957519,1.003606319
14.890316,0.158279419,-0.029907227,-0.0835495,0.000002075,-0.000905762,1.002995968
14.890941,-0.192672729,0.023498535,0.076667786,-0.000608277,0.001169434,1.00385046
14.891566,-0.185043335,0.069274902,-0.037773132,-0.000486206,0.001413574,1.005437374
14.892191,-0.085861206,0.09979248,-0.060661316,0.00183313,0.001779785,1.004582882
14.892816,0.120132446,0.054016113,0.038520813,-0.001096558,-0.001027832,1.004949093
14.893442,-0.085861206,0.038757324,0.008003235,-0.002683472,-0.000783691,1.006413937
14.894067,0.173538208,-0.129089355,0.030891418,0.000368286,0.001657715,1.00372839
14.894692,-0.062973022,-0.106201172,0.08429718,-0.000242066,-0.00017334,1.004216671
14.895319,0.051467896,0.03112793,-0.114067078,0.001222778,0.002023926,1.004216671
14.895944,-0.070602417,-0.159606934,-0.091178894,-0.000242066,0.001535645,1.001531124
14.896571,-0.101119995,-0.075683594,0.023262024,-0.002439331,-0.001638184,1.004582882
14.897197,0.22694397,0.03112793,-0.129325867,0.001100708,0.000437012,1.003118038
14.897824,-0.169784546,-0.05279541,-0.053031921,-0.001096558,-0.00017334,1.005437374
14.898449,-0.055343628,-0.144348145,0.030891418,0.002687622,-0.00017334,1.004460812
14.899076,0.028579712,0.221862793,0.053779602,0.000124145,-0.002248535,1.005315304
14.899702,-0.001937866,-0.121459961,-0.030143738,0.001222778,0.000314941,1.003240108
14.900328,-0.078231812,-0.075683594,-0.175102234,-0.000119995,0.000070801,1.006413937
14.900954,-0.139266968,0.023498535,0.099555969,-0.000608277,-0.000783691,1.006291866
14.901579,-0.040084839,0.09979248,0.00037384,0.001222778,-0.00005127,1.006902218
14.902204,0.013320923,-0.167236328,-0.007255554,-0.000608277,-0.002614746,1.002507687
14.902831,-0.040084839,-0.090942383,-0.030143738,-0.002561402,0.000314941,1.004094601
14.903457,0.097244263,0.061645508,-0.121696472,-0.000119995,-0.001394043,1.004094601
14.904084,-0.10874939,-0.037536621,-0.007255554,-0.002805542,-0.000661621,1.004216671
14.904709,-0.062973022,0.000610352,0.008003235,0.003175903,0.000192871,1.005803585
14.905334,-0.162155151,-0.045166016,0.030891418,-0.000486206,-0.001271973,1.006169796
14.90596,-0.093490601,0.122680664,-0.129325867,0.000612427,-0.001149902,1.008122921
14.906586,-0.040084839,-0.045166016,0.038520813,-0.000119995,-0.000905762,1.004216671
14.907211,-0.124008179,-0.243530273,-0.045402527,-0.000486206,0.000925293,1.003484249
14.907838,0.036209106,0.09979248,-0.053031921,-0.00195105,0.001535645,1.004338741
14.908463,0.005691528,-0.045166016,-0.060661316,0.001588989,0.000559082,1.007268429
14.909088,0.127761841,-0.289306641,0.183479309,-0.000364136,-0.002370605,1.006169796
14.909713,-0.124008179,0.137939453,-0.014884949,0.000002075,0.000314941,1.005193233
14.91034,-0.032455444,-0.007019043,0.099555969,-0.001462769,-0.000905762,1.005925655
14.910967,-0.062973022,-0.060424805,-0.030143738,-0.000486206,0.002512207,1.003484249
14.911592,-0.062973022,-0.159606934,-0.007255554,-0.003049683,-0.005910644,1.005315304
14.912218,0.005691528,-0.007019043,0.023262024,-0.000119995,-0.001882324,1.004704952
14.912844,-0.055343628,0.11505127,-0.045402527,0.000368286,-0.000905762,1.005559444
14.914577,-0.009567261,0.18371582,0.046150208,0.003542114,-0.00041748,1.005559444
14.915202,-0.001937866,-0.060424805,0.015632629,0.001222778,0.001413574,1.004216671
14.915828,-0.055343628,-0.090942383,-0.167472839,0.000734497,-0.001271973,1.004216671
14.916454,-0.032455444,0.084533691,-0.114067078,0.002687622,-0.000661621,1.004216671
14.917079,-0.10874939,0.198974609,0.061408997,0.001466919,-0.001394043,1.003118038
14.917705,0.005691528,-0.014648438,-0.0835495,-0.000608277,-0.00041748,1.007024288
14.918341,0.181167603,0.11505127,0.122444153,0.000490356,-0.00017334,1.002141476
14.918968,-0.093490601,-0.106201172,-0.007255554,-0.000974488,0.000437012,1.004460812
14.919594,-0.009567261,-0.075683594,0.023262024,-0.001706909,-0.00041748,1.003118038
14.932303,0.234573364,0.038757324,-0.190361023,0.002931762,0.001047363,1.005071163
14.933013,-0.055343628,-0.060424805,0.069038391,0.000734497,-0.002736816,1.00385046
14.93364,-0.078231812,0.054016113,-0.014884949,-0.001096558,0.000192871,1.003606319
14.934267,0.043838501,-0.007019043,0.015632629,0.002931762,0.001047363,1.005071163
14.934893,-0.116378784,-0.090942383,0.008003235,0.001222778,0.001291504,1.004949093
14.935518,0.043838501,0.09979248,-0.037773132,0.002443481,-0.001149902,1.006902218
14.936145,0.150650024,-0.014648438,-0.098808289,0.001711059,-0.00017334,1.006658077
14.936774,-0.162155151,0.092163086,-0.106437683,0.000734497,0.000559082,1.007146358
14.937441,-0.062973022,-0.167236328,0.069038391,-0.000608277,0.002268066,1.007024288
14.938066,0.036209106,0.076904297,-0.060661316,0.000246216,0.000437012,1.004582882
14.938692,-0.154525757,0.03112793,-0.23613739,0.001222778,-0.001271973,1.007390499
14.939319,0.089614868,0.137939453,0.107185364,0.001711059,-0.000905762,1.005437374
14.939944,-0.10874939,0.023498535,0.046150208,0.00183313,0.000925293,1.005193233
14.940571,0.013320923,-0.014648438,0.023262024,0.001711059,0.000925293,1.009343624
14.941198,0.05909729,-0.007019043,-0.014884949,0.001711059,-0.00041748,1.008122921
14.941825,0.104873657,-0.045166016,-0.037773132,0.0019552,0.00348877,1.004338741
14.94245,0.104873657,-0.045166016,-0.037773132,0.0019552,0.00348877,1.004338741
14.943075,-0.070602417,0.061645508,-0.075920105,0.00183313,0.000681152,1.004460812
14.943701,-0.047714233,-0.037536621,0.069038391,0.003297973,-0.00041748,1.00397253
14.944327,0.036209106,-0.014648438,-0.15221405,0.004396606,-0.00041748,1.004827023
14.944954,-0.131637573,-0.090942383,-0.190361023,0.002321411,0.001169434,1.007146358
14.945581,0.081985474,-0.022277832,0.107185364,0.00207727,0.001169434,1.007512569
14.946206,-0.246078491,0.137939453,-0.136955261,0.000246216,0.000070801,1.003362179
14.946833,0.066726685,-0.243530273,-0.007255554,-0.003049683,-0.001149902,1.004827023
14.947458,-0.009567261,-0.037536621,0.091926575,0.0019552,-0.003835449,1.007268429
14.948085,-0.055343628,-0.174865723,0.023262024,0.001466919,-0.00017334,1.00763464
