time,gyro x,gyro y,gyro z,accel x,accel y,accel z
23.627458,-0.230705261,-0.855125427,0.188697815,0.034312621,0.040079832,1.015177846
23.648013,-0.528251648,0.594459534,0.196327209,-0.019642456,0.007609131,0.987467885
23.648639,-0.169670105,-0.466026306,-0.314842224,-0.002064331,0.0266521,0.972697377
23.649265,-1.657402039,-0.351585388,-0.017295837,-0.013294799,0.046427488,0.971476674
23.64989,-2.557670593,-1.389183044,-0.05544281,-0.04039441,-0.005086182,0.963053823
23.650517,-2.565299988,-1.999534607,-0.215660095,-0.004383666,-0.028767822,0.998820424
23.651143,-1.077568054,-1.671470642,-0.269065857,0.044444457,-0.100178957,1.082682729
23.651768,1.257026672,-0.107444763,-0.002037048,0.124278441,-0.079671144,1.104533315
23.652394,1.981819153,2.196632385,-0.085960388,0.099620238,-0.025105713,1.039836049
23.65302,2.416694641,3.33341217,-0.208030701,-0.087513551,0.064860106,1.018717885
23.653647,-1.581108093,2.547584534,0.081886292,-0.092396364,0.196573973,0.873088002
23.654273,-1.901542664,-2.541221619,-0.742088318,-0.143910035,-0.129231691,0.888468862
23.654899,-1.550590515,-3.609336853,0.257362366,0.071666136,-0.015706299,1.027629018
23.655524,-0.139152527,-1.030601501,-0.482688904,0.107676879,-0.075154543,1.157878041
23.656151,1.798713684,2.189002991,0.272621155,0.103160277,-0.019612549,1.119914174
23.656776,2.058113098,3.234230042,-0.681053162,0.002574341,0.023966553,1.029582143
23.657401,0.402534485,2.921424866,0.135292053,-0.081165895,0.092570066,0.896403432
23.658028,-0.574028015,-0.244773865,-0.276695251,-0.097401246,-0.023762939,0.846110463
23.658654,-2.122795105,-2.609886169,0.043739319,-0.041615114,0.027628662,1.000773549
23.65928,-1.886283875,-1.95375824,-0.322471619,0.085460082,-0.034016848,1.036540151
23.659906,-0.955497742,-0.229515076,0.18106842,0.043101683,-0.057088137,1.071086049
23.660533,0.654304504,0.884376526,-0.429283142,0.081431761,0.062296629,1.027629018
23.66116,-2.748405457,1.906715393,0.173439026,-0.067005739,0.03922534,0.929728627
23.661785,-1.314079285,-1.190818787,-0.597129822,-0.084217653,-0.068440676,0.935832143
23.662412,-1.787101746,-2.075828552,0.257362366,0.023326294,-0.0280354,1.018595815
23.663037,0.867927551,-0.946678162,-0.475059509,0.099986449,-0.077595949,1.111247182
23.663663,0.196540833,2.684913635,0.509132385,0.094981566,0.076334715,1.07535851
23.664288,-1.100456238,3.104530334,-0.673423767,-0.067127809,0.033121824,0.963175893
23.664913,-1.016532898,0.144325256,-0.05544281,-0.09495984,-0.068684816,0.954997182
23.665538,-0.604545593,-0.382102966,-0.085960388,0.041514769,0.03934741,1.00113976
23.666163,-0.436698914,0.228248596,-0.612388611,0.032603636,-0.052937746,1.043009877
23.666788,-1.016532898,1.540504456,-0.032554626,0.036021605,0.096964598,1.006632924
23.667414,-2.839958191,0.968299866,-0.269065857,-0.098255739,-0.000813721,0.928385854
23.66804,-1.977836609,-1.824058533,-0.30721283,-0.045521364,-0.070393801,0.984904408
23.668665,-1.039421082,-1.579917908,-0.002037048,0.081675902,0.010538818,1.049113393
23.669292,-2.084648132,1.006446838,-0.078330994,0.044932738,0.027628662,1.038371205
23.669918,-0.390922546,0.33506012,-0.444541931,-0.031605348,-0.138509035,1.026286244
23.670543,1.463020325,0.121437073,-0.108848572,0.050303832,-0.015095947,1.065104604
23.67117,1.333320618,2.021156311,-0.261436462,0.051524535,0.063273191,1.033488393
23.671796,-0.535881042,2.311073303,-0.162254333,-0.054920778,0.040690184,0.942301869
23.672422,-2.031242371,0.243507385,-0.261436462,-0.078358278,0.050333738,0.897379994
23.673047,-2.832328796,-1.495994568,-0.032554626,-0.0322157,0.000162842,0.945841908
23.673672,-2.702629089,-1.816429138,-0.22328949,0.031871215,-0.044270754,1.041178823
23.674297,-1.657402039,-0.565208435,-0.253807068,0.078990355,-0.015218018,1.067057729
23.674923,-1.398002625,1.372657776,-0.37587738,0.03394641,-0.00838208,1.046549916
23.675548,-1.062309265,1.532875061,-0.154624939,-0.021961791,-0.019002197,0.994914174
23.676174,-0.467216492,0.319801331,-0.238548279,-0.04027234,-0.080769777,1.007731557
23.6768,1.981819153,-0.145591736,-0.085960388,0.060313597,-0.053181887,1.072428823
23.677427,1.30280304,2.410255432,-0.108848572,0.063975707,0.069742918,1.054240346
23.690623,-3.084098816,-4.196800232,-0.078330994,-0.109852418,0.026530029,0.875163198
23.691355,-3.366386414,-4.875816345,0.242103577,0.025035279,-0.033162355,1.017008901
23.691981,-2.794181824,-4.067100525,0.120033264,0.085704222,-0.043660402,1.095255971
23.692607,-1.680290222,-1.839317322,-0.30721283,0.067881957,-0.012776611,1.084879994
23.693233,-1.665031433,-0.48891449,0.036109924,0.005381959,-0.009114502,1.027751088
23.693858,-1.7108078,-1.290000916,-0.017295837,-0.041493043,0.020304443,0.976359487
23.694483,-1.924430847,-2.434410095,-0.002037048,-0.02513562,-0.010945557,0.97391808
23.695109,-2.244865417,-2.739585876,0.165809631,0.001231568,-0.007039307,1.006144643
23.695735,-2.04650116,-2.59462738,0.165809631,0.019420044,-0.019368408,1.028117299
23.696362,-1.47429657,-1.915611267,-0.063072205,0.023936646,-0.011067627,1.033366323
23.696987,-1.481925964,-1.694358826,0.173439026,0.007090943,-0.003743408,1.01688683
23.697613,-1.47429657,-1.557029724,0.005592346,-0.008900268,-0.003133057,1.000773549
23.698238,-1.588737488,-1.793540955,0.120033264,-0.00572644,-0.003010986,1.000529408
23.698864,-1.436149597,-1.900352478,0.203956604,0.001597779,-0.000935791,1.008219838
23.699491,-1.520072937,-1.862205505,-0.040184021,0.006724732,-0.009846924,1.01273644
23.700117,-1.443778992,-1.892723083,0.043739319,0.005626099,-0.004964111,1.013835073
23.700742,-1.298820496,-1.763023376,-0.078330994,0.00611438,-0.002766846,1.014811635
23.701368,-1.314079285,-1.511253357,-0.047813416,0.010142701,-0.007405518,1.009684682
23.701993,-1.291191101,-1.526512146,-0.146995544,0.000743287,-0.009846924,1.008586049
23.70262,-1.161491394,-1.564659119,-0.085960388,0.000132935,-0.004109619,1.009928823
23.703247,-1.130973816,-1.396812439,-0.009666443,0.003917115,-0.009114502,1.009318471
23.703872,-1.031791687,-1.557029724,0.097145081,0.003795044,-0.010701416,1.013224721
23.704497,-0.757133484,-1.457847595,0.020851135,0.008067505,-0.003499268,1.014567494
23.705122,-1.047050476,-1.656211853,0.02848053,0.003672974,-0.008870361,1.004679799
23.705747,-1.062309265,-1.21370697,-0.024925232,0.007213013,-0.010335205,0.995646596
23.706372,-0.833427429,-1.587547302,0.074256897,-0.007923706,0.0188396,1.013102651
23.706998,-1.169120789,-1.572288513,-0.024925232,0.000743287,-0.021077393,1.012614369
23.707623,-0.909721375,-1.480735779,0.036109924,0.010264771,-0.002400635,1.007365346
23.708248,-0.955497742,-1.282371521,-0.024925232,0.008189576,0.000651123,1.00101769
23.708873,-1.169120789,-1.290000916,0.02848053,-0.009388549,-0.011189697,1.006877065
23.709499,-0.863945007,-1.579917908,0.043739319,0.00208606,0.0032146,1.003337026
23.710125,-0.970756531,-1.419700623,0.005592346,0.003795044,-0.009602783,1.010661244
23.710752,-0.741874695,-1.671470642,-0.017295837,0.006358521,-0.011677979,1.003459096
23.711378,-0.596916199,-1.251853943,0.097145081,0.009410279,-0.002034424,0.995524526
23.712003,-0.863945007,-1.625694275,-0.078330994,-0.013294799,-0.009968994,1.011637807
23.712628,-0.741874695,-1.534141541,0.02848053,0.017100709,-0.005208252,1.004557729
23.713254,-0.642692566,-1.373924255,0.104774475,0.00587024,-0.003255127,1.005656362
23.713881,-0.535881042,-1.236595154,0.188697815,0.003184693,-0.006917236,1.004069448
23.714508,-0.711357117,-1.190818787,0.02848053,0.005381959,-0.001179932,1.000163198
23.715133,-0.879203796,-1.259483337,0.203956604,-0.00169812,-0.003499268,1.000773549
23.715759,-0.909721375,-1.259483337,0.11240387,-0.000721557,-0.013142822,1.00126183
23.716386,-0.780021667,-1.267112732,0.081886292,-0.000599487,0.000895264,1.007487416
23.717015,-1.001274109,-1.29763031,0.11240387,0.003306763,-0.003987549,1.004191518
23.717641,-0.642692566,-1.122154236,0.043739319,0.00208606,-0.005330322,1.00895226
23.718266,-0.7342453,-1.389183044,0.150550842,0.003184693,0.002604248,1.009440541
23.718893,-1.001274109,-1.335777283,0.257362366,0.005748169,-0.004109619,1.007975698
23.719519,-0.978385925,-1.21370697,0.036109924,0.000255005,-0.003377197,1.003092885
23.720146,-0.963127136,-1.251853943,0.150550842,0.002330201,-0.005940674,1.007731557
23.734409,-0.772392273,-1.12978363,0.165809631,0.008433716,-0.011311768,1.011149526
23.735136,-0.741874695,-0.778831482,-0.078330994,0.004039185,-0.004964111,1.012004018
23.735762,-0.741874695,-0.778831482,-0.078330994,0.004039185,-0.004964111,1.012004018
23.736389,-0.474845886,-0.969566345,-0.002037048,0.004893677,-0.009968994,1.007365346
23.737015,-0.726615906,-0.626243591,0.074256897,0.002940552,-0.003621338,1.001872182
23.73764,-0.795280457,-0.740684509,-0.169883728,-0.007679565,-0.008992432,1.008219838
23.738265,-0.604545593,-0.908531189,0.097145081,0.004161255,-0.006428955,1.001628041
23.738892,-0.566398621,-0.771202087,0.066627502,0.007213013,-0.010823486,1.005290151
23.739517,-0.66558075,-0.8932724,0.051368713,0.004283326,-0.005940674,1.006388783
23.740143,-0.482475281,-0.763572693,-0.009666443,0.000621216,-0.00850415,1.012492299
23.740768,-0.619804382,-0.900901794,0.051368713,0.007823365,-0.01216626,1.00895226
23.741393,-0.49773407,-0.565208435,-0.017295837,0.006480591,-0.007527588,1.002970815
23.742019,-0.574028015,-0.626243591,0.104774475,0.002940552,-0.002156494,1.00516808
23.742644,-0.268852234,-0.931419373,0.005592346,-0.000233276,-0.010213135,1.00504601
23.743271,-0.49773407,-0.80934906,-0.040184021,0.004039185,-0.002644775,1.002360463
23.743896,-0.360404968,-0.679649353,0.020851135,0.001719849,-0.01216626,1.005534291
23.744523,-0.337516785,-0.862754822,-0.05544281,0.005626099,-0.006306885,1.006388783
23.745148,-0.436698914,-0.64150238,0.02848053,0.011851685,-0.007039307,1.006999135
23.745774,-0.101005554,-0.595726013,-0.078330994,0.004161255,-0.007161377,1.009684682
23.746399,-0.322257996,-0.672019958,0.036109924,0.001841919,-0.003133057,1.006632924
23.748133,-0.139152527,-0.618614197,-0.017295837,0.000621216,-0.010579346,1.006999135
23.748759,-0.039970398,-0.519432068,0.074256897,0.005259888,-0.007283447,1.003459096
23.749386,-0.368034363,-0.466026306,0.127662659,0.000377076,-0.007161377,1.008463979
23.750015,-0.184928894,-0.48891449,-0.05544281,0.005015748,-0.003743408,1.010661244
23.75064,-0.017082214,-0.618614197,-0.192771912,0.004161255,-0.006062744,1.008097768
23.751265,-0.116264343,-0.588096619,-0.017295837,0.003184693,-0.006184814,1.010539174
23.75189,-0.24596405,-0.427879333,0.097145081,0.005015748,-0.005330322,1.005534291
23.752517,-0.039970398,-0.473655701,-0.002037048,-0.000355346,-0.011433838,1.00895226
23.753142,-0.131523132,-0.298179626,0.005592346,0.004161255,-0.007405518,1.008708119
23.753769,-0.238334656,-0.382102966,-0.047813416,0.00196399,-0.005818604,1.012492299
23.754394,-0.032341003,-0.328697205,-0.13936615,0.004893677,-0.007283447,1.010417104
23.755019,-0.154411316,-0.610984802,-0.024925232,0.002940552,-0.006795166,1.007487416
23.755646,-0.032341003,-0.450767517,0.013221741,0.001475709,-0.007893799,1.011027455
23.756272,-0.268852234,-0.32106781,-0.200401306,0.005015748,-0.008137939,1.008463979
23.756897,-0.078117371,-0.374473572,-0.063072205,0.002818482,-0.008137939,1.007731557
23.757523,-0.352775574,-0.336326599,0.104774475,0.002574341,-0.006795166,1.011149526
23.758148,-0.299369812,-0.374473572,-0.032554626,0.005748169,-0.005330322,1.007243276
23.758774,-0.154411316,-0.458396912,0.135292053,0.005137818,-0.007039307,1.007243276
23.759399,-0.253593445,-0.282920837,-0.146995544,0.006968873,-0.007405518,1.006388783
23.760025,-0.017082214,-0.260032654,-0.070701599,0.002940552,-0.006184814,1.004801869
23.76065,-0.101005554,-0.229515076,0.043739319,0.000255005,-0.007039307,1.006144643
23.761275,-0.017082214,-0.054039001,0.081886292,0.00208606,-0.010335205,1.004801869
23.761902,-0.192558289,-0.275291443,0.089515686,0.003062623,-0.009358643,1.007975698
23.762528,-0.291740417,-0.206626892,-0.169883728,0.002818482,-0.005696533,1.006266713
23.763153,-0.207817078,-0.137962341,-0.162254333,0.003306763,-0.00838208,1.005778432
23.763779,-0.322257996,-0.351585388,0.005592346,0.00587024,-0.007283447,1.008708119
23.764404,-0.322257996,-0.023521423,-0.05544281,0.004527466,-0.007893799,1.006266713
23.777387,0.295722961,0.243507385,-0.116477966,0.003795044,-0.011922119,1.005656362
23.778085,0.112617493,0.144325256,-0.116477966,0.005137818,-0.007771729,1.00516808
23.778712,0.112617493,0.136695862,0.051368713,0.00587024,-0.007405518,1.00126183
23.779337,0.2423172,0.113807678,-0.154624939,0.00220813,-0.008748291,1.003337026
23.779963,0.2423172,0.045143127,-0.047813416,0.00196399,-0.00838208,1.003825307
23.780589,0.219429016,0.037513733,0.188697815,0.004527466,-0.005818604,1.010417104
23.781214,0.059211731,0.106178284,-0.009666443,0.002452271,-0.006551025,1.008341908
23.781839,0.295722961,0.098548889,-0.085960388,0.004893677,-0.006795166,1.007853627
23.782465,0.15839386,-0.038780212,-0.017295837,0.005381959,-0.007405518,1.005778432
23.783092,0.47882843,0.16721344,-0.047813416,0.001109498,-0.007893799,1.009196401
23.783717,0.440681458,0.25113678,-0.108848572,0.004649537,-0.008137939,1.005900502
23.784344,0.07447052,-0.031150818,-0.063072205,0.002574341,-0.005696533,1.007975698
23.784969,0.188911438,0.098548889,0.036109924,0.00599231,-0.007893799,1.003947377
23.785594,0.196540833,0.274024963,-0.063072205,0.004161255,-0.008015869,1.003581166
23.78622,0.166023254,-0.130332947,-0.040184021,0.00220813,-0.006795166,1.008097768
23.786846,0.15839386,-0.08455658,-0.002037048,0.004527466,-0.007161377,1.003825307
23.787472,0.402534485,0.266395569,-0.063072205,0.005137818,-0.00435376,1.001383901
23.788098,0.07447052,0.014625549,-0.047813416,0.003917115,-0.00435376,1.001994252
23.788723,0.120246887,0.052772522,-0.131736755,0.00208606,-0.007161377,1.007853627
23.789349,0.288093567,0.296913147,0.043739319,0.00587024,-0.007039307,1.006877065
23.789975,0.181282043,-0.054039001,-0.063072205,0.004893677,-0.004964111,1.00895226
23.790602,0.143135071,-0.031150818,-0.017295837,0.004039185,-0.004964111,1.007853627
23.791229,0.051582336,0.228248596,-0.040184021,0.00208606,-0.008870361,1.001872182
23.791855,-0.001823425,0.129066467,-0.085960388,0.002940552,-0.005330322,1.002238393
23.792482,0.280464172,0.0832901,-0.070701599,0.002818482,-0.004964111,1.001994252
23.793107,0.127876282,0.075660706,-0.040184021,0.002574341,-0.007283447,1.006388783
23.793733,0.265205383,-0.137962341,0.11240387,0.004527466,-0.006795166,1.004191518
23.794358,0.120246887,-0.092185974,-0.093589783,0.002574341,-0.006428955,1.003214955
23.794983,0.32624054,0.098548889,-0.200401306,0.00599231,-0.00850415,1.005900502
23.795608,0.265205383,0.144325256,-0.078330994,0.002696412,-0.007893799,1.006754994
23.796234,0.257575989,-0.061668396,-0.093589783,0.001353638,-0.006062744,1.005534291
23.796859,0.440681458,0.0832901,0.020851135,0.003184693,-0.00826001,1.004313588
23.797484,0.379646301,0.052772522,-0.017295837,0.003917115,-0.009480713,1.007243276
23.79811,0.288093567,-0.145591736,-0.124107361,0.004161255,-0.007039307,1.008586049
23.798735,0.173652649,0.106178284,-0.085960388,0.003428834,-0.007039307,1.005656362
23.799361,0.47882843,0.0832901,-0.002037048,0.006602662,-0.006428955,1.007121205
23.799986,0.356758118,-0.061668396,-0.063072205,0.00220813,-0.006062744,1.00492394
23.800613,0.463569641,0.090919495,-0.078330994,0.001353638,-0.004964111,1.00516808
23.801238,0.486457825,0.052772522,0.020851135,0.002330201,-0.00838208,1.007853627
23.801864,0.341499329,-0.115074158,-0.024925232,0.002818482,-0.009968994,1.006388783
23.80249,0.448310852,-0.015892029,-0.009666443,0.000865357,-0.007161377,1.009806752
23.803116,0.410163879,0.113807678,-0.017295837,0.005381959,-0.005086182,1.00895226
23.803742,0.410163879,0.16721344,-0.162254333,0.000987427,-0.005330322,1.006999135
23.804368,0.463569641,-0.023521423,0.066627502,0.004161255,-0.00826001,1.009196401
23.804994,0.455940247,-0.061668396,-0.024925232,0.005626099,-0.008015869,1.00895226
23.80562,0.56275177,-0.00063324,-0.101219177,0.004649537,-0.006184814,1.005290151
23.806247,0.654304504,-0.015892029,0.051368713,0.00208606,-0.008015869,1.009440541
23.806872,0.608528137,-0.046409607,-0.078330994,0.001719849,-0.009236572,1.007853627
23.807499,0.654304504,0.029884338,-0.024925232,0.001475709,-0.004231689,1.007975698
23.820144,0.539863586,0.212989807,-0.146995544,0.002818482,-0.006917236,1.003825307
23.820859,0.570381165,0.052772522,-0.101219177,0.000621216,-0.006917236,1.004435658
23.821485,0.433052063,0.129066467,-0.063072205,0.001231568,-0.006428955,1.002848744
23.822111,0.341499329,0.220619202,-0.108848572,0.002696412,-0.005940674,1.003703237
23.822736,0.570381165,-0.008262634,-0.032554626,0.002330201,-0.005696533,1.003947377
23.823361,0.372016907,0.029884338,-0.078330994,0.003306763,-0.005818604,1.004557729
23.823988,0.455940247,0.075660706,-0.093589783,0.002574341,-0.007039307,1.004801869
23.824613,0.570381165,0.014625549,-0.101219177,0.002452271,-0.005940674,1.002482533
23.825238,0.372016907,0.151954651,0.074256897,0.003062623,-0.005452393,1.002360463
23.825863,0.387275696,0.052772522,-0.101219177,-0.000355346,-0.006062744,1.002970815
23.826488,0.39490509,0.0832901,-0.070701599,0.003795044,-0.005330322,1.006144643
23.827113,0.211799622,0.052772522,0.051368713,0.002940552,-0.006428955,1.007731557
23.827738,0.471199036,0.197731018,-0.032554626,0.00196399,-0.006551025,1.007487416
23.828365,0.516975403,0.205360413,-0.070701599,0.001109498,-0.00838208,1.007365346
23.828991,0.486457825,0.228248596,-0.116477966,0.001597779,-0.00850415,1.008219838
23.829616,0.402534485,-0.015892029,-0.276695251,0.003062623,-0.008626221,1.004313588
23.830241,0.56275177,0.037513733,-0.108848572,0.001719849,-0.006917236,1.002238393
23.830866,0.448310852,-0.008262634,0.074256897,0.002574341,-0.006917236,1.010905385
23.831491,0.455940247,0.121437073,0.081886292,0.001353638,-0.006306885,1.009196401
23.832116,0.471199036,-0.115074158,-0.146995544,0.004161255,-0.0045979,1.006266713
23.832741,0.417793274,0.25113678,-0.024925232,0.00196399,-0.004231689,1.009318471
23.833366,0.501716614,0.121437073,-0.032554626,0.002696412,-0.00447583,1.005412221
23.833993,0.509346008,0.022254944,0.020851135,0.001719849,-0.006795166,1.005778432
23.83462,0.448310852,0.052772522,-0.009666443,0.001109498,-0.006795166,1.004435658
23.835246,0.47882843,0.090919495,-0.162254333,0.001597779,-0.009236572,1.004679799
23.835871,0.532234192,0.129066467,-0.177513123,0.00220813,-0.007771729,1.011149526
23.836496,0.379646301,0.190101624,-0.070701599,0.004283326,-0.009114502,1.008341908
23.837122,0.249946594,0.129066467,-0.238548279,0.002452271,-0.00850415,1.006877065
23.837749,0.516975403,0.151954651,-0.085960388,0.001841919,-0.006795166,1.005778432
23.838374,0.471199036,0.319801331,-0.085960388,0.003795044,-0.005574463,1.006266713
23.839,0.616157532,0.121437073,0.11240387,0.00611438,-0.006306885,1.006388783
23.839625,0.379646301,0.33506012,-0.246177673,0.003428834,-0.007405518,1.005656362
23.840251,0.32624054,0.144325256,0.020851135,0.002452271,-0.005452393,1.004679799
23.840876,0.440681458,0.274024963,-0.162254333,0.002940552,-0.006795166,1.005900502
23.841501,0.532234192,0.235877991,-0.009666443,0.004039185,-0.004842041,1.003214955
23.842127,0.516975403,-0.023521423,-0.009666443,0.003550904,-0.007039307,1.006632924
23.842754,0.486457825,0.136695862,-0.085960388,0.001475709,-0.006306885,1.005290151
23.84338,0.501716614,0.228248596,0.051368713,0.002818482,-0.007405518,1.003214955
23.844014,0.349128723,-0.015892029,0.051368713,0.006846802,-0.007771729,1.002482533
23.844641,0.455940247,0.182472229,-0.063072205,0.006358521,-0.009236572,1.003703237
23.845306,0.433052063,0.212989807,0.097145081,0.005137818,-0.006917236,1.005778432
23.845932,0.56275177,0.319801331,-0.05544281,0.003917115,-0.00838208,1.004191518
23.846558,0.417793274,0.075660706,-0.131736755,0.001475709,-0.006306885,1.002482533
23.848356,0.555122375,0.060401917,-0.154624939,0.004161255,-0.008137939,1.004069448
23.848981,0.486457825,0.106178284,0.066627502,0.002696412,-0.006551025,1.00504601
23.849607,0.539863586,0.144325256,-0.032554626,0.003672974,-0.006795166,1.006266713
23.850232,0.410163879,0.25113678,-0.017295837,0.004161255,-0.004719971,1.006144643
23.850858,0.387275696,0.258766174,0.058998108,0.007090943,-0.008137939,1.006022573
23.851483,0.288093567,0.045143127,-0.146995544,0.00587024,-0.004109619,1.005534291
23.864081,0.249946594,-0.092185974,0.043739319,0.003062623,-0.007039307,1.006877065
23.864793,0.288093567,-0.168479919,-0.169883728,0.004039185,-0.009724854,1.004435658
23.865419,0.227058411,-0.08455658,0.066627502,0.004649537,-0.006184814,1.005412221
23.866045,0.288093567,-0.198997498,-0.024925232,0.003550904,-0.006551025,1.004801869
23.86667,0.188911438,-0.260032654,-0.024925232,0.002818482,-0.005574463,1.003581166
23.867295,0.051582336,0.144325256,-0.032554626,0.003184693,-0.004231689,1.005412221
23.86792,0.333869934,-0.015892029,-0.070701599,0.00196399,-0.005940674,1.005534291
23.868547,0.333869934,-0.198997498,-0.154624939,0.005015748,-0.008748291,1.004313588
23.869173,0.288093567,0.045143127,-0.215660095,0.005748169,-0.005940674,1.003825307
23.869799,0.112617493,-0.130332947,0.058998108,0.003428834,-0.008870361,1.003825307
23.870424,0.402534485,-0.099815369,0.150550842,0.004039185,-0.006917236,1.001628041
23.87105,0.433052063,-0.122703552,-0.063072205,0.004405396,-0.007527588,1.004313588
23.871676,0.280464172,-0.260032654,-0.017295837,0.003550904,-0.006062744,1.00895226
23.872301,0.341499329,0.045143127,-0.093589783,0.004649537,-0.006062744,1.006266713
23.872926,0.32624054,0.220619202,-0.063072205,0.002574341,-0.007039307,1.005778432
23.873551,0.112617493,-0.191368103,-0.05544281,0.004161255,-0.00826001,1.005534291
23.874176,0.150764465,0.014625549,0.097145081,0.002574341,-0.007771729,1.002848744
23.874802,0.257575989,-0.198997498,-0.078330994,0.00196399,-0.004231689,1.003214955
23.875429,0.181282043,-0.092185974,-0.024925232,0.002818482,-0.002644775,1.005656362
23.876055,0.440681458,-0.343955994,-0.208030701,-0.000111206,-0.006917236,1.007975698
23.87668,0.288093567,-0.214256287,-0.05544281,0.003550904,-0.005696533,1.005778432
23.877307,0.333869934,-0.160850525,-0.108848572,0.003184693,-0.006795166,1.007609487
23.877932,0.188911438,-0.00063324,-0.009666443,0.00196399,-0.0045979,1.006266713
23.878558,0.318611145,-0.130332947,-0.116477966,0.002940552,-0.007039307,1.006022573
23.896631,0.211799622,-0.267662048,-0.116477966,0.000621216,-0.002278564,1.006877065
23.897257,0.417793274,-0.23714447,0.104774475,0.004039185,-0.00435376,1.006266713
23.897884,0.188911438,-0.206626892,-0.078330994,0.00220813,-0.004109619,1.003825307
23.898511,0.234687805,-0.397361755,-0.108848572,0.001231568,-0.006306885,1.001383901
23.899136,0.249946594,-0.206626892,-0.017295837,0.001841919,-0.004964111,1.004801869
23.899761,0.387275696,-0.359214783,0.120033264,0.002452271,-0.004231689,1.003947377
23.900387,0.257575989,-0.397361755,-0.085960388,0.00196399,-0.00435376,1.006022573
23.901013,0.433052063,-0.229515076,-0.024925232,0.002818482,-0.007039307,1.006754994
23.901638,0.372016907,-0.374473572,0.074256897,0.003550904,-0.003621338,1.004557729
23.902265,0.295722961,-0.420249939,-0.185142517,0.004161255,-0.003133057,1.007609487
23.90289,0.425422668,-0.420249939,0.005592346,0.001597779,-0.002888916,1.004679799
23.903516,0.372016907,-0.298179626,0.043739319,0.003184693,-0.005452393,1.007243276
23.904142,0.356758118,-0.267662048,0.18106842,0.002330201,-0.004109619,1.004801869
23.904767,0.379646301,-0.504173279,-0.009666443,0.003428834,-0.005330322,1.007121205
23.905393,0.425422668,-0.351585388,0.005592346,0.003184693,-0.003133057,1.005900502
23.90602,0.364387512,-0.229515076,0.02848053,0.00220813,-0.003865479,1.007731557
23.906645,0.288093567,-0.313438416,-0.108848572,0.004161255,-0.00435376,1.006877065
23.907271,0.150764465,-0.374473572,-0.032554626,0.000743287,-0.004109619,1.004801869
23.907896,0.234687805,-0.450767517,0.127662659,0.002696412,-0.003010986,1.006877065
23.908522,0.471199036,-0.397361755,0.188697815,0.003306763,-0.0045979,1.007731557
23.909148,0.356758118,-0.458396912,0.066627502,0.002574341,-0.001790283,1.006266713
23.909774,0.32624054,-0.496543884,-0.017295837,0.00208606,-0.001912354,1.006510854
23.9104,0.356758118,-0.275291443,-0.085960388,0.002696412,-0.005818604,1.007243276
23.911026,0.089729309,-0.443138123,-0.063072205,0.002696412,-0.00447583,1.006266713
23.923714,0.219429016,-0.336326599,0.18106842,0.000987427,-0.002522705,1.005412221
23.92446,0.448310852,-0.336326599,0.127662659,-0.000355346,-0.004109619,1.007365346
23.925086,0.31098175,-0.336326599,0.02848053,0.003184693,-0.002278564,1.005778432
23.925711,0.455940247,-0.527061462,0.043739319,0.001719849,-0.005452393,1.008219838
23.926338,0.341499329,-0.481285095,0.104774475,0.003306763,-0.003133057,1.006388783
23.926963,0.280464172,-0.420249939,0.005592346,0.002574341,-0.004231689,1.000651479
23.927588,0.364387512,-0.633872986,0.280250549,0.005015748,-0.00044751,1.012004018
23.928214,0.288093567,-0.473655701,0.188697815,0.000255005,-0.0124104,1.011271596
23.928839,0.173652649,-0.15322113,-0.085960388,0.006968873,0.001749756,1.007121205
23.929464,0.295722961,-0.458396912,0.280250549,0.001475709,-0.010213135,1.004435658
23.93009,0.211799622,-0.397361755,-0.146995544,-0.003040893,0.001749756,1.005656362
23.930715,0.211799622,-0.481285095,0.043739319,0.000132935,-0.001912354,1.00504601
23.931342,0.112617493,-0.366844177,0.310768127,0.002330201,-0.001912354,1.005778432
23.931969,0.280464172,-0.458396912,-0.162254333,0.001597779,-0.005330322,1.008463979
23.932596,0.089729309,-0.382102966,0.02848053,0.000010865,-0.003255127,1.004679799
23.933221,0.349128723,-0.244773865,0.310768127,0.00220813,-0.005818604,1.005412221
23.933846,0.227058411,-0.534690857,-0.05544281,-0.001331909,-0.003255127,1.006510854
23.934471,0.227058411,-0.519432068,-0.070701599,0.00196399,-0.003010986,1.005534291
23.935098,0.318611145,-0.23714447,0.104774475,0.000255005,-0.007893799,1.007853627
23.935724,0.143135071,-0.427879333,0.150550842,0.004405396,-0.003743408,1.010783315
23.93635,0.188911438,-0.504173279,0.196327209,0.00220813,-0.00447583,1.008219838
23.936977,0.089729309,-0.137962341,0.02848053,0.001719849,-0.006428955,1.010661244
23.937604,0.013435364,-0.183738708,-0.024925232,0.002574341,-0.002156494,1.007609487
23.938231,0.166023254,-0.313438416,-0.017295837,-0.000355346,-0.00056958,1.005656362
23.938856,0.333869934,-0.275291443,-0.024925232,0.001109498,-0.002766846,1.007609487
23.939483,0.135505676,-0.313438416,-0.146995544,0.004161255,-0.007039307,1.005290151
23.940108,0.39490509,-0.168479919,-0.002037048,0.004649537,-0.007161377,1.00907433
23.940734,0.356758118,-0.57283783,0.051368713,0.003917115,-0.006795166,1.007243276
23.941359,0.379646301,-0.206626892,0.051368713,0.001719849,-0.004719971,1.006510854
23.941984,0.32624054,-0.366844177,0.173439026,0.001841919,-0.004964111,1.003214955
23.942611,0.173652649,-0.23714447,0.097145081,0.005748169,-0.003743408,1.005900502
23.943236,0.341499329,-0.130332947,0.120033264,0.002696412,-0.003621338,1.003214955
23.943863,0.211799622,-0.252403259,-0.101219177,0.003795044,-0.004109619,1.003337026
23.944489,0.249946594,-0.229515076,0.036109924,0.004527466,-0.002888916,1.005778432
23.945115,0.410163879,-0.290550232,-0.002037048,0.002452271,-0.002156494,1.006632924
23.945741,0.15839386,-0.389732361,-0.017295837,0.001109498,-0.006062744,1.005290151
23.946367,0.150764465,-0.420249939,0.097145081,0.000621216,-0.002522705,1.002360463
23.946992,0.219429016,-0.168479919,-0.002037048,0.004283326,-0.0045979,1.003581166
23.948752,0.219429016,-0.221885681,-0.101219177,0.005259888,-0.005940674,1.002848744
23.949378,0.097358704,-0.206626892,-0.124107361,0.003917115,-0.007893799,1.004435658
23.950003,0.341499329,-0.473655701,0.165809631,0.002574341,-0.002522705,1.00516808
23.950629,0.066841125,-0.260032654,-0.078330994,0.003672974,-0.003987549,1.00504601
23.951255,0.043952942,-0.366844177,0.005592346,0.001719849,-0.005086182,1.006999135
23.95188,0.372016907,-0.275291443,0.173439026,0.000132935,-0.004964111,1.00883019
23.952506,0.181282043,-0.260032654,-0.040184021,0.005259888,-0.005940674,1.007365346
23.953133,0.257575989,-0.244773865,0.219215393,0.004283326,-0.006551025,1.007365346
23.953759,0.127876282,-0.343955994,0.036109924,0.003428834,-0.009968994,1.006266713
23.954385,0.089729309,-0.168479919,-0.032554626,0.004161255,-0.004231689,1.007243276
23.955016,0.07447052,-0.054039001,-0.05544281,0.004283326,-0.005086182,1.004557729
23.967622,0.104988098,-0.183738708,-0.078330994,0.004283326,-0.005452393,1.004313588
23.968326,0.227058411,-0.145591736,-0.124107361,0.003795044,-0.004719971,1.002726674
23.968951,0.234687805,-0.458396912,0.173439026,0.001719849,-0.00838208,1.004679799
23.969577,0.150764465,-0.343955994,-0.162254333,0.00196399,-0.006306885,1.000285268
23.970203,0.07447052,-0.298179626,-0.017295837,0.003062623,-0.005818604,1.003703237
23.970828,0.166023254,-0.23714447,0.051368713,0.002940552,-0.005208252,1.002970815
23.971453,-0.024711609,-0.115074158,0.058998108,0.002574341,-0.006551025,1.002604604
23.972078,0.143135071,-0.534690857,0.02848053,0.005381959,-0.002156494,1.004191518
23.972704,0.066841125,-0.313438416,0.142921448,0.00611438,-0.006917236,1.006388783
23.973331,0.234687805,-0.145591736,-0.101219177,0.005137818,-0.003865479,1.005290151
23.973957,-0.039970398,-0.305809021,0.005592346,0.004161255,-0.004842041,1.002482533
23.974582,0.097358704,-0.298179626,0.013221741,0.003184693,-0.005696533,1.002238393
23.975207,0.196540833,-0.282920837,-0.017295837,0.002330201,-0.004964111,1.005900502
23.975832,0.089729309,-0.466026306,-0.085960388,0.003062623,-0.007771729,1.001628041
23.976457,-0.116264343,-0.481285095,-0.040184021,0.004771607,-0.005452393,1.00516808
23.977082,-0.131523132,-0.252403259,-0.05544281,0.002818482,-0.003987549,1.006022573
23.977708,0.188911438,-0.336326599,-0.009666443,0.002574341,-0.006795166,1.006266713
23.978334,0.097358704,-0.176109314,0.18106842,0.008433716,-0.003621338,1.006754994
23.978961,-0.001823425,-0.221885681,0.043739319,0.002452271,-0.008137939,1.005778432
23.979587,0.15839386,-0.023521423,-0.101219177,0.000743287,-0.005330322,1.004313588
23.980213,0.089729309,-0.244773865,-0.078330994,-0.000355346,-0.007161377,1.00907433
23.980839,0.127876282,-0.099815369,0.120033264,0.003062623,-0.00850415,1.010783315
23.981466,0.188911438,-0.382102966,-0.13936615,0.004405396,-0.008015869,1.00895226
23.982091,0.227058411,-0.115074158,0.013221741,0.003672974,-0.008015869,1.007243276
23.982717,0.372016907,0.052772522,0.142921448,0.002330201,-0.001912354,1.005656362
23.983344,0.135505676,-0.282920837,0.066627502,0.000743287,-0.00435376,1.004069448
23.983971,0.15839386,-0.198997498,0.11240387,0.001109498,-0.005818604,1.005534291
23.984596,0.318611145,-0.115074158,-0.146995544,0.001719849,-0.004842041,1.00895226
23.985223,0.318611145,-0.00063324,0.081886292,0.003550904,-0.000203369,1.006632924
23.98585,0.265205383,-0.008262634,0.135292053,0.000377076,-0.005086182,1.005412221
23.986477,0.150764465,-0.343955994,-0.017295837,0.000499146,-0.001790283,1.003581166
23.987104,0.372016907,-0.00063324,0.066627502,0.003062623,-0.008870361,1.007975698
23.987729,0.227058411,-0.115074158,0.081886292,0.002940552,-0.006551025,1.009196401
23.988355,0.364387512,-0.122703552,-0.063072205,0.004649537,-0.008015869,1.009928823
23.98898,0.333869934,-0.099815369,-0.131736755,0.001353638,-0.006673096,1.006388783
23.989606,0.257575989,-0.343955994,-0.070701599,0.001231568,-0.005696533,1.003825307
23.990231,0.204170227,-0.054039001,-0.040184021,0.002940552,-0.000325439,1.007975698
23.990856,0.425422668,-0.08455658,0.196327209,-0.000355346,-0.007771729,1.005778432
23.991483,0.501716614,-0.366844177,0.005592346,0.002818482,-0.006306885,1.008586049
23.992108,0.295722961,-0.176109314,-0.002037048,0.005626099,-0.003865479,1.007975698
23.992735,0.295722961,0.022254944,-0.246177673,-0.000111206,-0.012898682,1.006632924
23.993361,0.440681458,-0.145591736,-0.040184021,0.002696412,-0.007771729,1.00907433
23.993988,0.570381165,-0.122703552,-0.009666443,0.00611438,-0.00826001,1.008586049
23.994614,0.822151184,0.182472229,-0.070701599,0.00587024,-0.010701416,1.012126088
23.99524,0.761116028,0.075660706,0.074256897,0.007457154,0.001749756,1.007365346
23.995866,0.623786926,0.144325256,0.066627502,-0.003285034,-0.00044751,1.003459096
23.996491,0.417793274,0.228248596,0.051368713,-0.005482299,-0.0045979,1.002360463
23.997118,0.425422668,-0.023521423,0.120033264,-0.000477416,-0.003377197,1.004313588
24.009732,1.012886047,0.029884338,-0.200401306,0.005626099,-0.021443604,1.015177846
24.010472,0.867927551,0.373207092,0.120033264,-0.000721557,-0.0280354,1.023234487
24.011098,1.638496399,0.228248596,-0.093589783,0.026622193,0.01114917,1.00895226
24.011724,0.799263,0.830970764,0.097145081,-0.007923706,0.017252686,0.995524526
24.01235,0.96710968,0.16721344,-0.032554626,-0.022938354,-0.019612549,0.986125112
24.012975,0.593269348,-0.382102966,-0.070701599,0.000010865,0.013590576,0.996134877
24.013602,0.616157532,-0.244773865,-0.238548279,0.007701294,-0.015828369,1.011515737
24.014229,0.982368469,0.014625549,0.058998108,0.013072388,-0.01228833,1.02054894
24.014855,0.88318634,0.319801331,0.013221741,0.004649537,-0.006795166,1.017863393
24.01548,1.020515442,0.472389221,-0.085960388,0.001719849,-0.005940674,1.008708119
24.016105,1.028144836,0.380836487,-0.002037048,-0.000843627,-0.001057861,1.002970815
24.016731,1.081550598,0.212989807,-0.078330994,-0.003162963,-0.003743408,1.00113976
24.017357,1.142585754,0.182472229,0.203956604,-0.000233276,-0.007893799,1.005534291
24.017984,1.073921204,0.190101624,-0.124107361,0.005015748,-0.003987549,1.005778432
24.01861,1.05103302,0.16721344,-0.078330994,0.003550904,-0.007771729,1.009928823
24.019236,1.081550598,0.25113678,-0.05544281,0.001475709,-0.005208252,1.009562612
24.019861,1.150215149,0.342689514,0.066627502,-0.001331909,-0.002400635,1.006632924
24.020487,1.096809387,0.396095276,-0.070701599,-0.000355346,-0.004842041,1.006510854
24.021113,1.028144836,0.449501038,-0.05544281,0.003306763,-0.003377197,1.005778432
24.02174,1.081550598,0.129066467,0.18106842,0.004283326,-0.008992432,1.010417104
24.022366,1.081550598,0.212989807,-0.032554626,0.005015748,-0.00838208,1.007975698
24.022991,1.173103333,0.33506012,0.02848053,0.003428834,-0.005208252,1.00907433
24.023616,1.058662415,0.304542542,-0.032554626,0.00587024,-0.003133057,1.007731557
24.024241,1.073921204,0.373207092,-0.063072205,-0.000355346,-0.003743408,1.005900502
24.024867,1.043403625,0.33506012,-0.024925232,-0.000355346,-0.006184814,1.004435658
24.025493,1.203620911,0.357948303,-0.024925232,0.000865357,-0.003743408,1.006266713
24.026118,0.829780579,0.25113678,-0.215660095,0.003428834,-0.00447583,1.006144643
24.026743,0.852668762,0.312171936,-0.078330994,0.005381959,-0.008870361,1.005290151
24.02737,0.951850891,0.388465881,0.058998108,0.001353638,-0.003377197,1.003825307
24.027996,0.989997864,0.235877991,-0.22328949,0.004405396,-0.009480713,1.005412221
24.028622,0.631416321,0.411354065,-0.108848572,0.002452271,0.018107178,0.995158315
24.029247,0.761116028,-0.122703552,-0.040184021,-0.018421752,-0.033284426,1.00101769
24.029874,0.639045715,0.136695862,0.089515686,0.010264771,0.009684326,1.006266713
24.030499,0.700080872,-0.305809021,-0.032554626,0.003428834,-0.012898682,1.007243276
24.031125,0.898445129,-0.046409607,0.135292053,0.004039185,-0.00435376,1.005778432
24.031751,0.608528137,0.060401917,-0.063072205,-0.001331909,0.000529053,1.002848744
24.032376,0.593269348,0.068031311,-0.078330994,-0.003162963,-0.009236572,1.001872182
24.033001,0.761116028,-0.031150818,-0.017295837,0.003795044,-0.003743408,1.002848744
24.033627,0.73059845,-0.092185974,-0.085960388,0.004527466,-0.006673096,1.008219838
24.034252,0.806892395,-0.191368103,0.005592346,0.004771607,-0.011433838,1.009928823
24.034878,0.921333313,-0.038780212,0.165809631,0.009044068,-0.006062744,1.008708119
24.035504,0.768745422,0.060401917,0.043739319,0.004039185,-0.005086182,1.004313588
24.036129,0.829780579,-0.008262634,-0.002037048,0.003184693,-0.006551025,1.003947377
24.036754,1.012886047,-0.008262634,-0.002037048,0.003672974,-0.008626221,1.008341908
24.037381,0.989997864,-0.145591736,0.02848053,0.005748169,-0.001179932,1.009196401
24.038015,0.822151184,0.16721344,-0.093589783,0.006724732,-0.003621338,1.007487416
24.038642,0.845039368,0.144325256,0.272621155,0.001109498,-0.008626221,1.009318471
24.039268,0.768745422,0.258766174,-0.116477966,0.006846802,-0.006184814,1.005412221
24.039893,0.700080872,0.068031311,-0.017295837,0.002330201,-0.006673096,1.00504601
24.053664,0.425422668,0.548683167,-0.146995544,0.005015748,-0.006551025,1.006632924
24.054351,0.112617493,0.480018616,-0.070701599,0.001231568,-0.004109619,1.002848744
24.054976,0.234687805,0.25113678,0.005592346,-0.000965698,-0.004719971,1.000651479
24.055601,0.349128723,0.174842834,-0.169883728,0.000010865,-0.006306885,0.998820424
24.056226,0.288093567,0.121437073,-0.185142517,-0.000599487,-0.007283447,1.003581166
24.056853,0.288093567,0.075660706,-0.154624939,0.001719849,-0.009968994,1.004557729
24.057479,0.295722961,0.022254944,0.051368713,0.006724732,-0.004109619,1.00504601
24.058105,0.021064758,0.235877991,-0.169883728,0.00611438,-0.003499268,1.003825307
24.05873,0.417793274,-0.00063324,-0.093589783,-0.00169812,-0.005452393,1.003947377
24.059355,0.097358704,-0.099815369,0.043739319,0.001109498,-0.006062744,1.003581166
24.059982,0.295722961,0.029884338,0.005592346,0.001475709,-0.008137939,1.004069448
24.060608,0.166023254,0.037513733,-0.078330994,0.001109498,-0.004719971,1.002360463
24.061234,0.043952942,-0.107444763,-0.009666443,0.001841919,-0.005208252,1.003092885
24.061859,0.028694153,-0.054039001,0.120033264,0.003306763,-0.006062744,1.003703237
24.062485,0.07447052,-0.427879333,-0.040184021,0.002574341,-0.004964111,1.004191518
24.06311,0.341499329,-0.221885681,-0.063072205,0.001841919,-0.008870361,1.004435658
24.063736,0.089729309,-0.168479919,-0.032554626,0.003062623,-0.003865479,1.004069448
24.064361,0.249946594,-0.267662048,-0.070701599,-0.001209838,-0.003377197,1.003092885
24.064986,0.043952942,-0.32106781,0.02848053,-0.00182019,-0.005574463,1.004801869
24.065612,0.036323547,-0.397361755,0.097145081,-0.002064331,-0.006184814,1.001505971
24.066238,0.127876282,-0.351585388,-0.017295837,0.003550904,-0.007039307,1.004435658
24.066864,0.066841125,-0.649131775,0.127662659,0.003062623,-0.007039307,1.00492394
24.067491,0.181282043,-0.359214783,0.036109924,0.00587024,-0.006062744,1.006144643
24.068117,0.005805969,-0.435508728,-0.017295837,0.008311646,-0.004964111,1.00895226
24.068742,0.211799622,-0.40499115,-0.162254333,0.005504029,-0.006917236,1.007731557
24.069367,0.07447052,-0.313438416,-0.22328949,0.003917115,-0.007039307,1.010295033
24.069993,0.135505676,-0.191368103,0.074256897,0.004161255,-0.005208252,1.00907433
24.070618,-0.032341003,-0.328697205,0.051368713,0.003795044,-0.005818604,1.007365346
24.071244,0.196540833,-0.15322113,-0.040184021,0.001597779,-0.006551025,1.007365346
24.07187,0.227058411,-0.130332947,-0.024925232,-0.000355346,-0.003010986,1.006632924
24.072496,0.31098175,-0.374473572,-0.063072205,0.003062623,-0.007039307,1.00492394
24.073121,0.188911438,-0.412620544,0.013221741,0.004283326,-0.002644775,1.005290151
24.073746,0.089729309,-0.115074158,-0.101219177,0.00196399,-0.003743408,1.00907433
24.074373,0.15839386,-0.191368103,-0.162254333,0.003672974,-0.004231689,1.004069448
24.074999,0.318611145,-0.336326599,0.120033264,0.004283326,-0.006673096,1.006999135
24.075624,0.089729309,-0.267662048,-0.040184021,0.003672974,-0.0045979,1.008708119
24.076249,0.104988098,-0.336326599,-0.108848572,-0.000843627,-0.002522705,1.006510854
24.076875,0.143135071,-0.191368103,0.020851135,-0.000233276,-0.002888916,1.005900502
24.077502,0.005805969,-0.275291443,-0.017295837,0.002330201,-0.004231689,1.007975698
24.078128,0.036323547,-0.282920837,-0.063072205,-0.000355346,-0.003621338,1.007121205
24.078753,0.028694153,-0.244773865,-0.13936615,0.003184693,-0.005208252,1.005778432
24.079379,0.028694153,-0.244773865,-0.13936615,0.003184693,-0.005208252,1.005778432
24.080004,0.127876282,-0.130332947,-0.093589783,0.003550904,-0.004231689,1.00883019
24.080631,0.051582336,-0.221885681,-0.024925232,0.00220813,-0.005696533,1.008463979
24.081256,0.082099915,-0.252403259,0.013221741,0.002696412,-0.003499268,1.006266713
24.081882,0.051582336,-0.252403259,0.013221741,0.003184693,-0.003255127,1.006022573
24.082508,-0.032341003,-0.00063324,-0.124107361,0.000743287,-0.006306885,1.010050893
24.083133,0.028694153,-0.32106781,-0.009666443,0.000865357,-0.005574463,1.008219838
24.095756,0.066841125,-0.298179626,-0.093589783,0.001109498,-0.006184814,1.006510854
24.0965,0.135505676,-0.374473572,0.26499176,-0.001087768,-0.005208252,1.00492394
24.097126,0.089729309,-0.343955994,-0.024925232,0.00196399,-0.002400635,1.00504601
24.097751,0.028694153,-0.092185974,-0.116477966,0.00208606,-0.003621338,1.004679799
24.098377,0.166023254,-0.305809021,-0.169883728,0.000132935,-0.005940674,1.005656362
24.099003,0.31098175,-0.366844177,-0.13936615,0.00220813,-0.005208252,1.001994252
24.099628,0.043952942,-0.305809021,0.058998108,0.002330201,-0.003865479,1.003214955
24.100254,0.303352356,-0.282920837,-0.063072205,0.000255005,-0.004719971,1.004801869
24.100881,0.196540833,-0.229515076,-0.05544281,0.001597779,-0.003377197,1.00907433
24.101507,0.196540833,-0.351585388,-0.169883728,0.00220813,-0.003743408,1.007853627
24.102132,0.135505676,-0.267662048,0.036109924,0.001109498,-0.002400635,1.005534291
24.102759,0.120246887,-0.023521423,-0.101219177,0.001109498,-0.002766846,1.008586049
24.103385,0.318611145,-0.221885681,-0.13936615,0.003428834,-0.002034424,1.006877065
24.104015,0.32624054,-0.099815369,0.066627502,0.001109498,-0.003010986,1.007853627
24.10464,0.288093567,-0.015892029,-0.093589783,0.001109498,-0.004964111,1.005412221
24.105265,0.15839386,-0.107444763,-0.002037048,0.004771607,-0.003865479,1.004435658
24.105891,0.196540833,-0.206626892,-0.101219177,0.00220813,-0.0045979,1.005534291
24.106518,0.135505676,-0.160850525,-0.032554626,0.000255005,-0.004109619,1.005656362
24.107143,0.028694153,-0.183738708,-0.047813416,0.001475709,-0.002522705,1.006999135
24.107769,0.173652649,-0.107444763,-0.078330994,0.000132935,-0.003010986,1.007609487
24.108396,0.188911438,-0.015892029,-0.009666443,0.000377076,-0.004109619,1.005656362
24.109023,0.219429016,-0.115074158,-0.024925232,0.002940552,-0.004964111,1.006144643
24.10965,0.143135071,-0.176109314,-0.093589783,0.000132935,-0.003499268,1.008463979
24.110277,0.051582336,-0.191368103,-0.070701599,0.000621216,-0.004719971,1.007975698
24.110903,0.127876282,-0.214256287,-0.047813416,0.000621216,-0.003133057,1.005778432
24.111529,0.234687805,-0.099815369,-0.040184021,0.000255005,-0.004719971,1.006144643
24.112155,0.181282043,-0.23714447,-0.116477966,-0.000355346,-0.004231689,1.004679799
24.112781,0.043952942,-0.061668396,0.203956604,0.001719849,-0.001790283,1.006999135
24.113406,0.112617493,-0.328697205,0.005592346,-0.000599487,-0.004109619,1.00492394
24.114033,0.028694153,-0.061668396,-0.040184021,0.002330201,-0.003499268,1.003214955
24.114658,0.303352356,-0.198997498,0.066627502,0.000865357,-0.005818604,1.003703237
24.115283,-0.017082214,-0.107444763,0.043739319,0.003672974,-0.004719971,1.006022573
24.115909,0.2423172,-0.183738708,0.043739319,0.001719849,-0.003865479,1.004557729
24.116536,0.410163879,-0.252403259,0.127662659,0.000987427,-0.006673096,1.00516808
24.117162,0.333869934,-0.290550232,-0.063072205,-0.000355346,-0.004964111,1.003947377
24.117788,0.219429016,-0.336326599,-0.05544281,-0.002186401,-0.0045979,1.002116323
24.118413,0.2423172,-0.382102966,0.043739319,0.000743287,-0.006917236,1.004679799
24.119038,0.181282043,-0.130332947,-0.208030701,0.003795044,-0.005208252,1.006510854
24.119663,0.272834778,-0.40499115,0.051368713,0.003428834,-0.005696533,1.009318471
24.120288,0.15839386,-0.198997498,0.051368713,0.001597779,-0.007039307,1.010295033
24.120914,0.249946594,0.068031311,-0.13936615,0.003917115,-0.003743408,1.007975698
24.121539,0.166023254,-0.305809021,-0.078330994,0.001353638,-0.002400635,1.005534291
24.122166,0.364387512,-0.107444763,-0.009666443,-0.002064331,-0.006184814,1.002604604
24.122792,0.120246887,-0.260032654,-0.002037048,-0.000599487,-0.004842041,1.004801869
24.123418,0.2423172,-0.214256287,-0.047813416,-0.000477416,-0.003865479,1.004191518
24.124043,0.333869934,0.045143127,-0.169883728,0.00220813,-0.004964111,1.006510854
24.124668,0.31098175,-0.343955994,-0.131736755,0.004039185,-0.003255127,1.004313588
24.125294,0.112617493,-0.130332947,0.020851135,0.001109498,-0.003377197,1.006510854
24.125919,0.265205383,-0.252403259,-0.154624939,0.004405396,-0.003743408,1.003092885
24.157223,-0.101005554,-0.191368103,-0.009666443,0.003672974,-0.001546143,1.003947377
24.157948,-0.101005554,-0.160850525,-0.017295837,-0.00194226,-0.005452393,1.003947377
24.158573,-0.070487976,-0.229515076,-0.108848572,0.002330201,-0.005940674,1.00516808
24.159198,-0.055229187,-0.282920837,0.089515686,0.002574341,-0.007039307,1.006632924
24.159824,-0.154411316,-0.305809021,-0.017295837,0.001841919,-0.003621338,1.007609487
24.160449,-0.09337616,-0.412620544,-0.05544281,0.00196399,-0.002888916,1.005656362
24.161076,-0.047599792,-0.549949646,-0.032554626,0.000499146,-0.005574463,1.002970815
24.161703,0.15839386,-0.458396912,-0.047813416,0.001597779,-0.006795166,1.004801869
24.162329,0.028694153,-0.481285095,-0.192771912,0.000743287,-0.003499268,1.00516808
24.162954,0.021064758,-0.443138123,-0.101219177,0.001109498,-0.003987549,1.004313588
24.16358,-0.024711609,-0.443138123,-0.047813416,0.002696412,-0.006551025,1.006877065
24.164207,0.120246887,-0.57283783,0.051368713,0.004039185,-0.004842041,1.008463979
24.164832,-0.108634949,-0.450767517,-0.337730408,0.002574341,-0.003743408,1.007487416
24.165457,0.043952942,-0.305809021,-0.009666443,0.003672974,-0.005574463,1.005778432
24.166083,-0.062858582,-0.382102966,0.135292053,0.002574341,-0.004842041,1.010172963
24.166709,-0.09337616,-0.366844177,0.120033264,0.000987427,-0.003499268,1.007121205
24.167335,-0.108634949,-0.397361755,-0.063072205,0.004161255,-0.003377197,1.005534291
24.16796,0.043952942,-0.305809021,-0.070701599,0.002574341,-0.004109619,1.008219838
24.168586,-0.123893738,-0.374473572,-0.040184021,0.000132935,-0.003865479,1.008463979
24.169211,-0.001823425,-0.466026306,-0.032554626,-0.000721557,-0.005086182,1.005900502
24.169837,0.07447052,-0.374473572,0.036109924,0.003795044,-0.006306885,1.005656362
24.170464,-0.192558289,-0.359214783,-0.208030701,0.001841919,-0.005696533,1.006388783
24.171089,0.005805969,-0.481285095,-0.169883728,0.000010865,-0.003621338,1.006510854
24.171714,0.104988098,-0.359214783,0.081886292,0.000255005,-0.004109619,1.007853627
24.17234,-0.070487976,-0.275291443,0.104774475,0.004771607,-0.005940674,1.006022573
24.172967,-0.184928894,-0.40499115,-0.078330994,0.001841919,-0.00447583,1.007487416
24.173593,0.089729309,-0.168479919,0.036109924,0.002696412,-0.003987549,1.007731557
24.174218,0.15839386,-0.214256287,-0.085960388,0.000377076,-0.001424072,1.008463979
24.174843,0.089729309,-0.374473572,-0.040184021,0.001109498,-0.003743408,1.007365346
24.175468,0.120246887,-0.23714447,-0.108848572,0.001719849,-0.003010986,1.00895226
24.176093,0.059211731,-0.313438416,-0.108848572,0.001719849,-0.005696533,1.006510854
24.17672,0.028694153,-0.32106781,0.066627502,0.001841919,-0.004231689,1.007365346
24.177346,-0.024711609,-0.206626892,-0.063072205,0.00208606,-0.003133057,1.00516808
24.177971,0.013435364,-0.420249939,0.020851135,-0.000599487,-0.004964111,1.003947377
24.178597,0.036323547,-0.351585388,-0.131736755,0.003550904,-0.006062744,1.006022573
24.179223,-0.032341003,-0.191368103,-0.040184021,0.002574341,-0.004231689,1.004191518
24.17985,-0.253593445,-0.160850525,-0.146995544,0.001353638,-0.005940674,1.005900502
24.180475,-0.146781921,-0.191368103,-0.230918884,0.002452271,-0.002400635,1.005412221
24.181101,0.013435364,-0.176109314,0.066627502,0.003672974,-0.001179932,1.006877065
24.181728,-0.055229187,-0.336326599,0.043739319,0.00220813,-0.005086182,1.008586049
24.182354,-0.017082214,-0.221885681,-0.124107361,0.000865357,-0.006795166,1.005290151
24.182979,-0.055229187,-0.176109314,-0.047813416,0.003795044,-0.004109619,1.005534291
24.183605,0.005805969,-0.191368103,0.058998108,-0.000233276,-0.006917236,1.006022573
24.184232,-0.16204071,-0.099815369,0.036109924,0.001231568,-0.007771729,1.005656362
24.184857,0.196540833,-0.183738708,-0.101219177,0.002330201,-0.004231689,1.004557729
24.185484,-0.078117371,-0.267662048,-0.131736755,0.003306763,-0.004964111,1.002726674
24.186109,-0.238334656,0.113807678,0.013221741,0.001719849,-0.004719971,1.007853627
24.186734,-0.146781921,0.014625549,-0.085960388,0.003550904,-0.005086182,1.005412221
24.199457,-0.131523132,-0.015892029,-0.047813416,-0.001087768,-0.003133057,1.002726674
24.200223,0.135505676,-0.137962341,0.005592346,0.003062623,-0.003377197,1.004557729
24.200849,0.082099915,-0.252403259,-0.093589783,0.001475709,-0.003255127,1.003459096
24.201474,0.166023254,0.029884338,-0.017295837,0.004405396,-0.003499268,1.002360463
24.2021,0.097358704,-0.366844177,-0.330101013,0.002452271,-0.003865479,1.002482533
24.202726,-0.062858582,-0.160850525,0.043739319,-0.00194226,-0.000813721,1.00895226
24.203351,0.089729309,-0.191368103,0.097145081,0.000743287,-0.003743408,1.005900502
24.203977,0.097358704,-0.229515076,0.081886292,0.000987427,0.000284912,1.006022573
24.204604,0.211799622,-0.389732361,-0.131736755,0.004161255,-0.004719971,1.001383901
24.205229,0.089729309,-0.267662048,-0.131736755,0.000377076,-0.0045979,1.001872182
24.205856,0.150764465,-0.382102966,-0.131736755,0.000621216,-0.003377197,1.001505971
24.206481,0.135505676,-0.15322113,0.036109924,0.000987427,-0.003377197,1.002238393
24.207107,0.211799622,-0.191368103,0.104774475,0.002330201,-0.002156494,1.007853627
24.207732,0.227058411,-0.313438416,-0.024925232,0.001231568,-0.003133057,1.003703237
24.208357,0.059211731,-0.443138123,0.043739319,-0.00194226,-0.005086182,1.008341908
24.208983,0.173652649,-0.412620544,-0.05544281,0.002696412,-0.006551025,1.006632924
24.209608,-0.101005554,-0.519432068,0.020851135,0.002818482,-0.002766846,1.008463979
24.210234,0.059211731,-0.282920837,-0.063072205,0.000010865,-0.001790283,1.006144643
24.210859,0.227058411,-0.389732361,-0.05544281,0.001719849,-0.009358643,1.007365346
24.211484,-0.062858582,-0.443138123,0.036109924,0.001231568,-0.003377197,1.004313588
24.212109,0.234687805,-0.443138123,0.013221741,0.003306763,-0.003987549,1.006510854
24.212734,0.135505676,-0.633872986,-0.131736755,-0.000233276,-0.002766846,1.005412221
24.213361,-0.055229187,-0.443138123,0.005592346,-0.001576049,-0.003377197,1.006632924
24.213988,0.097358704,-0.351585388,-0.078330994,0.001475709,-0.004842041,1.005412221
24.214615,0.150764465,-0.504173279,0.058998108,0.001231568,-0.002766846,1.006388783
24.21524,0.196540833,-0.374473572,-0.040184021,0.001475709,-0.0045979,1.004801869
24.215866,-0.085746765,-0.458396912,-0.093589783,0.002696412,-0.004231689,1.002970815
24.216491,0.013435364,-0.48891449,-0.024925232,-0.000233276,-0.003743408,1.00126183
24.217118,0.127876282,-0.534690857,-0.024925232,-0.000355346,-0.003377197,1.005900502
24.217745,0.188911438,-0.649131775,0.005592346,0.00196399,-0.004964111,1.003703237
24.21837,0.07447052,-0.427879333,-0.063072205,-0.000477416,-0.005452393,1.005656362
24.218995,0.196540833,-0.618614197,0.013221741,0.002818482,-0.004964111,1.005290151
24.21962,0.150764465,-0.664390564,0.127662659,0.003062623,-0.003133057,1.001628041
24.220247,0.127876282,-0.64150238,-0.185142517,0.001109498,-0.003621338,1.007365346
24.220872,0.112617493,-0.717796326,-0.078330994,0.001109498,-0.003987549,1.005290151
24.221497,-0.101005554,-0.610984802,0.043739319,0.001475709,-0.004964111,1.004557729
24.222123,-0.146781921,-0.626243591,-0.002037048,0.005015748,-0.004719971,1.00101769
24.222748,0.204170227,-0.694908142,-0.047813416,0.002574341,-0.005330322,1.004069448
24.223373,-0.062858582,-0.557579041,-0.047813416,0.000255005,-0.002156494,1.005534291
24.223998,-0.09337616,-0.610984802,0.066627502,0.001719849,-0.005086182,1.000041127
24.224623,0.059211731,-0.839866638,0.074256897,0.000987427,-0.003255127,1.003947377
24.225248,0.204170227,-0.694908142,-0.063072205,0.002574341,-0.002522705,1.004679799
24.225873,0.059211731,-0.595726013,-0.070701599,0.001109498,-0.002522705,1.006510854
24.226498,0.127876282,-0.862754822,-0.085960388,0.003184693,-0.003743408,1.007243276
24.227123,0.143135071,-0.656761169,-0.116477966,0.003795044,-0.006062744,1.005778432
24.227748,0.31098175,-0.633872986,0.02848053,0.000865357,-0.00069165,1.004801869
24.228373,0.097358704,-0.679649353,0.097145081,0.003917115,-0.002644775,1.005290151
24.228998,0.143135071,-0.687278748,-0.269065857,0.000132935,-0.004842041,1.006144643
24.241542,0.181282043,-0.519432068,-0.047813416,0.002574341,-0.00435376,1.003337026
24.242251,-0.047599792,-0.702537537,-0.124107361,0.000621216,-0.004719971,1.003337026
24.242878,0.082099915,-0.595726013,-0.05544281,0.003795044,-0.000935791,1.006510854
24.243503,0.021064758,-0.496543884,0.142921448,0.004039185,-0.004231689,1.006999135
24.24413,0.127876282,-0.420249939,-0.009666443,0.002696412,-0.00435376,1.004069448
24.244756,0.135505676,-0.664390564,-0.208030701,0.003917115,-0.003987549,1.004557729
24.245381,0.005805969,-0.633872986,-0.101219177,0.000377076,-0.006306885,1.007975698
24.246013,0.066841125,-0.48891449,-0.169883728,0.002330201,-0.003987549,1.007121205
24.24664,0.120246887,-0.549949646,-0.093589783,0.001109498,-0.004964111,1.00113976
24.247266,0.181282043,-0.534690857,0.005592346,0.001353638,-0.004109619,1.005534291
24.247892,0.097358704,-0.496543884,0.051368713,0.001353638,-0.003133057,1.002360463
24.248518,-0.024711609,-0.633872986,-0.13936615,-0.000965698,-0.003133057,1.005778432
24.249144,0.15839386,-0.420249939,-0.040184021,0.000987427,-0.003255127,1.00492394
24.249769,0.15839386,-0.435508728,0.036109924,0.00196399,-0.003865479,1.003581166
24.250394,0.066841125,-0.48891449,-0.230918884,0.002574341,-0.003621338,1.004679799
24.251019,-0.085746765,-0.397361755,-0.024925232,0.002696412,-0.002522705,1.005534291
24.251644,0.173652649,-0.435508728,-0.05544281,0.001841919,-0.006917236,1.008219838
24.25227,-0.146781921,-0.473655701,0.051368713,0.001109498,-0.002278564,1.007365346
24.252896,0.089729309,-0.473655701,-0.337730408,0.003550904,-0.006917236,1.008341908
24.253521,0.07447052,-0.275291443,-0.009666443,0.001841919,-0.007161377,1.00504601
24.254148,0.120246887,-0.420249939,-0.085960388,0.001841919,-0.003133057,1.006388783
24.25481,0.280464172,-0.32106781,0.066627502,0.001841919,-0.005696533,1.006266713
24.255435,0.043952942,-0.549949646,-0.05544281,0.004771607,-0.003499268,1.006510854
24.257185,0.082099915,-0.130332947,-0.093589783,0.004405396,-0.001057861,1.00895226
24.257811,0.013435364,-0.420249939,0.135292053,0.002452271,-0.007283447,1.006877065
24.258436,0.089729309,-0.374473572,-0.017295837,0.001353638,-0.002644775,1.006877065
24.259062,0.204170227,-0.260032654,-0.131736755,0.003428834,-0.004109619,1.006999135
24.259687,0.005805969,-0.496543884,-0.002037048,0.004283326,-0.005818604,1.011759877
24.260313,0.07447052,-0.366844177,0.127662659,0.001841919,-0.000813721,1.009928823
24.26094,0.028694153,-0.252403259,-0.047813416,0.003672974,-0.002400635,1.006266713
24.261565,-0.001823425,-0.305809021,-0.040184021,0.002330201,-0.0045979,1.009684682
24.262191,-0.055229187,-0.221885681,-0.024925232,0.004405396,-0.001179932,1.008708119
24.262818,0.135505676,-0.221885681,0.089515686,0.004039185,-0.003499268,1.007365346
24.263443,0.07447052,-0.191368103,-0.032554626,0.004039185,-0.005086182,1.008463979
24.264069,0.07447052,-0.282920837,-0.002037048,0.003306763,-0.003499268,1.010417104
24.264696,0.104988098,-0.145591736,0.036109924,0.005504029,-0.006795166,1.008586049
24.265321,0.089729309,-0.267662048,-0.05544281,0.004649537,-0.002278564,1.010661244
24.265947,0.005805969,-0.015892029,-0.146995544,0.004039185,-0.001790283,1.00895226
24.266573,0.028694153,-0.214256287,0.043739319,0.001841919,-0.005696533,1.010783315
24.267199,0.07447052,-0.221885681,0.036109924,0.003306763,-0.0045979,1.005412221
24.267825,0.005805969,-0.054039001,0.013221741,0.000621216,-0.003865479,1.00895226
24.268451,0.181282043,-0.137962341,0.043739319,0.003062623,-0.005330322,1.007365346
24.269076,0.089729309,-0.122703552,-0.108848572,0.004283326,-0.004842041,1.006510854
24.269701,-0.039970398,-0.107444763,-0.009666443,0.001109498,-0.004109619,1.006144643
24.270326,-0.001823425,-0.107444763,0.11240387,0.000499146,-0.004109619,1.002482533
24.270951,0.021064758,-0.038780212,-0.093589783,0.002330201,-0.003377197,1.008219838
24.271576,0.097358704,-0.054039001,-0.009666443,-0.000477416,-0.005452393,1.008463979
24.272201,0.112617493,-0.076927185,0.081886292,0.000010865,-0.003865479,1.007121205
24.284837,0.043952942,0.045143127,0.02848053,0.003184693,-0.003133057,1.004069448
24.285593,-0.078117371,0.266395569,-0.05544281,0.002940552,-0.003865479,1.006999135
24.286219,0.082099915,0.151954651,0.02848053,0.002940552,-0.00435376,1.00492394
24.286844,-0.139152527,0.212989807,-0.040184021,0.003917115,-0.002888916,1.005534291
24.28747,0.013435364,0.022254944,0.127662659,-0.00169812,-0.001179932,1.000407338
24.288096,-0.039970398,0.174842834,0.051368713,0.002574341,-0.004964111,1.002848744
24.288721,0.181282043,0.037513733,0.020851135,0.002696412,-0.004964111,1.003337026
24.289348,0.082099915,0.0832901,-0.101219177,0.003795044,-0.005452393,1.003703237
24.289974,-0.047599792,0.098548889,0.11240387,0.002940552,-0.003377197,1.004191518
24.290599,0.15839386,0.006996155,0.066627502,0.001597779,-0.006062744,1.005656362
24.291224,0.272834778,0.006996155,-0.085960388,0.005504029,-0.00447583,1.004313588
24.291849,0.028694153,0.243507385,-0.085960388,0.004283326,-0.003865479,1.002238393
24.292474,0.043952942,0.022254944,-0.131736755,0.000010865,-0.004719971,1.003581166
24.2931,0.059211731,0.144325256,-0.070701599,0.003795044,-0.003255127,1.003825307
24.293726,0.173652649,0.113807678,0.097145081,0.003306763,-0.005696533,1.006510854
24.294351,0.2423172,0.121437073,-0.124107361,0.001109498,-0.003987549,1.00492394
24.294976,0.028694153,-0.008262634,0.074256897,0.003917115,-0.0045979,1.006022573
24.295601,-0.00945282,0.068031311,-0.131736755,0.002940552,-0.003621338,1.00504601
24.296228,0.127876282,0.174842834,-0.009666443,0.001841919,-0.005696533,1.002848744
24.296853,0.112617493,0.144325256,-0.116477966,0.003550904,-0.003987549,1.006754994
24.297478,-0.032341003,0.029884338,0.074256897,-0.000111206,-0.004842041,1.003337026
24.298103,0.120246887,-0.00063324,-0.078330994,-0.002430541,-0.003865479,1.004069448
24.298729,-0.00945282,0.068031311,-0.032554626,-0.000599487,-0.004964111,1.002238393
24.299354,0.112617493,-0.32106781,-0.078330994,0.000743287,-0.005818604,1.001383901
24.299979,0.097358704,-0.15322113,0.11240387,0.003306763,-0.002522705,1.006754994
24.300604,0.097358704,0.037513733,-0.124107361,0.002574341,-0.001912354,1.004679799
24.30123,-0.00945282,0.045143127,-0.024925232,-0.000843627,-0.002156494,1.00504601
24.301855,0.082099915,-0.359214783,-0.154624939,-0.000355346,-0.005574463,1.005412221
24.302481,0.120246887,0.16721344,0.11240387,0.003306763,-0.003010986,1.006144643
24.303108,-0.047599792,-0.130332947,-0.063072205,0.000987427,-0.007527588,1.004679799
24.303735,0.181282043,-0.008262634,-0.131736755,0.001109498,-0.005940674,1.003825307
24.304362,-0.062858582,-0.099815369,-0.017295837,0.002574341,-0.005696533,1.005534291
24.304989,0.120246887,-0.023521423,-0.024925232,0.003550904,-0.005208252,1.004191518
24.305616,0.112617493,-0.061668396,0.005592346,0.005504029,-0.002400635,1.005534291
24.306243,0.249946594,0.022254944,0.11240387,0.000132935,-0.003743408,1.00492394
24.306869,-0.09337616,-0.267662048,-0.002037048,0.000865357,-0.003621338,1.006266713
24.307494,-0.108634949,-0.099815369,-0.238548279,0.000987427,-0.003987549,1.003214955
24.30812,-0.024711609,-0.031150818,-0.124107361,0.002330201,-0.002400635,1.005290151
24.308747,0.104988098,-0.092185974,0.020851135,0.000377076,-0.00435376,1.004801869
24.309374,0.07447052,-0.214256287,-0.131736755,0.001231568,-0.003377197,1.005900502
24.31,0.143135071,-0.008262634,-0.078330994,0.001841919,-0.003133057,1.005656362
24.310625,0.051582336,-0.069297791,-0.208030701,0.004283326,-0.005940674,1.009562612
24.311251,0.051582336,-0.305809021,-0.070701599,0.00196399,-0.005330322,1.005656362
24.311877,-0.00945282,-0.031150818,-0.124107361,0.005137818,-0.007283447,1.006144643
24.312502,-0.123893738,-0.336326599,-0.116477966,0.002452271,-0.003010986,1.004679799
24.313127,0.043952942,-0.092185974,-0.024925232,0.003550904,-0.003499268,1.00516808
24.313752,-0.078117371,-0.290550232,0.051368713,0.004771607,-0.004109619,1.003459096
24.314379,-0.078117371,-0.08455658,-0.124107361,0.000987427,-0.003499268,1.004679799
24.315005,0.021064758,-0.374473572,0.18106842,0.001109498,-0.002034424,1.002726674
24.327584,0.005805969,-0.198997498,-0.085960388,0.00220813,-0.005940674,1.006022573
24.328299,0.028694153,-0.282920837,0.058998108,0.003550904,-0.005330322,1.005900502
24.328925,-0.116264343,-0.412620544,-0.05544281,0.001109498,-0.004109619,1.004069448
24.32955,0.043952942,-0.343955994,-0.024925232,-0.002186401,-0.003010986,1.006632924
24.330176,0.021064758,-0.343955994,0.249732971,0.001597779,-0.002522705,1.006754994
24.330801,0.15839386,-0.336326599,-0.002037048,0.003306763,-0.003133057,1.007365346
24.331426,0.059211731,-0.527061462,0.013221741,0.000499146,-0.005208252,1.005778432
24.332052,0.120246887,-0.435508728,-0.024925232,0.001231568,-0.005818604,1.005412221
24.332677,-0.207817078,-0.48891449,-0.040184021,0.003184693,-0.000325439,1.007121205
24.333303,0.143135071,-0.374473572,0.043739319,0.004893677,-0.005330322,1.005656362
24.333929,0.028694153,-0.458396912,0.036109924,0.001353638,-0.003499268,1.008097768
24.334554,0.104988098,-0.588096619,-0.032554626,-0.000233276,-0.0045979,1.007121205
24.335179,-0.09337616,-0.519432068,0.051368713,0.00208606,-0.002400635,1.008586049
24.335804,0.005805969,-0.389732361,0.11240387,0.002452271,-0.004109619,1.005778432
24.33643,0.104988098,-0.633872986,0.074256897,0.000010865,-0.002522705,1.005900502
24.337055,-0.123893738,-0.343955994,-0.116477966,0.003917115,-0.003133057,1.005656362
24.33768,-0.017082214,-0.466026306,-0.002037048,0.001109498,-0.006184814,1.008219838
24.338307,0.013435364,-0.313438416,-0.108848572,0.000987427,-0.007039307,1.008463979
24.338933,0.021064758,-0.32106781,0.043739319,0.002574341,-0.002888916,1.007975698
24.33956,0.211799622,-0.542320251,-0.13936615,0.003062623,-0.00435376,1.007121205
24.340186,0.051582336,-0.458396912,-0.085960388,0.002696412,-0.005696533,1.006266713
24.340813,-0.017082214,-0.290550232,0.089515686,-0.000355346,-0.006306885,1.006022573
24.341438,0.066841125,-0.504173279,-0.009666443,0.00208606,-0.004719971,1.008097768
24.342065,0.005805969,-0.397361755,-0.177513123,0.004527466,-0.004231689,1.005900502
24.342692,-0.047599792,-0.23714447,-0.009666443,0.001231568,-0.004109619,1.006022573
24.343319,-0.108634949,-0.130332947,0.158180237,0.000865357,-0.003987549,1.003947377
24.343945,-0.024711609,-0.374473572,-0.177513123,0.004039185,-0.005208252,1.006754994
24.344571,0.15839386,-0.32106781,-0.002037048,0.004161255,-0.005086182,1.005412221
24.345197,0.082099915,-0.15322113,-0.116477966,0.000621216,-0.00447583,1.00504601
24.345822,-0.001823425,-0.206626892,0.020851135,0.003184693,-0.0045979,1.00492394
24.346449,0.07447052,-0.198997498,-0.047813416,-0.000111206,-0.002034424,1.00492394
24.347075,-0.146781921,-0.305809021,-0.124107361,0.003184693,-0.002278564,1.007365346
24.347701,-0.039970398,-0.290550232,0.043739319,0.003306763,-0.003865479,1.009318471
24.348326,-0.039970398,-0.443138123,-0.116477966,-0.001087768,-0.003621338,1.002970815
24.348952,0.066841125,-0.382102966,0.089515686,0.001109498,-0.005574463,1.005778432
24.349578,0.120246887,-0.183738708,-0.116477966,0.001109498,-0.004109619,1.007487416
24.350203,0.089729309,-0.32106781,0.02848053,0.002574341,-0.001179932,1.008219838
24.350828,0.112617493,-0.206626892,0.066627502,0.001475709,-0.00826001,1.007853627
24.351455,-0.078117371,-0.15322113,-0.040184021,0.00208606,-0.003499268,1.007243276
24.35208,-0.00945282,-0.206626892,-0.047813416,0.000865357,-0.006306885,1.004801869
24.352705,-0.1772995,-0.40499115,-0.116477966,0.001353638,-0.005818604,1.005534291
24.353332,0.021064758,-0.267662048,-0.009666443,0.000132935,-0.002034424,1.004313588
24.353958,-0.00945282,-0.244773865,-0.024925232,0.000255005,-0.005452393,1.003092885
24.354583,0.089729309,-0.206626892,-0.032554626,0.002696412,-0.004964111,1.003947377
24.35521,-0.001823425,-0.267662048,-0.009666443,0.003184693,-0.003377197,1.006999135
24.355837,-0.070487976,-0.298179626,0.226844788,0.001353638,-0.005696533,1.001383901
24.357585,-0.146781921,-0.313438416,-0.024925232,0.002696412,-0.004109619,1.004435658
24.358229,-0.184928894,-0.40499115,0.097145081,0.001353638,-0.005574463,1.001994252
24.37087,0.043952942,0.014625549,-0.108848572,0.002818482,-0.003865479,1.003581166
24.371613,0.013435364,-0.08455658,-0.093589783,0.00208606,-0.005452393,1.004313588
24.372238,-0.116264343,-0.282920837,-0.040184021,0.001353638,-0.005452393,1.00516808
24.372863,0.127876282,-0.214256287,-0.040184021,0.003672974,-0.004109619,1.00504601
24.373489,-0.039970398,0.006996155,0.013221741,0.001109498,-0.005086182,1.004557729
24.374114,-0.078117371,-0.061668396,0.150550842,-0.000477416,-0.004231689,1.001628041
24.374741,-0.024711609,-0.031150818,-0.169883728,0.002574341,-0.00447583,1.002848744
24.375367,0.082099915,-0.298179626,-0.078330994,0.002818482,-0.002400635,1.004191518
24.375992,0.379646301,-0.206626892,-0.024925232,0.000865357,-0.006306885,1.000651479
24.376619,0.166023254,-0.069297791,-0.063072205,0.001475709,-0.00435376,1.004069448
24.377246,0.043952942,-0.076927185,-0.146995544,0.003062623,-0.004109619,1.006266713
24.377871,-0.001823425,-0.198997498,0.013221741,0.004649537,-0.006184814,1.003825307
24.378496,0.104988098,0.075660706,-0.002037048,0.004161255,-0.005940674,1.005778432
24.379122,0.07447052,-0.069297791,-0.131736755,0.001109498,-0.001790283,1.005290151
24.379747,-0.039970398,-0.267662048,0.005592346,0.000377076,-0.003987549,1.005412221
24.380372,0.097358704,0.014625549,0.066627502,0.003306763,-0.008015869,1.007487416
24.380997,0.120246887,-0.137962341,-0.116477966,0.003672974,-0.007771729,1.007731557
24.381624,-0.154411316,0.090919495,-0.070701599,0.002330201,-0.002400635,1.006632924
24.382251,0.097358704,-0.168479919,-0.047813416,0.003184693,-0.006306885,1.007487416
24.382876,0.051582336,-0.031150818,-0.063072205,-0.000599487,-0.001057861,1.006266713
24.383501,0.15839386,-0.137962341,0.142921448,0.00220813,-0.004109619,1.004191518
24.384127,-0.017082214,0.052772522,-0.047813416,0.000743287,-0.006184814,1.007121205
24.384753,-0.108634949,-0.092185974,-0.116477966,-0.000599487,-0.004231689,1.005290151
24.38538,-0.062858582,-0.08455658,-0.177513123,0.001597779,-0.00044751,1.005656362
24.386005,0.112617493,-0.061668396,0.066627502,0.000132935,-0.003987549,1.00504601
24.38663,-0.101005554,-0.008262634,0.089515686,0.001109498,-0.004842041,1.003947377
24.387256,0.066841125,-0.206626892,-0.093589783,-0.000111206,-0.002766846,1.006754994
24.387883,-0.085746765,-0.107444763,0.02848053,-0.003285034,-0.00435376,0.999919057
24.405991,-0.139152527,-0.107444763,-0.124107361,0.000132935,-0.003499268,1.006877065
24.406616,-0.032341003,-0.107444763,-0.124107361,-0.000843627,-0.0045979,1.006266713
24.407243,0.013435364,-0.054039001,-0.085960388,0.001353638,-0.001668213,1.005534291
24.407868,-0.001823425,-0.023521423,0.051368713,-0.000721557,-0.003743408,1.005900502
24.408493,-0.047599792,-0.115074158,0.043739319,-0.000233276,-0.003255127,1.00516808
24.40912,-0.101005554,-0.15322113,-0.047813416,0.002452271,-0.0045979,1.008097768
24.409746,0.150764465,-0.069297791,-0.085960388,0.002330201,-0.00447583,1.00492394
24.410371,0.089729309,-0.23714447,-0.040184021,-0.000477416,-0.00447583,1.004801869
24.410997,0.082099915,-0.107444763,-0.017295837,0.002696412,-0.001790283,1.003581166
24.411624,-0.055229187,-0.046409607,-0.047813416,0.001231568,-0.00447583,1.004435658
24.41225,-0.070487976,-0.23714447,-0.05544281,0.001597779,-0.002766846,1.005900502
24.412875,-0.039970398,0.045143127,-0.108848572,-0.001331909,-0.00435376,1.006022573
24.4135,0.082099915,-0.336326599,-0.078330994,0.003062623,-0.002766846,1.007243276
24.414125,0.097358704,-0.122703552,-0.169883728,0.000621216,-0.001668213,1.004435658
24.414752,0.204170227,-0.15322113,-0.093589783,0.001353638,-0.000203369,1.007487416
24.415377,0.166023254,-0.229515076,0.11240387,0.003062623,-0.002278564,1.006999135
24.416004,0.249946594,-0.40499115,-0.078330994,0.001841919,-0.003621338,1.006877065
24.416631,-0.00945282,-0.244773865,-0.017295837,0.000499146,-0.004109619,1.006266713
24.417258,-0.039970398,-0.054039001,-0.13936615,0.002330201,-0.003377197,1.006022573
24.417884,-0.017082214,-0.214256287,-0.124107361,0.002452271,-0.002644775,1.003825307
24.430592,-0.055229187,-0.313438416,-0.093589783,0.000010865,-0.006428955,1.006754994
24.431316,-0.085746765,-0.313438416,-0.131736755,0.001353638,-0.004719971,1.005290151
24.431942,0.051582336,-0.389732361,0.013221741,0.000377076,-0.003621338,1.004679799
24.432568,-0.055229187,-0.397361755,-0.093589783,0.003306763,-0.003865479,1.006877065
24.433193,0.135505676,-0.298179626,-0.200401306,0.00208606,-0.002522705,1.003703237
24.433818,0.120246887,-0.427879333,-0.085960388,0.000987427,-0.004109619,1.003581166
24.434445,-0.00945282,-0.160850525,-0.024925232,0.00196399,-0.006306885,1.003947377
24.435071,-0.085746765,-0.420249939,-0.017295837,-0.00169812,-0.003499268,1.003703237
24.435696,0.013435364,-0.244773865,0.020851135,0.002940552,-0.002034424,1.002482533
24.436323,0.059211731,-0.412620544,0.196327209,0.000621216,-0.003010986,1.006877065
24.436948,-0.078117371,-0.366844177,0.074256897,0.00220813,-0.00435376,1.002848744
24.437575,-0.039970398,-0.054039001,-0.05544281,0.003917115,-0.005452393,1.002726674
24.438202,0.043952942,-0.549949646,0.013221741,0.004161255,-0.006184814,1.00516808
24.438829,-0.116264343,-0.458396912,0.120033264,0.006846802,-0.004842041,1.003459096
24.439455,-0.276481628,-0.328697205,-0.185142517,0.004161255,-0.004231689,1.003581166
24.44008,-0.017082214,-0.290550232,-0.131736755,0.001841919,-0.003133057,1.00516808
24.440706,-0.062858582,-0.397361755,-0.154624939,0.004283326,-0.002400635,1.004557729
24.441331,-0.116264343,-0.40499115,0.005592346,0.002574341,-0.004109619,1.008586049
24.441957,-0.101005554,-0.282920837,0.005592346,-0.000721557,-0.00435376,1.003581166
24.442584,-0.062858582,-0.511802673,-0.040184021,0.003306763,-0.003255127,1.006388783
24.44321,-0.154411316,-0.366844177,0.02848053,0.000499146,-0.003133057,1.010417104
24.443836,0.051582336,-0.282920837,0.043739319,-0.000355346,-0.006184814,1.006632924
24.444462,-0.207817078,-0.359214783,-0.108848572,0.001231568,-0.006428955,1.004435658
24.445088,-0.154411316,-0.160850525,-0.208030701,-0.000843627,-0.003499268,1.00492394
24.445713,-0.062858582,-0.107444763,0.036109924,0.001841919,-0.001302002,1.006632924
24.44634,-0.09337616,-0.214256287,0.097145081,-0.000111206,-0.005574463,1.006022573
24.446966,-0.16204071,-0.122703552,-0.002037048,0.000499146,-0.0045979,1.004557729
24.447592,0.021064758,-0.214256287,0.142921448,0.000499146,-0.005574463,1.006877065
24.448218,-0.055229187,-0.214256287,-0.047813416,0.000132935,-0.003499268,1.004435658
24.448844,-0.299369812,-0.069297791,-0.108848572,0.00196399,-0.003743408,1.002970815
24.44947,-0.101005554,-0.099815369,-0.05544281,0.000865357,-0.003010986,1.004557729
24.450095,-0.085746765,-0.23714447,-0.124107361,-0.000355346,-0.002644775,1.005656362
24.45072,0.043952942,-0.290550232,-0.108848572,0.003306763,-0.002400635,1.007121205
24.451345,0.097358704,-0.145591736,-0.085960388,0.001109498,-0.006184814,1.004557729
24.451972,-0.200187683,-0.168479919,0.020851135,0.002452271,-0.005696533,1.00504601
24.452599,-0.047599792,-0.298179626,-0.200401306,0.000010865,-0.002888916,1.00516808
24.453224,0.104988098,-0.374473572,-0.108848572,0.001475709,-0.00056958,1.006388783
24.453849,-0.070487976,-0.168479919,-0.063072205,-0.001087768,-0.00447583,1.00504601
24.454474,0.043952942,-0.176109314,-0.116477966,0.00208606,-0.002400635,1.005290151
24.455101,-0.154411316,-0.221885681,-0.124107361,0.002940552,-0.001790283,1.005656362
24.455726,-0.001823425,-0.252403259,-0.047813416,-0.002308471,-0.002400635,1.005412221
24.456351,0.021064758,-0.282920837,-0.093589783,0.001841919,-0.006551025,1.006266713
24.458104,-0.253593445,-0.351585388,0.066627502,0.004527466,-0.003987549,1.006388783
24.45873,0.135505676,-0.374473572,-0.284324646,0.001475709,-0.003377197,1.003581166
24.459357,0.082099915,-0.313438416,-0.108848572,0.001597779,-0.003865479,1.006632924
24.459982,0.036323547,-0.366844177,-0.024925232,0.003062623,-0.003255127,1.003947377
24.460607,-0.085746765,-0.267662048,0.097145081,0.000743287,-0.003987549,1.00504601
24.461233,-0.062858582,-0.351585388,-0.269065857,0.000621216,-0.005940674,1.005290151
24.473976,0.043952942,-0.519432068,-0.169883728,0.003795044,-0.0045979,1.006510854
24.474716,-0.047599792,-0.534690857,-0.024925232,0.002574341,-0.007527588,1.005290151
24.475341,-0.017082214,-0.313438416,0.165809631,0.002452271,-0.003499268,1.003092885
24.475967,0.051582336,-0.466026306,-0.169883728,0.003428834,-0.005086182,1.007853627
24.476592,0.318611145,-0.336326599,0.081886292,0.001597779,-0.0045979,1.005290151
24.477217,0.135505676,-0.374473572,0.02848053,0.002330201,-0.005940674,1.006144643
24.477844,0.150764465,-0.374473572,-0.253807068,0.004771607,-0.008137939,1.00504601
24.478471,0.112617493,-0.260032654,-0.032554626,0.000377076,-0.002888916,1.005900502
24.479096,0.089729309,-0.366844177,-0.101219177,0.003184693,-0.005696533,1.006266713
24.479721,0.120246887,-0.260032654,-0.13936615,0.003184693,-0.006184814,1.005900502
24.480347,-0.047599792,-0.107444763,-0.101219177,0.003184693,-0.005208252,1.005412221
24.480973,0.143135071,-0.328697205,-0.017295837,0.000865357,-0.006428955,1.005534291
24.481598,0.036323547,-0.267662048,-0.032554626,0.002330201,-0.007405518,1.007853627
24.482223,0.127876282,-0.191368103,0.104774475,-0.000599487,-0.002766846,1.004313588
24.482848,0.051582336,-0.64150238,-0.192771912,-0.000599487,-0.00435376,1.005412221
24.483475,0.066841125,-0.496543884,0.097145081,0.001353638,-0.00838208,1.005534291
24.484102,-0.108634949,-0.519432068,0.135292053,0.002330201,-0.003133057,1.002482533
24.484729,0.288093567,-0.48891449,-0.078330994,0.000010865,-0.003621338,1.003703237
24.485355,0.005805969,-0.458396912,-0.093589783,-0.003407104,-0.005574463,1.003947377
24.485981,0.051582336,-0.519432068,-0.070701599,0.000377076,-0.006062744,1.006999135
24.486607,-0.116264343,-0.633872986,-0.032554626,0.001719849,-0.006184814,1.007975698
24.487232,0.15839386,-0.427879333,-0.146995544,0.00208606,-0.00850415,1.003947377
24.487858,-0.116264343,-0.649131775,-0.05544281,-0.000233276,-0.00435376,1.006266713
24.488484,-0.00945282,-0.511802673,-0.070701599,0.00220813,-0.005940674,1.006022573
24.489109,-0.108634949,-0.64150238,-0.070701599,0.004161255,-0.003621338,1.006754994
24.489734,0.036323547,-0.450767517,-0.13936615,0.00196399,-0.004109619,1.00492394
24.490359,0.089729309,-0.527061462,-0.108848572,0.00196399,-0.00447583,1.004557729
24.490985,0.059211731,-0.420249939,-0.047813416,0.001597779,-0.005574463,1.004313588
24.491612,0.097358704,-0.519432068,-0.070701599,0.000621216,-0.006062744,1.004557729
24.492238,-0.116264343,-0.458396912,-0.108848572,0.002574341,-0.006917236,1.008341908
24.492863,-0.047599792,-0.435508728,-0.208030701,0.004893677,-0.00850415,1.008097768
24.493489,0.07447052,-0.351585388,-0.13936615,0.003062623,-0.006917236,1.006632924
24.494115,0.166023254,-0.450767517,0.127662659,0.004161255,-0.004231689,1.011027455
24.494742,-0.085746765,-0.221885681,-0.352989197,0.002330201,-0.004719971,1.003092885
24.495367,0.07447052,-0.336326599,-0.101219177,0.003428834,-0.005452393,1.004435658
24.495994,-0.123893738,-0.267662048,0.013221741,0.002452271,-0.005086182,1.006754994
24.496619,-0.017082214,-0.221885681,-0.024925232,0.003428834,-0.005208252,1.005656362
24.497246,-0.024711609,-0.32106781,0.020851135,0.000621216,-0.005452393,1.002970815
24.497871,-0.116264343,-0.382102966,0.043739319,0.002574341,-0.003133057,1.003703237
24.498496,-0.101005554,-0.260032654,-0.070701599,0.002818482,-0.003255127,1.002970815
24.499121,-0.047599792,-0.313438416,-0.024925232,0.001353638,-0.006917236,1.004557729
24.499747,-0.032341003,-0.351585388,-0.070701599,0.000987427,-0.004964111,1.006022573
24.500373,0.059211731,-0.359214783,0.058998108,0.000132935,-0.003255127,1.002604604
24.500998,-0.039970398,-0.282920837,-0.085960388,0.001475709,-0.004842041,1.002360463
24.501624,0.059211731,-0.48891449,-0.063072205,0.002696412,-0.004109619,1.006388783
24.502249,0.059211731,-0.290550232,-0.131736755,0.001109498,-0.005574463,1.007121205
24.502875,-0.09337616,-0.527061462,-0.101219177,0.000499146,-0.004842041,1.006266713
24.503502,-0.00945282,-0.48891449,-0.124107361,0.001109498,-0.006306885,1.004435658
24.516474,0.066841125,-0.267662048,0.120033264,-0.00182019,-0.004109619,1.003825307
24.517181,0.120246887,-0.229515076,0.051368713,-0.000721557,-0.00447583,1.003581166
24.517807,0.135505676,-0.412620544,-0.124107361,0.000377076,-0.003010986,1.007975698
24.518432,0.051582336,-0.252403259,-0.169883728,0.002818482,-0.005452393,1.007243276
24.519059,0.082099915,-0.130332947,-0.070701599,0.000132935,-0.00447583,1.005534291
24.519684,0.036323547,-0.145591736,-0.05544281,0.000132935,-0.006673096,1.005534291
24.52031,0.051582336,-0.481285095,-0.009666443,0.001109498,-0.003010986,1.004557729
24.520935,0.249946594,-0.305809021,-0.040184021,0.001841919,-0.003987549,1.002726674
24.521561,0.097358704,-0.054039001,-0.116477966,0.002452271,-0.005452393,1.003337026
24.522186,0.089729309,-0.328697205,0.005592346,0.002696412,-0.001302002,1.007487416
24.522811,0.104988098,-0.092185974,-0.146995544,0.003550904,-0.003499268,1.004557729
24.523436,-0.001823425,-0.183738708,-0.154624939,-0.002796752,-0.002766846,1.004313588
24.524063,0.097358704,-0.382102966,-0.101219177,0.000010865,-0.003621338,1.005778432
24.52469,0.043952942,-0.282920837,-0.063072205,0.002574341,-0.005696533,1.007731557
24.525317,0.166023254,-0.282920837,0.11240387,-0.001576049,-0.005574463,1.007853627
24.525942,0.127876282,-0.23714447,-0.078330994,0.003917115,-0.003743408,1.008463979
24.526568,0.059211731,-0.351585388,0.013221741,0.00208606,-0.004109619,1.007121205
24.527195,-0.055229187,-0.275291443,-0.085960388,0.001353638,-0.003499268,1.00883019
24.52782,0.013435364,-0.305809021,-0.002037048,0.004405396,-0.00447583,1.007243276
24.528447,0.013435364,-0.282920837,-0.124107361,0.000255005,-0.001302002,1.006388783
24.529073,0.059211731,-0.443138123,-0.002037048,0.000132935,-0.007405518,1.008463979
24.529699,-0.00945282,-0.031150818,-0.146995544,0.004161255,-0.003621338,1.00895226
24.530326,0.219429016,-0.23714447,-0.032554626,0.00220813,-0.005574463,1.009318471
24.530952,0.112617493,-0.443138123,0.036109924,0.002330201,-0.005330322,1.004191518
24.531577,0.07447052,-0.366844177,-0.13936615,0.000377076,-0.00447583,1.005290151
24.532204,0.059211731,-0.160850525,-0.169883728,0.004649537,-0.001790283,1.004557729
24.532829,0.120246887,-0.298179626,-0.078330994,0.004527466,-0.005452393,1.007121205
24.533454,0.043952942,-0.214256287,-0.108848572,0.004161255,-0.005574463,1.006388783
24.534081,-0.017082214,-0.359214783,0.043739319,0.001719849,-0.005086182,1.004679799
24.534708,0.059211731,-0.290550232,-0.124107361,0.004161255,-0.003987549,1.005534291
24.535333,0.227058411,-0.267662048,-0.13936615,0.001841919,-0.005208252,1.005656362
24.535958,0.150764465,-0.275291443,0.150550842,0.000743287,-0.003987549,1.007121205
24.536584,0.082099915,-0.260032654,0.036109924,0.004283326,-0.003743408,1.00516808
24.53721,0.120246887,-0.267662048,-0.154624939,0.003550904,-0.002400635,1.004313588
24.537835,0.104988098,-0.191368103,-0.009666443,0.001841919,-0.005452393,1.006754994
24.53846,-0.001823425,-0.427879333,0.02848053,0.003062623,-0.006551025,1.007365346
24.539085,0.036323547,-0.458396912,0.058998108,0.000377076,-0.002034424,1.004679799
24.539711,0.097358704,-0.15322113,-0.261436462,0.001841919,-0.002156494,1.005656362
24.540338,0.150764465,-0.496543884,-0.185142517,0.000987427,-0.004842041,1.006144643
24.540964,0.188911438,-0.389732361,-0.169883728,0.002696412,-0.005086182,1.007975698
24.541591,-0.101005554,-0.298179626,0.020851135,0.004283326,-0.002156494,1.006388783
24.542218,-0.047599792,-0.038780212,0.142921448,0.005259888,-0.002522705,1.006877065
24.542843,-0.108634949,-0.450767517,0.135292053,0.003428834,-0.003377197,1.006022573
24.543468,0.204170227,-0.267662048,-0.131736755,0.000987427,-0.007039307,1.006999135
24.544094,0.127876282,-0.15322113,-0.131736755,0.004405396,-0.001912354,1.006877065
24.544719,0.043952942,-0.435508728,-0.078330994,0.003428834,-0.003377197,1.006022573
24.545344,0.135505676,-0.351585388,0.02848053,0.004161255,-0.003255127,1.004679799
24.54597,-0.001823425,-0.214256287,-0.101219177,0.002574341,-0.0045979,1.004679799
24.559855,0.028694153,-0.542320251,0.097145081,0.001231568,-0.002156494,1.002360463
24.560591,-0.085746765,-0.557579041,-0.040184021,0.003550904,-0.005452393,1.003825307
24.561217,0.028694153,-0.389732361,0.104774475,0.004649537,-0.001912354,1.006754994
24.561844,-0.215446472,-0.389732361,-0.146995544,-0.000111206,-0.007283447,1.007609487
24.562481,-0.139152527,-0.504173279,-0.009666443,0.002574341,-0.005696533,1.003459096
24.563108,-0.146781921,-0.57283783,0.043739319,0.003917115,-0.003133057,1.006266713
24.563733,-0.078117371,-0.656761169,-0.154624939,0.000865357,-0.003865479,1.004801869
24.564359,0.051582336,-0.313438416,-0.101219177,0.005259888,-0.002400635,1.002970815
24.564986,0.059211731,-0.57283783,0.11240387,0.003795044,-0.00447583,1.006632924
24.565613,-0.24596405,-0.466026306,-0.108848572,0.002452271,-0.002400635,1.008219838
24.566238,-0.017082214,-0.351585388,0.196327209,0.001353638,-0.005452393,1.00492394
24.566864,-0.390922546,-0.267662048,-0.13936615,-0.000355346,-0.005818604,1.006754994
24.567489,-0.291740417,-0.260032654,0.036109924,0.00208606,-0.001668213,1.006144643
24.568114,-0.055229187,-0.40499115,0.058998108,0.002574341,-0.003255127,1.005778432
24.56874,-0.070487976,-0.336326599,-0.314842224,0.001475709,-0.003499268,1.00504601
24.569366,-0.078117371,-0.435508728,0.272621155,0.001475709,-0.004964111,1.004313588
24.569991,-0.101005554,-0.466026306,-0.002037048,0.005626099,-0.003865479,1.007487416
24.570617,-0.09337616,-0.275291443,-0.009666443,0.00208606,-0.005208252,1.005900502
24.571243,0.127876282,-0.160850525,-0.070701599,0.001719849,-0.00435376,1.007853627
24.571869,-0.16204071,-0.275291443,-0.05544281,0.002940552,-0.001424072,1.006266713
24.572496,-0.070487976,-0.160850525,-0.093589783,0.002818482,-0.002766846,1.005778432
24.573123,-0.123893738,-0.183738708,-0.078330994,0.000499146,-0.002400635,1.003459096
24.573748,-0.1772995,-0.214256287,0.097145081,0.000865357,-0.000813721,1.004801869
24.574375,-0.032341003,-0.397361755,-0.101219177,0.001841919,-0.002400635,1.005290151
24.575,-0.184928894,-0.351585388,-0.078330994,0.001841919,-0.002766846,1.007243276
24.575625,0.082099915,-0.267662048,-0.002037048,0.000132935,-0.003377197,1.005412221
24.576252,-0.207817078,-0.275291443,0.104774475,0.000987427,-0.003010986,1.006144643
24.576877,-0.223075867,-0.336326599,-0.215660095,0.003306763,-0.002644775,1.005290151
24.577502,-0.032341003,-0.359214783,0.066627502,-0.000477416,-0.002278564,1.002726674
24.578129,-0.207817078,-0.57283783,-0.032554626,0.000987427,-0.003621338,1.006510854
24.578756,-0.223075867,-0.305809021,0.020851135,0.000743287,-0.004231689,1.003459096
24.579383,-0.261222839,-0.511802673,-0.146995544,-0.000355346,-0.003133057,1.005290151
24.580013,-0.108634949,-0.511802673,0.188697815,0.00208606,-0.003133057,1.005290151
24.580638,-0.070487976,-0.15322113,-0.002037048,0.001109498,-0.00447583,1.006144643
24.581265,-0.154411316,-0.450767517,-0.085960388,0.003184693,-0.003377197,1.007365346
24.58189,-0.047599792,-0.40499115,0.097145081,0.000377076,-0.004964111,1.007121205
24.582516,-0.116264343,-0.389732361,-0.238548279,-0.000721557,-0.0045979,1.005534291
24.583141,-0.116264343,-0.443138123,-0.040184021,0.000865357,-0.005696533,1.008341908
24.583766,-0.352775574,-0.412620544,0.081886292,0.002940552,-0.001668213,1.007487416
24.584393,-0.200187683,-0.32106781,0.081886292,0.000255005,-0.003987549,1.003947377
24.585019,-0.139152527,-0.252403259,-0.146995544,0.001231568,-0.001912354,1.006999135
24.585644,-0.131523132,-0.313438416,0.005592346,0.000255005,-0.002400635,1.006510854
24.58627,-0.383293152,-0.32106781,-0.047813416,0.003550904,-0.004842041,1.005778432
24.586897,-0.070487976,-0.389732361,-0.078330994,-0.000111206,-0.00447583,1.007121205
24.587523,-0.146781921,-0.412620544,-0.116477966,0.003672974,-0.005086182,1.006144643
24.58815,0.043952942,-0.328697205,-0.040184021,0.000499146,-0.004109619,1.008708119
24.588776,-0.131523132,-0.176109314,-0.093589783,0.001353638,-0.002400635,1.005534291
24.589401,-0.00945282,-0.260032654,0.165809631,0.001353638,-0.00447583,1.004435658
24.602075,-0.123893738,-0.633872986,0.165809631,0.001475709,-0.003621338,1.006022573
24.602764,0.021064758,-0.168479919,0.150550842,0.001475709,-0.005086182,1.006266713
24.60339,-0.032341003,-0.252403259,-0.05544281,0.002574341,-0.003133057,1.00895226
24.604016,-0.146781921,-0.397361755,-0.017295837,0.001841919,-0.0045979,1.003214955
24.604642,-0.047599792,-0.328697205,-0.024925232,0.001719849,-0.005940674,1.007121205
24.605269,0.059211731,-0.443138123,0.203956604,0.00220813,-0.001790283,1.003581166
24.605895,0.15839386,-0.443138123,0.089515686,0.002452271,-0.004719971,1.006144643
24.60652,0.036323547,-0.389732361,-0.085960388,0.000621216,-0.002888916,1.00516808
24.607146,-0.032341003,-0.336326599,-0.032554626,0.000865357,-0.003743408,1.007975698
24.607771,-0.09337616,-0.412620544,0.142921448,0.000499146,-0.005086182,1.006510854
24.608397,0.066841125,-0.275291443,-0.093589783,-0.000477416,-0.003133057,1.005290151
24.609022,0.089729309,-0.32106781,-0.108848572,0.002574341,-0.002888916,1.006144643
24.609648,0.043952942,-0.336326599,0.02848053,0.003550904,-0.004109619,1.007853627
24.610275,0.219429016,-0.298179626,-0.024925232,0.001597779,0.000406982,1.004557729
24.6109,0.028694153,-0.473655701,-0.093589783,0.000987427,-0.003377197,1.008586049
24.611526,-0.00945282,-0.351585388,-0.070701599,0.002818482,-0.001179932,1.007365346
24.612152,0.043952942,-0.351585388,-0.215660095,0.001841919,-0.003133057,1.004313588
24.612778,-0.001823425,-0.160850525,-0.246177673,0.001841919,-0.001912354,1.007487416
24.613404,0.097358704,-0.313438416,-0.002037048,0.003795044,-0.003743408,1.006266713
24.614031,0.127876282,-0.305809021,0.11240387,0.000743287,-0.003743408,1.005656362
24.614657,0.166023254,-0.092185974,-0.162254333,0.003550904,-0.002766846,1.005290151
24.615283,0.295722961,-0.244773865,0.02848053,0.001841919,-0.003010986,1.004557729
24.615908,-0.078117371,-0.374473572,-0.093589783,0.00220813,-0.001668213,1.007487416
24.616533,0.051582336,-0.214256287,-0.024925232,0.003428834,-0.002156494,1.005900502
24.61716,0.036323547,-0.191368103,-0.13936615,0.003550904,-0.001546143,1.004435658
24.617786,0.127876282,-0.466026306,-0.116477966,-0.000233276,-0.002278564,1.006999135
24.618411,0.349128723,-0.115074158,-0.269065857,0.001109498,-0.00435376,1.006632924
24.619037,0.166023254,-0.336326599,0.013221741,-0.000355346,-0.004109619,1.007731557
24.619664,0.135505676,-0.23714447,0.020851135,-0.000355346,-0.003255127,1.004191518
24.620291,0.219429016,-0.374473572,-0.30721283,0.000377076,-0.000935791,1.003947377
24.620916,0.135505676,-0.23714447,-0.063072205,0.000987427,-0.000813721,1.005900502
24.621542,-0.154411316,-0.450767517,0.058998108,0.000377076,-0.003499268,1.00504601
24.622167,0.104988098,-0.328697205,-0.032554626,0.000865357,-0.003743408,1.006510854
24.622793,0.120246887,-0.435508728,-0.238548279,0.002330201,-0.003621338,1.006754994
24.62342,-0.047599792,-0.260032654,-0.093589783,0.002818482,-0.004231689,1.00492394
24.624045,0.07447052,-0.473655701,-0.009666443,0.00208606,-0.002522705,1.005412221
24.62467,0.2423172,-0.244773865,-0.13936615,0.002574341,-0.003621338,1.006266713
24.625297,0.173652649,-0.351585388,-0.085960388,0.002818482,-0.002156494,1.007243276
24.625924,0.280464172,-0.244773865,0.036109924,0.00196399,-0.004842041,1.007487416
24.62655,0.127876282,-0.206626892,-0.078330994,0.002452271,-0.00435376,1.005656362
24.627176,0.188911438,-0.15322113,0.158180237,0.005626099,-0.002644775,1.006144643
24.627801,0.112617493,-0.298179626,-0.047813416,-0.000843627,-0.000813721,1.007731557
24.628428,0.181282043,-0.214256287,-0.101219177,0.001841919,-0.002522705,1.004801869
24.629054,0.150764465,-0.23714447,0.11240387,0.000255005,-0.000203369,1.000041127
24.629679,0.089729309,-0.511802673,0.219215393,-0.003407104,0.000895264,0.998820424
24.630305,-0.001823425,-0.374473572,-0.024925232,-0.000721557,-0.003499268,1.003092885
24.630931,0.166023254,-0.633872986,-0.002037048,0.004161255,-0.006551025,1.007975698
24.631556,0.104988098,-0.595726013,0.104774475,0.008311646,-0.0045979,1.015788198
24.662961,0.043952942,-0.221885681,-0.040184021,0.001475709,-0.003743408,1.009806752
24.663728,-0.070487976,-0.366844177,0.005592346,0.002330201,-0.004109619,1.00516808
24.664355,-0.276481628,-0.275291443,0.02848053,0.001475709,-0.004964111,1.00516808
24.664982,-0.00945282,-0.57283783,-0.108848572,0.001597779,-0.003010986,1.006510854
24.665607,-0.131523132,-0.343955994,-0.093589783,0.002452271,-0.003865479,1.004801869
24.666232,-0.139152527,-0.305809021,0.272621155,-0.000721557,-0.003255127,1.005778432
24.666857,0.2423172,-0.206626892,-0.368247986,0.001475709,-0.004842041,1.007487416
24.667483,-0.039970398,-0.443138123,0.11240387,0.001475709,-0.003621338,1.006022573
24.668109,0.082099915,-0.359214783,-0.093589783,0.00196399,-0.003010986,1.006144643
24.668735,-0.085746765,-0.389732361,-0.063072205,0.001841919,-0.003743408,1.006877065
24.669361,-0.154411316,-0.458396912,0.058998108,0.001719849,-0.008015869,1.005656362
24.669987,0.028694153,-0.359214783,-0.047813416,0.003795044,-0.001057861,1.006877065
24.670612,-0.00945282,-0.336326599,0.081886292,0.00208606,-0.006917236,1.005900502
24.671238,-0.09337616,-0.458396912,-0.047813416,0.000743287,-0.002400635,1.006999135
24.671864,0.005805969,-0.382102966,-0.085960388,0.004039185,-0.005452393,1.007731557
24.67249,-0.123893738,-0.435508728,-0.200401306,0.003917115,-0.005696533,1.006877065
24.673117,0.021064758,-0.221885681,0.058998108,0.004649537,-0.001790283,1.006266713
24.673744,0.059211731,-0.305809021,0.074256897,0.002940552,-0.007771729,1.00895226
24.674371,0.188911438,-0.305809021,-0.185142517,0.004893677,-0.004231689,1.006144643
24.674997,0.005805969,-0.366844177,0.013221741,0.000621216,-0.003743408,1.006144643
24.675622,-0.062858582,-0.351585388,-0.208030701,0.000987427,-0.0045979,1.006144643
24.676247,-0.039970398,-0.40499115,0.074256897,0.003550904,-0.006306885,1.005290151
24.676873,0.07447052,-0.366844177,0.066627502,0.000255005,-0.006062744,1.00516808
24.6775,0.15839386,-0.557579041,-0.093589783,0.004649537,-0.003255127,1.007121205
24.678125,0.082099915,-0.313438416,-0.002037048,0.003917115,-0.0045979,1.006754994
24.678751,-0.001823425,-0.519432068,0.036109924,0.001109498,-0.00447583,1.007731557
24.679376,0.127876282,-0.420249939,-0.002037048,0.00611438,-0.006428955,1.009562612
24.680001,0.089729309,-0.176109314,0.005592346,0.006236451,-0.005086182,1.00895226
24.680628,-0.139152527,-0.282920837,-0.047813416,0.006236451,-0.00435376,1.010661244
24.681255,0.265205383,-0.313438416,-0.032554626,0.002452271,-0.005330322,1.008586049
24.68188,0.150764465,-0.221885681,-0.070701599,0.002940552,-0.007039307,1.009196401
24.682506,0.059211731,-0.137962341,0.020851135,0.000499146,-0.004109619,1.007609487
24.683132,0.051582336,-0.298179626,-0.215660095,0.003306763,-0.00435376,1.007487416
24.683757,0.013435364,-0.092185974,0.196327209,0.003428834,-0.004842041,1.007243276
24.684383,-0.039970398,-0.145591736,0.058998108,0.002818482,-0.004109619,1.008341908
24.685015,0.07447052,-0.23714447,-0.040184021,0.002574341,-0.005452393,1.00895226
24.68564,0.066841125,-0.313438416,-0.063072205,0.002940552,-0.002522705,1.008708119
24.686265,-0.09337616,-0.221885681,-0.169883728,0.000132935,-0.001790283,1.007487416
24.68689,0.036323547,-0.206626892,0.051368713,0.002452271,-0.003255127,1.008097768
24.687515,0.005805969,-0.122703552,0.104774475,0.002330201,-0.006306885,1.006999135
24.688141,0.021064758,-0.359214783,-0.208030701,0.004161255,-0.004231689,1.008341908
24.688767,-0.00945282,-0.282920837,-0.002037048,0.000743287,-0.003621338,1.007975698
24.689393,0.07447052,-0.366844177,-0.070701599,0.002330201,-0.003010986,1.011393666
24.690018,0.005805969,-0.374473572,-0.261436462,0.004039185,-0.003743408,1.008219838
24.690644,-0.169670105,-0.374473572,-0.085960388,-0.000599487,-0.004719971,1.00907433
24.69127,0.089729309,-0.23714447,-0.101219177,0.002940552,-0.006673096,1.009684682
24.691896,0.051582336,-0.343955994,-0.017295837,0.003428834,-0.007039307,1.011881948
24.692522,0.051582336,-0.450767517,0.135292053,0.003306763,-0.006673096,1.011271596
24.706317,0.15839386,-0.336326599,-0.002037048,0.002330201,-0.006917236,0.994670033
24.707024,0.227058411,-0.336326599,-0.063072205,-0.000965698,-0.005086182,0.993693471
24.707649,0.227058411,-0.336326599,-0.05544281,-0.002674682,-0.007161377,0.991984487
24.708275,0.211799622,-0.687278748,0.005592346,-0.000965698,-0.003865479,0.99320519
24.708901,0.089729309,-0.694908142,0.203956604,0.003062623,-0.007283447,0.993937612
24.709528,0.028694153,-0.450767517,-0.078330994,0.000865357,-0.003865479,0.998332143
24.710153,0.166023254,-0.519432068,-0.291954041,0.004161255,-0.007649658,0.99711144
24.710778,0.280464172,-0.466026306,-0.009666443,0.003184693,-0.006428955,1.000651479
24.711403,0.135505676,-0.458396912,0.036109924,0.003062623,-0.007039307,0.998698354
24.712029,0.265205383,-0.595726013,-0.093589783,-0.002430541,-0.006062744,0.997599721
24.712654,0.318611145,-0.549949646,0.051368713,0.000621216,-0.002888916,0.998088002
24.71328,0.082099915,-0.542320251,-0.230918884,0.001109498,-0.004109619,0.996989369
24.713905,0.196540833,-0.565208435,-0.024925232,0.000987427,-0.003987549,1.001872182
24.71453,0.356758118,-0.366844177,-0.032554626,-0.001453979,-0.001179932,1.00101769
24.715156,0.272834778,-0.603355408,-0.200401306,-0.00194226,-0.007771729,1.00126183
24.715781,0.127876282,-0.580467224,0.005592346,0.004161255,-0.005696533,0.999796987
24.716406,0.448310852,-0.64150238,0.043739319,0.001719849,-0.005940674,1.002726674
24.717032,0.104988098,-0.778831482,0.02848053,0.001353638,-0.003133057,1.005290151
24.717658,0.356758118,-0.565208435,-0.208030701,0.002330201,-0.006062744,1.008463979
24.718283,0.173652649,-0.626243591,-0.185142517,0.003795044,-0.005330322,1.001750112
24.718908,0.120246887,-0.481285095,0.074256897,0.002452271,-0.002766846,1.006266713
24.719534,0.234687805,-0.64150238,-0.05544281,0.002452271,-0.007039307,1.005900502
24.72016,0.188911438,-0.649131775,-0.040184021,-0.000111206,-0.002644775,1.002726674
24.720785,0.448310852,-0.610984802,-0.169883728,0.002574341,-0.00826001,1.004679799
24.72141,0.318611145,-0.633872986,-0.208030701,0.001109498,-0.003499268,1.004069448
24.722036,0.204170227,-0.565208435,-0.322471619,0.001353638,-0.005940674,1.002970815
24.722662,0.387275696,-0.382102966,-0.078330994,0.002696412,-0.005452393,1.00504601
24.723287,0.356758118,-0.519432068,-0.047813416,-0.000233276,-0.003133057,1.005290151
24.723913,0.295722961,-0.832237244,-0.05544281,-0.000721557,-0.00447583,1.007975698
24.724539,0.051582336,-0.694908142,-0.124107361,-0.001209838,-0.0045979,1.010172963
24.725165,0.135505676,-0.48891449,0.036109924,0.002330201,-0.004109619,1.012004018
24.725792,0.257575989,-0.481285095,-0.078330994,-0.000721557,-0.00435376,1.01285851
24.726417,0.265205383,-0.588096619,0.081886292,-0.00194226,-0.007649658,1.014933705
24.727042,0.524604797,-0.519432068,-0.116477966,0.001109498,-0.006184814,1.010050893
24.727668,0.051582336,-0.374473572,-0.215660095,0.003795044,-0.002644775,1.012004018
24.728293,0.32624054,-0.382102966,-0.108848572,0.00220813,-0.006306885,1.010050893
24.728919,0.196540833,-0.366844177,-0.101219177,0.002452271,-0.002156494,1.008097768
24.729546,0.280464172,-0.473655701,-0.05544281,0.001841919,-0.002766846,1.007243276
24.730171,0.379646301,-0.305809021,-0.017295837,-0.004017456,-0.001302002,1.005290151
24.730797,0.204170227,-0.32106781,-0.009666443,0.000743287,-0.004842041,1.009684682
24.731422,0.234687805,-0.366844177,0.11240387,0.001719849,-0.001790283,1.008586049
24.732047,0.295722961,-0.519432068,-0.116477966,0.00220813,-0.004109619,1.006022573
24.732674,0.341499329,-0.328697205,0.020851135,0.001719849,-0.004231689,1.002848744
24.733301,0.39490509,-0.427879333,-0.124107361,0.003184693,-0.005940674,1.002238393
24.733928,0.104988098,-0.427879333,-0.215660095,0.003428834,-0.003377197,0.999064565
24.734553,0.234687805,-0.252403259,-0.208030701,0.001719849,-0.008748291,0.995402455
24.73518,0.372016907,-0.191368103,-0.05544281,0.007090943,-0.002400635,0.992594838
24.735805,0.166023254,-0.40499115,-0.085960388,0.003550904,-0.003865479,0.989787221
24.748474,0.07447052,-0.191368103,-0.002037048,0.003672974,-0.0045979,1.007853627
24.749218,0.2423172,-0.221885681,-0.13936615,0.000377076,-0.005696533,1.010417104
24.749844,-0.001823425,-0.305809021,-0.177513123,0.001597779,-0.006551025,1.010050893
24.750469,0.120246887,-0.313438416,-0.085960388,-0.000233276,-0.003255127,1.012614369
24.751095,0.104988098,-0.343955994,-0.047813416,0.000621216,-0.00435376,1.014079213
24.75172,0.120246887,-0.374473572,0.074256897,-0.002186401,-0.003865479,1.013346791
24.752346,-0.047599792,-0.221885681,-0.032554626,0.003428834,-0.003865479,1.011149526
24.752972,0.082099915,-0.351585388,-0.177513123,0.00196399,-0.007527588,1.017253041
24.753597,0.059211731,-0.267662048,-0.05544281,-0.001209838,-0.003865479,1.011637807
24.754223,0.043952942,-0.244773865,-0.238548279,-0.000355346,-0.006306885,1.013957143
24.754848,0.303352356,-0.305809021,0.013221741,0.002330201,-0.004842041,1.010783315
24.755473,0.120246887,-0.420249939,0.02848053,0.001109498,-0.004231689,1.010172963
24.756098,0.219429016,-0.328697205,-0.291954041,-0.000233276,-0.004231689,1.010050893
24.756724,0.166023254,-0.23714447,0.051368713,0.001353638,-0.002766846,1.008219838
24.75735,0.166023254,-0.275291443,0.219215393,0.002818482,-0.004964111,1.007853627
24.757977,0.104988098,-0.450767517,-0.032554626,0.000621216,-0.00447583,1.007121205
24.758602,0.204170227,-0.481285095,-0.276695251,0.002452271,-0.000203369,1.008097768
24.759227,0.204170227,-0.366844177,0.066627502,0.002330201,-0.004231689,1.005290151
24.759853,0.135505676,-0.252403259,-0.085960388,0.000865357,-0.003987549,1.005534291
24.76048,-0.047599792,-0.168479919,0.097145081,-0.000843627,-0.005452393,1.003581166
24.761105,-0.055229187,-0.290550232,-0.116477966,0.000743287,-0.006551025,1.005778432
24.761731,0.013435364,-0.221885681,0.11240387,0.003795044,-0.003743408,1.006632924
24.763468,-0.00945282,-0.382102966,-0.063072205,-0.001087768,-0.007039307,0.999674916
24.764093,-0.055229187,-0.130332947,-0.162254333,0.002330201,-0.003987549,1.002482533
24.764719,0.097358704,-0.183738708,-0.047813416,0.001109498,-0.004719971,1.003581166
24.765344,-0.024711609,-0.115074158,-0.116477966,0.001475709,-0.002766846,1.002604604
24.76597,0.120246887,-0.130332947,-0.101219177,0.001109498,-0.003255127,1.003703237
24.766595,-0.253593445,-0.122703552,-0.131736755,0.000499146,-0.006306885,1.002482533
24.767221,-0.047599792,-0.031150818,0.18106842,0.003184693,-0.005086182,0.999796987
24.767846,0.127876282,-0.054039001,-0.040184021,0.002330201,-0.005330322,0.997965932
24.768471,0.364387512,0.006996155,0.02848053,-0.000965698,-0.004964111,0.998454213
24.769097,0.051582336,-0.00063324,0.020851135,0.000621216,-0.001179932,0.998454213
24.769722,0.07447052,-0.130332947,-0.032554626,0.002452271,-0.003377197,0.99735558
24.770348,-0.116264343,0.060401917,-0.101219177,0.002452271,-0.003865479,0.99723351
24.770974,-0.00945282,0.037513733,0.074256897,0.00220813,-0.003255127,0.993693471
24.771601,-0.123893738,0.197731018,-0.040184021,0.001109498,-0.004842041,0.998820424
24.772227,0.066841125,0.098548889,-0.124107361,0.003306763,-0.00447583,0.998088002
24.772852,0.188911438,-0.038780212,-0.002037048,0.001719849,-0.001790283,1.000895619
24.773477,-0.108634949,0.16721344,0.211585999,0.003917115,-0.001179932,1.00101769
24.774104,-0.116264343,-0.23714447,-0.185142517,0.003550904,-0.002156494,1.001628041
24.774731,0.097358704,-0.15322113,0.020851135,0.004039185,-0.004719971,1.001505971
24.775357,-0.001823425,0.190101624,0.005592346,0.002696412,-0.002522705,1.002238393
24.775984,-0.001823425,0.052772522,-0.040184021,0.002940552,-0.00447583,1.006022573
24.776611,-0.001823425,-0.00063324,0.020851135,0.004039185,-0.002034424,1.003703237
24.777236,0.043952942,-0.130332947,-0.002037048,0.004161255,-0.003865479,1.003825307
24.777861,-0.154411316,0.228248596,-0.131736755,0.002330201,-0.002766846,1.00895226
24.778487,-0.017082214,-0.137962341,0.142921448,0.002574341,0.000529053,1.004191518
24.779114,-0.039970398,-0.008262634,0.066627502,0.004283326,-0.003377197,1.001872182
24.791779,0.051582336,0.014625549,0.058998108,0.003795044,-0.0045979,1.007365346
24.792504,-0.261222839,0.151954651,-0.032554626,0.000987427,-0.001790283,1.007487416
24.79313,-0.062858582,0.037513733,0.013221741,0.001841919,0.000529053,1.006632924
24.793755,0.082099915,-0.069297791,0.036109924,0.002574341,-0.002888916,1.006510854
24.794382,-0.154411316,-0.008262634,0.066627502,0.003062623,-0.004109619,1.005900502
24.795014,-0.039970398,-0.008262634,-0.116477966,-0.000965698,-0.002034424,1.003825307
24.795641,-0.192558289,0.052772522,-0.101219177,-0.00169812,-0.002156494,1.000773549
24.796267,-0.062858582,-0.00063324,-0.085960388,0.002696412,-0.003010986,1.007121205
24.796892,-0.047599792,0.060401917,0.020851135,0.000377076,-0.002034424,1.009440541
24.797517,0.059211731,-0.008262634,0.120033264,0.001475709,-0.001912354,1.007121205
24.798142,-0.154411316,0.121437073,0.005592346,-0.000111206,-0.001424072,1.007609487
24.798768,-0.146781921,-0.061668396,0.104774475,0.003184693,-0.001424072,1.009684682
24.799394,-0.238334656,-0.198997498,-0.085960388,0.003672974,-0.003133057,1.010783315
24.800019,0.013435364,-0.168479919,-0.108848572,0.000621216,-0.004964111,1.006510854
24.800644,0.104988098,-0.15322113,0.013221741,0.001719849,-0.002888916,1.007609487
24.801269,-0.070487976,-0.015892029,0.036109924,0.001109498,-0.003255127,1.009440541
24.801895,-0.001823425,-0.076927185,-0.093589783,0.001719849,-0.004231689,1.010172963
24.802522,-0.039970398,-0.229515076,0.043739319,0.003062623,-0.00056958,1.010172963
24.803147,-0.230705261,-0.206626892,-0.05544281,0.002696412,-0.002888916,1.013224721
24.803773,-0.047599792,-0.183738708,-0.13936615,-0.002186401,-0.002522705,1.012370229
24.804399,-0.09337616,-0.031150818,-0.040184021,0.000499146,-0.004109619,1.013590932
24.805026,-0.024711609,0.197731018,-0.124107361,0.003550904,-0.00435376,1.011637807
24.805652,-0.207817078,-0.214256287,0.020851135,-0.000111206,-0.00447583,1.012492299
24.806277,-0.200187683,-0.08455658,0.013221741,-0.000721557,-0.002766846,1.010172963
24.806903,0.005805969,-0.275291443,0.165809631,-0.000599487,-0.000325439,1.011271596
24.807528,-0.116264343,-0.061668396,0.120033264,0.003062623,-0.001912354,1.006754994
24.808153,-0.16204071,-0.099815369,0.005592346,0.001475709,0.001261475,1.007487416
24.80878,-0.108634949,-0.107444763,-0.078330994,-0.000843627,-0.002278564,1.00895226
24.809407,-0.055229187,-0.23714447,0.005592346,0.000132935,-0.003010986,1.01273644
24.810033,-0.024711609,-0.069297791,-0.192771912,-0.000721557,-0.003987549,1.012370229
24.810659,-0.062858582,-0.275291443,-0.05544281,0.001231568,-0.00056958,1.010050893
24.811285,-0.085746765,-0.15322113,0.013221741,0.001109498,-0.004231689,1.00907433
24.811911,-0.253593445,-0.214256287,0.058998108,0.00220813,-0.001057861,1.00883019
24.812537,-0.108634949,-0.206626892,-0.040184021,-0.00194226,-0.005818604,1.010295033
24.813163,-0.16204071,-0.366844177,-0.078330994,0.003062623,0.000406982,1.011515737
24.813788,-0.001823425,-0.351585388,-0.070701599,0.004161255,-0.003865479,1.009196401
24.814413,-0.09337616,-0.107444763,-0.124107361,0.001719849,-0.00435376,1.010417104
24.815038,-0.024711609,-0.099815369,-0.002037048,0.004161255,-0.000935791,1.00895226
24.815665,-0.062858582,-0.366844177,-0.017295837,0.003062623,-0.002644775,1.008341908
24.816291,0.051582336,-0.229515076,-0.208030701,0.004283326,-0.000813721,1.006754994
24.816918,-0.032341003,-0.32106781,0.11240387,0.000865357,-0.003621338,1.009928823
24.817544,-0.055229187,-0.366844177,0.020851135,0.003428834,-0.003743408,1.006510854
24.81817,-0.001823425,-0.305809021,-0.230918884,0.00196399,-0.002400635,1.006877065
24.818796,-0.223075867,-0.23714447,-0.002037048,-0.000111206,-0.002400635,1.007609487
24.819422,-0.047599792,-0.115074158,-0.078330994,0.003672974,-0.003010986,1.006632924
24.820049,-0.00945282,-0.40499115,-0.177513123,0.003306763,-0.001179932,1.009684682
24.820675,0.021064758,-0.328697205,0.043739319,0.000377076,-0.002644775,1.007121205
24.8213,0.005805969,-0.32106781,-0.124107361,-0.001576049,-0.002034424,1.004801869
24.833975,0.028694153,-0.366844177,-0.05544281,0.001841919,-0.003865479,1.001505971
24.834719,-0.085746765,-0.481285095,0.036109924,0.000132935,0.000284912,1.000163198
24.835344,0.127876282,-0.374473572,-0.200401306,0.004283326,-0.002888916,1.002970815
24.83597,0.288093567,-0.343955994,0.058998108,0.00599231,-0.005208252,1.004069448
24.836596,0.234687805,-0.534690857,0.005592346,0.002940552,-0.002034424,1.00126183
24.837221,0.104988098,-0.481285095,-0.246177673,0.000377076,-0.004109619,1.002970815
24.837847,0.196540833,-0.435508728,-0.146995544,0.002452271,-0.004842041,1.003214955
24.838473,0.166023254,-0.481285095,0.02848053,0.001353638,-0.003377197,1.004801869
24.839098,0.188911438,-0.343955994,-0.124107361,0.001719849,-0.002278564,1.002360463
24.839725,0.31098175,-0.580467224,-0.05544281,0.002940552,-0.004231689,1.003337026
24.84035,0.303352356,-0.32106781,-0.047813416,-0.000355346,-0.001912354,1.004557729
24.840975,0.249946594,-0.389732361,0.11240387,0.000255005,-0.002034424,1.000529408
24.8416,0.227058411,-0.458396912,-0.047813416,0.000010865,-0.002888916,1.002360463
24.842226,0.31098175,-0.420249939,-0.063072205,-0.000965698,0.000162842,1.00113976
24.842853,0.196540833,-0.48891449,-0.070701599,0.000377076,-0.001546143,1.004191518
24.843479,0.211799622,-0.351585388,-0.108848572,0.002818482,-0.004719971,1.003092885
24.844106,0.211799622,-0.504173279,-0.040184021,0.001475709,-0.006673096,1.000041127
24.844731,0.036323547,-0.336326599,-0.047813416,-0.000477416,-0.002034424,1.003825307
24.845356,0.188911438,-0.64150238,-0.063072205,0.001353638,-0.002400635,1.002360463
24.845983,0.249946594,-0.603355408,0.020851135,-0.000355346,-0.005574463,1.002238393
24.846608,0.181282043,-0.542320251,-0.024925232,0.003795044,-0.002278564,1.001872182
24.847234,0.097358704,-0.374473572,-0.009666443,0.000255005,-0.003377197,1.002116323
24.847861,0.188911438,-0.412620544,-0.131736755,0.000865357,-0.003987549,1.005290151
24.848487,0.349128723,-0.549949646,-0.070701599,0.00208606,-0.004842041,1.005778432
24.849112,0.265205383,-0.504173279,-0.101219177,0.005626099,-0.002888916,1.004191518
24.849739,0.089729309,-0.40499115,0.196327209,0.000377076,-0.002644775,1.00516808
24.850365,0.211799622,-0.57283783,-0.192771912,0.004527466,-0.001790283,1.005412221
24.850992,0.219429016,-0.542320251,-0.063072205,0.001719849,-0.001912354,1.002238393
24.851617,0.005805969,-0.481285095,0.173439026,0.001597779,-0.001790283,1.003337026
24.852243,0.135505676,-0.534690857,-0.192771912,0.002452271,-0.001424072,1.004313588
24.852869,0.028694153,-0.313438416,0.020851135,0.002818482,-0.005208252,1.003825307
24.853494,0.166023254,-0.397361755,-0.070701599,0.002696412,-0.001546143,1.004191518
24.85412,0.280464172,-0.275291443,-0.024925232,0.002574341,-0.002156494,1.002970815
24.854745,0.333869934,-0.664390564,-0.002037048,0.005015748,-0.002888916,1.003825307
24.85537,0.227058411,-0.542320251,-0.131736755,0.002940552,-0.003987549,1.005778432
24.855996,0.257575989,-0.420249939,-0.177513123,0.000132935,-0.003010986,1.002726674
24.856623,0.135505676,-0.565208435,-0.131736755,0.003795044,-0.005452393,1.006022573
24.857249,0.204170227,-0.382102966,-0.009666443,0.001109498,-0.004842041,1.003092885
24.857874,0.135505676,-0.443138123,-0.024925232,0.000377076,-0.005330322,1.007243276
24.858501,0.173652649,-0.450767517,0.036109924,0.001475709,-0.004964111,1.002482533
24.859126,0.127876282,-0.366844177,-0.124107361,-0.000721557,-0.002888916,1.008097768
24.859751,0.112617493,-0.130332947,-0.002037048,0.000132935,-0.002766846,1.004069448
24.860377,0.234687805,-0.458396912,-0.124107361,0.002452271,-0.002522705,1.004069448
24.861003,0.265205383,-0.336326599,0.188697815,0.000987427,-0.005208252,1.008341908
24.861629,0.013435364,-0.351585388,-0.253807068,0.002452271,-0.003499268,1.009928823
24.862256,0.333869934,-0.244773865,0.158180237,0.003795044,-0.001424072,1.006877065
24.863969,0.066841125,-0.198997498,-0.070701599,0.001353638,-0.001179932,1.005778432
24.864595,0.188911438,-0.267662048,-0.13936615,0.003795044,-0.003010986,1.004069448
24.86522,0.089729309,-0.450767517,-0.124107361,0.004161255,-0.001057861,1.006388783
24.877861,0.051582336,0.006996155,-0.009666443,0.001231568,-0.005330322,1.006144643
24.878589,0.120246887,0.060401917,-0.009666443,0.000377076,-0.003987549,1.004435658
24.879216,0.07447052,-0.046409607,0.150550842,0.000010865,-0.003987549,1.003703237
24.879843,-0.00945282,-0.031150818,0.104774475,0.000010865,-0.003987549,1.005778432
24.880468,0.150764465,-0.031150818,-0.146995544,0.003062623,-0.00435376,1.007487416
24.881095,0.303352356,-0.031150818,0.005592346,0.000377076,-0.004719971,1.005534291
24.88172,0.280464172,-0.15322113,-0.162254333,0.000987427,-0.003133057,1.007853627
24.882346,0.288093567,-0.008262634,-0.154624939,0.002452271,-0.003621338,1.009928823
24.882971,0.120246887,-0.031150818,0.135292053,0.002818482,-0.004719971,1.007853627
24.883597,0.188911438,-0.023521423,0.234474182,-0.000233276,-0.006062744,1.007365346
24.884224,0.051582336,-0.054039001,-0.101219177,-0.000355346,-0.004719971,1.008097768
24.884851,0.318611145,-0.107444763,0.058998108,0.002818482,-0.001790283,1.007365346
24.885476,0.013435364,0.174842834,-0.032554626,-0.001209838,-0.00447583,1.00907433
24.886103,0.104988098,0.16721344,-0.093589783,0.001109498,-0.004842041,1.011271596
24.886728,0.15839386,-0.008262634,0.051368713,0.001719849,-0.005696533,1.011393666
24.887354,0.120246887,0.075660706,-0.230918884,0.000743287,-0.006184814,1.009196401
24.88798,0.211799622,0.182472229,-0.131736755,-0.001453979,-0.003499268,1.007243276
24.888606,-0.001823425,-0.008262634,-0.009666443,-0.001087768,-0.002278564,1.005778432
24.889232,0.143135071,0.190101624,-0.093589783,0.000255005,-0.005696533,1.009562612
24.889857,0.333869934,0.144325256,0.120033264,0.000987427,-0.003499268,1.006510854
24.890482,-0.047599792,0.014625549,0.051368713,0.000132935,-0.00447583,1.006022573
24.891107,0.089729309,0.075660706,-0.009666443,0.000010865,-0.0045979,1.00907433
24.891732,0.143135071,0.006996155,-0.078330994,0.000865357,-0.00435376,1.006144643
24.892358,0.028694153,0.212989807,0.081886292,0.001475709,-0.002034424,1.006877065
24.892983,0.059211731,0.220619202,-0.032554626,0.003306763,-0.002888916,1.007609487
24.893608,0.143135071,0.113807678,0.135292053,0.000621216,-0.006551025,1.007121205
24.911708,0.196540833,-0.076927185,-0.146995544,0.002330201,-0.008137939,1.008463979
24.912333,0.204170227,-0.061668396,-0.085960388,0.001353638,-0.007161377,1.008708119
24.912959,-0.00945282,-0.176109314,-0.162254333,0.002330201,-0.004109619,1.007487416
24.913585,-0.017082214,-0.099815369,-0.002037048,0.001719849,-0.002888916,1.007487416
24.914211,-0.032341003,-0.115074158,-0.05544281,0.003184693,-0.002522705,1.010050893
24.914836,0.043952942,-0.023521423,0.036109924,0.005137818,-0.005452393,1.006632924
24.915461,0.043952942,-0.023521423,-0.162254333,0.004649537,-0.003865479,1.009562612
24.916088,-0.116264343,-0.046409607,0.066627502,0.001475709,-0.006428955,1.007243276
24.916714,0.097358704,-0.160850525,0.11240387,0.003428834,-0.00447583,1.005900502
24.917339,-0.230705261,-0.244773865,0.020851135,0.002940552,-0.0045979,1.005534291
24.917966,0.043952942,-0.15322113,-0.169883728,0.007090943,-0.00447583,1.00504601
24.918592,0.135505676,-0.137962341,-0.040184021,0.003550904,-0.006306885,1.004069448
24.919217,-0.139152527,-0.008262634,-0.009666443,0.008433716,-0.004842041,1.007243276
24.919843,0.013435364,-0.15322113,-0.078330994,0.002940552,-0.007039307,1.006266713
24.920468,-0.230705261,-0.099815369,0.02848053,-0.000233276,-0.004719971,1.00492394
24.921095,0.07447052,-0.366844177,-0.002037048,0.001719849,-0.003255127,1.006266713
24.921722,-0.047599792,-0.008262634,0.173439026,0.003795044,-0.007039307,1.007243276
24.922348,0.013435364,-0.23714447,0.120033264,0.003550904,-0.002888916,1.006022573
24.922973,-0.101005554,-0.23714447,-0.047813416,0.002940552,-0.005940674,1.009806752
24.923598,0.028694153,-0.099815369,-0.078330994,0.005137818,-0.005452393,1.006632924
24.924223,0.196540833,-0.305809021,-0.124107361,0.007213013,-0.00447583,1.009562612
24.92485,-0.146781921,-0.168479919,0.036109924,0.003672974,-0.004719971,1.006388783
24.937587,-0.078117371,-0.198997498,-0.108848572,0.003062623,-0.002888916,1.006144643
24.938345,-0.017082214,-0.336326599,0.089515686,0.005748169,-0.006795166,1.003214955
24.938972,-0.039970398,-0.221885681,0.02848053,0.004893677,-0.0045979,1.002238393
24.939597,-0.017082214,0.006996155,-0.009666443,0.004039185,-0.006306885,1.001383901
24.940222,-0.047599792,-0.443138123,0.097145081,0.000865357,-0.003987549,1.003703237
24.940848,0.104988098,-0.191368103,-0.070701599,0.003672974,-0.004109619,1.003337026
24.941473,-0.09337616,-0.466026306,0.150550842,0.007090943,-0.00447583,1.001628041
24.942098,0.112617493,-0.427879333,0.058998108,0.004161255,-0.003499268,1.004069448
24.942723,0.013435364,-0.40499115,-0.124107361,0.003672974,-0.004109619,1.003214955
24.943349,-0.024711609,-0.221885681,0.013221741,0.001597779,-0.003987549,1.002726674
24.943976,-0.062858582,-0.214256287,0.097145081,0.004527466,-0.003499268,1.004313588
24.944602,-0.078117371,-0.458396912,0.074256897,0.005137818,-0.005940674,1.001872182
24.945228,-0.108634949,-0.435508728,-0.22328949,0.005626099,-0.004842041,1.004435658
24.945854,-0.146781921,-0.458396912,0.013221741,0.001841919,-0.004842041,1.003581166
24.946479,-0.062858582,-0.473655701,0.043739319,0.003428834,-0.00447583,1.002970815
24.947105,-0.146781921,-0.48891449,0.142921448,0.003795044,-0.003987549,1.003581166
24.947731,0.013435364,-0.343955994,-0.085960388,0.002574341,-0.004842041,1.005534291
24.948357,-0.24596405,-0.397361755,-0.078330994,0.00208606,-0.003621338,1.003825307
24.948983,0.059211731,-0.397361755,-0.040184021,0.001109498,-0.004964111,1.000529408
24.949609,-0.146781921,-0.481285095,0.219215393,0.002696412,-0.002766846,1.003337026
24.950235,-0.085746765,-0.565208435,0.020851135,0.004527466,-0.004964111,1.00113976
24.950861,-0.070487976,-0.527061462,-0.261436462,0.003062623,-0.003865479,1.003947377
24.951486,-0.047599792,-0.328697205,-0.101219177,0.00208606,-0.005696533,1.002848744
24.952113,-0.09337616,-0.450767517,-0.177513123,0.002818482,-0.005574463,1.002970815
24.952739,-0.078117371,-0.511802673,0.150550842,0.000255005,-0.006306885,1.006266713
24.953365,0.066841125,-0.626243591,0.142921448,0.000865357,-0.00435376,1.006388783
24.95399,-0.101005554,-0.496543884,-0.05544281,0.001231568,-0.005574463,1.005656362
24.954617,-0.055229187,-0.519432068,-0.131736755,0.00196399,-0.005818604,1.004679799
24.955244,-0.085746765,-0.603355408,-0.024925232,0.000255005,-0.003499268,1.004313588
24.95587,-0.017082214,-0.527061462,-0.192771912,0.002330201,-0.005086182,1.005656362
24.956496,0.051582336,-0.458396912,-0.05544281,0.001109498,-0.003743408,1.00883019
24.957121,0.036323547,-0.633872986,-0.024925232,0.000743287,-0.001912354,1.006999135
24.957748,0.120246887,-0.57283783,-0.009666443,0.005259888,-0.005818604,1.00883019
24.958375,-0.047599792,-0.633872986,0.11240387,0.000499146,-0.004842041,1.007975698
24.959002,-0.024711609,-0.549949646,-0.093589783,0.00220813,-0.003987549,1.010050893
24.959627,0.066841125,-0.588096619,-0.063072205,0.003672974,-0.003377197,1.006754994
24.960252,-0.024711609,-0.733055115,-0.253807068,0.002574341,-0.002156494,1.00883019
24.960877,-0.131523132,-0.443138123,-0.002037048,0.002574341,-0.002522705,1.008097768
24.961502,-0.230705261,-0.702537537,0.165809631,0.000865357,-0.00447583,1.007121205
24.962127,0.097358704,-0.481285095,0.051368713,-0.000355346,-0.001179932,1.010050893
24.962754,-0.078117371,-0.565208435,-0.169883728,0.003795044,-0.001790283,1.009318471
24.964502,0.082099915,-0.458396912,-0.108848572,-0.001453979,-0.007039307,1.007975698
24.965127,0.021064758,-0.57283783,-0.169883728,0.003550904,-0.003499268,1.006632924
24.965752,-0.055229187,-0.565208435,-0.05544281,0.001109498,-0.006795166,1.006754994
24.966377,0.104988098,-0.435508728,-0.047813416,-0.000233276,-0.002156494,1.006999135
24.967003,-0.139152527,-0.374473572,-0.017295837,0.002696412,-0.002156494,1.007731557
24.967629,0.051582336,-0.542320251,-0.047813416,-0.000843627,-0.001546143,1.00907433
24.968254,0.013435364,-0.504173279,-0.101219177,0.000132935,-0.002400635,1.008219838
24.980893,-0.253593445,-0.298179626,0.089515686,-0.00182019,-0.003010986,1.007121205
24.981599,-0.139152527,-0.244773865,-0.040184021,-0.002308471,-0.001179932,1.002360463
24.982224,-0.047599792,-0.145591736,-0.085960388,-0.003040893,-0.002400635,1.005290151
24.982851,0.021064758,-0.359214783,0.089515686,0.000865357,-0.002400635,1.009806752
24.983477,-0.139152527,-0.481285095,0.242103577,0.001231568,-0.003621338,1.006754994
24.984102,-0.039970398,-0.214256287,-0.070701599,-0.000355346,-0.003743408,1.007121205
24.984728,-0.123893738,-0.244773865,-0.200401306,0.001109498,-0.003621338,1.00883019
24.985353,-0.154411316,-0.244773865,0.058998108,-0.002308471,-0.003499268,1.008097768
24.985979,-0.062858582,-0.130332947,-0.047813416,-0.001087768,-0.002278564,1.007731557
24.986604,-0.078117371,-0.137962341,0.089515686,0.001841919,-0.001546143,1.006754994
24.987229,0.089729309,-0.359214783,0.165809631,0.001353638,-0.003010986,1.005412221
24.987854,-0.215446472,-0.15322113,-0.093589783,-0.003285034,0.001261475,1.010661244
24.988479,-0.253593445,-0.206626892,0.036109924,-0.002918823,-0.001790283,1.008463979
24.989104,-0.146781921,-0.32106781,0.02848053,-0.003407104,-0.002278564,1.00907433
24.989731,-0.017082214,-0.359214783,-0.108848572,-0.000965698,-0.004842041,1.006877065
24.990357,-0.131523132,-0.298179626,-0.131736755,0.000499146,-0.005086182,1.004069448
24.990982,-0.200187683,-0.23714447,0.097145081,-0.002064331,-0.003010986,1.00895226
24.991608,-0.192558289,-0.198997498,-0.047813416,0.00220813,-0.003133057,1.005656362
24.992234,0.028694153,-0.107444763,-0.017295837,-0.001576049,-0.003499268,1.005778432
24.992861,-0.017082214,-0.32106781,-0.047813416,-0.000355346,-0.003865479,1.006877065
24.993487,-0.322257996,-0.328697205,0.158180237,-0.002918823,-0.002644775,1.00504601
24.994113,-0.047599792,0.037513733,-0.070701599,-0.004994018,-0.003255127,1.003581166
24.994739,0.112617493,-0.206626892,0.051368713,-0.002308471,-0.003621338,1.005778432
24.995364,-0.261222839,-0.32106781,-0.093589783,-0.003040893,-0.002156494,1.004801869
