time,gyro x,gyro y,gyro z,accel x,accel y,accel z
3.245809,-0.120666504,0.043670654,0.087440491,0.001713989,-0.000188233,1.003058076
3.249050,-0.036743164,0.036041260,-0.004112244,0.002080200,0.000422118,0.999395967
3.249676,-0.036743164,0.142852783,0.285804749,0.001958130,0.001398681,1.002813935
3.250303,-0.105407715,-0.078399658,-0.072776794,-0.000117065,0.000177978,1.003424287
3.250929,-0.036743164,0.020782471,0.049293518,-0.001948120,-0.000066163,1.001959443
3.251554,-0.113037109,0.150482178,0.217140198,0.001958130,0.002985595,0.998663545
3.252180,0.092956543,0.257293701,0.034034729,0.000981567,0.001032470,0.998785615
3.252806,-0.105407715,0.020782471,0.034034729,0.002812622,-0.000676515,1.002081513
3.253431,0.039550781,0.272552490,0.301063538,0.000737427,-0.000066163,0.999029756
3.254058,0.001403809,-0.063140869,0.095069885,-0.001703979,-0.000066163,1.002203584
3.254684,-0.090148926,0.196258545,0.072181702,-0.000361206,0.002741454,0.998785615
3.255311,-0.097778320,0.173370361,0.125587463,0.001591919,-0.000066163,1.000372529
3.255937,-0.135925293,0.142852783,0.026405334,0.003300903,-0.000188233,1.002325654
3.256564,-0.113037109,-0.108917236,0.125587463,0.002446411,-0.000310304,1.000738740
3.257189,0.024291992,0.150482178,-0.042259216,-0.001581909,0.002009032,1.000860810
3.257815,-0.105407715,0.196258545,-0.095664978,0.001103638,-0.000310304,0.999518037
3.258441,-0.235107422,0.043670654,0.026405334,-0.000239136,0.001886962,0.998541474
3.259066,-0.143554688,0.303070068,-0.057518005,-0.000483276,0.001032470,1.003180146
3.259862,-0.120666504,-0.009735107,-0.011741638,-0.000239136,-0.002385499,1.001959443
3.260489,-0.029113770,-0.024993896,0.117958069,0.001469849,-0.000432374,1.000616670
3.261116,-0.334289551,0.028411865,-0.072776794,0.001591919,0.002009032,1.000372529
3.261743,-0.006225586,0.043670654,-0.019371033,0.002202271,0.001032470,1.000982881
3.262369,-0.151184082,0.089447021,0.087440491,0.000371216,-0.000798585,1.000006318
3.262995,-0.113037109,0.020782471,0.217140198,0.002690552,-0.001042726,1.001715302
3.263621,-0.265625000,-0.002105713,-0.011741638,0.001347778,-0.001286866,1.001104951
3.264259,-0.158813477,0.318328857,-0.027000427,0.001713989,-0.001653077,1.001593232
3.264884,0.016662598,-0.177581787,-0.194847107,0.002568481,-0.001164796,1.000372529
3.265511,-0.196960449,0.074188232,0.041664124,0.001347778,0.002131103,1.001227021
3.266138,-0.074890137,0.165740967,0.072181702,0.002446411,0.001032470,1.002325654
3.266765,-0.067260742,-0.009735107,0.011146545,0.001103638,0.001642821,1.005255342
3.267391,-0.036743164,0.158111572,-0.019371033,0.000493286,0.000788329,1.005377412
3.268017,-0.189331055,0.341217041,0.140846252,0.001225708,-0.000554444,1.000982881
3.268644,-0.090148926,0.058929443,-0.271141052,0.002690552,0.002375243,1.002569795
3.269270,-0.021484375,0.081817627,0.049293518,-0.000727417,-0.001164796,1.002691865
3.269895,0.039550781,0.272552490,0.049293518,0.002690552,0.001032470,1.003790498
3.270522,-0.158813477,0.180999756,0.087440491,0.001469849,0.000544189,1.002447724
3.271149,-0.082519531,0.158111572,0.087440491,0.001591919,0.001642821,1.000738740
3.271774,-0.105407715,0.150482178,0.140846252,0.001225708,-0.000920655,0.999762177
3.272400,-0.120666504,0.287811279,-0.065147400,0.004033325,-0.000310304,1.000250459
3.273027,0.039550781,0.203887939,-0.110923767,0.002690552,0.001398681,1.001959443
3.273653,-0.105407715,0.089447021,-0.065147400,0.000615356,-0.000676515,1.000738740
3.274280,-0.128295898,0.097076416,0.034034729,0.001713989,0.003107665,1.001715302
3.274905,0.001403809,0.135223389,-0.011741638,0.001591919,0.002985595,1.001715302
3.275532,-0.082519531,0.119964600,-0.042259216,0.001836060,0.001032470,1.001837373
3.276158,-0.105407715,0.341217041,-0.095664978,0.001591919,0.000422118,1.001593232
3.276783,-0.036743164,0.310699463,-0.080406189,0.001469849,0.000300048,1.003912568
3.277410,0.047180176,0.119964600,0.003517151,0.003667114,-0.001775147,1.000372529
3.278036,-0.013854980,0.325958252,0.049293518,0.001103638,0.003718017,1.000128388
3.278661,-0.013854980,0.242034912,0.064552307,0.000249146,0.002863524,1.003180146
3.279286,-0.067260742,0.219146729,0.064552307,0.000859497,0.001764892,1.000250459
3.292683,-0.044372559,0.135223389,-0.042259216,-0.002436401,0.001032470,0.996222138
3.293402,-0.143554688,0.104705811,-0.080406189,0.000981567,-0.000066163,1.001837373
3.294028,-0.082519531,0.180999756,0.079811096,-0.000605347,-0.002019288,0.998541474
3.294654,0.016662598,0.249664307,0.095069885,0.001469849,-0.002507569,1.001104951
3.295280,-0.158813477,0.104705811,-0.004112244,0.001713989,-0.000798585,1.000006318
3.295907,-0.242736816,0.112335205,-0.294029236,0.000859497,0.000055907,0.999029756
3.296533,-0.074890137,0.188629150,-0.004112244,0.001225708,0.003473876,1.000860810
3.297158,-0.135925293,0.257293701,-0.011741638,0.000249146,0.004206298,0.999029756
3.297785,-0.059631348,0.211517334,-0.034629822,0.000493286,-0.000188233,1.000128388
3.298412,-0.242736816,0.036041260,0.034034729,0.002080200,-0.000066163,0.996100068
3.299038,-0.105407715,-0.116546631,0.011146545,0.002080200,-0.000066163,0.998053193
3.299663,-0.219848633,0.127593994,0.026405334,-0.000483276,0.002619384,1.000616670
3.300288,-0.113037109,0.119964600,-0.049888611,0.001469849,-0.000676515,1.000494599
3.300914,-0.303771973,0.081817627,0.133216858,0.000127075,-0.000310304,1.001349092
3.301539,-0.013854980,0.150482178,-0.049888611,0.000371216,-0.001042726,1.004278779
3.302165,-0.196960449,0.074188232,0.095069885,0.001469849,0.000300048,1.001715302
3.302791,-0.151184082,-0.032623291,0.102699280,0.002080200,0.002253173,1.000616670
3.303417,-0.189331055,-0.147064209,0.041664124,0.002324341,-0.000066163,1.000860810
3.304044,-0.120666504,0.097076416,0.003517151,0.000493286,0.000055907,1.000738740
3.304670,-0.113037109,0.028411865,-0.019371033,0.001591919,-0.000188233,1.002325654
3.305295,-0.189331055,-0.009735107,-0.080406189,-0.002314331,0.002497314,1.000982881
3.305920,-0.303771973,-0.024993896,-0.004112244,-0.001215698,0.000300048,0.999395967
3.306546,-0.059631348,-0.002105713,0.102699280,-0.000483276,0.002009032,1.000006318
3.307171,-0.334289551,0.020782471,0.102699280,-0.002558472,0.002253173,1.000006318
3.307796,-0.273254395,-0.116546631,0.102699280,0.001958130,-0.000310304,1.003912568
3.308422,-0.097778320,0.013153076,0.011146545,0.002080200,-0.001042726,1.001471162
3.309048,-0.082519531,-0.169952393,0.125587463,-0.001337769,-0.000188233,1.001959443
3.309674,-0.158813477,-0.024993896,0.156105042,0.001713989,0.001764892,0.998785615
3.310301,-0.296142578,-0.192840576,-0.095664978,-0.000483276,0.000055907,1.000128388
3.310928,-0.250366211,-0.177581787,-0.217735291,0.001225708,-0.000798585,1.000372529
3.311554,-0.280883789,0.081817627,0.026405334,-0.000361206,-0.000920655,1.000616670
3.312179,-0.326660156,-0.215728760,0.079811096,-0.000605347,0.000055907,1.002203584
3.312804,-0.319030762,-0.223358154,-0.080406189,0.000249146,-0.002385499,1.000128388
3.313430,-0.135925293,-0.169952393,0.011146545,0.001591919,-0.000188233,1.002081513
3.314055,-0.166442871,-0.253875732,0.140846252,0.000737427,0.000666259,1.001227021
3.314680,-0.311401367,-0.230987549,-0.011741638,0.000127075,-0.001408936,1.000860810
3.315305,-0.410583496,-0.208099365,-0.149070740,0.000493286,-0.001897218,0.998541474
3.315930,-0.433471680,-0.200469971,0.125587463,-0.000727417,-0.001042726,1.000372529
3.316556,-0.135925293,-0.070770264,-0.095664978,0.001103638,-0.000188233,1.005133271
3.317182,-0.158813477,-0.375946045,0.034034729,-0.002314331,-0.001531007,1.002203584
3.317809,-0.120666504,-0.330169678,0.285804749,-0.000605347,0.000055907,1.002813935
3.318436,-0.128295898,-0.261505127,-0.004112244,-0.000483276,-0.000310304,1.000250459
3.319061,-0.181701660,-0.154693604,0.140846252,-0.001703979,-0.000432374,1.000250459
3.319687,-0.235107422,-0.147064209,-0.149070740,-0.000605347,-0.000188233,1.000982881
3.320313,-0.280883789,-0.345428467,0.171363831,0.001347778,-0.000188233,1.000738740
3.320939,-0.364807129,-0.215728760,-0.141441345,0.002080200,-0.001286866,1.002447724
3.321565,-0.242736816,-0.482757568,-0.042259216,-0.000483276,0.001398681,1.004278779
3.322190,-0.418212891,-0.238616943,0.018775940,0.001836060,-0.002141358,1.003180146
3.322815,-0.074890137,-0.192840576,-0.034629822,0.001103638,-0.002873780,1.002691865
3.337507,-0.128295898,-0.421722412,0.217140198,-0.001337769,-0.000676515,1.001593232
3.338221,0.138732910,-0.223358154,-0.065147400,0.000859497,0.000055907,1.002203584
3.338846,-0.120666504,-0.383575439,0.133216858,0.003545044,-0.002019288,1.001593232
3.339471,-0.044372559,-0.215728760,0.064552307,0.002324341,0.001398681,1.000006318
3.340098,-0.052001953,-0.375946045,0.087440491,0.000859497,0.001764892,0.997931123
3.340723,-0.013854980,-0.299652100,-0.027000427,-0.001215698,-0.000798585,0.998419404
3.341348,-0.044372559,-0.414093018,0.178993225,-0.000117065,-0.001164796,0.998663545
3.341974,-0.113037109,-0.147064209,-0.141441345,-0.001948120,0.001154540,1.001593232
3.342599,-0.250366211,-0.543792725,-0.034629822,0.001469849,0.000788329,1.001959443
3.343224,-0.105407715,-0.223358154,0.125587463,0.004277466,0.001764892,1.001227021
3.343850,0.138732910,-0.177581787,-0.065147400,0.000615356,-0.000920655,0.998297334
3.344476,0.024291992,-0.276763916,0.003517151,0.003300903,0.002375243,1.003790498
3.345103,-0.082519531,-0.345428467,0.064552307,-0.000849487,-0.001897218,1.001959443
3.345729,-0.120666504,-0.047882080,0.034034729,0.001713989,-0.000676515,1.000006318
3.346355,0.085327148,-0.307281494,-0.065147400,-0.000605347,0.002375243,1.000738740
3.346980,0.123474121,-0.353057861,0.110328674,0.002324341,0.000177978,0.999762177
3.347605,0.146362305,-0.452239990,0.041664124,0.001469849,-0.000188233,1.001104951
3.349331,-0.021484375,-0.391204834,0.056922913,0.002690552,-0.001042726,1.000616670
3.349958,0.009033203,-0.200469971,0.133216858,0.004399536,0.000300048,1.001104951
3.350583,0.100585938,-0.360687256,-0.118553162,0.001836060,-0.000798585,1.002447724
3.351210,-0.105407715,-0.185211182,0.056922913,0.000981567,0.002863524,1.000250459
3.351835,0.077697754,-0.269134521,-0.049888611,0.001836060,0.001398681,1.002203584
3.352460,-0.006225586,-0.078399658,-0.004112244,-0.000971558,-0.001897218,0.997198701
3.353086,0.070068359,-0.330169678,0.079811096,0.000615356,0.002863524,1.002081513
3.353712,0.009033203,-0.292022705,0.095069885,0.003545044,0.001398681,1.000372529
3.354338,0.009033203,-0.307281494,-0.049888611,0.004033325,-0.000676515,1.002936006
3.354964,-0.052001953,0.043670654,0.087440491,0.002202271,-0.000310304,1.003790498
3.355591,0.009033203,-0.108917236,0.201881409,-0.001215698,0.000055907,1.002203584
3.356217,-0.166442871,-0.131805420,0.140846252,0.005009888,0.000055907,1.000982881
3.356842,0.085327148,-0.154693604,-0.271141052,0.001347778,0.001764892,1.000250459
3.357468,-0.074890137,-0.040252686,-0.019371033,0.000005005,0.000544189,1.002203584
3.358093,0.108215332,-0.238616943,-0.103294373,0.001591919,-0.001531007,1.002569795
3.358719,0.153991699,0.058929443,0.102699280,0.001713989,0.000055907,1.003302217
3.359344,-0.219848633,0.013153076,-0.187217712,0.002690552,0.002009032,1.002325654
3.359971,-0.113037109,-0.063140869,-0.019371033,-0.000727417,0.002131103,1.005133271
3.360596,-0.105407715,-0.116546631,0.133216858,0.004399536,0.001642821,1.000738740
3.361221,-0.074890137,0.020782471,-0.141441345,0.000371216,-0.000798585,0.999518037
3.361846,-0.158813477,0.074188232,0.072181702,0.000493286,-0.000554444,1.002325654
3.362471,0.100585938,-0.047882080,-0.049888611,0.000127075,-0.001531007,1.001959443
3.363097,-0.105407715,-0.040252686,0.041664124,0.000249146,-0.000066163,1.001471162
3.363722,0.001403809,-0.009735107,-0.027000427,0.001103638,0.000300048,1.003180146
3.364347,-0.181701660,0.058929443,0.018775940,0.004521606,-0.000066163,1.002691865
3.364973,-0.227478027,-0.070770264,0.041664124,0.003545044,0.000544189,1.001471162
3.365600,-0.006225586,-0.009735107,0.072181702,0.001347778,0.001642821,0.998907685
3.366225,-0.120666504,-0.147064209,-0.126182556,0.001713989,-0.000066163,1.000006318
3.366857,-0.265625000,0.127593994,0.224769592,-0.000117065,0.003229735,1.002569795
3.367483,-0.105407715,0.173370361,-0.126182556,0.002324341,0.001276610,1.002325654
3.368109,0.009033203,0.097076416,0.072181702,0.000249146,0.000910399,1.001471162
3.368736,0.001403809,0.066558838,0.201881409,0.003056763,0.001276610,1.002203584
3.381811,0.123474121,-0.002105713,0.034034729,0.000371216,0.000055907,0.998663545
3.382480,0.367614746,-0.063140869,0.003517151,0.001225708,-0.000066163,1.003180146
3.383105,0.161621094,0.066558838,-0.027000427,0.000249146,-0.000432374,1.001349092
3.383731,0.337097168,0.188629150,0.026405334,0.001958130,0.001520751,1.002203584
3.384358,0.024291992,0.097076416,0.011146545,0.000005005,-0.000066163,0.999151826
3.384984,-0.166442871,0.158111572,-0.194847107,0.000127075,-0.002507569,0.999762177
3.385609,0.001403809,0.036041260,-0.034629822,0.002690552,0.001642821,0.999762177
3.386235,0.237915039,0.028411865,0.026405334,0.001591919,0.001398681,1.003790498
3.386862,0.024291992,-0.024993896,0.110328674,0.000493286,-0.000676515,1.000494599
3.387487,0.031921387,-0.093658447,0.018775940,0.002446411,0.001520751,1.003424287
3.388114,0.009033203,-0.009735107,-0.004112244,0.005009888,-0.001653077,1.001837373
3.388739,-0.013854980,-0.009735107,0.034034729,0.001591919,-0.004704835,1.000372529
3.389365,0.100585938,0.142852783,-0.004112244,0.001103638,-0.000188233,0.999029756
3.389991,0.169250488,0.028411865,0.003517151,0.002812622,-0.000920655,1.002081513
3.390617,0.009033203,-0.040252686,-0.126182556,-0.001703979,0.002253173,1.000982881
3.391244,0.131103516,0.104705811,0.209510803,0.001591919,0.001032470,0.998419404
3.391870,-0.113037109,0.013153076,-0.065147400,0.000737427,-0.001653077,1.001959443
3.392496,-0.044372559,-0.185211182,-0.080406189,0.000249146,0.001520751,1.000006318
3.393123,-0.074890137,-0.009735107,0.041664124,0.001469849,0.000544189,1.004156709
3.393749,-0.189331055,0.112335205,-0.042259216,0.004521606,-0.000066163,1.001593232
3.394376,-0.013854980,-0.337799072,-0.065147400,0.000615356,0.002619384,1.003058076
3.395002,-0.044372559,-0.032623291,0.064552307,-0.000727417,-0.001775147,1.000250459
3.395627,-0.113037109,0.066558838,0.041664124,0.002080200,0.000300048,0.999518037
3.396254,0.039550781,-0.299652100,-0.011741638,0.001591919,0.002375243,1.001837373
3.396879,0.131103516,-0.124176025,0.072181702,0.002690552,0.002985595,0.999640107
3.397505,-0.143554688,-0.063140869,0.102699280,-0.000239136,0.001520751,1.001471162
3.398130,-0.242736816,0.074188232,-0.049888611,0.001225708,-0.000188233,0.997809052
3.398755,-0.212219238,-0.162322998,0.018775940,-0.000483276,-0.000920655,1.002203584
3.399381,0.024291992,-0.047882080,0.133216858,0.003789185,0.000544189,0.999518037
3.400013,-0.181701660,0.005523682,-0.034629822,-0.002192261,0.000177978,1.000982881
3.400639,-0.105407715,-0.055511475,-0.187217712,-0.001337769,0.000910399,1.000494599
3.401264,-0.235107422,-0.223358154,0.026405334,0.001958130,-0.000920655,1.001227021
3.401889,0.169250488,-0.124176025,0.049293518,-0.000483276,0.001032470,1.004156709
3.402514,-0.021484375,0.005523682,0.171363831,0.000005005,0.001276610,0.999640107
3.403139,-0.143554688,0.089447021,-0.049888611,0.002080200,0.001764892,0.998541474
3.403764,-0.082519531,-0.108917236,0.209510803,-0.002558472,0.000055907,1.001227021
3.404389,-0.082519531,-0.147064209,0.049293518,-0.001459839,0.002497314,1.001593232
3.405015,-0.067260742,-0.154693604,-0.019371033,-0.000849487,0.001520751,1.002447724
3.405642,0.001403809,-0.299652100,0.087440491,0.004155396,0.000788329,1.002936006
3.406267,-0.280883789,-0.208099365,-0.027000427,0.000615356,0.003107665,1.001715302
3.406892,-0.006225586,-0.101287842,0.171363831,-0.000117065,0.002497314,1.002447724
3.407519,-0.280883789,-0.055511475,-0.065147400,-0.001459839,-0.001042726,0.999273896
3.408146,-0.082519531,-0.398834229,0.133216858,0.002812622,0.000910399,1.001349092
3.408771,-0.044372559,-0.208099365,0.026405334,-0.001337769,0.004816649,0.997564912
3.409397,-0.151184082,-0.108917236,-0.057518005,-0.002436401,0.000788329,1.001227021
3.410022,-0.242736816,-0.200469971,0.003517151,0.002568481,0.002497314,1.000982881
3.410649,-0.319030762,-0.101287842,0.095069885,-0.000117065,0.002741454,0.999884248
3.411275,-0.296142578,-0.230987549,-0.042259216,0.001225708,0.001520751,1.002325654
3.411900,-0.105407715,-0.086029053,0.209510803,-0.000361206,0.002375243,0.999151826
3.424581,-0.250366211,-0.230987549,0.156105042,-0.001459839,-0.000066163,1.002936006
3.425289,-0.113037109,-0.307281494,-0.019371033,0.002934692,-0.000676515,0.998907685
3.425915,-0.273254395,-0.276763916,-0.118553162,0.000859497,0.001276610,1.003302217
3.426540,-0.250366211,-0.002105713,0.217140198,0.001347778,-0.001042726,1.002081513
3.427166,-0.326660156,-0.253875732,0.217140198,-0.000849487,0.002131103,1.000738740
3.427792,-0.311401367,-0.223358154,0.034034729,0.000981567,0.001886962,1.002325654
3.428418,-0.273254395,-0.314910889,0.095069885,-0.000361206,0.007013915,0.998297334
3.429045,-0.113037109,-0.345428467,-0.149070740,-0.000361206,0.003351806,1.000250459
3.429671,-0.143554688,-0.452239990,0.003517151,0.001347778,-0.002019288,1.001715302
3.430298,-0.349548340,-0.482757568,0.209510803,0.001103638,0.000910399,1.000616670
3.430923,-0.189331055,-0.284393311,-0.149070740,0.002202271,-0.000066163,0.999151826
3.431548,-0.219848633,-0.154693604,0.194252014,0.002324341,-0.000676515,0.999273896
3.432175,-0.448730469,-0.116546631,0.224769592,0.003667114,0.000788329,1.000006318
3.432802,-0.311401367,-0.383575439,-0.042259216,0.002568481,-0.000066163,0.998419404
3.433427,-0.357177734,-0.032623291,-0.034629822,0.001836060,0.000177978,1.002325654
3.434053,-0.334289551,-0.368316650,0.026405334,0.004399536,0.000300048,1.000494599
3.434678,-0.196960449,-0.269134521,0.026405334,0.000737427,-0.000188233,0.999640107
3.435305,-0.189331055,-0.108917236,0.011146545,0.001713989,0.002253173,0.999029756
3.435932,-0.219848633,-0.116546631,0.117958069,-0.000239136,0.001642821,1.000006318
3.436559,-0.364807129,-0.414093018,0.117958069,0.002080200,0.000544189,1.000250459
3.437184,-0.296142578,-0.169952393,0.072181702,0.000493286,0.001154540,0.999029756
3.437811,-0.357177734,-0.208099365,0.003517151,-0.000605347,-0.000554444,1.002936006
3.438436,-0.120666504,-0.223358154,0.003517151,-0.000361206,-0.000066163,1.002936006
3.439061,-0.296142578,-0.353057861,-0.042259216,0.000737427,0.000910399,1.000372529
3.439688,-0.326660156,-0.253875732,0.186622620,0.002324341,0.002985595,1.001593232
3.440315,-0.303771973,-0.192840576,0.011146545,0.000981567,0.002253173,1.001227021
3.440941,-0.433471680,-0.208099365,0.064552307,-0.001581909,-0.001042726,1.000982881
3.441566,-0.235107422,-0.276763916,-0.042259216,0.000493286,0.000544189,0.999273896
3.442192,-0.288513184,-0.192840576,0.034034729,0.001591919,0.003107665,1.003180146
3.442817,-0.280883789,-0.421722412,0.049293518,0.002934692,0.000300048,1.001715302
3.443442,-0.280883789,-0.421722412,0.049293518,0.002934692,0.000300048,1.001715302
3.444067,-0.288513184,-0.345428467,0.087440491,-0.000849487,-0.000798585,1.000860810
3.444692,-0.212219238,-0.375946045,-0.088035583,0.001225708,-0.000066163,1.000494599
3.445319,-0.181701660,-0.147064209,-0.042259216,-0.001703979,0.002009032,1.000250459
3.445944,-0.174072266,-0.024993896,0.087440491,-0.000117065,0.000422118,0.999884248
3.446569,-0.120666504,-0.459869385,-0.072776794,-0.000239136,-0.000066163,1.003912568
3.447195,-0.242736816,-0.322540283,-0.034629822,0.002080200,0.001886962,0.998541474
3.447821,-0.166442871,-0.238616943,0.095069885,-0.000483276,0.001764892,0.998663545
3.449527,-0.364807129,-0.276763916,0.240028381,0.000493286,0.001886962,1.001349092
3.450153,-0.242736816,-0.200469971,-0.034629822,0.003300903,-0.000798585,1.001104951
3.450780,-0.250366211,-0.147064209,-0.110923767,0.000493286,0.000422118,0.999518037
3.451407,-0.158813477,-0.223358154,0.072181702,0.003056763,-0.000676515,1.001227021
3.452032,-0.219848633,-0.200469971,0.003517151,0.000493286,0.000055907,1.000250459
3.452657,-0.257995605,-0.253875732,0.049293518,0.000615356,-0.001653077,1.000006318
3.453284,-0.204589844,-0.299652100,-0.057518005,0.001103638,0.000177978,0.999518037
3.453909,-0.273254395,-0.124176025,-0.034629822,0.002324341,-0.001653077,1.000494599
3.454534,-0.303771973,-0.375946045,0.247657776,0.000249146,-0.001775147,1.003790498
3.455161,-0.135925293,-0.169952393,-0.088035583,0.001103638,-0.001897218,0.999640107
3.455788,-0.158813477,-0.147064209,-0.202476501,0.001591919,0.001398681,1.001349092
3.468426,0.085327148,-0.070770264,-0.088035583,0.003422974,-0.002385499,1.002813935
3.469291,-0.021484375,-0.139434814,-0.019371033,0.003545044,0.001520751,1.001471162
3.469916,-0.036743164,-0.093658447,0.056922913,-0.000483276,-0.000920655,0.998785615
3.470543,0.146362305,-0.070770264,-0.133811951,0.000127075,-0.000066163,1.002936006
3.471168,0.092956543,-0.177581787,0.018775940,0.002080200,-0.000188233,0.999884248
3.471794,0.115844727,-0.238616943,0.003517151,0.002690552,-0.001897218,0.999762177
3.472419,0.024291992,-0.116546631,-0.103294373,0.001225708,0.002131103,1.001104951
3.473046,0.161621094,-0.208099365,-0.149070740,-0.000727417,0.000055907,1.003668427
3.473671,0.260803223,-0.185211182,0.056922913,0.002080200,-0.000188233,1.003546357
3.474296,-0.090148926,-0.246246338,-0.141441345,0.000981567,0.000666259,1.003058076
3.474922,0.138732910,-0.154693604,0.003517151,0.001103638,0.003962157,1.002325654
3.475547,0.054809570,0.036041260,0.178993225,0.000005005,0.002253173,1.000494599
3.476174,0.092956543,-0.261505127,0.072181702,0.001713989,0.000177978,1.004034638
3.476800,0.161621094,-0.307281494,-0.042259216,0.002568481,0.001520751,0.999762177
3.477425,0.222656250,0.020782471,0.011146545,0.002690552,-0.000432374,1.002203584
3.478050,-0.082519531,-0.101287842,0.125587463,0.001836060,-0.001164796,1.000860810
3.478677,0.161621094,-0.024993896,-0.103294373,0.000615356,0.002741454,1.002569795
3.479304,0.077697754,-0.269134521,-0.088035583,0.002080200,0.005182860,1.001593232
3.479929,0.085327148,-0.093658447,0.301063538,0.003911255,0.000055907,1.002081513
3.480554,0.215026855,-0.032623291,0.003517151,0.000371216,-0.001286866,1.002813935
3.481181,-0.021484375,-0.009735107,0.011146545,0.000981567,0.001520751,1.004644990
3.481807,-0.013854980,-0.047882080,-0.042259216,0.004765747,-0.000066163,1.004034638
3.482432,0.108215332,-0.078399658,0.041664124,-0.000971558,-0.000676515,1.000250459
3.483058,0.062438965,-0.055511475,-0.179588318,0.002080200,0.002985595,1.000860810
3.483683,0.009033203,-0.208099365,0.117958069,-0.000117065,0.001520751,1.003424287
3.484308,0.085327148,-0.047882080,0.026405334,0.001347778,0.002253173,1.004400849
3.484935,0.115844727,-0.093658447,-0.118553162,-0.001337769,0.000177978,1.000616670
3.485561,0.085327148,-0.002105713,-0.027000427,0.001958130,-0.000676515,1.001837373
3.486187,-0.074890137,0.005523682,0.064552307,0.002324341,0.000910399,1.002325654
3.486812,-0.082519531,0.013153076,-0.171958923,0.001103638,-0.000066163,1.001959443
3.487437,0.131103516,0.043670654,-0.095664978,0.000249146,-0.001897218,1.004644990
3.488063,0.001403809,-0.047882080,-0.149070740,0.004521606,0.001764892,1.000006318
3.488690,0.321838379,0.097076416,0.049293518,0.001958130,0.000177978,1.000250459
3.489315,-0.029113770,0.219146729,-0.141441345,0.001347778,0.000544189,1.001715302
3.489942,0.169250488,0.089447021,-0.088035583,0.001225708,0.002009032,1.004644990
3.490567,-0.059631348,-0.093658447,-0.019371033,0.003422974,0.002375243,0.999273896
3.491193,0.138732910,-0.009735107,-0.049888611,0.000493286,0.002863524,1.003180146
3.491819,-0.074890137,0.020782471,0.125587463,0.001469849,0.002375243,1.002936006
3.492445,0.001403809,0.058929443,0.041664124,0.000615356,0.003840087,0.999518037
3.493071,-0.174072266,-0.208099365,-0.065147400,0.001591919,0.000666259,0.999518037
3.493698,0.039550781,0.173370361,0.003517151,0.000615356,0.001032470,1.000616670
3.494324,-0.128295898,0.150482178,0.095069885,-0.000849487,0.001764892,0.998785615
3.494951,-0.113037109,-0.032623291,-0.011741638,-0.002680542,0.002619384,1.001227021
3.495578,-0.021484375,0.013153076,0.049293518,0.003789185,-0.001653077,1.002081513
3.496203,0.131103516,0.074188232,0.064552307,0.000493286,0.000422118,1.002691865
3.496830,-0.128295898,0.196258545,-0.164329529,0.003056763,0.001886962,1.003058076
3.515041,-0.288513184,0.127593994,0.072181702,0.001103638,-0.000920655,0.998541474
3.515667,-0.364807129,-0.017364502,-0.042259216,0.001469849,0.001520751,1.001959443
3.516292,-0.006225586,-0.032623291,-0.110923767,0.002690552,-0.000066163,1.002447724
3.529044,-0.166442871,-0.078399658,0.079811096,0.004277466,-0.000066163,1.001837373
3.529800,-0.235107422,-0.169952393,-0.049888611,0.002324341,0.001764892,1.000372529
3.530427,-0.288513184,-0.185211182,-0.049888611,0.002080200,-0.000066163,1.000982881
3.531054,-0.250366211,-0.055511475,0.110328674,0.005131958,-0.000188233,1.001959443
3.531681,-0.189331055,-0.299652100,0.140846252,0.003422974,0.001642821,1.000372529
3.532308,-0.135925293,-0.253875732,0.056922913,0.000859497,-0.000676515,1.002691865
3.532934,-0.257995605,0.188629150,-0.011741638,0.000005005,0.001154540,1.000982881
3.533560,-0.036743164,-0.208099365,0.125587463,0.000981567,0.000788329,0.999273896
3.534187,-0.052001953,-0.383575439,-0.126182556,-0.000239136,0.002375243,0.999884248
3.534814,-0.418212891,-0.017364502,0.064552307,0.001225708,0.001276610,0.999395967
3.535441,-0.349548340,0.020782471,0.140846252,0.005009888,-0.000188233,1.000128388
3.536066,-0.357177734,-0.116546631,-0.141441345,0.000127075,-0.000920655,0.999884248
3.536691,-0.280883789,-0.063140869,0.117958069,0.002446411,-0.000920655,0.999884248
3.537317,-0.311401367,0.066558838,0.095069885,0.001225708,-0.000920655,1.001104951
3.537942,-0.227478027,-0.208099365,0.140846252,0.000981567,-0.000676515,1.003302217
3.538568,-0.349548340,-0.047882080,0.095069885,-0.000239136,-0.002385499,1.000372529
3.539195,-0.433471680,0.196258545,-0.255882263,0.002324341,0.001032470,0.998907685
3.539821,-0.433471680,-0.063140869,0.018775940,0.001713989,-0.000066163,1.000128388
3.540448,-0.082519531,-0.070770264,0.041664124,0.001713989,0.000666259,1.000738740
3.541073,-0.257995605,-0.017364502,0.201881409,0.000249146,0.001642821,1.000494599
3.541698,-0.273254395,-0.330169678,-0.042259216,-0.000605347,0.000300048,1.000006318
3.542324,-0.204589844,-0.024993896,-0.049888611,-0.002436401,-0.002019288,1.000494599
3.542949,-0.357177734,-0.200469971,-0.210105896,0.001836060,0.002497314,1.006231904
3.543575,-0.219848633,-0.017364502,-0.004112244,0.000737427,0.000177978,1.000860810
3.544200,-0.174072266,0.066558838,0.018775940,0.001469849,0.001154540,1.001349092
3.544825,-0.128295898,-0.078399658,-0.164329529,0.001103638,-0.000310304,0.999640107
3.545450,-0.288513184,-0.169952393,-0.011741638,-0.001215698,0.002375243,1.000494599
3.546075,-0.273254395,-0.131805420,-0.141441345,0.000493286,0.001154540,1.002447724
3.546700,-0.204589844,-0.002105713,0.072181702,-0.001826050,-0.002263429,1.002569795
3.547327,-0.257995605,-0.017364502,0.217140198,0.000737427,-0.000920655,1.001715302
3.547954,-0.021484375,-0.032623291,0.194252014,0.002446411,-0.001531007,1.000372529
3.549714,-0.189331055,0.074188232,0.079811096,0.000737427,-0.001042726,1.001715302
3.550340,-0.113037109,-0.108917236,0.072181702,0.000249146,0.002131103,1.001349092
3.550965,-0.036743164,-0.017364502,0.049293518,0.001347778,0.001886962,1.001349092
3.551590,-0.074890137,-0.192840576,-0.156700134,-0.001215698,0.002253173,1.002691865
3.552215,-0.082519531,-0.101287842,-0.072776794,0.000737427,-0.000920655,1.003546357
3.552841,-0.181701660,-0.246246338,0.049293518,-0.000239136,-0.001042726,1.001715302
3.553466,0.024291992,-0.002105713,0.064552307,0.004643677,-0.000554444,1.003912568
3.554091,-0.036743164,-0.070770264,-0.034629822,0.001469849,0.002131103,1.002447724
3.554718,-0.219848633,-0.162322998,-0.011741638,0.003178833,-0.000920655,1.003668427
3.555343,-0.181701660,-0.284393311,-0.103294373,0.001469849,0.000055907,1.001959443
3.555970,-0.189331055,-0.009735107,-0.103294373,-0.000849487,0.001886962,0.999273896
3.556595,-0.082519531,-0.147064209,0.133216858,-0.000117065,0.000055907,0.999395967
3.557221,-0.082519531,-0.169952393,0.217140198,-0.001093628,0.002375243,1.001715302
3.557847,-0.143554688,0.219146729,-0.057518005,0.003056763,-0.000066163,1.002569795
3.558473,-0.257995605,0.074188232,-0.118553162,0.000859497,0.000177978,1.002081513
3.559098,-0.166442871,-0.162322998,-0.011741638,-0.000849487,0.001154540,1.000006318
3.559724,-0.135925293,-0.147064209,0.018775940,-0.000483276,0.002863524,1.001593232
3.560351,-0.174072266,-0.185211182,-0.072776794,0.000127075,0.000544189,1.003912568
3.572976,-0.128295898,-0.108917236,-0.034629822,0.001469849,-0.001897218,1.003668427
3.573693,-0.067260742,-0.040252686,0.011146545,0.001958130,-0.000798585,1.001104951
3.574320,-0.196960449,-0.253875732,-0.164329529,0.003422974,-0.001042726,1.000372529
3.574946,-0.090148926,-0.131805420,-0.088035583,0.000737427,-0.000066163,1.002203584
3.575573,-0.151184082,-0.101287842,0.003517151,0.002080200,-0.000676515,1.001471162
3.576199,-0.074890137,-0.299652100,0.064552307,0.001225708,0.002985595,1.005377412
3.576825,-0.105407715,-0.154693604,-0.057518005,0.002568481,-0.000066163,1.001837373
3.577450,0.131103516,-0.101287842,0.072181702,0.004155396,0.001032470,1.002447724
3.578075,-0.044372559,0.097076416,-0.042259216,0.002202271,-0.000066163,1.000250459
3.578701,-0.135925293,-0.078399658,0.148475647,0.000859497,0.003351806,1.003546357
3.579327,-0.006225586,-0.032623291,0.064552307,0.001591919,-0.001531007,1.003424287
3.579953,0.009033203,-0.131805420,0.026405334,0.003911255,-0.001531007,1.002203584
3.580578,0.070068359,-0.154693604,-0.149070740,0.001347778,0.000910399,0.999518037
3.581203,-0.021484375,-0.055511475,0.072181702,0.000859497,-0.000066163,1.002691865
3.581828,0.092956543,-0.131805420,-0.088035583,-0.000605347,-0.001286866,1.001593232
3.582453,0.115844727,-0.078399658,0.278175354,0.002446411,0.002009032,1.002691865
3.583080,0.009033203,-0.131805420,-0.042259216,0.003667114,0.000055907,0.999762177
3.583706,-0.044372559,-0.086029053,-0.065147400,0.001591919,-0.000676515,1.002447724
3.584331,0.039550781,-0.024993896,0.140846252,0.000981567,0.000544189,1.001104951
3.584957,0.062438965,0.211517334,-0.088035583,0.000005005,-0.000066163,1.001715302
3.585582,-0.181701660,0.051300049,-0.027000427,-0.001826050,-0.002263429,0.999640107
3.586207,0.230285645,-0.208099365,0.018775940,0.001103638,-0.000676515,0.999395967
3.586833,-0.174072266,-0.131805420,-0.171958923,0.002812622,-0.002019288,0.999518037
3.587458,0.253173828,0.066558838,0.056922913,0.003056763,0.000055907,1.000372529
3.588084,0.009033203,-0.101287842,-0.019371033,0.002446411,0.002253173,0.999762177
3.588710,0.016662598,-0.139434814,-0.065147400,0.000615356,0.000055907,1.001593232
3.589336,-0.021484375,0.043670654,-0.004112244,0.000615356,0.000666259,1.001959443
3.589963,0.184509277,-0.116546631,-0.065147400,0.001225708,0.001032470,1.001471162
3.590589,-0.067260742,0.203887939,-0.049888611,0.002324341,0.003962157,1.002081513
3.591214,0.062438965,0.097076416,0.041664124,0.002446411,0.000422118,1.001837373
3.591840,0.230285645,-0.002105713,-0.065147400,0.004155396,0.000666259,1.001715302
3.592465,0.161621094,0.036041260,0.056922913,-0.000239136,-0.000920655,1.001837373
3.593091,0.024291992,-0.047882080,-0.019371033,0.000249146,-0.000310304,1.003424287
3.593716,0.070068359,0.127593994,-0.004112244,0.000127075,-0.002385499,1.002691865
3.594341,0.291320801,0.150482178,0.117958069,0.003300903,0.003595946,1.002569795
3.594966,0.070068359,-0.108917236,-0.133811951,0.004521606,0.002253173,1.000860810
3.595591,0.222656250,0.150482178,0.163734436,-0.001581909,-0.000920655,1.004522920
3.596216,0.115844727,0.173370361,0.064552307,0.000615356,-0.001286866,1.002447724
3.596843,0.085327148,0.211517334,-0.164329529,0.003422974,0.000910399,1.000006318
3.597468,0.138732910,0.165740967,0.034034729,0.003056763,-0.001897218,0.999884248
3.598093,0.215026855,0.379364014,0.156105042,0.001836060,0.001398681,1.003668427
3.598719,0.092956543,-0.185211182,-0.194847107,0.000371216,0.003962157,1.001227021
3.599344,0.169250488,0.013153076,-0.049888611,-0.000361206,0.001276610,1.002203584
3.599969,0.146362305,0.119964600,0.034034729,0.001103638,-0.000920655,1.000860810
3.600595,0.062438965,0.135223389,0.087440491,0.001225708,-0.000066163,1.000616670
3.601221,0.237915039,0.028411865,-0.072776794,0.001103638,-0.000066163,1.001471162
3.601846,0.283691406,0.119964600,-0.088035583,-0.000605347,-0.001286866,1.003302217
3.602471,0.184509277,0.081817627,0.087440491,0.000249146,-0.000066163,1.002203584
3.603097,0.344726562,0.097076416,-0.065147400,0.001225708,0.003351806,1.001227021
3.615887,0.161621094,0.211517334,0.034034729,0.002080200,-0.000798585,1.000250459
3.616621,0.131103516,0.394622803,-0.072776794,0.000737427,0.000422118,0.999884248
3.617247,0.260803223,0.005523682,-0.057518005,0.001225708,0.000177978,1.000250459
3.617872,0.115844727,0.203887939,-0.103294373,0.002812622,0.000422118,1.000616670
3.618498,0.138732910,0.203887939,-0.118553162,-0.001703979,-0.001164796,0.997320771
3.619125,0.054809570,0.180999756,-0.164329529,0.002446411,0.000300048,1.000006318
3.619751,0.260803223,0.089447021,0.133216858,0.004399536,0.000055907,0.998175263
3.620376,0.009033203,0.119964600,-0.049888611,0.000859497,-0.000798585,1.002081513
3.621003,0.024291992,0.165740967,-0.011741638,0.000005005,0.000177978,1.001593232
3.621629,-0.128295898,0.119964600,0.049293518,0.001225708,0.000177978,1.002203584
3.622254,0.024291992,0.211517334,-0.080406189,0.000127075,-0.001164796,0.998053193
3.622879,0.092956543,0.119964600,-0.027000427,0.001103638,-0.002751710,1.000982881
3.623504,0.161621094,-0.070770264,-0.065147400,0.002324341,0.001886962,0.999518037
3.624129,0.062438965,0.058929443,-0.011741638,-0.000361206,-0.001531007,1.000128388
3.624756,-0.036743164,0.264923096,0.018775940,0.000981567,-0.000798585,1.002447724
3.625381,0.131103516,0.036041260,0.026405334,0.001103638,0.000300048,1.000860810
3.626013,0.184509277,-0.063140869,-0.057518005,-0.000605347,-0.000676515,0.998053193
3.626639,-0.113037109,-0.002105713,-0.202476501,0.000737427,-0.000676515,1.000738740
3.627264,0.222656250,0.081817627,0.056922913,0.001836060,0.000422118,1.003180146
3.627889,-0.036743164,0.203887939,-0.225364685,-0.001093628,0.001032470,1.000860810
3.628515,0.077697754,-0.070770264,-0.065147400,-0.000605347,0.002009032,1.001715302
3.629140,-0.029113770,0.043670654,0.209510803,-0.001581909,0.002131103,1.001104951
3.629765,-0.074890137,0.005523682,-0.004112244,0.002690552,0.002375243,1.002936006
3.630392,-0.036743164,0.089447021,-0.095664978,0.000371216,0.003229735,0.998541474
3.631018,0.199768066,-0.124176025,0.011146545,0.000249146,0.001032470,1.000616670
3.631643,-0.052001953,-0.162322998,-0.110923767,0.002690552,0.000788329,1.000372529
3.632269,-0.166442871,0.196258545,-0.171958923,0.001103638,-0.000676515,1.000250459
3.632895,-0.029113770,-0.009735107,0.110328674,0.000615356,0.001886962,0.999273896
3.633521,-0.074890137,0.150482178,-0.149070740,0.000371216,0.001764892,1.003180146
3.634146,-0.036743164,-0.024993896,-0.187217712,0.001836060,0.001032470,1.000006318
3.634773,0.100585938,0.203887939,0.003517151,0.001591919,-0.000066163,1.001837373
3.635399,0.047180176,0.119964600,-0.049888611,0.003667114,0.000788329,1.000250459
3.636025,-0.052001953,-0.086029053,0.026405334,-0.000361206,0.001154540,1.002203584
3.636652,0.146362305,0.188629150,-0.149070740,-0.000361206,0.000666259,1.000616670
3.637278,0.031921387,-0.070770264,-0.049888611,0.001103638,0.001032470,1.003058076
3.637903,0.001403809,0.005523682,0.026405334,0.000249146,-0.000066163,1.001349092
3.638529,0.039550781,0.158111572,0.003517151,0.002690552,-0.001653077,1.002447724
3.639156,0.031921387,0.058929443,0.003517151,0.001591919,-0.001164796,1.003180146
3.639781,-0.097778320,0.104705811,-0.110923767,0.002690552,-0.001164796,1.003302217
3.640406,0.092956543,0.272552490,-0.149070740,0.003667114,0.000544189,0.999884248
3.641032,-0.044372559,0.051300049,0.217140198,0.000493286,0.001154540,1.000860810
3.641657,0.039550781,0.020782471,0.079811096,0.000493286,0.001764892,1.003912568
3.642282,0.024291992,0.036041260,0.018775940,0.001225708,0.002741454,1.000494599
3.642908,0.062438965,-0.024993896,-0.057518005,0.000249146,0.001154540,1.000860810
3.643533,0.153991699,0.127593994,-0.126182556,-0.000117065,0.001642821,1.001959443
3.644158,-0.158813477,-0.139434814,-0.080406189,0.001347778,0.001886962,1.000128388
3.644783,0.123474121,0.066558838,-0.187217712,0.000615356,-0.000798585,1.001715302
3.645409,0.070068359,0.020782471,-0.088035583,0.003422974,0.002619384,1.001227021
3.646034,0.085327148,0.142852783,0.003517151,0.003300903,0.000300048,1.001715302
3.659857,0.092956543,0.089447021,0.072181702,0.002446411,0.002375243,1.000006318
3.660576,-0.227478027,0.028411865,-0.103294373,0.001469849,0.002619384,0.998785615
3.661202,-0.158813477,-0.253875732,-0.004112244,0.002690552,0.001398681,1.001715302
3.661828,-0.059631348,-0.093658447,-0.011741638,0.000249146,-0.002263429,0.999029756
3.662454,-0.219848633,-0.200469971,0.034034729,-0.002314331,-0.000676515,1.000250459
3.663081,0.009033203,0.005523682,0.087440491,0.000737427,0.000177978,0.999395967
3.663708,-0.273254395,-0.040252686,-0.080406189,0.000981567,0.001154540,1.000006318
3.664333,-0.227478027,-0.200469971,0.102699280,0.002690552,0.002131103,0.999518037
3.664958,-0.212219238,-0.215728760,0.011146545,0.001591919,0.001154540,1.000372529
3.665583,-0.120666504,-0.391204834,-0.164329529,-0.001826050,0.001276610,1.003180146
3.666209,-0.227478027,0.051300049,-0.126182556,0.003056763,0.000055907,1.000372529
3.666834,-0.090148926,0.020782471,0.072181702,0.000493286,0.002253173,1.002691865
3.667459,-0.463989258,-0.185211182,-0.004112244,0.002080200,0.003595946,1.000128388
3.668085,-0.151184082,-0.345428467,0.049293518,0.001836060,0.002619384,1.000860810
3.668712,-0.273254395,-0.124176025,-0.110923767,0.001469849,0.001642821,1.000616670
3.669338,0.039550781,-0.009735107,-0.133811951,0.003545044,0.005793212,0.999640107
3.669964,-0.052001953,-0.360687256,0.133216858,-0.000361206,0.000177978,1.000494599
3.670591,-0.494506836,0.005523682,-0.110923767,-0.002070190,0.001276610,1.001593232
3.671218,-0.311401367,-0.055511475,-0.049888611,0.000737427,-0.000432374,1.000860810
3.671845,-0.189331055,-0.276763916,0.034034729,0.002690552,0.002009032,1.000128388
3.672472,-0.135925293,-0.070770264,-0.011741638,0.003056763,-0.000066163,1.001593232
3.673098,-0.288513184,0.020782471,0.125587463,0.002812622,-0.000798585,1.002325654
3.673724,-0.113037109,-0.353057861,0.041664124,0.003667114,0.000544189,1.001104951
3.674377,-0.364807129,0.058929443,-0.103294373,0.000127075,0.000910399,1.002325654
3.675011,-0.151184082,-0.078399658,0.056922913,0.000981567,0.003718017,1.000250459
3.675637,-0.257995605,-0.192840576,-0.042259216,-0.000239136,0.002863524,1.004522920
3.676262,-0.242736816,-0.238616943,0.148475647,0.003789185,0.002741454,1.001227021
3.676887,-0.341918945,-0.276763916,0.156105042,-0.001337769,0.000300048,1.003302217
3.677513,-0.250366211,-0.009735107,0.041664124,0.003056763,-0.001164796,1.000860810
3.678139,-0.280883789,-0.230987549,-0.004112244,0.001591919,0.001764892,0.998907685
3.678765,-0.181701660,-0.223358154,0.026405334,0.002812622,-0.000066163,0.999884248
3.679391,-0.227478027,-0.131805420,-0.072776794,-0.001948120,-0.000798585,1.002813935
3.680016,-0.372436523,-0.108917236,0.026405334,0.002202271,0.001154540,1.000982881
3.680642,-0.219848633,-0.124176025,0.064552307,-0.001093628,0.002131103,1.005377412
3.681269,-0.296142578,-0.139434814,0.003517151,0.001103638,0.001398681,1.002081513
3.681896,-0.257995605,-0.101287842,0.232398987,0.001713989,-0.000920655,0.998785615
3.682522,-0.166442871,-0.246246338,-0.088035583,0.001836060,0.000666259,0.999640107
3.683147,-0.288513184,-0.276763916,0.133216858,0.001225708,-0.000188233,1.001837373
3.683773,-0.174072266,-0.086029053,0.140846252,-0.001703979,-0.001775147,1.002691865
3.684398,-0.242736816,-0.208099365,0.003517151,-0.001581909,0.002253173,1.000006318
3.685023,-0.113037109,-0.093658447,0.056922913,0.001225708,0.002253173,1.001227021
3.685649,-0.486877441,-0.208099365,-0.110923767,0.000737427,-0.000188233,1.003302217
3.686276,-0.151184082,-0.169952393,0.003517151,0.003911255,0.003107665,1.003790498
3.686902,-0.265625000,-0.246246338,0.194252014,0.000371216,0.002863524,1.002325654
3.687527,-0.143554688,0.013153076,0.064552307,0.000249146,-0.000066163,1.001837373
3.688154,-0.303771973,-0.070770264,0.056922913,0.001469849,0.002619384,1.001593232
3.688781,-0.296142578,-0.108917236,-0.004112244,0.001103638,0.000177978,1.000372529
3.689407,-0.448730469,-0.139434814,0.133216858,0.000371216,-0.000310304,1.003668427
3.690032,0.039550781,-0.253875732,0.011146545,0.000005005,0.002985595,1.003058076
3.702736,-0.067260742,0.058929443,-0.049888611,0.002690552,0.000422118,1.000128388
3.703487,-0.151184082,-0.261505127,0.087440491,0.002446411,0.002863524,1.000982881
3.704113,-0.196960449,0.074188232,-0.049888611,0.001469849,-0.000920655,1.001837373
3.704740,-0.174072266,-0.131805420,-0.049888611,0.001958130,0.001642821,1.001593232
3.705366,-0.067260742,-0.147064209,-0.065147400,-0.000727417,-0.001408936,1.002081513
3.705991,-0.113037109,-0.078399658,-0.042259216,0.002690552,0.000910399,1.001471162
3.706617,-0.235107422,-0.284393311,0.102699280,0.000737427,0.001032470,1.000494599
3.707243,-0.235107422,0.005523682,0.011146545,0.001591919,-0.000798585,0.999762177
3.707870,-0.158813477,-0.086029053,0.011146545,0.001347778,-0.000066163,1.000860810
3.708496,-0.303771973,0.142852783,-0.004112244,0.000371216,-0.000554444,1.002447724
3.709121,-0.227478027,-0.345428467,0.079811096,0.002690552,0.003718017,1.001959443
3.709747,-0.227478027,-0.162322998,-0.034629822,0.003300903,-0.000920655,0.999273896
3.710373,-0.174072266,-0.192840576,-0.088035583,-0.000361206,0.000300048,1.001227021
3.711000,-0.319030762,0.051300049,-0.072776794,0.002202271,0.003473876,0.998785615
3.711626,-0.341918945,0.005523682,0.072181702,0.001591919,-0.000188233,1.002813935
3.712251,-0.097778320,0.028411865,-0.011741638,0.001469849,-0.000066163,1.003180146
3.712877,-0.288513184,-0.032623291,-0.065147400,-0.001215698,-0.000676515,0.998419404
3.713504,-0.151184082,-0.078399658,-0.133811951,0.001713989,0.004084228,1.000616670
3.714130,-0.120666504,-0.124176025,0.240028381,0.003911255,0.001398681,1.000738740
3.714756,-0.235107422,-0.192840576,-0.011741638,0.004033325,-0.000066163,1.001715302
3.715381,-0.090148926,-0.047882080,0.018775940,0.001836060,0.000422118,1.001715302
3.716013,-0.158813477,-0.101287842,-0.027000427,0.002446411,0.003595946,1.002691865
3.716639,-0.082519531,-0.078399658,-0.072776794,0.001225708,0.002863524,1.000982881
3.717264,-0.204589844,-0.269134521,0.156105042,0.002934692,-0.001164796,1.001959443
3.717889,-0.250366211,0.074188232,0.064552307,0.002446411,0.005915282,1.000250459
3.718515,-0.296142578,-0.421722412,0.171363831,0.001836060,0.002863524,1.000372529
3.719142,-0.288513184,-0.192840576,-0.027000427,0.003667114,0.002009032,0.998541474
3.719768,-0.074890137,0.066558838,-0.088035583,0.001469849,0.000055907,1.001471162
3.720394,-0.402954102,-0.162322998,-0.210105896,0.001713989,-0.001164796,1.000006318
3.721020,-0.235107422,-0.147064209,0.125587463,0.000493286,0.000544189,1.001104951
3.721646,-0.052001953,0.097076416,0.102699280,0.002324341,0.000666259,1.002569795
3.722271,-0.135925293,-0.124176025,0.049293518,-0.001337769,0.002375243,1.002569795
3.722896,0.039550781,-0.208099365,-0.286399841,0.002324341,-0.001164796,1.000982881
3.723521,-0.212219238,0.165740967,0.026405334,0.002690552,0.001642821,1.001471162
3.724147,-0.219848633,-0.177581787,0.011146545,0.002690552,-0.001653077,0.999395967
3.724772,-0.090148926,-0.238616943,0.064552307,0.004399536,-0.002385499,1.000738740
3.725399,-0.097778320,0.028411865,0.140846252,0.002202271,0.002253173,1.000738740
3.726025,-0.319030762,-0.116546631,0.110328674,0.001347778,0.000300048,1.004034638
3.726652,-0.326660156,0.020782471,-0.088035583,0.003789185,-0.000066163,1.000982881
3.727277,-0.067260742,0.142852783,-0.004112244,0.002690552,0.001886962,1.002569795
3.727902,-0.166442871,-0.185211182,-0.072776794,0.000371216,0.000055907,0.999029756
3.728529,-0.097778320,-0.070770264,0.003517151,0.000615356,0.000788329,0.999884248
3.729154,-0.227478027,-0.040252686,-0.187217712,0.000493286,0.002131103,1.001227021
3.729780,-0.166442871,-0.101287842,-0.034629822,-0.002192261,-0.001286866,1.001104951
3.730407,-0.212219238,-0.002105713,0.064552307,0.002690552,-0.000310304,1.002813935
3.731032,-0.212219238,-0.116546631,0.011146545,-0.000849487,0.000544189,1.000738740
3.731659,-0.181701660,0.005523682,0.232398987,0.000981567,0.002863524,0.998175263
3.732285,-0.082519531,0.074188232,0.026405334,0.001713989,-0.000676515,1.002081513
3.732910,-0.036743164,-0.230987549,0.087440491,-0.000361206,-0.000798585,1.001349092
3.745530,0.070068359,-0.086029053,-0.011741638,-0.001093628,0.002985595,1.002447724
3.746259,-0.006225586,-0.177581787,-0.019371033,-0.000727417,0.005304931,1.001227021
3.746886,-0.029113770,-0.215728760,0.026405334,0.000615356,0.001520751,1.002081513
3.766312,0.230285645,-0.070770264,0.011146545,-0.000239136,0.000788329,1.003546357
3.766938,0.077697754,0.180999756,0.117958069,0.001591919,-0.000920655,1.000494599
3.767563,0.070068359,-0.002105713,-0.065147400,0.002080200,0.000300048,1.003912568
3.768188,0.161621094,0.150482178,-0.202476501,-0.001459839,0.003351806,1.003546357
3.768813,0.298950195,-0.017364502,0.117958069,0.002690552,0.000910399,1.001837373
3.769439,0.207397461,-0.162322998,-0.141441345,0.001713989,0.001276610,1.001593232
3.770066,0.070068359,0.028411865,-0.049888611,0.001469849,0.003229735,1.000006318
3.770691,0.153991699,0.188629150,0.095069885,-0.000483276,0.002009032,1.000738740
3.771317,-0.090148926,0.089447021,0.087440491,0.001713989,0.000544189,1.002325654
3.771943,0.268432617,-0.024993896,0.163734436,0.002690552,0.003840087,0.999762177
3.772568,-0.013854980,-0.002105713,0.003517151,0.000249146,-0.001286866,1.001959443
3.773193,0.176879883,-0.063140869,0.034034729,0.002446411,-0.002019288,1.002813935
3.773818,0.161621094,-0.093658447,0.011146545,-0.000849487,0.002497314,1.002203584
3.774444,-0.151184082,0.112335205,-0.049888611,-0.000849487,0.003351806,1.003668427
3.775071,0.062438965,-0.024993896,-0.042259216,0.001225708,0.000666259,1.001471162
3.775696,0.176879883,0.005523682,-0.042259216,0.001836060,0.001886962,0.998419404
3.776322,-0.181701660,0.257293701,0.041664124,0.001103638,-0.001897218,1.003058076
3.776948,0.016662598,0.081817627,0.247657776,0.002934692,0.002253173,1.001104951
3.777575,0.100585938,-0.017364502,0.026405334,0.003056763,-0.001775147,1.000006318
3.778217,0.199768066,-0.063140869,-0.164329529,0.001103638,-0.000066163,1.001349092
3.778842,0.047180176,0.173370361,-0.019371033,0.000859497,-0.001653077,1.003912568
3.779469,0.077697754,0.089447021,-0.179588318,0.004155396,0.001276610,1.000372529
3.780095,0.047180176,-0.055511475,0.056922913,0.000493286,-0.000066163,1.000494599
3.780720,0.123474121,0.142852783,0.034034729,-0.001215698,0.000544189,1.001227021
3.781345,-0.219848633,-0.116546631,0.095069885,0.000859497,-0.003239991,1.000860810
3.781970,0.169250488,-0.116546631,0.011146545,-0.000971558,-0.001042726,1.002203584
3.782596,0.092956543,-0.124176025,-0.187217712,-0.000849487,-0.000066163,1.002569795
3.783222,0.062438965,-0.070770264,0.034034729,-0.000361206,0.000666259,1.002203584
3.783847,0.031921387,-0.032623291,0.003517151,0.002690552,0.002009032,1.001837373
3.784472,-0.082519531,-0.032623291,-0.042259216,-0.002558472,0.000544189,0.999273896
3.785098,-0.067260742,-0.009735107,-0.034629822,-0.001826050,0.000300048,1.000738740
3.785725,0.123474121,-0.032623291,-0.027000427,0.000127075,-0.000066163,1.001715302
3.786351,0.016662598,-0.101287842,-0.080406189,0.001469849,0.004206298,1.000982881
3.786976,-0.082519531,0.051300049,0.056922913,-0.000605347,0.002863524,1.003058076
3.787603,-0.128295898,-0.147064209,-0.034629822,0.000371216,0.001886962,0.998907685
3.788230,0.146362305,-0.017364502,-0.133811951,0.001713989,0.002131103,0.999029756
3.788856,-0.212219238,-0.093658447,-0.042259216,0.002690552,0.001520751,1.000006318
3.789481,-0.174072266,-0.147064209,-0.034629822,0.001591919,0.002497314,1.002325654
3.790108,-0.021484375,0.097076416,-0.141441345,0.001958130,0.001520751,1.000250459
3.790734,0.024291992,-0.162322998,0.209510803,0.001713989,0.000177978,1.000494599
3.791361,0.001403809,-0.200469971,0.034034729,0.002690552,0.002131103,1.000982881
3.791986,-0.052001953,-0.314910889,-0.034629822,0.002568481,0.000666259,1.001959443
3.792611,-0.196960449,0.013153076,0.072181702,0.000127075,0.003229735,1.001104951
3.793238,0.001403809,-0.002105713,0.018775940,0.004155396,0.000788329,1.002203584
3.793865,-0.067260742,-0.002105713,0.079811096,0.000737427,-0.002019288,1.001349092
3.794491,0.016662598,0.028411865,0.178993225,0.000859497,0.000910399,0.999518037
3.795116,-0.227478027,-0.154693604,-0.072776794,0.000737427,0.001398681,1.000982881
3.807898,-0.326660156,-0.223358154,0.064552307,0.003422974,0.002131103,0.999884248
3.808639,-0.257995605,0.028411865,0.041664124,0.001225708,-0.000066163,0.999762177
3.809265,-0.158813477,-0.101287842,0.102699280,0.001225708,0.004206298,1.000128388
3.809892,-0.425842285,-0.116546631,0.125587463,0.001591919,-0.000920655,1.000982881
3.810518,-0.456359863,-0.246246338,0.148475647,0.000005005,0.001764892,0.998175263
3.811143,-0.303771973,-0.108917236,0.117958069,0.000615356,0.001276610,1.000494599
3.811769,-0.341918945,-0.086029053,0.011146545,0.000615356,0.000055907,0.997076631
3.812394,-0.212219238,-0.101287842,-0.088035583,-0.001459839,0.000055907,1.001959443
3.813019,-0.311401367,-0.032623291,0.026405334,0.003178833,-0.000798585,1.002325654
3.813644,-0.387695312,-0.185211182,0.011146545,-0.001337769,0.000177978,1.000250459
3.814269,-0.387695312,-0.055511475,-0.019371033,0.000005005,-0.000432374,1.001227021
3.814895,-0.265625000,-0.032623291,-0.095664978,0.004643677,-0.000798585,1.001715302
3.815521,-0.334289551,-0.116546631,0.133216858,0.001103638,0.000910399,1.001593232
3.816146,-0.128295898,-0.063140869,0.049293518,0.002690552,0.000910399,0.999151826
3.816771,-0.189331055,-0.147064209,0.140846252,0.004399536,0.000055907,1.002936006
3.817397,-0.280883789,0.036041260,0.018775940,-0.000971558,-0.000310304,1.004034638
3.818022,-0.143554688,0.074188232,0.095069885,0.000127075,-0.001531007,1.000494599
3.818647,-0.189331055,-0.154693604,0.194252014,0.001958130,-0.000432374,1.000616670
3.819272,-0.296142578,0.127593994,-0.019371033,0.000737427,0.001886962,1.001837373
3.819899,-0.151184082,-0.086029053,0.064552307,0.003545044,-0.000188233,1.000738740
3.820524,-0.280883789,-0.223358154,0.247657776,0.003545044,0.000666259,1.001349092
3.821149,-0.303771973,0.104705811,-0.057518005,0.000737427,0.000177978,1.002691865
3.821774,-0.303771973,0.028411865,0.026405334,0.000371216,0.002741454,0.999640107
3.822399,-0.044372559,-0.024993896,0.018775940,0.001713989,0.001398681,1.001959443
3.823026,-0.151184082,0.020782471,-0.156700134,0.000615356,0.002009032,1.005377412
3.823651,-0.227478027,0.043670654,-0.088035583,0.001836060,-0.000066163,1.002813935
3.824277,-0.128295898,0.043670654,0.163734436,0.001836060,0.001886962,1.000982881
3.824902,-0.319030762,0.211517334,0.148475647,0.003911255,0.003595946,0.998175263
3.825529,-0.128295898,-0.024993896,-0.164329529,0.000371216,0.000544189,1.000616670
3.826154,-0.074890137,0.028411865,0.163734436,0.002934692,0.000055907,1.002813935
3.826779,-0.303771973,-0.063140869,0.102699280,0.002080200,0.000422118,1.002203584
3.827406,-0.097778320,0.142852783,-0.042259216,0.002202271,0.000788329,1.005865693
3.828032,-0.151184082,-0.024993896,0.148475647,0.001591919,0.000422118,1.002447724
3.828657,-0.128295898,-0.086029053,0.125587463,0.002080200,0.001764892,1.003790498
3.829282,-0.212219238,0.074188232,-0.179588318,0.000615356,0.000300048,1.003790498
3.829907,-0.128295898,0.028411865,0.140846252,-0.000605347,0.002619384,1.003180146
3.830534,-0.235107422,-0.070770264,-0.088035583,-0.000117065,0.001154540,1.000738740
3.831159,0.039550781,0.112335205,-0.217735291,0.002324341,0.000422118,1.001104951
3.831785,-0.074890137,-0.002105713,0.102699280,0.000737427,0.003107665,1.003302217
3.832412,-0.059631348,0.135223389,0.095069885,0.001347778,0.002009032,1.000616670
3.833039,-0.265625000,-0.108917236,-0.019371033,-0.000727417,-0.002263429,0.999762177
3.833666,-0.196960449,0.104705811,-0.004112244,-0.001703979,0.001764892,0.999884248
3.834291,0.009033203,-0.032623291,0.232398987,0.001225708,0.001886962,1.001349092
3.834918,-0.021484375,-0.040252686,0.056922913,0.001347778,-0.003362061,1.001471162
3.835544,-0.433471680,0.211517334,-0.027000427,-0.000361206,-0.000554444,1.000128388
3.836169,-0.067260742,0.081817627,0.240028381,0.001225708,0.001886962,1.003790498
3.836795,-0.090148926,0.013153076,-0.149070740,0.003545044,0.000788329,1.002325654
3.837422,-0.196960449,0.203887939,0.064552307,0.000005005,0.002863524,1.001959443
3.838047,0.092956543,0.028411865,0.049293518,0.000859497,0.001154540,1.000982881
3.850719,0.024291992,0.036041260,0.003517151,-0.000727417,-0.002385499,1.001593232
3.851434,-0.105407715,0.219146729,0.018775940,0.000127075,-0.001164796,1.000982881
3.852061,-0.105407715,0.036041260,-0.004112244,0.000493286,0.000910399,1.001959443
3.852686,0.009033203,-0.208099365,-0.126182556,0.002690552,0.001154540,0.997564912
3.853311,0.100585938,0.142852783,-0.080406189,0.001713989,0.000910399,1.000128388
3.853936,0.123474121,0.135223389,0.056922913,0.002324341,-0.000310304,1.001715302
3.854561,0.016662598,0.127593994,-0.103294373,0.002934692,0.003595946,1.000860810
3.855188,0.047180176,0.066558838,0.171363831,0.000249146,0.000300048,0.999395967
3.855813,-0.105407715,0.203887939,-0.141441345,0.000981567,-0.000554444,1.000250459
3.856438,0.047180176,0.074188232,0.125587463,-0.000849487,-0.000066163,1.002325654
3.857063,0.009033203,-0.139434814,0.034034729,0.002446411,0.000055907,1.001471162
3.857688,0.077697754,0.394622803,-0.004112244,0.000737427,-0.002873780,1.001227021
3.858314,0.115844727,0.135223389,0.018775940,0.001836060,-0.001653077,1.000372529
3.858940,0.100585938,-0.002105713,0.095069885,0.001713989,-0.000432374,0.998785615
3.859566,0.024291992,0.119964600,0.110328674,-0.001826050,0.001642821,1.000982881
3.860191,-0.013854980,0.203887939,0.079811096,-0.000361206,-0.000066163,1.001715302
3.860817,-0.219848633,0.142852783,-0.110923767,0.001103638,-0.001897218,0.999518037
3.861443,-0.021484375,0.173370361,0.102699280,0.000615356,0.000544189,1.002447724
3.862069,0.001403809,0.089447021,-0.141441345,0.000005005,0.000300048,0.999518037
3.862694,0.024291992,0.112335205,-0.072776794,-0.000605347,0.002863524,0.998785615
3.863320,-0.105407715,0.341217041,0.011146545,-0.000361206,0.002741454,0.998053193
3.863947,-0.158813477,0.089447021,-0.202476501,0.001591919,0.003229735,0.998175263
3.864573,-0.097778320,0.203887939,-0.088035583,0.003545044,0.001642821,1.000006318
3.866317,0.092956543,0.066558838,-0.057518005,0.001225708,0.001032470,1.001959443
3.866942,-0.227478027,0.043670654,0.056922913,0.001225708,0.001764892,1.002325654
3.867569,-0.135925293,0.074188232,0.102699280,0.000249146,0.000422118,1.002447724
3.868195,0.146362305,-0.024993896,-0.263511658,0.001225708,0.003473876,1.002691865
3.868822,0.047180176,0.074188232,0.209510803,-0.000849487,0.001276610,1.001104951
3.869448,-0.212219238,0.112335205,0.194252014,-0.002558472,0.001276610,1.001471162
3.870073,-0.074890137,-0.002105713,-0.110923767,-0.000117065,0.001276610,1.001104951
3.870700,-0.242736816,0.074188232,-0.088035583,0.002202271,0.001276610,0.999762177
3.871325,-0.021484375,0.188629150,-0.126182556,0.001469849,-0.001286866,0.999518037
3.871951,-0.052001953,-0.101287842,0.018775940,0.000859497,0.002619384,1.001104951
3.872576,-0.074890137,-0.147064209,0.171363831,0.000493286,-0.000066163,1.003668427
3.873202,-0.227478027,0.264923096,0.133216858,0.003789185,0.000422118,1.002936006
3.873827,-0.097778320,0.135223389,0.026405334,0.001713989,-0.001897218,1.002447724
3.874452,-0.189331055,-0.024993896,0.095069885,-0.001337769,0.001520751,1.002569795
3.875077,-0.097778320,0.242034912,0.034034729,0.001225708,0.001520751,1.001837373
3.875702,-0.151184082,0.028411865,-0.019371033,-0.000849487,0.002131103,0.999518037
3.876327,0.024291992,0.089447021,0.034034729,0.000493286,0.004694579,0.998541474
3.876952,-0.227478027,0.005523682,-0.110923767,0.001347778,0.000544189,1.001593232
3.877579,-0.265625000,0.097076416,0.049293518,0.000493286,0.002863524,1.002203584
3.878204,-0.128295898,-0.047882080,0.125587463,-0.002558472,0.000666259,1.002447724
3.878854,-0.128295898,-0.154693604,0.140846252,-0.000361206,0.002619384,1.000494599
3.879480,-0.013854980,-0.024993896,0.026405334,-0.001948120,-0.001286866,1.002081513
3.880105,-0.425842285,0.089447021,0.056922913,0.000615356,-0.000920655,0.999762177
3.880731,-0.029113770,-0.192840576,-0.011741638,-0.000605347,0.000177978,0.997931123
3.881357,-0.166442871,0.020782471,0.011146545,0.001103638,0.000910399,1.000372529
3.881983,-0.067260742,-0.093658447,0.087440491,-0.000239136,-0.000920655,1.002936006
3.894729,-0.151184082,-0.246246338,0.079811096,0.003178833,0.003229735,1.000860810
3.895469,-0.044372559,-0.200469971,-0.027000427,0.002812622,-0.000676515,0.996954560
3.896096,-0.113037109,-0.185211182,0.011146545,0.001469849,-0.000554444,1.002325654
3.896723,-0.204589844,-0.147064209,0.117958069,0.000249146,0.002985595,1.001715302
3.897349,-0.059631348,-0.276763916,0.072181702,0.000493286,0.001520751,1.001349092
3.897975,-0.181701660,-0.192840576,0.056922913,0.001103638,-0.000188233,1.002569795
3.898600,-0.013854980,-0.055511475,0.087440491,0.004521606,0.002009032,1.002569795
3.899227,-0.174072266,-0.055511475,-0.110923767,-0.000605347,-0.001164796,1.000494599
3.899854,-0.196960449,-0.192840576,-0.103294373,0.001103638,0.002009032,1.004400849
3.900480,-0.006225586,-0.040252686,0.026405334,0.002446411,0.002375243,1.003424287
3.901107,-0.181701660,-0.330169678,0.026405334,0.002690552,0.002375243,0.998663545
3.901732,-0.105407715,0.005523682,0.201881409,0.000127075,-0.001164796,1.001471162
3.902357,-0.097778320,-0.116546631,0.034034729,0.001469849,0.001520751,1.000616670
3.902982,-0.074890137,-0.116546631,-0.103294373,0.001225708,-0.000066163,1.001227021
3.903607,-0.158813477,-0.116546631,-0.042259216,0.002446411,-0.000066163,1.002447724
3.904232,-0.166442871,-0.040252686,0.125587463,0.000005005,-0.000798585,1.002203584
3.904858,-0.158813477,-0.070770264,-0.042259216,0.001347778,-0.000554444,1.003424287
3.905485,0.047180176,-0.070770264,-0.149070740,-0.000239136,-0.000676515,0.999762177
3.906110,-0.044372559,-0.009735107,0.034034729,-0.002192261,0.002375243,1.000372529
3.906735,-0.151184082,-0.009735107,0.018775940,-0.000483276,0.000666259,1.003302217
3.907360,-0.158813477,-0.108917236,-0.095664978,0.001103638,0.002497314,1.002813935
3.907987,0.024291992,-0.208099365,0.018775940,-0.000117065,-0.000554444,1.001471162
3.908614,-0.250366211,0.135223389,-0.072776794,0.001958130,0.002619384,1.001471162
3.909239,-0.120666504,0.097076416,-0.057518005,0.005986450,0.003107665,1.002447724
3.909865,-0.082519531,-0.063140869,-0.194847107,0.001713989,0.001642821,1.001471162
3.910490,-0.044372559,-0.131805420,0.018775940,0.000127075,-0.000188233,1.000738740
3.911117,-0.128295898,0.135223389,-0.118553162,-0.001948120,0.002253173,1.000738740
3.911742,0.016662598,-0.139434814,0.072181702,0.001591919,-0.000066163,1.000860810
3.912368,-0.052001953,0.066558838,0.049293518,0.001347778,-0.000066163,0.999029756
3.912995,-0.059631348,-0.078399658,0.018775940,0.001958130,0.002253173,1.002813935
3.913620,-0.143554688,0.036041260,-0.027000427,0.001591919,0.000177978,1.002203584
3.914245,-0.158813477,0.058929443,-0.019371033,0.003911255,0.003229735,1.000250459
3.914870,-0.113037109,0.020782471,0.011146545,0.000859497,0.001276610,1.000616670
3.915497,-0.013854980,-0.086029053,0.064552307,0.000005005,-0.000798585,1.002936006
3.916124,-0.189331055,0.249664307,0.034034729,0.002202271,-0.001531007,1.002203584
3.916749,0.062438965,0.066558838,-0.019371033,0.002934692,0.001764892,1.000494599
3.917375,0.100585938,0.005523682,-0.057518005,-0.000239136,0.002009032,1.000494599
3.918000,-0.090148926,0.112335205,-0.141441345,0.000005005,0.003962157,1.001837373
3.918627,-0.067260742,0.264923096,-0.065147400,0.002446411,0.001032470,1.000372529
3.919253,-0.128295898,-0.024993896,0.041664124,0.002812622,0.001764892,1.002813935
3.919879,0.001403809,0.142852783,0.056922913,0.002690552,-0.000554444,1.001349092
3.920504,-0.181701660,0.127593994,-0.004112244,0.001469849,-0.001286866,1.002691865
3.921129,-0.006225586,0.173370361,-0.103294373,0.002202271,0.000177978,0.999029756
3.921754,-0.013854980,-0.009735107,-0.133811951,0.000127075,0.001032470,1.000006318
3.922379,-0.204589844,0.028411865,0.217140198,0.001225708,0.001642821,1.000616670
3.923012,-0.013854980,0.081817627,-0.133811951,0.000005005,0.001398681,1.000494599
3.923638,0.115844727,0.280181885,-0.126182556,-0.001581909,0.001886962,1.003424287
3.924265,-0.082519531,-0.017364502,-0.042259216,0.004155396,0.001032470,1.001837373
3.924890,-0.151184082,0.249664307,-0.027000427,0.001225708,-0.001286866,1.001837373
3.937557,-0.151184082,0.226776123,0.018775940,-0.000239136,0.001642821,1.000494599
3.938246,-0.151184082,-0.101287842,0.079811096,0.000737427,0.000300048,0.999395967
3.938871,-0.090148926,0.135223389,-0.042259216,0.002934692,0.001520751,1.001593232
3.939496,-0.135925293,0.226776123,-0.011741638,0.000859497,-0.000676515,0.997931123
3.940123,-0.219848633,0.142852783,0.087440491,0.001225708,0.000544189,1.000616670
3.940748,-0.013854980,0.119964600,-0.049888611,0.001958130,0.002375243,1.003180146
3.941373,-0.013854980,0.203887939,-0.080406189,0.002690552,0.001154540,1.001959443
3.941998,-0.120666504,0.226776123,0.049293518,0.004033325,0.000422118,1.002447724
3.942624,0.001403809,-0.093658447,0.011146545,-0.000605347,0.001520751,1.001471162
3.943250,-0.151184082,0.043670654,0.072181702,0.003422974,0.001886962,1.001104951
3.943876,-0.120666504,0.127593994,-0.057518005,-0.001093628,0.002497314,1.002203584
3.944503,-0.059631348,-0.009735107,0.224769592,0.000615356,0.002253173,1.001227021
3.945129,0.016662598,0.249664307,0.003517151,-0.000971558,-0.000066163,1.001104951
3.945756,0.047180176,0.180999756,0.148475647,-0.002314331,-0.001408936,1.000006318
3.946383,-0.120666504,-0.002105713,-0.187217712,-0.000971558,-0.002385499,0.999273896
3.947011,0.009033203,0.089447021,0.133216858,0.002202271,0.000055907,0.999273896
3.947636,-0.120666504,0.135223389,0.041664124,0.000371216,0.001032470,1.000372529
3.948262,-0.006225586,0.097076416,-0.110923767,-0.000483276,-0.000920655,1.001593232
3.948888,-0.036743164,0.242034912,-0.049888611,0.002690552,0.000177978,1.004767060
3.949513,0.115844727,0.028411865,0.102699280,0.002324341,-0.003239991,1.001471162
3.950139,-0.158813477,0.119964600,-0.057518005,0.001469849,0.000300048,1.002081513
3.950766,0.009033203,0.158111572,0.064552307,0.001347778,0.000300048,0.999029756
3.951392,-0.120666504,0.081817627,0.003517151,-0.000605347,0.002131103,1.001227021
3.952017,-0.067260742,0.097076416,-0.004112244,-0.002558472,0.000666259,1.001349092
3.952643,-0.052001953,0.142852783,-0.057518005,0.003789185,0.000788329,1.000006318
3.953269,-0.052001953,0.203887939,-0.042259216,-0.002070190,0.001398681,1.003058076
3.953895,0.291320801,0.242034912,0.056922913,-0.001093628,-0.000188233,0.999884248
3.954521,0.054809570,0.142852783,0.087440491,-0.000117065,0.002375243,0.998663545
3.955146,0.169250488,0.158111572,-0.149070740,-0.001093628,0.001032470,1.001104951
3.955773,0.123474121,0.211517334,0.041664124,-0.000361206,0.001154540,1.002203584
3.956398,0.070068359,0.165740967,-0.133811951,0.001591919,-0.000554444,1.003302217
3.957024,-0.105407715,0.173370361,0.148475647,0.002568481,0.000666259,1.002203584
3.957650,0.161621094,0.196258545,0.117958069,0.003789185,0.000788329,1.002447724
3.958276,-0.212219238,0.257293701,0.087440491,0.002934692,-0.001653077,1.002813935
3.958902,-0.166442871,0.158111572,0.049293518,0.000249146,0.000544189,1.003058076
3.959527,-0.135925293,0.074188232,-0.126182556,0.001591919,0.002741454,1.001349092
3.960153,0.260803223,0.211517334,-0.042259216,0.001225708,0.001764892,1.000860810
3.960780,0.268432617,0.142852783,-0.072776794,0.000493286,0.001276610,1.003180146
3.961405,0.123474121,0.142852783,-0.110923767,0.002080200,0.001154540,1.003546357
3.962030,-0.006225586,0.287811279,0.110328674,0.000005005,0.000422118,1.001349092
3.962656,0.123474121,0.203887939,0.041664124,0.001836060,-0.000066163,1.001715302
3.963281,-0.105407715,0.043670654,-0.133811951,0.000371216,0.003718017,1.001593232
3.963906,0.199768066,0.158111572,0.018775940,-0.000361206,-0.001042726,1.000738740
3.964532,-0.006225586,0.036041260,0.049293518,-0.000849487,-0.000798585,1.000738740
3.966309,0.016662598,0.135223389,0.026405334,0.000371216,0.000300048,1.001593232
3.966935,-0.013854980,0.020782471,0.064552307,-0.001215698,0.002863524,0.997442842
3.967562,0.138732910,0.112335205,0.003517151,-0.000605347,0.001398681,0.999395967
3.968189,0.070068359,-0.253875732,0.156105042,0.001225708,0.001032470,1.000982881
3.968816,-0.006225586,0.173370361,-0.088035583,0.001713989,-0.000676515,1.002447724
3.969443,-0.105407715,0.020782471,-0.110923767,0.001836060,0.000422118,1.000616670
3.982162,-0.196960449,-0.002105713,0.117958069,0.001225708,-0.000798585,0.998541474
3.982921,-0.074890137,0.089447021,0.064552307,0.001836060,0.001032470,0.999395967
3.983547,0.092956543,-0.009735107,0.072181702,0.001347778,0.002131103,0.998419404
3.984173,-0.166442871,-0.070770264,0.026405334,-0.000971558,0.002985595,1.001104951
3.984799,-0.174072266,0.081817627,-0.194847107,0.000981567,-0.000310304,1.000616670
3.985425,0.039550781,-0.139434814,0.011146545,0.001225708,-0.000310304,0.998419404
3.986051,-0.181701660,-0.124176025,0.446022034,0.002812622,0.001276610,1.000006318
3.986676,-0.143554688,0.142852783,-0.072776794,0.002446411,0.000666259,1.003668427
3.987301,-0.044372559,-0.078399658,0.087440491,-0.000605347,0.003840087,1.001715302
3.987926,-0.227478027,0.020782471,-0.232994080,0.001469849,0.003718017,0.999518037
3.988551,0.024291992,0.150482178,0.056922913,-0.000361206,0.002497314,1.001593232
3.989176,-0.250366211,-0.131805420,-0.011741638,0.001103638,0.001154540,1.000494599
3.989801,-0.120666504,-0.070770264,-0.072776794,0.000737427,0.001642821,1.000006318
3.990426,-0.128295898,0.112335205,0.018775940,0.002934692,0.002009032,1.002081513
3.991051,0.039550781,-0.108917236,-0.080406189,0.000371216,0.002253173,1.000006318
3.991678,-0.151184082,0.051300049,-0.065147400,-0.000117065,0.003229735,1.000006318
3.992305,0.001403809,-0.032623291,0.117958069,-0.000117065,0.002619384,1.001104951
3.992930,-0.105407715,-0.063140869,0.125587463,0.000127075,0.001032470,0.999640107
3.993556,-0.128295898,-0.032623291,-0.171958923,0.001713989,0.000422118,1.001837373
3.994181,-0.013854980,0.043670654,-0.133811951,0.000005005,-0.000432374,1.002203584
3.994807,0.039550781,-0.017364502,0.163734436,0.000615356,0.002253173,1.002325654
3.995433,-0.235107422,-0.093658447,0.011146545,-0.001093628,0.002619384,1.003180146
3.996058,-0.273254395,-0.017364502,-0.126182556,-0.003901245,0.000055907,1.003058076
3.996684,0.077697754,-0.063140869,0.087440491,0.000127075,0.002497314,1.000250459
3.997310,-0.135925293,0.013153076,-0.065147400,0.003056763,0.003229735,1.002325654
4.015500,-0.181701660,0.226776123,0.041664124,-0.001337769,0.001642821,1.002081513
4.016127,-0.029113770,-0.223358154,0.003517151,0.001713989,0.004572509,1.002203584
4.016753,-0.029113770,-0.139434814,0.011146545,0.000737427,-0.001653077,1.000006318
4.017380,-0.006225586,0.005523682,0.178993225,-0.000361206,0.000300048,0.997320771
4.018012,0.054809570,-0.368316650,-0.019371033,0.000615356,-0.002141358,1.004644990
4.018638,-0.013854980,-0.284393311,-0.103294373,0.001713989,0.000177978,1.000982881
4.019265,0.291320801,0.097076416,0.102699280,0.002080200,0.002375243,1.002447724
4.019890,-0.059631348,-0.002105713,-0.065147400,0.001347778,0.000422118,1.001227021
4.020516,0.092956543,0.150482178,-0.057518005,0.003667114,-0.000432374,0.998663545
4.021141,-0.059631348,0.005523682,0.247657776,0.003056763,0.002375243,1.003790498
4.021767,0.100585938,-0.017364502,0.072181702,0.002080200,0.002863524,1.002203584
4.022393,-0.082519531,-0.040252686,0.102699280,0.001836060,0.000422118,1.004156709
4.023019,0.176879883,0.036041260,-0.065147400,0.003667114,0.000177978,1.000738740
4.023645,0.009033203,-0.063140869,-0.004112244,0.000371216,0.000300048,0.999640107
4.024271,-0.013854980,-0.002105713,0.003517151,0.007085083,-0.000432374,1.000616670
4.024898,-0.013854980,0.127593994,-0.133811951,0.001958130,0.001276610,1.003180146
4.025524,-0.196960449,0.180999756,0.049293518,-0.000483276,0.000544189,1.002569795
4.026151,-0.074890137,0.081817627,-0.110923767,0.002934692,-0.001164796,1.002325654
4.026777,0.039550781,0.036041260,0.110328674,-0.000605347,0.002863524,1.005743623
4.027404,-0.288513184,0.188629150,0.079811096,0.001713989,0.002741454,1.002081513
4.028029,0.092956543,0.005523682,-0.027000427,-0.000483276,0.001276610,1.001227021
4.028655,-0.090148926,0.005523682,0.056922913,0.002324341,-0.000310304,1.002691865
4.029281,0.100585938,0.013153076,-0.072776794,0.000249146,-0.000066163,1.001837373
4.029908,-0.013854980,0.043670654,0.125587463,0.004155396,0.002131103,1.002081513
4.042669,0.108215332,0.310699463,-0.011741638,0.000859497,-0.000066163,1.001104951
4.043366,0.260803223,0.081817627,0.110328674,0.001347778,0.001886962,1.001959443
4.043991,0.123474121,0.310699463,-0.171958923,-0.001215698,-0.000432374,0.999518037
4.044617,0.092956543,0.386993408,-0.126182556,-0.001337769,-0.000188233,0.998175263
4.045242,-0.059631348,0.203887939,0.064552307,0.000737427,0.000666259,1.000494599
4.045869,0.199768066,0.272552490,-0.004112244,0.000737427,0.000300048,1.000006318
4.046494,0.321838379,0.295440674,-0.080406189,-0.000239136,0.000177978,1.002691865
4.047119,0.192138672,0.264923096,-0.034629822,0.000249146,-0.000798585,1.000006318
4.047746,0.100585938,0.119964600,0.026405334,0.003178833,0.001276610,1.001593232
4.048373,0.108215332,0.127593994,-0.095664978,0.000859497,-0.003484132,1.001104951
4.048998,0.100585938,0.234405518,0.011146545,0.001347778,0.002009032,1.000738740
4.049624,-0.059631348,0.173370361,-0.004112244,0.002690552,0.001276610,1.002936006
4.050250,0.062438965,0.310699463,0.041664124,0.000859497,-0.000432374,0.998785615
4.050876,0.169250488,0.364105225,-0.141441345,0.001347778,0.000422118,1.000006318
4.051503,0.031921387,0.386993408,-0.057518005,0.001469849,-0.001164796,0.999640107
4.052128,0.024291992,0.127593994,0.003517151,0.000127075,0.001398681,0.999395967
4.052753,-0.013854980,0.341217041,-0.103294373,0.002324341,0.004450439,1.000128388
4.053379,-0.074890137,0.386993408,0.079811096,-0.002436401,0.002741454,0.998663545
4.054012,-0.059631348,0.341217041,-0.095664978,0.001958130,-0.000188233,0.999762177
4.054637,0.169250488,0.310699463,0.034034729,0.001225708,0.000422118,1.001837373
4.055264,0.108215332,0.150482178,0.041664124,0.004399536,-0.001286866,1.001837373
4.055891,0.176879883,0.180999756,-0.271141052,-0.000483276,0.000666259,1.001593232
4.056517,0.146362305,0.524322510,0.194252014,-0.001337769,0.003962157,1.002569795
4.057143,0.001403809,0.264923096,-0.049888611,0.002324341,0.001764892,1.000006318
4.057770,0.016662598,0.013153076,-0.072776794,-0.001459839,0.000544189,1.002691865
4.058397,0.123474121,0.310699463,0.003517151,-0.000605347,0.001276610,0.999884248
4.059022,-0.021484375,0.455657959,-0.072776794,0.000737427,-0.001653077,1.000250459
4.059648,0.108215332,0.478546143,-0.072776794,0.001225708,-0.001042726,1.001593232
4.060273,-0.097778320,0.280181885,0.102699280,0.000371216,0.000300048,1.002081513
4.060900,0.039550781,0.196258545,-0.278770447,-0.001826050,0.001154540,1.001227021
4.061526,-0.105407715,0.287811279,-0.118553162,0.000371216,0.002619384,0.999273896
4.062151,-0.052001953,0.211517334,0.026405334,0.001469849,0.000788329,1.001349092
4.062778,-0.059631348,0.203887939,-0.019371033,0.001347778,-0.003117921,1.000250459
4.063404,0.161621094,0.356475830,-0.088035583,0.002080200,-0.000066163,1.001837373
4.064031,-0.120666504,0.272552490,0.026405334,-0.000361206,0.001642821,0.999640107
4.064658,-0.235107422,0.020782471,0.087440491,-0.004755737,0.001642821,1.000616670
4.066411,0.092956543,0.081817627,-0.110923767,-0.000605347,0.000666259,1.001715302
4.067037,-0.074890137,0.127593994,-0.149070740,-0.001337769,0.002375243,0.999518037
4.067662,-0.135925293,0.005523682,0.079811096,0.001103638,0.000055907,0.999273896
4.068289,-0.113037109,0.325958252,0.018775940,0.000249146,0.001154540,1.000860810
4.068914,0.039550781,0.104705811,-0.255882263,0.000981567,0.000055907,1.002325654
4.069539,-0.105407715,-0.040252686,-0.210105896,-0.000117065,0.002863524,1.000372529
4.070164,-0.158813477,0.112335205,0.178993225,0.001225708,0.003595946,1.000860810
4.070790,-0.052001953,0.165740967,-0.042259216,-0.001703979,0.001764892,1.000372529
4.071416,-0.151184082,-0.024993896,0.018775940,0.000249146,0.002253173,0.999029756
4.072041,0.009033203,-0.002105713,-0.156700134,-0.000849487,-0.002019288,1.001715302
4.072667,-0.143554688,0.112335205,0.140846252,0.000127075,-0.000066163,1.000860810
4.073292,-0.196960449,0.226776123,0.110328674,0.002446411,0.001032470,1.000006318
4.073917,-0.273254395,-0.116546631,-0.080406189,0.000249146,-0.003484132,1.000494599
4.074542,-0.204589844,-0.154693604,-0.179588318,-0.000117065,0.003229735,1.001959443
4.087292,-0.296142578,-0.505645752,0.064552307,-0.001459839,-0.000066163,1.000128388
4.088024,-0.090148926,-0.192840576,0.293434143,-0.002802612,0.001398681,0.998785615
4.088650,-0.166442871,-0.253875732,-0.004112244,0.000493286,0.000300048,0.999518037
4.089276,-0.097778320,-0.391204834,-0.019371033,0.001225708,0.001642821,0.998175263
4.089902,-0.151184082,-0.391204834,-0.019371033,-0.001215698,0.000788329,0.999762177
4.090527,-0.036743164,-0.284393311,0.178993225,0.000249146,0.003107665,0.997686982
4.091154,-0.135925293,-0.436981201,-0.065147400,-0.001948120,0.004084228,1.002447724
4.091781,-0.120666504,-0.467498779,-0.027000427,-0.001826050,0.002619384,1.000128388
4.092407,-0.120666504,-0.215728760,-0.027000427,0.001836060,0.000544189,0.998907685
4.093033,-0.105407715,-0.307281494,-0.019371033,0.000859497,0.001276610,1.002447724
4.093658,-0.097778320,-0.292022705,-0.034629822,0.003056763,0.003840087,1.000494599
4.094284,-0.158813477,-0.299652100,0.034034729,0.003545044,0.000177978,0.999518037
4.094911,-0.349548340,-0.398834229,-0.072776794,-0.001215698,0.003718017,0.998907685
4.095537,-0.128295898,-0.322540283,0.079811096,-0.000117065,-0.000066163,0.999884248
4.096164,-0.166442871,-0.322540283,0.064552307,0.000615356,0.002497314,0.999762177
4.096791,-0.341918945,-0.429351807,0.140846252,0.002080200,-0.001775147,0.999395967
4.097418,-0.052001953,-0.436981201,-0.004112244,0.002934692,0.002863524,0.999640107
4.098044,-0.219848633,-0.414093018,-0.088035583,-0.001215698,0.004816649,1.001715302
4.098670,-0.128295898,-0.322540283,-0.065147400,-0.000727417,0.001520751,0.998785615
4.099295,-0.219848633,-0.482757568,0.064552307,0.001103638,0.002009032,1.001837373
4.099922,-0.349548340,-0.238616943,-0.110923767,0.001713989,0.002375243,1.000128388
4.100548,-0.326660156,-0.490386963,-0.034629822,-0.001459839,0.002863524,1.001227021
4.101174,-0.158813477,-0.406463623,0.003517151,0.000981567,0.004816649,0.999640107
4.101801,-0.189331055,-0.543792725,0.087440491,-0.001459839,0.002497314,1.003546357
4.102428,-0.120666504,-0.459869385,-0.202476501,0.000127075,-0.001286866,1.000250459
4.103053,-0.044372559,-0.368316650,0.034034729,0.000371216,0.001764892,1.000494599
4.103678,-0.052001953,-0.536163330,0.003517151,-0.001215698,0.000910399,0.999884248
4.104304,0.115844727,-0.726898193,0.018775940,0.003545044,0.001642821,1.002447724
4.104929,-0.341918945,-0.383575439,0.026405334,0.000371216,0.002497314,1.002936006
4.105554,-0.242736816,-0.505645752,-0.004112244,-0.001093628,0.003473876,1.001349092
4.106180,-0.166442871,-0.505645752,0.102699280,0.002690552,-0.000554444,1.000372529
4.106806,-0.113037109,-0.795562744,-0.065147400,0.000371216,0.004328368,1.001715302
4.107432,-0.280883789,-0.436981201,-0.004112244,0.001225708,0.001398681,1.002447724
4.108058,-0.265625000,-0.696380615,0.178993225,0.000981567,0.002619384,1.002936006
4.108683,-0.181701660,-0.375946045,0.026405334,-0.000483276,0.001886962,1.002203584
4.109309,-0.189331055,-0.475128174,0.003517151,0.003911255,0.002253173,0.998663545
4.109934,-0.181701660,-0.414093018,-0.019371033,0.002202271,0.001398681,1.001349092
4.110560,-0.196960449,-0.498016357,-0.042259216,0.003545044,0.002863524,1.004767060
4.111185,-0.120666504,-0.391204834,0.102699280,0.002080200,-0.000920655,1.002569795
4.111810,-0.265625000,-0.269134521,-0.110923767,0.003667114,0.000544189,1.001227021
4.112437,-0.387695312,-0.429351807,-0.141441345,0.002446411,0.000544189,1.002813935
4.113062,-0.296142578,-0.604827881,0.148475647,0.000493286,0.002253173,1.001837373
4.113689,-0.235107422,-0.536163330,-0.133811951,-0.001215698,0.000544189,1.002936006
4.114315,-0.296142578,-0.375946045,-0.011741638,0.001469849,0.000544189,1.003912568
4.114941,-0.181701660,-0.337799072,0.003517151,-0.000483276,0.002741454,1.001837373
4.115566,-0.257995605,-0.490386963,0.133216858,-0.000239136,0.002863524,1.002325654
4.116191,-0.387695312,-0.345428467,-0.110923767,0.001103638,0.002619384,0.998907685
4.116816,-0.311401367,-0.536163330,-0.080406189,0.000859497,0.000055907,1.002936006
4.129796,-0.387695312,-0.383575439,-0.011741638,0.001347778,0.001032470,0.999762177
4.130548,-0.303771973,-0.383575439,-0.027000427,0.001225708,0.000910399,0.999395967
4.131174,-0.273254395,-0.276763916,-0.164329529,-0.000361206,0.000544189,1.000128388
4.131799,-0.341918945,-0.246246338,-0.164329529,0.003178833,-0.000920655,0.999884248
4.132424,-0.479248047,-0.406463623,-0.179588318,-0.000605347,0.000055907,1.001104951
4.133049,-0.319030762,-0.230987549,-0.088035583,0.001347778,0.001642821,1.000738740
4.133676,-0.265625000,-0.200469971,-0.095664978,0.000249146,0.004450439,0.999395967
4.134301,-0.547912598,-0.436981201,-0.095664978,0.001225708,0.001276610,1.001593232
4.134926,-0.235107422,-0.475128174,-0.149070740,-0.000971558,-0.000676515,0.998175263
4.135552,-0.319030762,-0.292022705,-0.103294373,-0.001948120,-0.001042726,1.000982881
4.136179,-0.181701660,-0.246246338,-0.171958923,-0.002436401,-0.001408936,0.998907685
4.136804,-0.303771973,-0.230987549,0.026405334,0.000127075,0.000666259,0.999518037
4.137431,-0.319030762,-0.322540283,-0.042259216,0.001225708,0.000666259,0.999640107
4.138057,-0.547912598,-0.383575439,-0.149070740,-0.000117065,0.003718017,1.000494599
4.138682,-0.387695312,-0.391204834,-0.149070740,-0.001215698,0.002009032,1.000372529
4.139307,-0.570800781,-0.551422119,-0.019371033,-0.001826050,0.002619384,0.997564912
4.139932,-0.280883789,-0.429351807,-0.126182556,-0.001826050,0.001886962,1.000250459
4.140557,-0.364807129,-0.520904541,-0.118553162,-0.000361206,-0.001164796,0.998907685
4.141184,-0.616577148,-0.139434814,0.232398987,0.001591919,0.002375243,0.999518037
4.141809,-0.532653809,-0.543792725,-0.057518005,0.002080200,-0.000066163,0.998785615
4.142435,-0.662353516,-0.391204834,-0.057518005,-0.000361206,0.001398681,1.000128388
4.143061,-0.570800781,-0.345428467,0.171363831,0.001836060,-0.000432374,0.999762177
4.143686,-0.608947754,-0.490386963,-0.149070740,0.001225708,0.003473876,1.000128388
4.144311,-0.555541992,-0.284393311,-0.011741638,0.001347778,0.002253173,1.000738740
4.144936,-0.593688965,-0.581939697,-0.072776794,0.001591919,0.003229735,1.001959443
4.145561,-0.578430176,-0.490386963,-0.065147400,-0.002192261,-0.000432374,1.002447724
4.146186,-0.601318359,-0.498016357,-0.049888611,0.003300903,0.002497314,0.998785615
4.146813,-0.677612305,-0.787933350,-0.110923767,0.000859497,0.001154540,1.001715302
4.147438,-0.364807129,-0.688751221,-0.110923767,0.000981567,0.000788329,0.999640107
4.148063,-0.532653809,-0.459869385,-0.103294373,0.002690552,0.001154540,1.002691865
4.148689,-0.830200195,-0.688751221,-0.042259216,0.001469849,0.002863524,0.999151826
4.149314,-0.601318359,-0.688751221,0.011146545,-0.003046753,-0.000798585,1.003302217
4.149939,-0.906494141,-0.551422119,-0.156700134,0.001958130,-0.001164796,1.001837373
4.150565,-0.662353516,-0.673492432,0.278175354,-0.000239136,0.000666259,1.000372529
4.151190,-0.746276855,-0.742156982,-0.049888611,-0.002558472,0.001520751,0.995367646
4.151815,-0.654724121,-0.795562744,-0.011741638,-0.001215698,0.000544189,0.998541474
4.152442,-0.898864746,-0.826080322,0.163734436,-0.000971558,0.000177978,1.000128388
4.153067,-0.845458984,-1.032073975,0.148475647,0.001713989,0.002009032,0.999884248
4.153692,-0.860717773,-0.963409424,0.072181702,0.000859497,0.000544189,1.000860810
4.154317,-0.814941406,-0.841339111,-0.072776794,-0.001826050,0.002619384,0.998541474
4.154944,-0.952270508,-1.115997314,-0.141441345,0.000005005,0.000422118,0.998419404
4.155569,-0.860717773,-0.826080322,0.072181702,-0.001093628,0.002741454,1.002081513
4.156195,-0.967529297,-0.887115479,-0.065147400,-0.001581909,0.001520751,1.000006318
4.156820,-0.975158691,-1.146514893,0.003517151,0.002812622,0.000177978,1.000982881
4.157447,-0.952270508,-0.864227295,0.117958069,0.001103638,0.002253173,1.004644990
4.158073,-0.952270508,-0.910003662,-0.065147400,0.001469849,-0.000432374,1.002813935
4.158699,-0.830200195,-1.085479736,0.079811096,0.001836060,-0.000798585,1.004400849
4.159326,-0.929382324,-1.115997314,-0.149070740,0.000737427,-0.001164796,1.002325654
4.159952,-0.937011719,-1.047332764,-0.004112244,-0.000849487,0.002741454,1.002081513
4.173848,-0.959899902,-1.566131592,0.232398987,-0.001215698,-0.001775147,1.000982881
4.174575,-0.845458984,-1.314361572,0.018775940,0.000493286,-0.001286866,0.997564912
4.175201,-1.158264160,-1.268585205,0.095069885,0.002446411,0.000910399,0.998175263
4.175828,-1.089599609,-1.520355225,0.026405334,-0.001337769,0.003351806,0.999151826
4.176454,-0.929382324,-1.276214600,0.079811096,0.000493286,0.002009032,0.996710420
4.177079,-0.967529297,-1.451690674,-0.202476501,0.001591919,-0.001653077,1.000006318
4.177705,-0.898864746,-1.451690674,0.095069885,0.003178833,0.000910399,0.997809052
4.178331,-0.967529297,-1.550872803,-0.065147400,0.002446411,-0.002141358,1.000372529
4.178958,-1.135375977,-1.665313721,-0.080406189,0.000737427,0.000177978,0.996954560
4.179585,-1.059082031,-1.703460693,0.125587463,0.001347778,-0.002873780,0.996832490
4.180210,-0.822570801,-1.680572510,0.087440491,0.003789185,0.001886962,1.000250459
4.180837,-0.883605957,-1.573760986,0.369728088,0.001225708,-0.002385499,0.999151826
4.181464,-0.982788086,-1.733978271,-0.072776794,-0.002680542,-0.003850343,1.002081513
4.182090,-1.036193848,-1.611907959,0.064552307,0.002812622,0.003962157,1.002936006
4.182715,-0.921752930,-1.520355225,0.056922913,0.000615356,0.000544189,0.997931123
4.183340,-0.982788086,-1.573760986,0.163734436,-0.000483276,-0.001042726,1.004400849
4.183965,-0.975158691,-1.764495850,0.247657776,-0.000849487,-0.002873780,1.001349092
4.184590,-0.891235352,-1.474578857,-0.042259216,0.001958130,-0.002019288,1.001227021
4.185216,-0.753906250,-1.703460693,-0.316917419,0.001591919,0.000544189,1.000616670
4.185843,-0.776794434,-1.909454346,0.072181702,-0.000971558,0.002985595,1.001715302
4.186520,-0.914123535,-1.558502197,-0.072776794,0.001591919,0.003473876,1.001104951
4.187145,-0.769165039,-1.672943115,0.148475647,-0.000117065,0.000544189,0.999884248
4.187770,-0.883605957,-1.787384033,-0.019371033,-0.000605347,-0.000432374,0.998907685
4.188396,-0.761535645,-1.894195557,-0.019371033,0.003300903,0.000422118,1.001715302
4.189023,-0.891235352,-1.871307373,0.049293518,-0.000361206,-0.001164796,1.002691865
4.189650,-0.624206543,-1.733978271,0.072181702,0.002324341,-0.000188233,1.001959443
4.190275,-0.761535645,-1.962860107,0.079811096,0.001103638,-0.002141358,1.001715302
4.190901,-0.700500488,-1.924713135,0.034034729,0.000493286,0.000422118,1.005499482
4.191526,-0.563171387,-1.863677979,-0.171958923,0.000981567,-0.000066163,1.000006318
4.192151,-0.685241699,-1.970489502,0.026405334,-0.000849487,-0.000188233,1.000372529
4.192777,-0.700500488,-1.909454346,-0.095664978,-0.002680542,0.001398681,0.999640107
4.193402,-0.593688965,-2.100189209,-0.011741638,0.001591919,0.000788329,1.000006318
4.194028,-0.692871094,-2.046783447,0.011146545,-0.000361206,-0.001164796,1.000738740
4.194653,-0.471618652,-2.016265869,-0.027000427,0.001591919,0.000177978,1.003302217
4.195280,-0.685241699,-2.077301025,0.003517151,0.003300903,-0.003850343,1.003058076
4.195906,-0.601318359,-2.054412842,0.102699280,-0.000971558,-0.002751710,1.003180146
4.196533,-0.685241699,-2.207000732,-0.011741638,-0.001826050,-0.000066163,1.000982881
4.197160,-0.616577148,-2.214630127,-0.240623474,0.000249146,-0.001408936,1.000006318
4.197785,-0.601318359,-2.107818604,0.186622620,-0.001337769,0.002375243,1.002081513
4.198412,-0.792053223,-2.214630127,-0.294029236,-0.001581909,0.001276610,0.998419404
4.199037,-0.860717773,-2.176483154,0.034034729,-0.002070190,0.001398681,1.001227021
4.199663,-0.868347168,-2.313812256,-0.057518005,-0.004267456,-0.000676515,0.998663545
4.200288,-0.868347168,-2.535064697,-0.049888611,-0.002802612,-0.000676515,0.999884248
4.200914,-0.990417480,-2.535064697,0.056922913,0.004155396,0.005427001,0.999151826
4.201540,-0.891235352,-2.603729248,0.117958069,-0.001703979,0.001642821,0.999273896
4.202165,-1.081970215,-2.748687744,-0.049888611,-0.000361206,-0.000066163,0.999640107
4.202790,-1.028564453,-2.695281982,0.018775940,0.002202271,0.005182860,1.000616670
4.203415,-0.990417480,-2.832611084,0.224769592,-0.002070190,-0.002873780,1.001104951
4.216065,-1.844909668,-3.008087158,0.537574768,-0.001826050,-0.000188233,0.998541474
4.216743,-2.203491211,-2.802093506,0.560462952,0.001225708,0.000055907,1.001471162
4.217369,-2.218750000,-3.015716553,0.583351135,0.002568481,0.000422118,1.000982881
4.217995,-2.089050293,-2.985198975,0.667274475,0.001469849,-0.000066163,1.002081513
4.218620,-2.180603027,-2.878387451,0.758827209,0.002080200,-0.003117921,1.001227021
4.219246,-2.180603027,-3.046234131,0.682533264,-0.001703979,-0.001531007,1.001104951
4.219871,-2.249267578,-2.664764404,0.919044495,-0.001459839,-0.001531007,1.001959443
4.220497,-2.241638184,-2.977569580,0.949562073,0.002690552,-0.001042726,1.001593232
4.221122,-2.073791504,-2.832611084,1.010597229,-0.001337769,-0.005803468,1.004522920
4.221748,-2.119567871,-2.924163818,1.399696350,-0.003657104,-0.003606202,1.003790498
4.222375,-2.188232422,-2.809722900,1.475990295,-0.010859253,-0.005559327,1.000006318
4.223000,-2.378967285,-2.634246826,1.895606995,-0.015986206,-0.004216554,1.000128388
4.223625,-2.363708496,-3.000457764,2.338111877,-0.014765503,-0.008122804,0.999884248
4.224251,-2.432373047,-2.725799561,2.437294006,-0.019404175,-0.016423585,1.000006318
4.224877,-2.317932129,-2.809722900,3.032386780,-0.028681519,-0.022160890,1.004889131
4.225502,-2.447631836,-2.496917725,4.069984436,-0.052851439,-0.026921632,1.006231904
4.226127,-2.356079102,-2.359588623,5.389869690,-0.114619017,-0.051579833,1.006476045
4.226754,-2.234008789,-1.863677979,8.235633850,-0.222040892,-0.099431396,1.010260224
4.227381,-2.317932129,-1.344879150,13.248146057,-0.425043821,-0.162907958,1.022955537
4.228011,-2.073791504,0.074188232,20.892799377,-0.833124876,-0.190739989,1.058355927
4.228636,-0.563171387,3.263275146,29.666603088,-1.551874876,-0.091252685,1.125860810
4.229263,2.976867676,8.344451904,34.297645569,-2.168329954,0.098444581,1.190558076
4.229889,6.814453125,11.411468506,33.481300354,-1.918085814,0.158991456,1.096075654
4.230515,6.478759766,9.900848389,32.085121155,-1.355463743,0.179010987,0.870855927
4.231141,2.351257324,5.002777100,30.696571350,-0.943842649,0.156183839,0.737066865
4.231767,-5.194213867,-3.259857178,24.791419983,-0.307245970,0.070246339,0.916266084
4.232393,-4.995849609,-3.107269287,20.999610901,-0.276972532,0.028498290,1.064215302
4.233018,-2.226379395,-1.833160400,16.772926331,-0.289667845,0.011408446,1.106207490
4.233644,0.009033203,-0.650604248,12.859046936,-0.355097532,0.048517823,1.062140107
4.234269,0.092956543,0.310699463,9.647071838,-0.493159056,0.094050050,1.009405732
4.234896,-0.311401367,0.158111572,8.014381409,-0.565424681,0.083674073,0.966803193
4.235521,-1.432922363,-0.269134521,6.450355530,-0.627192259,0.060602784,0.953863740
4.236148,-1.539733887,-1.108367920,5.672157288,-0.630976439,0.033014894,0.966070771
4.236774,-1.501586914,-0.871856689,4.573524475,-0.606806517,0.033259034,0.997320771
4.237399,-1.394775391,-0.314910889,4.436195374,-0.505366087,0.016413329,1.010748506
4.238026,-1.516845703,-0.375946045,4.474342346,-0.428705931,-0.010930421,1.003180146
4.238652,-1.097229004,-0.482757568,4.611671448,-0.465449095,-0.027043702,1.004767060
4.239279,-1.135375977,1.149932861,3.215492249,-0.536371946,0.042414308,1.043707490
4.239906,-0.036743164,2.332489014,2.788246155,-0.484369993,0.038874269,1.035284638
4.240532,0.001403809,1.951019287,2.681434631,-0.523432493,0.054010987,0.968268037
4.241158,-0.708129883,1.638214111,1.613319397,-0.613642454,0.066706300,0.933966279
4.241784,-1.684692383,0.440399170,0.308692932,-0.557734251,0.060358644,0.959478974
4.242410,-1.234558105,-0.360687256,-0.507652283,-0.533198118,0.067560792,0.977545381
4.243035,-1.822021484,-0.299652100,-0.721275330,-0.519160032,0.068415284,0.974981904
4.243661,-2.996948242,-0.276763916,-0.042259216,-0.554560423,0.036921144,0.971808076
4.244288,-3.843811035,-0.238616943,1.445472717,-0.544062376,0.020685790,0.989264131
4.244914,-3.172424316,-0.490386963,1.361549377,-0.557123899,-0.006413819,1.015509248
4.245539,-2.424743652,-0.391204834,1.727760315,-0.504145384,0.017756103,1.022711396
4.246164,-2.012756348,-0.147064209,2.673805237,-0.456171751,0.037775636,1.020147920
4.277723,4.250976562,1.264373779,7.472694397,-1.151362181,0.004572509,0.937384248
4.278538,-2.272155762,-1.032073975,9.998023987,-1.274653196,-0.013249757,0.859869599
4.279164,-2.493408203,-3.374298096,9.792030334,-1.058344603,-0.086125731,1.006598115
4.279789,-2.493408203,-3.374298096,9.792030334,-1.058344603,-0.086125731,1.006598115
4.280416,-0.074890137,0.814239502,7.129371643,-1.427973509,0.104059815,1.143561006
4.281042,2.671691895,3.461639404,3.879249573,-1.379633665,0.098810792,1.063849092
4.281667,2.122375488,4.247467041,3.856361389,-1.324091673,0.101496339,0.920416474
4.282294,1.061889648,-0.742156982,5.344093323,-1.276850462,-0.059148192,0.819098115
4.282920,-1.677062988,-4.694183350,6.023109436,-1.073115110,0.002619384,0.897955537
4.283547,-1.768615723,-4.327972412,4.153907776,-1.389155149,-0.003728272,1.067999482
4.284173,0.688049316,-0.162322998,1.933753967,-1.369013548,-0.069280028,1.109869599
4.284799,2.664062500,0.699798584,-0.667869568,-1.219599485,0.110651612,1.034552217
4.285426,-0.280883789,3.606597900,-1.865684509,-1.304194212,-0.040471435,0.965948701
4.286053,0.283691406,-1.131256104,-3.162681580,-1.254023314,0.071711183,0.874762177
4.286679,-0.502136230,-3.603179932,-3.643333435,-1.281000853,0.007013915,0.931891084
4.287305,0.894042969,-3.648956299,-4.612266541,-1.295771360,0.099543214,1.026739717
4.287930,-0.792053223,-0.299652100,-2.941429138,-0.979975462,-0.073064208,1.024542451
4.288594,0.039550781,0.951568604,-1.385032654,-1.308344603,-0.051579833,1.027594209
4.289220,-0.341918945,1.081268311,-0.286399841,-1.131586790,0.003351806,0.986456513
4.289847,-1.089599609,0.539581299,2.032936096,-1.015986204,-0.058659911,0.941778779
4.290473,-3.347900391,1.073638916,5.199134827,-1.051386595,-0.112004638,0.989386201
4.291098,0.390502930,-1.161773682,8.853614807,-1.197016478,-0.158635497,0.976812959
4.291724,0.855895996,-1.535614014,11.707008362,-1.094721556,0.036310792,1.009894013
4.292349,-1.013305664,2.591888428,14.621437073,-1.069697142,-0.178532958,1.088263154
4.292976,1.519653320,1.897613525,17.345130920,-0.802363157,-0.036687255,0.971563935
4.293601,-3.057983398,2.462188721,22.327125549,-0.911249876,-0.088689208,0.910040498
4.294226,-2.645996094,1.584808350,25.378883362,-1.323115110,-0.174138427,0.928839326
4.294851,-0.135925293,-0.353057861,27.042091370,-1.011835814,0.002619384,1.025030732
4.295476,-1.478698730,1.462738037,31.558692932,-0.713007689,-0.203679442,1.057135224
4.296102,0.688049316,0.455657959,37.311256409,-0.931635618,-0.158025146,0.951178193
4.296728,-0.059631348,1.943389893,39.287269592,-1.101923704,-0.060857177,1.027838349
4.297353,2.313110352,3.087799072,42.125404358,-0.891840696,-0.068181396,1.054571748
4.297978,0.764343262,4.323760986,44.246376038,-0.849848509,-0.041692138,1.010748506
4.298605,1.283142090,3.652374268,47.214210510,-0.950434446,-0.065129638,0.900641084
4.299230,-0.975158691,1.470367432,48.564613342,-1.097285032,0.101740479,0.847906709
4.299857,-2.577331543,-0.276763916,49.281776428,-0.860224485,0.046076417,0.943487763
4.300484,-1.387145996,-1.314361572,51.562965393,-0.852900267,-0.009099366,1.018072724
4.301110,-0.830200195,-1.749237061,51.906288147,-0.423578978,-0.020940186,1.067633271
4.301736,-1.127746582,1.134674072,54.317176819,-0.823237181,-0.015813233,1.011725068
4.302362,3.655883789,0.005523682,53.447425842,-1.216425657,0.192560792,1.046393037
4.302988,1.176330566,2.774993896,53.226173401,-0.513300657,0.182184815,1.040045381
4.303614,-1.829650879,2.904693604,57.239234924,-0.600947142,0.008356689,0.935309052
4.304241,1.359436035,-0.047882080,57.834327698,-0.795405149,0.058039308,0.970343232
4.304868,0.398132324,-0.452239990,58.147132874,-0.602656126,0.110529542,1.017462373
4.305493,0.596496582,1.928131104,58.131874084,-0.736201048,0.214533448,1.062506318
4.306118,-0.402954102,4.331390381,59.962928772,-1.020746946,0.146540284,0.960943818
4.306743,-0.189331055,4.384796143,58.528602600,-0.950922728,0.160212159,1.004522920
4.307369,-0.311401367,2.614776611,60.619056702,-0.591059446,-0.009099366,0.937994599
4.307995,2.282592773,-2.870758057,62.488258362,-0.539057493,0.146662354,0.884283662
4.320705,-1.364257812,-1.589019775,82.645118713,-0.697016478,0.133234620,0.881353974
4.321467,-0.288513184,-5.296905518,84.239662170,-0.557368040,0.151423097,0.997076631
4.322093,-0.586059570,-0.513275146,83.598793030,-0.616694212,0.248835206,1.121832490
4.322719,1.763793945,3.133575439,81.058204651,-0.943720579,0.295221925,1.091681123
4.323345,2.747985840,2.240936279,80.630958557,-0.483637571,0.256403565,0.963995576
4.323971,0.230285645,0.715057373,83.224952698,-0.761225462,0.237360597,0.866217256
4.324596,-1.608398438,-0.971038818,82.584083557,-0.729120970,0.276667237,0.946661592
4.325222,-1.699951172,1.737396240,81.088722229,-0.936762571,0.326227784,1.049444795
4.325848,-1.379516602,0.081817627,82.355201721,-0.613398314,0.241144776,0.968512177
4.326475,-1.417663574,0.524322510,85.628211975,-0.446894407,0.055109620,1.013067842
4.327101,-1.532104492,-0.673492432,86.673439026,-0.836420774,0.214655519,0.938360810
4.327727,-2.226379395,1.477996826,85.803688049,0.356450319,1.013361573,1.245611787
4.328352,3.434631348,-16.695220947,130.504302979,2.874150515,0.215754151,0.369024873
4.328977,-17.736938477,-0.475128174,124.667823792,-0.911127806,-0.206364989,1.147833467
4.329604,3.053161621,-2.756317139,122.760475159,-0.827021360,-0.065739989,1.356207490
4.330229,6.394836426,7.810394287,113.650978088,-1.497065306,-0.078069091,1.224737763
4.330855,8.775207520,7.573883057,103.320777893,-1.005121946,0.102717042,1.117193818
4.331482,-1.722839355,12.227813721,101.382911682,-1.129999876,0.102106690,0.827154756
4.332108,4.441711426,-0.841339111,99.178016663,-0.561030149,0.396540284,0.771978974
4.332733,-1.272705078,-1.863677979,102.733314514,-0.122797728,0.557062745,0.825079560
4.333359,-3.172424316,-2.519805908,103.809059143,-0.103632689,0.243219972,1.014532685
4.333984,-2.501037598,-1.222808838,101.993263245,-0.151362181,0.067927003,1.110968232
4.334609,-0.685241699,1.157562256,98.865211487,-0.056391478,0.208307862,1.082037568
4.335236,3.320190430,0.768463135,98.651588440,-0.338618040,0.165949464,1.069708467
4.335861,2.236816406,2.774993896,98.018348694,-0.343256712,0.396906495,0.992560029
4.336486,2.374145508,3.248016357,97.140968323,-0.631342649,0.426569581,0.961676240
4.337111,2.252075195,1.745025635,95.546424866,-0.617914915,0.268122315,0.952398896
4.337738,0.367614746,-0.566680908,94.264686584,-0.454828978,0.456843019,0.852667451
4.338364,-3.263977051,-2.435882568,89.458168030,-0.820307493,0.283991456,0.917242646
4.338991,2.191040039,-6.998260498,80.936134338,-0.401484251,0.743708253,1.104864717
4.339618,-0.547912598,3.186981201,71.170509338,-0.419672728,0.810846925,1.155890107
4.340244,0.085327148,2.965728760,62.953651428,-0.650385618,0.751032472,0.978644013
4.340870,0.596496582,3.789703369,50.685585022,-0.902949095,0.909357667,1.038824677
4.341495,-1.272705078,4.606048584,46.146095276,-0.360346556,0.629938722,0.915411592
4.342120,0.375244141,-0.414093018,39.348304749,-0.794550657,0.685114503,0.920782685
4.342746,-2.066162109,2.637664795,33.015907288,-0.490229368,0.568903565,1.015997529
4.343372,-1.066711426,0.196258545,31.345069885,-0.632197142,0.494196534,0.936651826
4.343998,-1.677062988,0.196258545,27.492225647,-0.687128782,0.557306886,1.037726045
4.344623,0.276062012,3.995697021,25.790870667,-0.775629759,0.356257081,1.156866670
4.345248,4.952880859,3.072540283,22.517860413,-0.584345579,0.584284425,0.987799287
4.345874,-1.493957520,6.032745361,23.273170471,-0.787958860,0.426447511,0.802862763
4.346501,-1.890686035,-2.428253174,23.341835022,-0.535395384,0.324396729,0.806036592
4.347127,-6.079223633,-4.923065186,24.051368713,-0.254877806,0.354303956,0.897345185
4.347754,-6.323364258,-6.227691650,26.637733459,-0.436152220,0.197321534,1.063604951
4.348379,-2.684143066,-0.520904541,25.844276428,-0.577265501,0.361872315,1.238409638
4.349012,-0.883605957,5.712310791,27.515113831,-0.648066282,0.063532472,1.154425263
4.349637,3.121826172,2.248565674,29.468238831,-0.620844603,0.202570558,0.912115693
4.350262,-1.394775391,-0.780303955,28.918922424,-0.529291868,0.242121339,0.857672334
4.362945,0.550720215,1.249114990,51.822364807,-0.643427610,-0.184392333,0.893805146
4.363674,-1.005676270,-0.902374268,54.622352600,-0.893305540,-0.032414794,0.891119599
4.364299,-0.708129883,-3.343780518,53.744972229,-0.906489134,-0.121404052,1.070074677
4.364924,3.121826172,-1.428802490,54.599464417,-0.586542845,0.046320558,1.115118623
4.365550,2.145263672,2.927581787,57.460487366,-0.793574095,-0.004704835,1.028326631
4.366176,2.297851562,1.951019287,58.017433167,-0.960444212,0.085383058,0.926764131
4.366802,-0.273254395,0.348846436,59.055030823,-1.025629759,0.173395753,0.908087373
4.367427,-0.441101074,-0.070770264,57.292640686,-0.861811399,0.118464112,0.980230927
4.368054,-3.088500977,0.066558838,57.704627991,-0.641718626,0.079279542,0.930548310
4.368680,-2.699401855,-0.955780029,57.849586487,-0.966791868,0.224787354,0.922979951
4.369306,-4.301574707,-0.063140869,55.896461487,-0.478998899,0.068171144,1.047491670
4.369932,-2.630737305,-2.672393799,58.673561096,-0.497553587,0.126032472,0.940191865
4.370558,-4.286315918,-0.368316650,57.437599182,-0.793696165,0.322931886,1.017950654
4.371184,-4.782226562,2.401153564,55.438697815,-0.677485228,0.238703370,1.087530732
4.371810,-2.005126953,2.271453857,55.591285706,-0.458857298,-0.038640380,1.062872529
4.372435,1.222106934,0.638763428,56.102455139,-0.307001829,0.130060792,1.004522920
4.373061,0.878784180,2.980987549,54.774940491,-0.584345579,0.183527589,0.954840302
4.373688,2.427551270,-2.588470459,52.135169983,-0.518183470,0.348200440,0.952765107
4.374315,-0.189331055,0.585357666,52.058876038,-0.233271360,0.169245362,1.001471162
4.374941,2.473327637,-1.291473389,52.097023010,-0.692133665,0.110407472,0.944464326
4.375567,0.367614746,-3.221710205,53.317726135,0.019047974,0.156183839,0.899664521
4.376194,-3.630187988,-1.062591553,54.362953186,-0.436030149,-0.021062257,1.007574677
4.377952,-8.459594727,1.378814697,61.298072815,-0.436030149,0.037531495,1.011480927
4.378577,-6.491210938,-1.146514893,63.823402405,-0.481684446,-0.024602296,1.056402802
4.379204,-2.340820312,-3.168304443,65.761268616,-0.010981323,-0.045110106,1.123297334
4.379831,-1.982238770,3.911773682,67.615211487,-0.353632689,0.019831298,1.134405732
4.380457,-0.654724121,3.484527588,70.750892639,-0.128779173,-0.003362061,0.939459443
4.381082,-1.913574219,1.386444092,72.040260315,-0.641596556,0.113459229,0.904181123
4.381707,-0.494506836,-2.207000732,72.353065491,-0.514399290,0.240656495,0.869513154
4.382334,-5.117919922,-2.886016846,73.405921936,0.000981567,0.043024659,0.980230927
4.382959,-3.775146484,-3.603179932,71.651161194,-0.184321165,0.135920167,1.090582490
4.383586,-2.058532715,-0.322540283,70.773780823,-0.170771360,0.119562745,1.068121552
4.384212,-0.692871094,-1.009185791,67.073524475,-0.166987181,0.244318604,0.982306123
4.384837,-1.219299316,-2.092559814,62.579811096,-0.040766478,0.427057862,0.993536592
4.385462,-3.942993164,2.340118408,60.771644592,-0.340449095,0.497736573,1.063116670
4.386088,-0.685241699,0.692169189,55.858314514,-0.135615110,0.254084229,1.049933076
4.386715,-3.859069824,4.323760986,54.256141663,-0.026362183,0.302424073,1.014044404
4.387340,-3.340270996,4.926483154,52.592933655,-0.253657103,0.127985597,1.022955537
4.387965,0.817749023,1.012603760,48.938453674,-0.098261595,0.291315675,0.903204560
4.388592,1.611206055,-1.650054932,46.161354065,-0.087031126,0.222223878,0.928228974
4.389217,-1.890686035,-2.237518311,47.618568420,0.181279421,0.237848878,0.930060029
4.389843,-3.759887695,-4.045684814,48.801124573,0.003545044,0.202082276,1.025030732
4.390469,-3.393676758,1.371185303,49.625099182,-0.030390503,0.157404542,1.130987763
4.391124,0.764343262,3.865997314,47.824562073,-0.462519407,0.208918214,1.113287568
4.391749,2.809020996,2.454559326,45.856178284,0.022588013,0.286432862,0.989752412
4.392376,0.672790527,2.683441162,46.252906799,-0.361445189,0.180109620,0.850714326
4.393003,-2.958801270,0.318328857,46.489418030,-0.050410032,0.232111573,0.911017060
4.393629,-1.928833008,-3.122528076,46.954811096,-0.205073118,0.028620360,0.841192842
4.394254,-5.079772949,-4.381378174,45.139015198,0.091557741,0.256159425,0.935919404
4.406921,-1.242187500,-1.680572510,-22.602378845,0.084111452,0.272638917,1.044928193
4.407640,2.564880371,-1.344879150,-36.205589294,0.316655397,0.404230714,1.091925263
4.408265,2.564880371,-1.344879150,-36.205589294,0.316655397,0.404230714,1.091925263
4.408892,-0.021484375,-0.169952393,-48.366844177,-0.267328978,0.480524659,0.929815888
4.409518,-1.905944824,-1.688201904,-53.089439392,0.050053835,0.425348878,0.918951631
4.410143,-4.591491699,0.486175537,-57.911216736,0.144292116,0.239191651,1.101324677
4.410770,1.756164551,1.241485596,-64.884483337,-0.027949097,0.175959229,1.178961396
4.411397,4.533264160,0.036041260,-68.645774841,0.455815554,0.266535401,1.005255342
4.412022,2.137634277,-0.223358154,-72.300254822,0.041142702,0.236628175,0.940191865
4.412647,-0.189331055,-0.681121826,-74.329673767,0.174565554,0.336847901,0.865240693
4.413272,-7.002380371,0.272552490,-74.482261658,0.154668093,0.075495362,0.908087373
4.413898,-2.356079102,-4.686553955,-77.160179138,-0.057123899,0.238093019,1.010382295
4.414523,-1.410034180,-0.238616943,-79.471885681,0.066533327,0.271418214,1.148077607
4.415148,0.558349609,1.210968018,-78.525840759,0.418095827,0.232233644,1.238287568
4.415774,-1.287963867,9.717742920,-78.090965271,-0.166865110,-0.264714599,1.120855927
4.416399,7.371398926,2.164642334,-82.447349548,0.078496218,0.242243409,0.905279756
4.417024,-0.196960449,8.458892822,-82.462608337,-0.005488159,0.061701417,0.940191865
4.417651,3.068420410,1.722137451,-81.966697693,0.338750124,0.167902589,0.921148896
4.418277,-2.844360352,3.904144287,-78.899681091,-0.234003782,-0.180730224,0.715826631
4.418904,-4.942443848,-3.183563232,-81.554710388,0.528569460,0.272272706,1.072271943
4.419529,-3.378417969,1.302520752,-78.502952576,0.213994265,-0.403874755,1.194098115
4.420155,2.503845215,5.262176514,-77.770530701,0.129399538,0.166681886,1.281378388
4.420781,3.732177734,12.304107666,-71.613609314,-0.520869017,-0.462712646,1.118414521
4.421408,8.065673828,5.132476807,-68.241416931,0.553105593,0.193415284,0.877325654
4.422035,-1.554992676,8.001129150,-63.587486267,-0.697870970,-0.116643310,0.702765107
4.422662,-2.058532715,0.074188232,-60.955345154,0.058598757,-0.112248778,0.899786592
4.423289,-6.804016113,3.774444580,-59.032737732,0.702763796,-0.160832763,1.130865693
4.423915,1.901123047,0.776092529,-55.698692322,-0.225825071,-0.347356200,1.061651826
4.424540,-3.157165527,7.428924561,-51.410972595,0.093632936,-0.199406981,1.079962373
4.425166,4.556152344,-0.414093018,-44.246971130,0.438115358,-0.164983153,1.025641084
4.425791,-2.974060059,9.229461670,-37.166893005,-0.396479368,-0.371648192,1.029425263
4.426418,3.381225586,3.621856689,-38.181602478,0.170415163,0.038141847,1.049444795
4.427044,4.441711426,4.354278564,-35.648643494,-0.296137571,0.012629149,0.807257295
4.427671,-2.035644531,0.478546143,-31.910240173,0.672490358,-0.156560302,0.771612763
4.428296,-6.659057617,-6.197174072,-28.797447205,0.655766726,0.181086183,0.909063935
4.428923,-12.541320801,-0.665863037,-25.905906677,-0.240351439,-0.509709716,1.106329560
4.429548,0.329467773,-1.222808838,-23.243247986,0.081059694,-0.042668700,1.235846162
4.430174,-0.113037109,4.316131592,-16.498863220,-0.139765501,-0.187932372,1.025274873
4.430799,2.847167969,3.057281494,-9.990989685,0.092778444,-0.145573974,0.996344209
4.431425,0.825378418,0.051300049,-6.038963318,0.377202272,-0.203435302,0.985968232
4.432052,-2.371337891,2.073089600,-4.215538025,0.135380983,-0.288884521,0.967169404
4.432678,0.955078125,-1.115997314,-0.187217712,0.077763796,0.069880128,1.017584443
4.433304,-5.140808105,3.774444580,8.067787170,-0.153925657,-0.388982177,1.001349092
4.433929,1.847717285,-0.055511475,10.989845276,-0.015619995,-0.064885497,0.970465302
4.434554,-4.416015625,1.004974365,18.169105530,0.403081179,-0.207341552,0.943853974
4.435179,-3.538635254,2.683441162,21.411598206,-0.174433470,-0.367864013,1.072638154
4.435805,-3.141906738,5.193511963,24.738014221,0.087163210,-0.190251708,1.145880342
4.436430,-2.028015137,6.711761475,29.086769104,0.275151491,-0.478703856,1.159674287
4.449148,-1.410034180,-1.848419189,79.417884827,-0.017451050,-0.185368896,0.985968232
4.449885,-3.958251953,0.600616455,79.219520569,-0.047114134,0.074518800,0.892584443
4.450511,-5.552795410,-1.962860107,79.990089417,-0.026484253,-0.164861083,0.936041474
4.451137,-4.782226562,-1.947601318,81.531227112,0.078007936,0.033136964,1.086554170
4.451762,-4.278686523,-0.246246338,82.118690491,0.140996218,-0.219914794,1.042852998
4.452387,-2.241638184,-1.787384033,82.507789612,0.325200319,-0.254460692,1.060797334
4.453014,-2.134826660,-1.413543701,81.050575256,0.128667116,0.105280519,0.919439912
4.453640,-3.592041016,-1.978118896,79.082191467,-0.218134642,-0.155217528,0.905645967
4.454266,-2.401855469,-5.304534912,79.082191467,0.340459108,0.234308839,0.927496552
4.454891,-8.070495605,-2.542694092,80.745399475,0.171391726,-0.134221435,0.990484834
4.455516,-5.163696289,-4.320343018,79.257667542,0.430546999,-0.149846435,1.076300263
4.456142,-2.562072754,-1.115997314,78.944862366,0.556767702,-0.188420653,1.165533662
4.456767,-1.051452637,0.959197998,78.174293518,0.162236452,0.023371337,1.140509248
4.457392,-0.692871094,4.003326416,77.884376526,0.103764772,0.037287354,1.083746552
4.458019,0.535461426,3.278533936,77.487648010,0.257695436,-0.003972413,1.018072724
4.458644,1.763793945,2.393524170,75.854957581,0.220708132,0.059137940,0.987433076
4.459269,2.191040039,1.653472900,74.733436584,0.036381960,0.271418214,0.940558076
4.459895,-4.141357422,-0.147064209,74.367225647,0.342534304,0.132624269,0.761969209
4.460521,-5.079772949,-6.159027100,71.681678772,0.303715944,-0.000066163,0.827643037
4.461146,-6.918457031,-8.730133057,69.392860413,0.529301882,0.320978761,0.879889131
4.461773,-9.039428711,-7.059295654,66.707313538,0.096806765,-0.085515380,1.032599092
4.462399,-3.057983398,-9.607513428,65.196693420,0.237920046,0.127375245,1.092657685
4.463024,-2.531555176,-7.089813232,62.503517151,0.742680788,0.055964112,1.126104951
4.463650,-5.194213867,-2.763946533,58.856666565,0.676884890,0.081476808,1.041632295
4.464275,-5.316284180,-2.550323486,58.429420471,0.140874147,0.109797120,0.986822724
4.464900,-4.263427734,-5.701263428,58.368385315,0.469365358,-0.026189210,0.946661592
4.465526,-3.294494629,-2.092559814,57.216346741,0.157231569,0.361017823,1.143561006
4.466153,-5.651977539,2.309600830,57.834327698,0.356938601,-0.160710692,1.190191865
4.466779,2.854797363,3.690521240,56.079566956,0.360234499,-0.028142335,1.158331513
4.467405,2.633544922,3.217498779,54.782569885,0.522221804,0.072809815,0.931158662
4.468032,0.550720215,4.056732178,51.608741760,0.032475710,0.291559815,0.931769013
4.468657,-1.089599609,-1.634796143,50.815284729,0.632451296,-0.049626708,0.791266084
4.469282,0.108215332,-7.044036865,45.863807678,0.174565554,0.070368409,0.821539521
4.469909,0.375244141,-8.020599365,42.087257385,0.752324343,0.271906495,0.978033662
4.470535,-5.079772949,-7.082183838,41.576087952,0.036992311,0.199762940,0.959478974
4.471161,-4.965332031,-6.509979248,40.759742737,0.307133913,-0.047185302,1.098761201
4.471786,-1.554992676,-6.029327393,37.601173401,0.685796022,0.019220946,1.081305146
4.472413,-1.219299316,-3.320892334,37.440956116,0.616460085,-0.089665771,1.107061982
4.473039,0.359985352,-1.238067627,36.906898499,0.021855591,0.268244386,1.030035615
4.473666,-0.326660156,1.600067139,35.464942932,0.255864382,0.117731690,1.084845185
4.474292,0.863525391,1.973907471,35.999000549,0.357060671,-0.108342528,1.050787568
4.474918,1.199218750,-0.131805420,33.672035217,0.312016726,0.091120362,0.951544404
4.475543,-1.287963867,-0.459869385,31.551063538,0.220341921,0.174006104,0.917975068
4.476168,-1.158264160,-1.871307373,30.246437073,0.102055788,-0.059880614,0.977423310
4.477939,-5.560424805,-0.642974854,29.903114319,0.367680788,-0.257390380,0.977179170
4.478566,1.939270020,-3.771026611,27.682960510,0.219121218,-0.137517333,1.139044404
4.479193,-0.311401367,0.509063721,27.438819885,0.279912233,0.105280519,1.124029756
4.479820,-0.982788086,2.652923584,26.225746155,0.127446413,-0.141423583,0.994879365
4.480445,1.847717285,-0.024993896,25.638282776,0.449956179,-0.121159911,1.011236787
4.493122,0.222656250,2.874176025,27.736366272,0.159550905,-0.164739013,1.198248506
4.493826,4.792663574,1.912872314,29.422462463,0.556523561,-0.225407958,1.029425263
4.494451,-0.776794434,5.391876221,30.795753479,0.276128054,-0.075139403,0.925665498
4.495077,0.680419922,-1.077850342,31.139076233,0.386235476,-0.272282958,0.871466279
4.495704,-1.432922363,-5.197723389,32.153785706,0.627690554,0.048761964,0.811285615
4.496331,-10.229614258,-1.917083740,35.312355042,0.424199343,-0.507390380,0.980475068
4.496958,-5.056884766,-2.580841064,36.555946350,0.834355593,-0.079533935,1.259161592
4.497583,-0.357177734,1.203338623,38.676918030,0.243901491,-0.412785888,1.128058076
4.498209,1.428100586,-0.597198486,37.784278870,0.915532351,-0.047673583,0.957159638
4.498835,0.657531738,-1.772125244,37.532508850,0.158330202,0.101130128,0.994391084
4.499460,1.786682129,0.432769775,38.959205627,0.580815554,-0.108220458,1.061041474
4.500087,1.077148438,3.454010010,38.989723206,0.179448366,0.011652587,1.089239717
4.500714,6.387207031,0.470916748,36.952674866,0.288335085,-0.073796630,0.920416474
4.501341,1.801940918,-1.466949463,36.830604553,0.765630007,0.321833253,0.908087373
4.501966,-7.559326172,5.147735596,37.410438538,0.161381960,-0.319157958,1.016729951
4.502591,6.638977051,-6.136138916,34.724891663,0.822636843,-0.030095460,1.013800263
4.503216,-0.273254395,-2.161224365,32.672584534,0.698369265,-0.109197021,0.963019013
4.503841,2.313110352,-4.709442139,28.911293030,0.517827272,0.227717042,1.006353974
4.504468,-7.216003418,6.025115967,30.589759827,0.448003054,-0.051457763,1.150030732
4.505094,4.952880859,0.318328857,27.492225647,0.552861452,0.002741454,1.103888154
4.505721,-0.067260742,3.728668213,29.048622131,0.840092897,-0.017156007,1.006598115
4.506347,-0.311401367,3.164093018,28.537452698,0.304570436,0.097834229,0.966070771
4.506973,3.457519531,0.142852783,26.080787659,0.655400515,0.150202394,0.985968232
4.507598,-1.944091797,-0.704010010,26.332557678,0.544682741,-0.051946044,0.793707490
4.508224,-2.966430664,-4.144866943,23.791969299,0.034550905,0.234430909,0.951056123
4.526443,-0.135925293,2.004425049,-35.122215271,-0.147944212,-0.404485106,0.938238740
4.527070,-2.012756348,2.286712646,-35.045921326,0.659672976,-0.002385499,1.229864717
4.527695,0.932189941,6.391326904,-34.900962830,-0.041254759,-0.876775146,0.997686982
4.528320,5.090209961,1.569549561,-39.470970154,0.207524538,0.086725831,1.000860810
4.528945,3.404113770,3.927032471,-40.409385681,-0.425165892,-0.477239013,0.927740693
4.529570,-2.691772461,0.203887939,-38.784324646,0.989751101,-0.191106200,1.005743623
4.530197,0.779602051,0.150482178,-42.797386169,-0.162836790,-0.671086669,1.016852021
4.530824,2.892944336,3.248016357,-43.934165955,0.030522583,-0.142400146,1.138678193
4.531450,9.492370605,2.637664795,-46.245872498,-0.390742064,-0.145085692,0.983160615
4.532076,-2.279785156,9.038726807,-46.154319763,0.005986450,-0.299138427,0.992926240
4.532702,2.831909180,-0.246246338,-48.809349060,0.300297976,-0.438908935,0.821417451
4.533329,-3.286865234,0.814239502,-54.386436462,-0.120966673,-0.428899169,0.920294404
4.533954,2.847167969,-5.670745850,-59.955894470,0.303471804,-0.081853271,1.029669404
4.534579,-2.394226074,2.454559326,-63.976585388,-0.088984251,-0.720647216,1.197516084
4.535204,8.042785645,-0.765045166,-67.470848083,0.268315554,-0.226262450,1.108893037
4.535831,7.379028320,1.958648682,-70.461570740,-0.212031126,-0.072820067,0.970831513
4.536458,-1.631286621,6.429473877,-69.431602478,-0.078974485,-0.544011474,1.023932099
4.537083,3.526184082,4.720489502,-70.247947693,0.096928835,-0.580388427,1.106817842
4.537708,6.425354004,4.232208252,-71.934043884,0.228398561,-0.525700927,0.967047334
4.538334,7.188293457,0.013153076,-72.452842712,-0.145014524,-0.448308349,0.828009248
4.538959,1.542541504,-0.032623291,-72.071372986,-0.028071167,-0.419255614,0.909796357
4.539585,2.404663086,-3.725250244,-71.888267517,0.415776491,-0.291447997,1.030279756
4.540210,-5.011108398,7.619659424,-71.270286560,-0.024531128,-1.090520263,1.203375459
4.540837,11.193725586,0.196258545,-73.025047302,-0.058100462,-0.217839599,1.029303193
4.553631,-5.682495117,3.179351807,-26.775657654,0.131474733,-0.660710692,0.890509248
4.554397,1.977416992,-7.471282959,-26.363670349,0.529301882,-0.207463622,0.892828584
4.555024,-9.832885742,0.600616455,-24.334251404,0.666264772,-0.572209716,1.237677217
4.555649,4.334899902,-2.313812256,-24.479209900,0.358403444,-0.514714599,1.071905732
4.556274,-1.585510254,5.437652588,-22.793113708,0.662358522,-0.163030028,1.131842256
4.556900,-0.349548340,2.309600830,-21.900474548,0.303349733,-0.478703856,0.950934052
4.557525,0.550720215,0.196258545,-21.274864197,0.343999147,-0.223332763,0.903570771
4.558151,-1.783874512,-0.856597900,-19.825279236,0.363042116,-0.411931396,0.917364717
4.558776,-2.737548828,-4.503448486,-19.352256775,0.766240358,-0.331853271,0.938849092
4.559402,-6.300476074,-1.589019775,-17.170249939,0.929692507,-0.264958739,1.211554170
4.560028,-5.095031738,7.398406982,-15.613853455,0.457158327,-0.990788817,1.179937959
4.560653,8.492919922,-2.878387451,-15.636741638,0.733159304,0.106135011,0.870977998
4.561279,-4.179504395,1.470367432,-12.165367126,0.350835085,-0.515202880,0.876837373
4.561905,-0.792053223,-3.450592041,-9.929954529,0.853154421,-0.059026122,1.022467256
4.562531,-5.514648438,1.455108643,-8.556663513,0.776372194,-0.550603271,1.112555146
4.563156,-0.502136230,2.561370850,-7.007896423,0.651494265,-0.390691161,1.248297334
4.563781,4.388305664,5.834381104,-6.710350037,0.274663210,-0.418034911,1.089361787
4.564406,5.792114258,3.270904541,-7.877647400,0.386357546,-0.008733155,0.858893037
4.565032,-2.508666992,1.226226807,-5.573570251,0.515507936,-0.248357177,0.857184052
4.565659,-3.195312500,-0.955780029,-3.956138611,0.854008913,-0.121770263,1.017950654
4.566285,-6.666687012,4.621307373,-2.971946716,1.088139772,-0.597356200,1.118414521
4.566910,5.433532715,-2.481658936,-5.092918396,0.351079226,-0.426579833,0.911017060
4.567535,-0.975158691,-0.154693604,-5.970298767,1.036259890,0.353327394,1.112066865
4.568162,-5.804565430,8.184234619,-5.070030212,0.442998171,-0.806584716,1.108038545
4.568789,7.821533203,-1.543243408,-5.008995056,1.208623171,0.102228761,0.969977021
4.569415,-4.210021973,4.445831299,0.301063538,0.471196413,-0.358342528,0.867682099
4.570040,0.070068359,-0.696380615,1.720130920,0.382817507,0.010187743,0.949469209
4.570665,-4.660156250,0.654022217,5.199134827,0.913335085,-0.401067138,1.055304170
4.571290,-1.181152344,1.104156494,6.015480042,0.891118288,-0.333318114,1.158087373
4.571916,1.672241211,1.889984131,4.550636292,0.364140749,-0.195744872,0.993292451
4.572541,-1.036193848,2.553741455,6.328285217,0.602055788,-0.236638427,0.930304170
4.573167,3.465148926,-2.596099854,5.153358459,0.333623171,-0.103093505,0.868414521
4.573792,-7.284667969,2.118865967,7.434547424,1.075322390,0.178522706,1.154181123
4.574417,-4.171875000,4.003326416,9.517372131,0.436284304,-0.632634521,1.013067842
4.575044,4.518005371,0.470916748,7.709205627,0.647832155,0.035456300,1.049078584
4.575669,-1.463439941,3.408233643,7.274330139,0.556767702,-0.067204833,1.070318818
4.576294,0.604125977,3.843109131,6.084144592,0.572148561,-0.286076903,0.992804170
4.578029,-3.668334961,-1.642425537,5.405128479,0.901005983,-0.030827882,1.119391084
4.578655,-0.052001953,2.057830811,4.344642639,0.854619265,-0.311101317,1.177374482
4.579280,5.311462402,1.622955322,1.842201233,0.865239382,0.140314698,1.015387177
4.579905,-6.369140625,8.458892822,3.757179260,0.984257936,-0.144963622,1.117682099
4.580531,3.266784668,2.393524170,2.589881897,0.834599733,-0.106999755,0.919439912
4.581157,-1.074340820,4.369537354,4.314125061,0.580205202,-0.103337646,0.939825654
4.581784,1.168701172,0.478546143,5.740821838,0.954716921,0.232111573,1.029913545
4.582409,-3.614929199,4.926483154,7.899940491,0.305302858,-0.365178466,0.959234834
4.583035,5.807373047,-3.114898682,6.290138245,0.703984499,0.265558839,0.886969209
4.583660,-8.696105957,2.538482666,8.502662659,0.977666140,-0.066594481,0.995855927
4.584287,0.024291992,-1.688201904,8.716285706,0.533818483,-0.292424560,0.925177217
4.584914,1.069519043,-6.365020752,7.564247131,0.836430788,0.128595948,0.956427217
4.597552,0.504943848,-1.192291260,-13.027488708,0.859380007,-0.247136474,1.023810029
4.598246,3.724548340,-1.642425537,-15.232383728,0.713872194,0.191706300,1.036261201
4.598872,-1.730468750,3.545562744,-16.132652283,0.624638796,-0.056828856,1.147345185
4.599499,5.967590332,3.721038818,-16.697227478,0.522465944,-0.084416747,1.104620576
4.600124,6.585571289,3.011505127,-17.818748474,0.560063601,0.068537354,0.909308076
4.600749,1.718017578,0.264923096,-18.833457947,0.909550905,0.213801026,0.868902802
4.601375,-8.108642578,6.376068115,-17.429649353,0.896977663,-0.150334716,1.109625459
4.602000,0.710937500,4.300872803,-19.565879822,0.704716921,-0.303166747,1.047857881
4.602626,5.845520020,2.355377197,-22.335350037,0.765752077,0.109919190,1.069708467
4.603251,-0.662353516,5.262176514,-21.702110291,0.900029421,-0.035344481,0.977911592
4.603876,1.458618164,4.041473389,-20.839988708,0.443730593,-0.168034911,0.986212373
4.604501,3.472778320,1.729766846,-20.626365662,0.533696413,0.066462159,0.965338349
4.605126,-1.570251465,4.293243408,-19.817649841,0.548711061,-0.093205810,1.014166474
