time,gyro x,gyro y,gyro z,accel x,accel y,accel z
10.016457,-1.679702759,0.236717224,-0.019355774,-0.007410157,0.008591674,0.996532083
10.037041,-0.230117798,-0.205787659,0.034049988,-0.003870117,0.005539917,0.997508645
10.037666,-0.474258423,-0.015052795,0.034049988,-0.00472461,0.002244018,0.999827981
10.038291,-0.489517212,-0.053199768,0.056938171,-0.004358399,0.005295776,1.001048684
10.038916,-0.191970825,-0.121864319,-0.16431427,-0.006555664,0.000168823,1.002879739
10.039541,-0.405593872,-0.053199768,0.034049988,-0.004602539,0.000290893,1.001414895
10.040168,-0.481887817,-0.091346741,0.125602722,-0.005334961,-0.001418091,1.004100442
10.040793,-0.161453247,-0.083717346,0.140861511,-0.005334961,0.0027323,1.007518411
10.041418,-0.016494751,0.076499939,0.140861511,-0.005945313,0.000046753,1.001170754
10.042045,-0.138565063,-0.205787659,0.117973328,-0.008997071,0.001145386,1.002635598
10.042671,-0.077529907,0.038352966,-0.088020325,-0.006799805,0.003830933,0.997508645
10.043297,-0.176712036,0.038352966,0.117973328,-0.00875293,-0.00105188,1.003734231
10.043924,-0.092788696,-0.289710999,0.117973328,-0.007776367,0.001877808,1.002635598
10.044551,-0.11567688,-0.114234924,0.00353241,-0.004236328,0.002488159,1.003001809
10.045177,-0.344558716,-0.137123108,0.201896667,-0.005945313,0.006394409,1.001414895
10.045802,-0.405593872,-0.076087952,0.018791199,-0.004114258,0.004197143,0.999950051
10.046428,-0.428482056,0.045982361,0.1561203,-0.005334961,0.004319214,1.001536965
10.047055,-0.230117798,-0.266822815,0.056938171,-0.002405274,0.0027323,1.005077004
10.047682,-0.451370239,-0.152381897,0.07219696,-0.005090821,0.00297644,1.002879739
10.048307,-0.527664185,-0.076087952,0.056938171,-0.007410157,0.004807495,1.002391458
10.048932,-0.43611145,0.099388123,0.079826355,-0.005701172,0.003342651,1.002025247
10.049559,-0.451370239,-0.045570374,-0.263496399,-0.008142578,0.002488159,1.001659036
10.050185,-0.626846313,-0.068458557,-0.042243958,-0.00484668,0.000412964,1.003978372
10.050811,-0.504776001,-0.02268219,0.102714539,-0.005823242,-0.00105188,1.00349009
10.051437,-0.405593872,-0.144752502,-0.065132141,-0.005090821,0.001755737,1.004344583
10.052063,-0.542922974,-0.015052795,-0.034614563,-0.003259766,0.00688269,1.002757668
10.05269,-0.802322388,0.198570251,0.140861511,-0.006311524,0.001389526,1.003123879
10.053317,-0.634475708,0.007835388,-0.042243958,-0.005945313,0.000168823,1.001659036
10.053942,-0.43611145,-0.10660553,0.034049988,-0.008386719,0.001145386,1.004832864
10.054568,-0.397964478,-0.053199768,-0.042243958,-0.005945313,0.001511597,1.006785989
10.055194,-0.588699341,-0.144752502,-0.057502747,-0.004114258,0.00297644,1.00336802
10.055819,-0.588699341,-0.144752502,-0.057502747,-0.004114258,0.00297644,1.00336802
10.056445,-0.733657837,-0.030311584,0.00353241,-0.005090821,0.008835815,0.999950051
10.057071,-0.756546021,0.045982361,0.00353241,-0.002893555,0.008713745,0.998607278
10.057698,-1.000686646,0.000205994,0.102714539,-0.007532227,0.004929565,0.998607278
10.058324,-0.901504517,-0.442298889,-0.171943665,-0.006189453,-0.008009888,1.006053567
10.05895,-0.458999634,-0.10660553,-0.026985168,-0.003503907,-0.006178833,1.006175637
10.059575,-0.535293579,0.007835388,0.201896667,-0.002771485,0.003342651,1.002879739
10.0602,-0.321670532,0.06124115,-0.072761536,-0.005334961,-0.003615357,1.00336802
10.060826,-0.344558716,0.007835388,0.07219696,-0.005090821,0.000412964,1.001781106
10.061451,-0.207229614,-0.121864319,0.00353241,-0.001184571,0.008469604,1.004466653
10.062078,-0.321670532,-0.228675842,0.133232117,-0.007288086,0.001511597,1.003734231
10.062703,-0.680252075,0.007835388,-0.034614563,-0.000696289,0.018967651,0.99543345
10.063329,-1.061721802,0.129905701,0.095085144,-0.005090821,0.01481726,0.996043801
10.063954,-1.32875061,0.122276306,-0.026985168,-0.005945313,0.005051636,0.997508645
10.064581,-1.031204224,-0.114234924,0.08745575,-0.001428711,-0.008376099,1.008128762
10.065207,-1.038833618,0.107017517,0.00353241,0.005407226,0.007737183,1.001048684
10.065832,-1.107498169,0.480857849,-0.08039093,-0.009729492,0.01847937,0.992137551
10.066459,-1.427932739,0.007835388,-0.019355774,-0.023157228,-0.002760864,0.990428567
10.079661,-0.970169067,-0.320228577,-0.095649719,-0.001428711,-0.02046106,1.011668801
10.080379,-0.855728149,0.129905701,-0.110908508,0.013585937,0.028733276,1.007762551
10.081011,-1.649185181,0.221458435,0.064567566,0.002233398,0.035080932,0.981395364
10.081636,-2.351089478,0.267234802,0.00353241,-0.024377931,0.012131713,0.984813333
10.082263,-2.030654907,-0.182899475,-0.118537903,-0.017175782,-0.023756959,1.000072122
10.082889,-1.755996704,-0.358375549,0.117973328,0.00308789,-0.017531373,1.017406106
10.083514,-0.916763306,-0.083717346,0.110343933,0.003454101,-0.006178833,1.015452981
10.08414,-1.023574829,0.14516449,-0.194831848,-0.011560547,-0.014113404,1.011546731
10.084765,-0.642105103,-0.02268219,0.07219696,-0.000574219,0.007859252,1.000804543
10.085391,-0.977798462,-0.037940979,0.1561203,0.004552734,0.026658081,0.98762095
10.086018,-1.66444397,0.221458435,-0.065132141,-0.01253711,0.019089721,0.986522317
10.086644,-2.320571899,0.305381775,0.049308777,0.006017578,0.037888549,0.978831887
10.087271,-3.04536438,0.114646912,-0.065132141,-0.008020508,0.022995971,0.985667825
10.087898,-3.114028931,-0.076087952,-0.126167297,-0.023523439,-0.026198365,1.001536965
10.088524,-2.633377075,-0.060829163,0.07219696,-0.003137696,0.001633667,1.007030129
10.08915,-2.099319458,-0.236305237,0.041679382,-0.017175782,-0.051955201,1.0305897
10.089777,-0.184341431,-0.449928284,0.08745575,-0.006311524,-0.070143677,1.042918801
10.090402,0.86088562,-0.053199768,-0.156684875,0.007604492,-0.011427857,1.035594583
10.091028,1.280502319,-0.198158264,0.095085144,-0.00496875,-0.013014771,1.018382668
10.091655,1.761154175,-0.350746155,0.209526062,-0.009973633,-0.014357544,1.013743997
10.092281,1.990036011,-0.243934631,0.270561218,0.004186523,0.019822143,1.001903176
10.092906,1.021102905,0.129905701,0.064567566,0.017614257,0.079758666,0.969798684
10.093533,-1.32875061,0.313011169,-0.095649719,-0.023401368,0.058274291,0.961619973
10.094159,-1.862808228,-0.25919342,-0.011726379,-0.016809572,0.007981323,0.968700051
10.094784,-2.045913696,-0.076087952,-0.088020325,0.012853515,0.010178588,1.001903176
10.095411,-3.022476196,0.816551208,-0.072761536,0.027868163,0.060593627,0.98762095
10.096036,-4.006668091,0.541893005,-0.141426086,-0.046716798,-0.02839563,1.002147317
10.096662,-1.252456665,-0.770362854,0.056938171,-0.058679689,-0.169020623,1.060985208
10.097288,2.234176636,-1.098426819,0.179008484,0.029455077,-0.079909302,1.087474465
10.097914,2.40965271,0.351158142,0.316337585,0.064733401,0.103440307,1.008250833
10.09854,-0.588699341,1.243797302,0.095085144,-0.015955079,0.136033088,0.92536509
10.099165,-3.297134399,0.503746033,-0.141426086,-0.054529298,0.062302612,0.909251809
10.09979,-3.510757446,-0.770362854,-0.263496399,-0.042932618,-0.066847779,0.999217629
10.100416,-2.145095825,-0.770362854,-0.042243958,0.044713866,-0.008131959,1.027537942
10.101042,-2.778335571,0.427452087,-0.065132141,0.009435547,0.032273315,1.024242043
10.101668,-1.946731567,-0.091346741,-0.133796692,-0.045618165,-0.087477662,1.023387551
10.102293,0.586227417,-0.892433167,0.102714539,-0.037073243,-0.130568475,1.0696522
10.102919,4.118637085,-1.289161682,0.163749695,0.030187499,-0.078810669,1.078197122
10.103546,3.897384644,-0.045570374,0.08745575,0.030187499,0.083298706,1.015819192
10.104172,2.218917847,0.618186951,-0.049873352,-0.012903321,0.071091674,0.947093606
10.104797,-0.60395813,0.625816345,0.331596375,-0.008997071,0.119675659,0.922191262
10.105422,-1.870437622,-0.076087952,-0.225349426,-0.041467775,-0.029982544,0.977122903
10.106047,-0.9243927,-0.709327698,-0.126167297,0.00284375,-0.029005982,1.012767434
10.106672,-0.260635376,-0.419410706,0.179008484,0.009679687,-0.014967896,1.033153176
10.107298,-0.214859009,0.213829041,0.026420593,-0.005579102,-0.002638794,1.013255715
10.107924,0.014022827,-0.076087952,-0.011726379,-0.012292969,-0.005446411,0.998485208
10.108549,-0.077529907,-0.091346741,0.140861511,0.012243164,0.024460815,0.992625833
10.109175,-1.725479126,0.663963318,0.026420593,0.005407226,0.084519409,0.975780129
10.123804,10.31370544,-2.403053284,0.186637878,-0.010706055,-0.276442498,1.159251809
10.124819,13.61723328,-0.900062561,0.64440155,0.090124026,0.115281127,1.073070168
10.125446,7.635787964,1.144615173,0.362113953,-0.002649414,0.264573127,0.881908059
10.126073,2.745346069,0.152793884,-0.194831848,-0.024866212,0.204514533,0.831004739
10.12672,-1.992507935,-0.312599182,0.034049988,-0.030969728,0.087082885,0.920482278
10.127346,-2.23664856,-0.74747467,-0.042243958,-0.008142578,-0.048415162,0.986034036
10.127973,-2.175613403,-0.282081604,-0.034614563,0.019323241,0.008713745,1.02692759
10.128598,-1.542373657,0.274864197,-0.095649719,0.028844725,-0.000075317,1.002757668
10.129225,-4.296585083,1.533714294,0.331596375,0.017736327,0.177048713,0.935741067
10.129851,-5.967422485,0.374046326,-0.362678528,-0.087610349,-0.089430787,0.983104348
10.130476,-0.451370239,-1.960548401,-0.33216095,-0.07235156,-0.353835076,1.142406106
10.131103,4.782394409,-0.480445862,0.629142761,0.136632815,0.038987182,1.08918345
10.131729,1.707748413,2.136436462,-0.072761536,0.033361327,0.19145301,0.95661509
10.132356,-2.320571899,1.289573669,-0.263496399,-0.071252927,0.124558471,0.868846536
10.132983,-2.984329224,-0.671180725,-0.255867004,-0.084558591,-0.107253052,0.986400247
10.133608,0.090316772,-1.243385315,0.07219696,0.04227246,-0.092360474,1.052196145
10.134234,0.441268921,0.244346619,-0.004096985,0.047643553,0.04582312,1.049388528
10.13486,0.265792847,0.351158142,0.079826355,-0.066858396,-0.057936646,1.008861184
10.135485,3.157333374,-1.357826233,-0.103279114,-0.039392579,-0.134718865,1.042064309
10.137233,-11.65132141,1.76259613,-0.103279114,-0.173303708,0.12895301,0.806712747
10.13786,-8.958145142,-2.509864807,-0.637336731,-0.117761716,-0.33979699,1.042674661
10.138485,0.082687378,-2.975257874,0.018791199,0.097692385,-0.352858514,1.255565286
10.13911,6.06413269,0.877586365,0.293449402,0.108922854,-0.074660279,1.19868052
10.139735,8.246139526,1.091209412,-0.042243958,-0.047937501,-0.065627076,1.052196145
10.140362,6.849960327,0.526634216,0.377372742,-0.023767579,0.164963752,0.912791848
10.140988,1.631454468,1.060691833,0.064567566,0.036291014,0.269333869,0.840648293
10.141614,-4.319473267,1.159873962,-0.286384583,-0.00875293,0.19535926,0.864207864
10.142239,-7.409378052,0.000205994,-0.316902161,-0.058069337,-0.001784302,0.942699075
10.142866,-5.532546997,-1.022132874,0.079826355,-0.056482423,-0.155226678,1.051585793
10.143493,-0.359817505,-1.754554749,0.07219696,-0.002893555,-0.241408318,1.150584817
10.144119,2.051071167,-0.098976135,-0.072761536,0.133947268,0.122239135,1.041820168
10.144744,0.13609314,1.198020935,-0.324531555,-0.083215818,-0.057936646,1.02692759
10.145371,0.296310425,0.86995697,0.217155457,0.01090039,0.116623901,0.930125833
10.145996,-0.703140259,-0.175270081,-0.377937317,-0.062341798,-0.094923951,1.03083384
10.146621,2.028182983,-1.159461975,0.07219696,-0.001184571,-0.066847779,1.018504739
10.147247,1.394943237,0.168052673,0.07219696,0.083043948,0.126755744,1.002757668
10.147873,-3.342910767,2.121177673,-0.019355774,0.007726562,0.224289924,0.918285012
10.148498,-24.66706848,9.514060974,-0.042243958,0.718175769,2.233445168,0.061717629
10.149124,-76.70716858,16.58650971,2.02532196,-0.4336797,0.467942268,0.786937356
10.149749,-54.01734924,2.578941345,-7.74030304,-0.422205091,-1.448561668,1.210033059
10.150375,-24.95698547,-2.136024475,-3.963752747,-0.114343747,-1.212965965,1.403758645
10.151001,-4.479690552,-0.465187073,-0.454231262,0.192296878,-0.251784295,1.281077981
10.151627,-6.112380981,3.288475037,0.400260925,0.128576174,0.301316291,1.116283059
10.152252,-10.46113586,4.310813904,-0.629707336,-0.038049806,0.045212768,1.013988137
10.152879,-8.759780884,3.402915955,-0.255867004,-0.092126951,-0.197707146,0.981639504
10.153505,-4.128738403,1.365867615,-0.026985168,-0.061121095,-0.157423943,1.004832864
10.154132,-1.435562134,-0.388893127,-0.103279114,-0.04354297,-0.011305787,0.990550637
10.154757,-1.611038208,-1.006874084,0.079826355,-0.021082032,0.029099487,0.996287942
10.167805,-3.381057739,0.732627869,-0.095649719,-0.0010625,-0.012038209,1.009349465
10.168514,-3.335281372,0.824180603,-0.011726379,-0.006067383,-0.004591919,1.00349009
10.169139,-3.159805298,0.831809998,-0.202461243,-0.00496875,-0.009474732,0.998485208
10.169765,-2.72492981,0.801292419,0.056938171,-0.000330078,-0.011916138,0.994334817
10.170391,-2.427383423,0.839439392,-0.08039093,-0.009607422,-0.015944459,0.995311379
10.171017,-2.328201294,0.862327576,-0.026985168,-0.010461914,-0.026930787,0.996043801
10.171644,-1.778884888,0.770774841,-0.210090637,-0.007166016,-0.010207154,0.999950051
10.172269,-1.824661255,0.473228455,-0.118537903,-0.008997071,-0.003493286,0.999705911
10.172894,-1.450820923,0.480857849,-0.034614563,-0.009607422,-0.013503052,0.9993397
10.173521,-1.397415161,0.473228455,-0.187202454,-0.006067383,0.003342651,0.989085793
10.174148,-1.427932739,0.175682068,-0.171943665,-0.009851563,-0.009108521,0.989085793
10.174774,-0.9243927,0.129905701,0.018791199,-0.010339844,-0.019240357,0.987010598
10.175399,-0.611587524,-0.098976135,-0.309272766,-0.008508789,-0.001906372,0.989452004
10.176025,-0.726028442,-0.137123108,0.140861511,-0.003137696,-0.010573365,0.992503762
10.17665,-0.581069946,-0.060829163,0.011161804,-0.002649414,0.003586792,0.99555552
10.177277,-0.901504517,-0.053199768,0.00353241,-0.001794922,0.0027323,1.000194192
10.177903,-1.138015747,-0.068458557,0.07219696,-0.008875,-0.011305787,1.003856301
10.17853,-0.718399048,-0.037940979,-0.103279114,-0.0199834,-0.015578248,0.992137551
10.179157,-0.581069946,-0.465187073,0.102714539,-0.017053712,0.013962768,0.999095559
10.179782,-0.848098755,-0.610145569,0.011161804,0.005651367,-0.008254029,1.005809426
10.180409,-0.634475708,-0.350746155,-0.110908508,-0.007043946,0.000657104,1.015697122
10.181034,-0.916763306,-0.243934631,0.08745575,-0.006799805,0.010056518,1.001659036
10.181661,-1.115127563,-0.472816467,-0.065132141,-0.005823242,0.012497924,1.006419778
10.182286,-1.542373657,-0.327857971,0.117973328,0.000890625,-0.009596802,1.010692239
10.182912,-1.321121216,0.122276306,-0.194831848,-0.006921875,-0.004225708,1.007640481
10.183537,-1.336380005,-0.213417053,-0.126167297,-0.009973633,0.01091101,1.006297708
10.184162,-1.878067017,-0.045570374,-0.110908508,0.007604492,0.005295776,1.01105845
10.184788,-1.74836731,0.305381775,-0.16431427,-0.002649414,-0.017287232,1.019237161
10.185413,-1.542373657,0.190940857,0.041679382,-0.006555664,0.001755737,1.006663918
10.186039,-1.611038208,0.328269958,-0.118537903,-0.006311524,0.00285437,1.016307473
10.186665,-1.649185181,0.221458435,-0.049873352,-0.007776367,-0.008009888,1.008006692
10.18729,-1.550003052,0.053611755,0.00353241,-0.006311524,-0.013991334,1.004954934
10.187916,-1.504226685,0.015464783,0.049308777,-0.009607422,0.003464722,1.012889504
10.188541,-1.557632446,-0.053199768,0.011161804,-0.008142578,-0.003737427,1.009105325
10.189167,-1.366897583,0.06124115,0.018791199,-0.00875293,-0.008254029,1.007030129
10.189793,-1.153274536,-0.053199768,-0.08039093,-0.008997071,-0.007033325,1.003123879
10.190419,-1.107498169,-0.335487366,0.133232117,-0.006311524,-0.005812622,1.004954934
10.191045,-1.031204224,-0.182899475,-0.088020325,-0.006799805,0.000901245,1.010326028
10.19167,-1.214309692,-0.114234924,0.049308777,-0.009973633,-0.010695435,1.006297708
10.192296,-0.611587524,-0.297340393,-0.16431427,-0.007043946,-0.002516724,1.004588723
10.192922,-0.779434204,-0.02268219,-0.011726379,-0.00496875,-0.006545044,1.006785989
10.193548,-0.649734497,-0.320228577,0.049308777,-0.00863086,-0.010085084,1.003001809
10.194175,-0.542922974,-0.121864319,-0.126167297,-0.006311524,-0.007765747,0.99958384
10.1948,-0.443740845,-0.129493713,0.011161804,-0.002771485,-0.004591919,1.002147317
10.195426,-0.458999634,-0.304969788,0.07219696,-0.004236328,-0.002394653,1.001781106
10.196051,-0.298782349,-0.121864319,-0.187202454,-0.007166016,-0.011183716,0.996532083
10.196678,0.128463745,-0.350746155,-0.049873352,-0.005212891,-0.009840943,1.002513528
10.197304,-0.100418091,-0.160011292,0.117973328,-0.006677735,-0.002516724,1.006297708
10.209949,0.448898315,0.076499939,0.049308777,-0.006433594,-0.002028442,1.003734231
10.210693,0.479415894,-0.068458557,0.041679382,-0.004602539,-0.00495813,1.001048684
10.211318,0.441268921,0.168052673,-0.034614563,-0.007288086,-0.004103638,0.996898293
10.211943,0.509933472,0.175682068,0.011161804,-0.007166016,-0.002028442,0.998729348
10.212568,0.509933472,0.107017517,0.034049988,-0.008142578,0.000046753,1.00349009
10.213194,0.433639526,0.183311462,-0.026985168,-0.004480469,0.001023315,1.006785989
10.213819,0.296310425,0.198570251,-0.133796692,-0.00484668,-0.002516724,1.008128762
10.214444,0.448898315,0.190940857,-0.026985168,-0.00472461,-0.00105188,1.012401223
10.215069,0.349716187,0.015464783,-0.004096985,-0.005823242,-0.00105188,1.007640481
10.215695,0.235275269,0.122276306,0.034049988,-0.007043946,-0.000319458,1.004466653
10.216321,0.220016479,0.213829041,-0.019355774,-0.004114258,0.000901245,1.005931497
10.216948,0.273422241,0.053611755,-0.088020325,-0.005701172,-0.001662232,1.006297708
10.217574,0.403121948,0.084129333,-0.065132141,-0.006921875,-0.002760864,1.005809426
10.2182,0.37260437,0.084129333,0.110343933,-0.006677735,-0.000197388,1.002757668
10.218825,0.281051636,-0.007423401,-0.034614563,-0.00863086,-0.002638794,1.00324595
10.219452,0.265792847,0.190940857,-0.126167297,-0.007288086,-0.002882935,1.000926614
10.220078,0.20475769,0.045982361,-0.004096985,-0.005212891,-0.003859497,0.9993397
10.220705,0.281051636,0.244346619,0.07219696,-0.006067383,-0.002882935,0.99946177
10.221331,0.334457397,-0.053199768,-0.004096985,-0.009729492,0.001877808,0.99555552
10.221957,0.448898315,-0.015052795,0.041679382,-0.009485352,-0.001418091,0.995921731
10.222583,0.0521698,0.053611755,0.041679382,-0.007166016,-0.000075317,0.998241067
10.22321,0.006393433,0.015464783,0.095085144,-0.006677735,-0.004225708,1.000072122
10.223836,0.220016479,-0.015052795,0.026420593,-0.004114258,-0.002150513,1.001170754
10.224463,0.113204956,0.107017517,0.125602722,-0.008142578,-0.000319458,0.999217629
10.225089,0.014022827,-0.037940979,-0.156684875,-0.006555664,-0.001906372,1.002147317
10.225714,0.014022827,0.114646912,0.049308777,-0.005579102,0.000657104,1.001903176
10.226339,0.014022827,0.099388123,0.026420593,-0.003748047,-0.0050802,1.001659036
10.227034,0.143722534,0.000205994,-0.171943665,-0.005090821,0.000168823,1.006297708
10.227661,0.014022827,0.107017517,0.110343933,-0.003259766,-0.002028442,1.004344583
10.228286,0.212387085,0.244346619,0.079826355,-0.004114258,-0.001784302,1.001659036
10.228912,0.029281616,0.183311462,0.102714539,-0.007776367,-0.002150513,0.998485208
10.229538,-0.062271118,-0.02268219,0.1561203,-0.007166016,-0.000441528,1.000316262
10.230163,0.113204956,0.084129333,-0.011726379,-0.006433594,-0.001418091,0.999827981
10.23079,-0.008865356,0.038352966,0.041679382,-0.005823242,-0.00105188,0.99958384
10.231417,-0.03175354,0.053611755,0.079826355,-0.005701172,-0.001296021,1.001414895
10.232042,-0.268264771,-0.045570374,-0.126167297,-0.002649414,-0.003371216,0.997752786
10.232669,-0.008865356,0.038352966,-0.026985168,-0.005090821,-0.000807739,0.999827981
10.233295,-0.069900513,0.023094177,-0.110908508,-0.00875293,-0.000441528,1.002147317
10.233922,-0.062271118,-0.129493713,-0.202461243,-0.009851563,-0.002638794,1.003001809
10.234549,-0.176712036,-0.015052795,-0.072761536,-0.009241211,-0.002394653,1.006785989
10.235175,-0.008865356,0.091758728,0.018791199,-0.005579102,-0.004347778,1.010326028
10.2358,-0.069900513,-0.175270081,0.026420593,-0.004480469,-0.003981567,1.006663918
10.237545,-0.016494751,-0.213417053,0.140861511,-0.008142578,-0.002882935,0.995189309
10.23817,-0.130935669,-0.091346741,0.163749695,-0.004480469,-0.00495813,0.997142434
10.238796,-0.130935669,-0.373634338,0.018791199,-0.00472461,-0.005812622,1.000682473
10.239422,-0.146194458,-0.221046448,-0.088020325,-0.004236328,-0.00495813,1.001292825
10.240048,-0.024124146,-0.160011292,0.00353241,-0.005090821,-0.003005005,0.998118997
10.240674,0.20475769,-0.060829163,-0.057502747,-0.006799805,-0.002882935,1.000194192
10.25332,0.28868103,-0.243934631,-0.034614563,-0.006799805,-0.005690552,1.002025247
10.254025,0.37260437,-0.373634338,0.049308777,-0.005334961,-0.004713989,1.003612161
10.254652,0.647262573,-0.495704651,-0.202461243,-0.006189453,-0.004713989,1.002513528
10.255277,0.525192261,-0.327857971,0.285820007,-0.006433594,-0.003127075,1.002635598
10.255904,0.578598022,-0.4270401,0.011161804,-0.005945313,-0.004469849,0.999950051
10.256529,0.731185913,-0.129493713,-0.08039093,-0.007410157,-0.000075317,0.999705911
10.257155,0.822738647,-0.434669495,0.041679382,-0.005945313,-0.004347778,0.999095559
10.257781,0.761703491,-0.541481018,0.201896667,-0.005579102,-0.002882935,1.000682473
10.258406,0.616744995,-0.19052887,-0.049873352,-0.005579102,-0.003981567,0.998118997
10.259032,0.593856812,-0.488075256,0.117973328,-0.007654297,-0.0050802,0.997630715
10.259657,0.677780151,-0.388893127,0.102714539,-0.004114258,-0.003493286,1.000316262
10.260283,0.975326538,-0.289710999,-0.026985168,-0.007532227,-0.004103638,0.998973489
10.26091,0.731185913,-0.228675842,0.064567566,-0.006921875,-0.001540161,1.003123879
10.261537,0.731185913,-0.488075256,0.079826355,-0.007532227,-0.003493286,1.001659036
10.262162,0.731185913,-0.587257385,0.110343933,-0.007898438,0.000535034,1.002391458
10.262787,0.837997437,-0.495704651,-0.019355774,-0.006677735,-0.008498169,1.000316262
10.263412,0.86088562,-0.396522522,0.201896667,-0.003015625,-0.004591919,1.003978372
10.264039,0.94480896,-0.602516174,-0.095649719,-0.005457032,-0.000685669,1.000072122
10.264664,0.792221069,-0.411781311,-0.057502747,-0.004480469,0.001633667,1.000560403
10.26529,0.784591675,-0.564369202,0.133232117,-0.008997071,-0.000441528,1.002025247
10.265916,0.662521362,-0.59488678,0.133232117,-0.006189453,-0.001784302,1.005077004
10.266543,0.822738647,-0.411781311,0.095085144,-0.003503907,-0.004591919,1.003612161
10.267168,0.69303894,-0.602516174,0.140861511,-0.006189453,-0.00092981,1.007640481
10.267794,0.967697144,-0.579627991,0.07219696,-0.006799805,-0.002272583,1.005443215
10.285896,1.26524353,-0.358375549,-0.034614563,-0.001550782,0.001267456,1.005443215
10.286521,1.26524353,-0.465187073,0.140861511,-0.006799805,0.007370972,1.002025247
10.287147,1.036361694,-0.34311676,0.194267273,-0.00484668,-0.000685669,0.999950051
10.287774,1.227096558,-0.648292542,0.1561203,-0.00484668,-0.008986451,1.004832864
10.2884,1.333908081,-0.419410706,0.041679382,-0.003870117,-0.006056763,1.008617043
10.289025,1.341537476,-0.419410706,-0.019355774,-0.002283203,-0.002272583,1.008617043
10.289652,1.562789917,-0.457557678,0.079826355,-0.004114258,0.001511597,1.004466653
10.290277,1.257614136,-0.221046448,0.110343933,-0.007410157,-0.004713989,1.002147317
10.290902,1.272872925,-0.388893127,-0.034614563,-0.004480469,-0.003127075,1.005077004
10.291528,1.394943237,-0.350746155,0.011161804,-0.00472461,-0.002882935,1.005321145
10.292155,1.440719604,-0.030311584,0.026420593,-0.00472461,-0.001784302,1.005077004
10.292781,1.303390503,-0.297340393,0.049308777,-0.008386719,0.005784058,1.001903176
10.293406,1.158432007,-0.442298889,0.117973328,-0.010217774,0.00297644,0.998607278
10.294031,1.242355347,-0.4270401,-0.088020325,-0.005090821,-0.002028442,1.000926614
10.294657,1.158432007,-0.243934631,0.186637878,-0.007043946,0.000290893,1.000438333
10.295282,1.051620483,-0.243934631,-0.049873352,-0.005579102,-0.00862024,1.003001809
10.295907,1.387313843,-0.358375549,0.140861511,-0.004358399,-0.001784302,1.006541848
10.296534,1.11265564,-0.465187073,0.301078796,-0.00875293,0.00297644,0.999095559
10.297159,1.257614136,-0.098976135,-0.004096985,-0.003992188,-0.009718873,1.004344583
10.297786,1.394943237,-0.198158264,0.201896667,-0.00472461,0.00663855,1.006541848
10.298411,1.204208374,-0.243934631,-0.026985168,-0.006433594,-0.004469849,0.997142434
10.299038,1.471237183,-0.381263733,0.049308777,-0.003503907,0.002488159,1.000926614
10.299664,1.379684448,-0.350746155,0.041679382,-0.005945313,-0.003737427,0.999095559
10.30029,1.227096558,-0.404151917,0.1561203,-0.007410157,0.002366089,1.001414895
10.312989,1.951889038,-0.076087952,0.041679382,0.001134765,0.001145386,1.000804543
10.31376,2.066329956,-0.137123108,-0.034614563,-0.007776367,-0.007643677,1.007518411
10.314385,1.906112671,-0.129493713,0.095085144,-0.01265918,0.006394409,0.996043801
10.315011,1.974777222,-0.167640686,0.026420593,-0.00484668,0.008347534,0.998485208
10.315638,1.951889038,-0.091346741,-0.278755188,0.006017578,-0.018263794,1.008372903
10.316263,2.508834839,0.045982361,-0.103279114,-0.013879883,-0.011916138,1.009593606
10.316889,2.226547241,-0.152381897,0.018791199,-0.002771485,0.008591674,0.992259622
10.317516,2.066329956,0.14516449,-0.126167297,0.004186523,0.00297644,1.009349465
10.318143,2.218917847,0.038352966,-0.072761536,-0.021570314,-0.014357544,1.004954934
10.318769,2.424911499,-0.02268219,-0.141426086,-0.000696289,-0.000685669,0.993846536
10.319396,2.234176636,0.183311462,0.026420593,-0.004236328,0.000657104,1.014110208
10.320021,2.257064819,0.023094177,-0.103279114,-0.004480469,-0.009108521,0.998485208
10.320647,2.615646362,0.000205994,-0.095649719,-0.005945313,-0.010085084,1.008861184
10.321273,2.539352417,-0.198158264,0.095085144,-0.008264649,0.001511597,0.997386575
10.321899,2.859786987,-0.007423401,-0.026985168,-0.009485352,-0.003615357,0.998118997
10.322524,2.737716675,-0.175270081,0.018791199,-0.001916992,0.000779175,1.003123879
10.323151,2.806381226,-0.19052887,-0.004096985,0.000280273,0.005173706,1.00336802
10.323776,2.615646362,-0.10660553,0.07219696,-0.005334961,-0.006667114,1.00349009
10.324401,2.913192749,0.137535095,-0.171943665,-0.007288086,-0.008009888,1.001536965
10.325027,2.783493042,-0.045570374,-0.034614563,-0.005945313,0.008957885,1.002757668
10.325654,2.585128784,0.000205994,-0.141426086,-0.002649414,-0.00117395,1.002025247
10.32628,2.707199097,0.053611755,0.034049988,-0.006311524,-0.002760864,1.003001809
10.326906,2.64616394,0.137535095,0.041679382,-0.008020508,-0.002150513,1.001170754
10.327531,2.852157593,0.091758728,-0.202461243,-0.003259766,0.005417847,1.000804543
10.328157,2.524093628,-0.091346741,0.00353241,-0.004358399,-0.001540161,1.002635598
10.328782,2.783493042,-0.015052795,-0.110908508,0.001623047,-0.005202271,1.008861184
10.329463,2.791122437,0.198570251,-0.271125793,-0.007532227,-0.005324341,1.003734231
10.330089,2.882675171,0.251976013,0.026420593,-0.006311524,0.004563354,1.000560403
10.330714,2.806381226,0.137535095,0.00353241,-0.008508789,0.002488159,1.002147317
10.331339,2.669052124,0.084129333,0.102714539,-0.005579102,0.000779175,1.002513528
10.331964,2.623275757,0.053611755,-0.057502747,-0.003381836,-0.003737427,1.004832864
10.332589,2.890304565,-0.007423401,-0.179573059,-0.001672852,-0.00495813,1.001903176
10.333215,2.836898804,0.343528748,-0.088020325,-0.002771485,-0.001784302,1.005443215
10.333842,2.867416382,-0.121864319,-0.171943665,-0.008264649,-0.001906372,1.004954934
10.334468,2.852157593,0.22908783,0.056938171,-0.006921875,-0.005202271,1.005443215
10.335093,3.027633667,0.198570251,-0.088020325,-0.00496875,-0.002638794,1.003612161
10.335719,2.836898804,0.190940857,-0.179573059,-0.007410157,0.003708862,1.001048684
10.336346,2.821640015,0.038352966,-0.042243958,-0.00863086,0.000168823,0.99958384
10.338093,3.225997925,0.152793884,0.140861511,-0.001184571,0.005417847,1.004466653
10.338719,3.103927612,0.023094177,-0.187202454,-0.002771485,-0.000197388,1.002147317
10.339345,3.21836853,-0.076087952,0.186637878,-0.008264649,-0.007887818,1.008006692
10.339971,3.126815796,0.129905701,-0.019355774,-0.003381836,0.004929565,0.998851418
10.340597,3.088668823,-0.015052795,0.08745575,-0.004358399,0.00285437,1.001414895
10.341223,3.203109741,-0.030311584,-0.08039093,-0.009241211,-0.000685669,1.002391458
10.34185,3.30229187,-0.144752502,-0.149055481,-0.001428711,-0.001662232,1.004466653
10.342476,3.187850952,0.152793884,0.034049988,-0.0010625,-0.008009888,1.009105325
10.343101,3.203109741,0.137535095,-0.049873352,-0.00496875,-0.003737427,1.006541848
10.343728,3.531173706,0.091758728,-0.042243958,-0.011560547,-0.001540161,1.00336802
10.344354,3.668502808,-0.007423401,0.064567566,-0.007898438,-0.011061646,1.005687356
10.357014,2.234176636,-0.137123108,0.041679382,-0.009607422,0.067429565,0.959300637
10.357713,0.899032593,-0.068458557,0.041679382,-0.005579102,0.037034057,0.966991067
10.358338,0.426010132,-0.289710999,0.011161804,-0.00094043,-0.002272583,0.99555552
10.358964,0.792221069,-0.19052887,0.140861511,-0.005701172,-0.03205774,1.016429543
10.359589,1.723007202,-0.25919342,-0.065132141,-0.005701172,-0.029494263,1.023753762
10.360214,2.264694214,-0.037940979,0.064567566,-0.00094043,-0.000319458,1.009349465
10.360839,1.83744812,0.045982361,0.102714539,-0.00472461,0.021286987,0.993480325
10.361464,1.158432007,-0.091346741,0.07219696,-0.00863086,0.030076049,0.979076028
10.36209,0.69303894,0.007835388,-0.019355774,-0.009485352,0.015793823,0.984325051
10.362717,0.609115601,-0.098976135,0.064567566,-0.009607422,-0.004591919,1.000682473
10.363344,0.899032593,-0.282081604,0.095085144,-0.005334961,-0.015334107,1.012767434
10.363971,1.066879272,-0.083717346,0.194267273,-0.0010625,-0.009352662,1.010448098
10.364598,1.249984741,0.129905701,0.095085144,-0.003870117,0.004075073,1.005931497
10.365224,1.234725952,-0.205787659,-0.118537903,-0.007288086,0.015305541,0.997874856
10.365851,0.822738647,-0.167640686,-0.034614563,-0.003259766,0.017258666,0.993724465
10.366476,0.45652771,0.190940857,0.079826355,-0.004236328,0.006516479,0.997874856
10.367102,0.494674683,-0.121864319,-0.034614563,-0.005823242,-0.004103638,1.003612161
10.367728,0.555709839,-0.045570374,-0.026985168,-0.005457032,-0.006300903,1.008006692
10.368355,0.94480896,0.045982361,-0.08039093,-0.005701172,-0.000441528,1.007030129
10.368982,0.578598022,0.076499939,0.056938171,-0.004114258,0.007126831,1.00324595
10.369609,0.754074097,0.030723572,0.079826355,-0.005334961,0.010300659,0.998241067
10.370236,0.479415894,0.183311462,0.00353241,-0.004114258,0.010178588,1.001414895
10.370861,0.37260437,0.29775238,0.117973328,-0.003870117,0.001633667,1.003856301
10.371486,0.380233765,0.107017517,0.064567566,-0.005090821,-0.003981567,1.001536965
10.372112,0.586227417,0.045982361,0.1561203,-0.005457032,-0.002150513,1.006663918
10.372738,0.830368042,0.259605408,-0.118537903,0.027135741,-0.018630005,1.017650247
10.373364,1.082138062,0.686851501,0.011161804,-0.016565431,0.00297644,1.026073098
10.373989,1.066879272,0.335899353,0.293449402,-0.024500001,-0.004225708,0.984325051
10.374616,0.921920776,-0.167640686,0.079826355,-0.010095703,0.023240112,0.987376809
10.375241,0.410751343,-0.121864319,-0.065132141,0.003576172,0.021042846,0.995189309
10.375867,0.075057983,0.236717224,0.125602722,-0.000085938,0.004197143,1.003612161
10.376492,0.174240112,0.068870544,-0.210090637,-0.008386719,-0.009840943,1.009227395
10.377119,0.723556519,0.030723572,0.095085144,-0.008142578,-0.009230591,1.012035012
10.377746,0.761703491,0.084129333,-0.088020325,-0.002527344,-0.003737427,1.009105325
10.378371,0.899032593,0.045982361,-0.019355774,-0.005701172,0.002121948,1.006541848
10.378998,0.69303894,0.206199646,-0.072761536,-0.009485352,0.003586792,1.001048684
10.379623,0.77696228,0.000205994,-0.057502747,-0.007043946,0.003342651,1.002025247
10.380249,0.662521362,0.045982361,0.018791199,-0.007410157,0.001389526,1.000926614
10.380875,0.563339233,-0.015052795,-0.088020325,-0.006921875,0.005539917,1.000072122
10.3815,0.37260437,-0.152381897,-0.019355774,-0.004114258,0.005784058,1.000926614
10.382125,0.578598022,-0.037940979,0.011161804,-0.004602539,0.001999878,1.003612161
10.382752,0.426010132,0.053611755,0.079826355,-0.009485352,0.003708862,1.002391458
10.383377,0.418380737,0.007835388,-0.118537903,-0.005334961,-0.000319458,1.004100442
10.38401,0.494674683,-0.030311584,0.034049988,-0.003748047,0.0027323,1.00349009
10.384637,0.479415894,-0.266822815,-0.034614563,-0.004114258,-0.000075317,1.003123879
10.385264,0.357345581,-0.129493713,0.064567566,-0.005334961,0.003708862,1.001170754
10.385891,0.517562866,-0.060829163,-0.057502747,-0.005823242,0.00297644,1.003856301
10.386517,0.258163452,-0.037940979,0.034049988,-0.006067383,0.007126831,0.999827981
10.399203,0.0521698,0.5495224,0.049308777,-0.004236328,0.001755737,1.010203958
10.399935,-0.077529907,0.366416931,0.056938171,-0.023279298,-0.000807739,0.992259622
10.40056,0.227645874,-0.098976135,-0.141426086,-0.002527344,0.004929565,0.993480325
10.401185,-0.069900513,0.06124115,0.163749695,-0.007898438,0.017869018,1.003856301
10.401811,-0.359817505,0.091758728,0.056938171,-0.009119141,0.007248901,0.993480325
10.402436,-0.504776001,0.000205994,0.049308777,-0.011560547,0.001633667,0.999705911
10.403063,-0.497146606,-0.015052795,-0.026985168,0.00296582,-0.004103638,1.006175637
10.403689,-0.375076294,-0.015052795,0.133232117,-0.000574219,0.001877808,1.0149647
10.404314,-0.184341431,0.14516449,-0.072761536,-0.005090821,-0.00117395,1.006785989
10.404939,-0.413223267,0.351158142,-0.049873352,-0.004236328,0.012986206,0.998485208
10.405565,-0.451370239,0.267234802,0.117973328,-0.003870117,0.006150268,0.997020364
10.40619,-0.451370239,0.129905701,-0.202461243,-0.003259766,-0.002272583,1.002147317
10.406817,-0.535293579,0.084129333,-0.118537903,-0.00472461,-0.007277466,1.006297708
10.407444,-0.565811157,0.396934509,-0.110908508,-0.001306641,-0.000197388,1.011546731
10.408071,-0.28352356,0.427452087,0.110343933,-0.003503907,-0.008009888,1.005565286
10.408697,-0.077529907,0.480857849,-0.019355774,-0.014734375,-0.000075317,1.00727427
10.409323,-0.306411743,0.38167572,0.095085144,-0.012170899,0.005417847,0.990550637
10.409948,-0.19960022,-0.076087952,-0.156684875,-0.017786134,0.001633667,0.994456887
10.410573,-0.260635376,-0.213417053,0.026420593,-0.016931642,0.001511597,0.992137551
10.411198,-0.176712036,-0.236305237,0.08745575,-0.002527344,-0.002516724,1.002879739
10.411823,-0.321670532,-0.098976135,0.00353241,0.003332031,-0.000319458,1.011668801
10.412449,0.128463745,0.213829041,-0.042243958,0.000768554,-0.008009888,1.010936379
10.413076,0.105575562,0.374046326,-0.08039093,-0.003748047,-0.004347778,1.006663918
10.413702,0.273422241,0.221458435,-0.011726379,-0.007043946,0.000779175,1.005443215
10.414328,0.464157104,0.450340271,0.095085144,-0.001794922,-0.000441528,1.002147317
10.414954,0.166610718,0.526634216,-0.026985168,-0.007410157,-0.001906372,1.004466653
10.41558,0.403121948,0.29775238,0.247673035,-0.007166016,0.000046753,1.003612161
10.416206,0.37260437,0.22908783,-0.019355774,-0.011926758,-0.004591919,1.002879739
10.416831,0.746444702,-0.037940979,-0.08039093,-0.010095703,0.005661987,1.003856301
10.417457,0.403121948,0.091758728,0.08745575,-0.008997071,0.005906128,0.996898293
10.418083,0.250534058,-0.221046448,0.011161804,-0.010217774,0.00297644,0.997386575
10.418709,0.487045288,-0.045570374,0.049308777,-0.004236328,0.005295776,1.002635598
10.419334,0.029281616,-0.144752502,0.133232117,0.00687207,0.006150268,1.00349009
10.419959,0.20475769,-0.015052795,0.095085144,-0.0010625,-0.008131959,1.009959817
10.420584,0.54045105,0.389305115,-0.026985168,-0.000574219,-0.009474732,1.009837747
10.42121,0.69303894,0.213829041,0.049308777,-0.005823242,0.004807495,1.009105325
10.421837,0.677780151,0.038352966,0.08745575,-0.01253711,-0.003371216,0.998118997
10.422463,0.517562866,-0.037940979,0.102714539,-0.01253711,0.015427612,0.996532083
10.423089,0.250534058,-0.213417053,-0.179573059,-0.003992188,0.009690307,0.992869973
10.423714,0.273422241,-0.282081604,-0.019355774,-0.007654297,-0.004713989,1.006541848
10.424339,0.387863159,-0.10660553,0.034049988,-0.001550782,-0.007887818,1.010936379
10.424966,0.471786499,-0.10660553,-0.011726379,-0.001184571,-0.006300903,1.008006692
10.425592,0.632003784,-0.121864319,0.24004364,-0.00472461,-0.00483606,1.004344583
10.426218,0.761703491,-0.152381897,0.064567566,-0.006799805,0.00297644,0.9993397
10.426843,0.570968628,-0.182899475,-0.072761536,-0.003015625,0.007126831,0.997142434
10.427469,0.609115601,-0.137123108,0.026420593,-0.001916992,0.008591674,0.998851418
10.428096,0.357345581,0.007835388,0.011161804,0.001256836,-0.005202271,1.004466653
10.428721,0.685409546,-0.045570374,-0.126167297,0.001623047,-0.007399536,1.017650247
10.429346,0.715927124,0.175682068,0.117973328,-0.00472461,0.002366089,1.004100442
10.443141,-0.298782349,0.107017517,-0.110908508,-0.002527344,0.000046753,1.005443215
10.443806,0.059799194,-0.060829163,0.24004364,0.004674804,-0.003981567,1.010570168
10.444432,0.128463745,0.29775238,0.041679382,-0.004480469,-0.005934692,1.011546731
10.445057,0.227645874,0.244346619,0.018791199,-0.005457032,-0.000685669,1.001170754
10.445683,0.189498901,0.290122986,0.034049988,-0.008264649,0.000535034,0.997874856
10.446308,0.319198608,0.023094177,0.064567566,-0.007532227,0.004197143,1.000072122
10.446935,0.349716187,-0.030311584,0.08745575,-0.009851563,-0.001418091,0.999705911
10.44756,0.250534058,-0.02268219,0.041679382,-0.012415039,0.001633667,1.001170754
10.448187,0.212387085,-0.480445862,0.07219696,-0.010950196,-0.002516724,1.002757668
10.448814,0.601486206,-0.556739807,-0.072761536,-0.008020508,0.002610229,1.002147317
10.449439,0.487045288,-0.480445862,0.08745575,-0.003992188,0.006272339,1.002513528
10.450064,0.20475769,-0.556739807,-0.072761536,-0.003992188,0.001877808,1.002757668
10.450691,0.410751343,-0.533851624,0.034049988,-0.000330078,0.002121948,1.003978372
10.451316,0.265792847,-0.251564026,-0.042243958,-0.002893555,-0.001784302,1.007030129
10.451943,0.548080444,-0.205787659,0.270561218,0.004308593,-0.003249146,1.009837747
10.452568,0.410751343,0.000205994,0.08745575,-0.0010625,0.00663855,1.008983254
10.453193,0.433639526,-0.114234924,0.095085144,-0.008142578,-0.00886438,1.000804543
10.45382,0.578598022,-0.205787659,0.026420593,-0.00863086,0.012619995,0.999217629
10.454446,0.357345581,-0.030311584,0.194267273,-0.010339844,0.005784058,0.989940286
10.455071,0.258163452,-0.152381897,-0.16431427,-0.00484668,0.009568237,0.998973489
10.455697,-0.146194458,-0.037940979,0.186637878,-0.006311524,0.012375854,0.996043801
10.456322,-0.253005981,-0.068458557,-0.16431427,-0.000085938,-0.001662232,1.003978372
10.456948,-0.108047485,-0.10660553,0.041679382,0.000524414,-0.006911255,1.015452981
10.457574,0.601486206,0.29775238,0.049308777,-0.003625977,0.002121948,1.009959817
10.4582,0.342086792,0.213829041,0.179008484,-0.009607422,0.001511597,0.993236184
10.458826,0.28868103,-0.121864319,0.026420593,-0.007898438,0.007615112,0.992992043
10.459451,-0.03175354,0.000205994,-0.103279114,-0.003625977,0.007981323,0.996532083
10.460077,0.029281616,-0.083717346,-0.072761536,-0.0010625,-0.002150513,1.005443215
10.460703,-0.077529907,-0.037940979,0.163749695,-0.008875,-0.004469849,1.002147317
10.46133,0.143722534,-0.076087952,-0.126167297,-0.005701172,-0.00886438,1.00727427
10.461956,0.403121948,0.030723572,0.064567566,-0.009363282,0.009690307,1.003612161
10.462583,0.090316772,-0.02268219,0.034049988,-0.002039063,0.000901245,0.997996926
10.463208,0.021652222,-0.137123108,-0.110908508,-0.003503907,0.010178588,1.004710793
10.463833,0.258163452,-0.045570374,0.00353241,-0.008020508,-0.000075317,0.999095559
10.464459,0.441268921,0.023094177,-0.026985168,-0.002405274,-0.008009888,1.005321145
10.465084,0.311569214,-0.10660553,-0.011726379,-0.003137696,0.004929565,1.006785989
10.465709,0.342086792,-0.045570374,0.102714539,-0.012292969,-0.006422974,0.992992043
10.466335,0.433639526,-0.030311584,0.07219696,-0.003137696,0.006272339,0.998241067
10.466961,-0.077529907,-0.045570374,0.232414246,0.001500976,0.004319214,1.004832864
10.467587,0.212387085,0.183311462,-0.065132141,-0.000330078,0.000412964,1.00727427
10.468212,0.487045288,0.198570251,-0.004096985,-0.00484668,-0.00495813,1.005931497
10.468839,0.632003784,0.030723572,0.148490906,-0.006921875,0.00297644,1.002879739
10.469465,0.403121948,-0.160011292,-0.004096985,-0.008264649,0.00297644,0.999827981
10.470091,0.502304077,-0.152381897,0.026420593,-0.006555664,0.008591674,1.001292825
10.470717,0.128463745,0.000205994,0.148490906,-0.006799805,0.002610229,0.996410012
10.471344,0.349716187,-0.243934631,-0.034614563,-0.013513672,0.002610229,0.996898293
10.471969,0.250534058,-0.434669495,0.133232117,-0.003992188,0.006516479,1.002757668
10.472595,0.151351929,-0.213417053,0.1561203,-0.00081836,0.003220581,1.001048684
10.485269,0.181869507,-0.167640686,0.095085144,-0.008142578,0.000535034,1.002025247
10.485981,0.197128296,-0.10660553,0.056938171,-0.002649414,0.000779175,0.999217629
10.486607,0.105575562,-0.121864319,-0.065132141,-0.005090821,0.000535034,1.001659036
10.487234,0.296310425,-0.289710999,-0.042243958,-0.006189453,0.001999878,1.001414895
10.48786,0.120834351,-0.068458557,0.041679382,-0.003625977,0.000901245,0.998851418
10.488487,0.326828003,-0.236305237,0.163749695,-0.004480469,0.001755737,1.002147317
10.489113,0.166610718,-0.358375549,-0.126167297,-0.007410157,-0.000807739,1.001903176
10.489738,0.494674683,0.114646912,-0.088020325,-0.005823242,-0.000563599,1.00324595
10.490363,0.296310425,0.114646912,0.064567566,-0.005334961,0.001755737,1.00324595
10.49099,0.387863159,-0.198158264,-0.072761536,-0.003625977,0.0027323,1.001903176
10.491615,0.334457397,-0.152381897,-0.034614563,-0.005212891,0.002121948,1.000438333
10.49224,0.242904663,-0.228675842,-0.019355774,-0.005579102,0.003342651,1.003123879
10.492867,0.158981323,0.045982361,0.125602722,-0.005212891,0.004075073,1.003734231
10.493493,0.13609314,0.107017517,-0.004096985,-0.00094043,0.005051636,1.004588723
10.494118,0.212387085,-0.129493713,0.201896667,-0.004602539,0.002366089,1.004588723
10.494745,0.258163452,0.152793884,-0.004096985,-0.006555664,0.003342651,1.003856301
10.49537,0.189498901,0.045982361,0.018791199,-0.004480469,0.003708862,1.002635598
10.495995,0.13609314,0.198570251,-0.065132141,-0.00484668,0.004563354,1.001292825
10.496621,0.235275269,0.045982361,0.056938171,-0.005579102,0.006394409,1.005565286
10.497247,0.075057983,0.007835388,-0.118537903,-0.003748047,0.001877808,1.001048684
10.497874,-0.047012329,-0.007423401,0.041679382,-0.003625977,0.00285437,1.001903176
10.498501,0.20475769,-0.076087952,-0.118537903,-0.003015625,0.000901245,1.001659036
10.499127,0.212387085,0.114646912,0.041679382,-0.007043946,0.001511597,1.002025247
10.499753,0.105575562,0.06124115,0.079826355,-0.004358399,0.000290893,1.000682473
10.500379,-0.108047485,0.015464783,-0.194831848,-0.009729492,0.000168823,1.001659036
10.501013,-0.024124146,0.244346619,-0.019355774,-0.003259766,0.002244018,1.001048684
10.501639,-0.069900513,-0.02268219,0.026420593,-0.004114258,0.001511597,1.002269387
10.502265,-0.024124146,-0.083717346,0.034049988,-0.005823242,-0.00117395,1.000316262
10.50289,-0.03175354,0.053611755,-0.225349426,-0.008508789,0.001511597,1.002635598
10.503516,0.075057983,-0.015052795,0.255302429,-0.008264649,0.001145386,1.003734231
10.504141,0.113204956,-0.068458557,0.041679382,-0.006189453,0.000046753,1.000072122
10.504766,0.151351929,0.091758728,0.125602722,-0.006555664,-0.000563599,1.002513528
10.505393,0.105575562,0.068870544,0.056938171,-0.003870117,-0.001296021,1.003734231
10.506018,0.090316772,-0.083717346,-0.004096985,-0.006555664,0.000779175,1.000560403
10.506643,-0.024124146,0.107017517,0.217155457,-0.002405274,0.000412964,1.002635598
10.507269,0.273422241,-0.175270081,-0.004096985,-0.002039063,0.001633667,1.000926614
10.507894,0.319198608,-0.167640686,0.011161804,-0.005334961,0.001999878,1.001659036
10.508521,0.334457397,0.129905701,0.079826355,-0.002527344,0.000779175,1.00349009
10.509147,0.235275269,-0.091346741,-0.049873352,-0.005457032,0.001633667,1.004466653
10.509772,-0.001235962,-0.045570374,0.186637878,-0.006677735,0.001633667,1.005199075
10.510398,0.181869507,-0.182899475,0.018791199,-0.006921875,0.001023315,1.003123879
10.511024,0.090316772,-0.083717346,-0.088020325,-0.003748047,0.001633667,1.005687356
10.51165,0.433639526,-0.068458557,0.117973328,-0.00496875,0.003708862,1.002879739
10.512275,0.143722534,-0.030311584,0.232414246,-0.005579102,0.000535034,1.002879739
10.512902,0.212387085,-0.030311584,-0.110908508,-0.006189453,0.001877808,1.00349009
10.513528,0.334457397,0.137535095,0.133232117,-0.005457032,0.002610229,1.001659036
10.514154,0.174240112,0.114646912,0.095085144,-0.005212891,0.001145386,0.999217629
10.514781,0.120834351,-0.221046448,-0.011726379,-0.00484668,0.000901245,1.001414895
10.515407,0.044540405,0.038352966,-0.065132141,-0.004358399,0.004929565,1.002391458
10.546809,0.0521698,0.023094177,-0.156684875,-0.005701172,0.000901245,1.002635598
10.547541,-0.153823853,-0.015052795,0.133232117,-0.007654297,0.002244018,1.001292825
10.548168,-0.047012329,-0.198158264,0.163749695,-0.006677735,0.0027323,1.004588723
10.548794,0.097946167,0.183311462,0.034049988,-0.006799805,0.002366089,1.001048684
10.54942,0.075057983,-0.060829163,0.026420593,-0.006677735,0.002121948,1.002513528
10.550045,0.113204956,-0.098976135,-0.011726379,-0.006189453,0.001633667,1.00336802
10.55067,0.113204956,0.183311462,0.095085144,-0.007043946,0.000657104,1.002635598
10.551295,0.0521698,-0.10660553,-0.072761536,-0.006555664,0.001389526,1.002635598
10.551922,-0.108047485,-0.007423401,0.056938171,-0.006433594,0.00297644,1.001170754
10.552548,0.105575562,0.122276306,0.08745575,-0.006921875,-0.00105188,1.004344583
10.553173,0.059799194,0.000205994,-0.210090637,-0.005457032,-0.000075317,1.005931497
10.553798,0.029281616,-0.19052887,-0.065132141,-0.007898438,0.000901245,1.004466653
10.554425,0.014022827,0.213829041,-0.042243958,-0.006067383,0.003830933,1.001659036
10.55505,-0.039382935,0.000205994,0.1561203,-0.005701172,0.001145386,1.003001809
10.555675,0.166610718,0.160423279,0.186637878,-0.002893555,0.004441284,1.003856301
10.5563,0.0521698,-0.007423401,-0.126167297,-0.006067383,0.001023315,1.004588723
10.556927,-0.184341431,-0.02268219,-0.026985168,-0.005090821,0.001877808,1.004832864
10.557554,0.120834351,0.076499939,0.270561218,-0.008020508,0.001389526,1.001903176
10.55818,0.105575562,0.015464783,-0.103279114,-0.005945313,0.002244018,1.003612161
10.558805,-0.03175354,-0.045570374,0.07219696,-0.003503907,-0.00117395,1.002391458
10.559432,0.075057983,-0.02268219,-0.126167297,-0.00496875,0.002121948,1.000682473
10.560058,-0.069900513,0.107017517,0.049308777,-0.004602539,0.002488159,0.9993397
10.560684,-0.008865356,0.030723572,0.064567566,-0.005090821,0.001389526,1.003001809
10.561309,-0.19960022,-0.030311584,-0.057502747,-0.00472461,0.001877808,1.004466653
10.561934,0.113204956,0.045982361,-0.126167297,-0.003625977,0.003586792,1.000926614
10.562559,-0.069900513,-0.10660553,-0.103279114,-0.003992188,0.001389526,1.002025247
10.563185,-0.092788696,0.152793884,0.041679382,-0.006311524,0.002610229,1.000926614
10.563811,-0.176712036,0.038352966,0.140861511,-0.008142578,0.000535034,1.002025247
10.564436,-0.047012329,-0.030311584,-0.141426086,-0.007654297,0.002488159,1.004832864
10.565061,0.090316772,0.129905701,-0.011726379,-0.006189453,0.001877808,1.002513528
10.565686,0.075057983,0.137535095,0.102714539,-0.005823242,0.002244018,1.000682473
10.566311,-0.153823853,-0.045570374,0.110343933,-0.006189453,0.001145386,1.002391458
10.566936,0.174240112,-0.030311584,-0.072761536,-0.003015625,0.00297644,1.005199075
10.567561,-0.047012329,0.068870544,-0.004096985,-0.005945313,-0.000441528,1.001170754
10.568188,0.128463745,0.107017517,0.07219696,-0.006555664,0.00285437,1.004222512
10.568813,0.059799194,0.122276306,-0.057502747,-0.006799805,0.000535034,1.006053567
10.56944,-0.03175354,-0.175270081,-0.019355774,-0.005579102,0.000535034,1.000194192
10.570065,-0.054641724,0.244346619,0.011161804,-0.006067383,0.002366089,1.004100442
10.570692,0.303939819,-0.10660553,-0.019355774,-0.007043946,0.000168823,1.003001809
10.571318,-0.047012329,-0.144752502,0.179008484,-0.004480469,0.001755737,1.000682473
10.571944,-0.085159302,-0.045570374,-0.133796692,-0.006555664,0.000046753,1.005199075
10.57257,-0.047012329,0.015464783,-0.049873352,-0.006555664,0.001633667,1.003856301
10.573197,0.036911011,0.091758728,0.026420593,-0.003137696,0.0027323,1.00336802
10.573822,0.021652222,0.053611755,0.079826355,-0.008264649,0.001267456,1.003856301
10.574447,0.059799194,0.053611755,-0.011726379,-0.00496875,0.003953003,1.001536965
10.575074,0.090316772,-0.266822815,0.056938171,-0.007898438,0.002488159,1.000926614
10.575699,0.021652222,-0.114234924,0.079826355,-0.004602539,0.004929565,0.99946177
10.576325,0.021652222,-0.243934631,0.00353241,-0.003503907,0.003220581,1.001536965
10.589092,-0.024124146,0.007835388,-0.08039093,-0.006799805,0.004685425,1.002757668
10.589858,-0.03175354,-0.060829163,0.049308777,-0.004602539,0.001755737,0.998851418
10.590485,0.174240112,0.282493591,0.08745575,-0.005823242,0.000657104,1.004100442
10.591111,0.220016479,-0.10660553,0.011161804,-0.006433594,0.001389526,1.003001809
10.591736,0.13609314,-0.015052795,0.148490906,-0.005334961,0.003586792,1.001292825
10.592361,0.189498901,-0.02268219,-0.004096985,-0.006189453,0.000657104,1.002147317
10.592987,0.250534058,-0.182899475,0.056938171,-0.005457032,0.001877808,0.997874856
10.593612,0.143722534,0.053611755,0.148490906,-0.007532227,0.000779175,1.002025247
10.594237,-0.016494751,-0.030311584,-0.126167297,-0.005945313,0.001999878,1.002147317
10.594863,0.319198608,0.030723572,0.064567566,-0.005945313,0.000901245,0.999705911
10.59549,0.105575562,0.06124115,0.00353241,-0.007898438,0.001023315,1.00324595
10.596117,0.090316772,0.114646912,0.00353241,-0.001916992,-0.000197388,1.001659036
10.596742,0.410751343,0.045982361,0.08745575,-0.004602539,0.002366089,1.003123879
10.597367,0.235275269,0.038352966,-0.034614563,-0.006555664,0.003708862,1.002513528
10.597994,0.364974976,-0.007423401,0.102714539,-0.002527344,0.000901245,1.005321145
10.598621,-0.03175354,0.045982361,0.011161804,-0.00496875,0.001877808,1.001659036
10.599246,0.319198608,-0.015052795,-0.019355774,-0.005334961,0.003220581,1.001903176
10.599872,-0.001235962,-0.083717346,0.018791199,-0.005945313,0.004685425,1.004222512
10.600497,0.197128296,-0.10660553,0.117973328,-0.007654297,0.002244018,1.001903176
10.601123,0.227645874,0.023094177,-0.126167297,-0.006067383,0.001389526,1.002391458
10.60175,0.097946167,0.221458435,-0.004096985,-0.00484668,0.001755737,1.002635598
10.602376,0.075057983,-0.045570374,0.079826355,-0.004602539,0.001511597,1.00324595
10.603001,0.120834351,0.427452087,-0.149055481,-0.005579102,0.001389526,1.004710793
10.603627,0.059799194,-0.015052795,-0.072761536,-0.003381836,0.003586792,1.003123879
10.604253,-0.024124146,0.053611755,-0.110908508,-0.002893555,0.003098511,1.004100442
10.604879,0.20475769,0.366416931,0.064567566,-0.006799805,0.003830933,1.003001809
10.605504,-0.039382935,-0.037940979,0.163749695,-0.00484668,0.001755737,1.002635598
10.60613,0.029281616,0.122276306,0.217155457,-0.006067383,0.000168823,1.003734231
10.606755,0.181869507,0.267234802,0.117973328,-0.007898438,0.003220581,1.00336802
10.607381,0.044540405,0.137535095,0.064567566,-0.005823242,0.003220581,1.002513528
10.608012,0.097946167,0.137535095,0.049308777,-0.005212891,0.000290893,1.006053567
10.608637,0.296310425,-0.030311584,-0.042243958,-0.007288086,0.001877808,1.00324595
10.609264,0.158981323,0.107017517,0.293449402,-0.002039063,0.003342651,1.003734231
10.609891,-0.047012329,0.137535095,0.163749695,-0.007288086,0.00285437,1.002757668
10.610516,0.166610718,0.190940857,-0.126167297,-0.006311524,0.004807495,1.001292825
10.611142,0.105575562,0.290122986,0.079826355,-0.006433594,0.002244018,1.00349009
10.611769,-0.024124146,0.137535095,0.117973328,-0.007043946,0.00285437,1.001414895
10.612396,0.0521698,0.168052673,0.117973328,-0.004236328,0.000046753,1.002513528
10.613021,0.189498901,0.236717224,0.110343933,-0.007288086,0.0027323,1.005321145
10.613646,0.044540405,0.129905701,0.011161804,-0.005457032,0.003830933,1.004954934
10.614272,0.158981323,0.221458435,-0.149055481,-0.00472461,-0.000075317,1.003978372
10.614897,-0.047012329,0.221458435,-0.004096985,-0.007166016,0.002121948,1.00324595
10.615522,0.075057983,0.015464783,0.102714539,-0.008264649,0.002121948,1.00349009
10.616147,0.113204956,0.213829041,0.1561203,-0.004602539,0.001023315,0.998607278
10.616773,0.105575562,0.183311462,0.209526062,-0.005457032,0.002121948,1.002635598
10.617399,0.006393433,0.045982361,-0.095649719,-0.005090821,-0.00105188,1.003978372
10.618026,0.189498901,0.160423279,0.018791199,-0.003748047,0.003098511,1.001659036
10.618651,0.273422241,-0.037940979,0.056938171,-0.007166016,0.00285437,1.002879739
10.619276,0.128463745,0.007835388,0.125602722,-0.005457032,-0.00117395,1.002635598
10.631918,-0.100418091,0.076499939,-0.088020325,-0.00496875,0.003464722,1.004222512
10.632634,-0.085159302,0.084129333,0.179008484,-0.006555664,0.001389526,1.001536965
10.63326,-0.008865356,-0.121864319,0.110343933,-0.005090821,0.001023315,1.001292825
10.633885,-0.03175354,0.091758728,-0.042243958,-0.007410157,0.001145386,1.004344583
10.634512,0.151351929,0.274864197,0.049308777,-0.005212891,0.00297644,1.001170754
10.635138,0.0521698,0.076499939,-0.118537903,-0.006433594,0.000046753,1.00324595
10.635764,0.128463745,0.137535095,-0.088020325,-0.005212891,0.001633667,1.004100442
10.636392,0.143722534,0.129905701,0.278190613,-0.006677735,0.00285437,1.003734231
10.637019,0.006393433,0.023094177,0.140861511,-0.003625977,0.004563354,0.999827981
10.637646,0.128463745,-0.02268219,0.125602722,-0.006189453,0.0027323,1.00349009
10.638272,-0.054641724,0.084129333,0.209526062,-0.00472461,0.005295776,1.001414895
10.638897,0.0521698,0.114646912,-0.019355774,-0.005090821,-0.000075317,1.001659036
10.639523,-0.03175354,-0.02268219,-0.026985168,-0.005945313,0.0027323,1.00349009
10.64015,-0.100418091,0.14516449,0.171379089,-0.003992188,-0.000075317,1.001781106
10.640775,0.029281616,0.038352966,-0.16431427,-0.006677735,0.000168823,0.999950051
10.641401,-0.024124146,-0.19052887,0.041679382,-0.005945313,0.003830933,1.001536965
10.642026,0.090316772,0.160423279,0.011161804,-0.007043946,0.004441284,1.001292825
10.642652,-0.19960022,0.099388123,0.171379089,-0.005090821,0.004441284,1.003978372
10.643279,-0.138565063,-0.068458557,0.041679382,-0.005823242,0.001145386,1.002635598
10.643905,-0.108047485,-0.121864319,0.079826355,-0.004358399,0.00297644,1.000804543
10.644532,-0.306411743,0.053611755,0.049308777,-0.006067383,0.003830933,1.002269387
10.645158,0.059799194,-0.205787659,0.117973328,-0.005334961,0.002488159,1.002147317
10.646896,-0.03175354,-0.060829163,-0.095649719,-0.006433594,0.001511597,1.000804543
10.647522,0.105575562,-0.068458557,0.102714539,-0.003992188,0.000290893,1.001536965
10.648147,-0.085159302,-0.114234924,0.148490906,-0.005212891,0.001755737,1.004588723
10.648774,-0.237747192,-0.053199768,-0.072761536,-0.008386719,0.003953003,1.003123879
10.649401,-0.11567688,-0.10660553,0.07219696,-0.003748047,0.004197143,1.002879739
10.650026,-0.253005981,0.007835388,0.1561203,-0.003748047,0.001511597,1.003123879
10.650653,0.189498901,0.122276306,0.270561218,-0.003381836,0.002121948,1.005687356
10.651278,-0.024124146,0.007835388,-0.019355774,-0.003992188,0.001389526,1.004588723
10.651904,-0.069900513,-0.167640686,0.125602722,0.012243164,-0.018141724,1.01118052
10.652531,-0.062271118,0.389305115,0.24004364,-0.022180665,0.004441284,1.013743997
10.653156,0.242904663,-0.282081604,0.064567566,-0.025598634,0.002366089,0.980174661
10.653781,-0.069900513,-0.442298889,0.385002136,-0.002527344,0.025925659,0.994334817
10.654406,-0.359817505,-0.350746155,-0.034614563,0.008581054,0.016526245,1.00324595
10.655032,-0.336929321,0.053611755,0.00353241,0.002355468,-0.004713989,1.009105325
10.655657,-0.314041138,0.175682068,-0.049873352,-0.002649414,-0.011305787,1.014598489
10.656284,-0.03175354,0.007835388,0.08745575,-0.004602539,-0.00886438,1.010936379
10.65691,0.303939819,0.038352966,-0.126167297,-0.002161133,0.000535034,1.007518411
10.657536,0.067428589,0.274864197,-0.095649719,-0.002527344,0.007737183,1.003856301
10.658163,0.029281616,0.259605408,0.07219696,-0.004480469,0.004807495,1.002147317
10.658788,0.326828003,0.168052673,-0.026985168,-0.007532227,0.003220581,1.001048684
10.659414,0.258163452,0.343528748,-0.271125793,-0.007288086,0.003953003,0.999827981
10.660041,0.097946167,0.251976013,0.026420593,-0.001916992,0.003342651,1.005443215
10.660667,-0.039382935,0.206199646,-0.103279114,-0.002527344,0.001633667,1.008494973
10.661293,0.220016479,0.427452087,-0.004096985,0.000768554,-0.003127075,1.008617043
10.661918,0.105575562,0.618186951,0.079826355,-0.001672852,-0.002638794,1.007030129
10.662545,0.303939819,0.587669373,-0.034614563,-0.003259766,0.000168823,1.006663918
10.663171,0.479415894,0.862327576,-0.202461243,-0.003625977,0.001755737,1.001781106
10.675845,0.044540405,-0.007423401,0.133232117,-0.005457032,0.003586792,1.000194192
10.676586,0.181869507,-0.114234924,0.034049988,-0.007654297,0.003098511,1.004466653
10.677212,0.059799194,0.076499939,0.095085144,-0.003259766,0.000535034,1.003734231
10.677839,0.075057983,-0.045570374,-0.057502747,-0.004480469,0.001267456,1.004710793
10.678464,0.059799194,0.236717224,0.148490906,-0.003748047,0.003953003,1.001903176
10.679089,0.174240112,-0.144752502,-0.095649719,-0.00484668,0.002610229,0.99946177
10.679716,0.021652222,0.198570251,0.011161804,-0.00863086,0.00285437,1.00324595
10.680343,0.059799194,-0.053199768,0.018791199,-0.006433594,0.000779175,1.00349009
10.680969,0.20475769,0.122276306,0.064567566,-0.002527344,0.000779175,1.000438333
10.681595,-0.11567688,0.045982361,-0.042243958,-0.003015625,0.0027323,1.001781106
10.68222,0.014022827,-0.137123108,0.255302429,-0.004480469,0.003830933,1.00336802
10.682847,0.20475769,0.244346619,0.026420593,-0.00472461,0.000779175,0.999950051
10.683472,0.044540405,-0.015052795,-0.042243958,-0.007532227,-0.00092981,1.003978372
10.684097,-0.008865356,0.000205994,-0.057502747,-0.005579102,0.001755737,1.00324595
10.684723,0.158981323,0.068870544,-0.034614563,-0.003748047,0.003098511,1.000560403
10.685348,0.067428589,-0.007423401,0.034049988,-0.007776367,0.003586792,1.000926614
10.685973,0.265792847,-0.015052795,0.201896667,-0.006311524,0.000046753,1.003856301
10.686598,0.097946167,0.068870544,0.140861511,-0.006189453,0.001877808,1.003123879
10.687225,0.220016479,0.168052673,0.186637878,-0.006189453,-0.00105188,1.000926614
10.68785,-0.100418091,-0.015052795,0.056938171,-0.005212891,0.000168823,1.002879739
10.688476,0.029281616,0.122276306,-0.149055481,-0.005212891,0.001023315,1.002147317
10.689101,0.151351929,-0.076087952,0.018791199,-0.007043946,0.001267456,1.000316262
10.689727,-0.047012329,-0.060829163,0.08745575,-0.007288086,0.005417847,1.001659036
10.690352,0.029281616,0.084129333,-0.034614563,-0.007043946,0.001877808,1.003612161
10.690979,-0.001235962,0.015464783,-0.042243958,-0.006189453,0.004197143,1.003123879
10.691605,-0.108047485,0.129905701,0.00353241,-0.005334961,0.001755737,1.000560403
10.692231,0.082687378,-0.083717346,0.1561203,-0.006189453,0.003220581,1.000560403
10.692856,0.067428589,-0.221046448,0.049308777,-0.003625977,0.004929565,0.998973489
10.693482,0.006393433,-0.091346741,-0.072761536,-0.00472461,0.003464722,0.996287942
10.694108,0.13609314,0.038352966,-0.034614563,-0.005090821,0.002366089,1.002757668
10.694735,0.082687378,0.076499939,0.102714539,-0.005334961,0.005051636,1.002391458
10.695362,-0.03175354,-0.037940979,-0.072761536,-0.005701172,0.001023315,1.002391458
10.695988,0.120834351,0.023094177,0.064567566,-0.006433594,0.000412964,1.002147317
10.696615,0.036911011,-0.053199768,-0.026985168,-0.005212891,0.000168823,1.004222512
10.697241,0.014022827,0.114646912,-0.126167297,-0.005334961,0.001877808,1.003734231
10.697868,0.158981323,0.000205994,0.07219696,-0.005457032,0.004197143,1.001536965
10.698493,0.0521698,0.137535095,0.034049988,-0.006677735,0.000168823,1.002635598
10.699119,0.014022827,-0.137123108,0.08745575,-0.006067383,0.003220581,1.00324595
10.699745,-0.001235962,0.038352966,-0.042243958,-0.003870117,0.003708862,1.002025247
10.700372,-0.085159302,0.190940857,0.095085144,-0.005579102,0.001389526,0.9993397
10.700998,-0.024124146,0.122276306,-0.133796692,-0.004480469,0.0027323,1.003001809
10.701624,0.044540405,0.084129333,-0.019355774,-0.002649414,0.002121948,1.004954934
10.702251,-0.085159302,0.099388123,0.171379089,-0.005823242,0.000901245,1.003123879
10.702877,0.075057983,-0.007423401,-0.042243958,-0.004236328,0.0027323,1.000926614
10.703504,-0.016494751,-0.015052795,0.026420593,-0.006189453,0.001145386,1.005077004
10.70413,-0.047012329,0.045982361,0.140861511,-0.004236328,0.003220581,1.004832864
10.704755,0.13609314,-0.068458557,-0.026985168,-0.005457032,0.002244018,1.001903176
10.705381,0.082687378,0.045982361,0.011161804,-0.004236328,0.001267456,1.002757668
10.718077,0.014022827,0.091758728,0.064567566,-0.001916992,0.003830933,1.002635598
10.718797,-0.184341431,-0.076087952,-0.324531555,-0.005090821,0.00297644,1.000804543
10.719422,-0.146194458,-0.076087952,0.255302429,-0.00496875,0.001755737,0.998607278
10.720047,-0.176712036,0.175682068,0.064567566,-0.007288086,0.00297644,0.999950051
10.720674,-0.11567688,0.045982361,-0.126167297,-0.004114258,0.002121948,0.99958384
10.721299,-0.130935669,0.000205994,-0.08039093,-0.008875,-0.000807739,0.999950051
10.721924,-0.130935669,0.000205994,-0.08039093,-0.008875,-0.000807739,0.999950051
10.72255,-0.047012329,-0.037940979,-0.057502747,-0.008142578,0.00297644,1.001659036
10.723175,-0.047012329,-0.037940979,-0.057502747,-0.008142578,0.00297644,1.001659036
10.723801,-0.024124146,0.023094177,-0.034614563,-0.007410157,0.005784058,1.001292825
10.724427,-0.062271118,-0.053199768,-0.065132141,-0.005701172,-0.000075317,1.001292825
10.725054,-0.054641724,-0.098976135,0.117973328,-0.00496875,0.004441284,1.001414895
10.725679,-0.069900513,0.000205994,-0.057502747,-0.003748047,0.000657104,1.002635598
10.726305,0.029281616,-0.060829163,0.186637878,-0.005579102,0.00285437,1.001414895
10.72693,-0.047012329,0.068870544,0.1561203,-0.004358399,0.004075073,1.001903176
10.727555,-0.169082642,-0.015052795,0.018791199,-0.005945313,0.001877808,1.002635598
10.72818,-0.130935669,-0.037940979,-0.118537903,-0.005090821,0.003708862,1.004222512
10.728806,-0.100418091,-0.015052795,0.00353241,-0.006555664,0.001755737,1.007762551
10.729431,-0.138565063,0.045982361,-0.034614563,-0.005457032,0.00297644,1.002147317
10.730058,-0.161453247,0.045982361,0.049308777,-0.005212891,0.00285437,1.002635598
10.730685,-0.001235962,-0.007423401,0.148490906,-0.005579102,0.00297644,1.006541848
10.731311,0.143722534,0.084129333,0.018791199,-0.005212891,0.001511597,1.003734231
10.731936,-0.047012329,-0.007423401,-0.149055481,-0.003137696,0.00297644,1.002635598
10.732561,-0.077529907,-0.02268219,-0.042243958,-0.003259766,0.005295776,1.00336802
10.733187,-0.100418091,-0.091346741,0.209526062,-0.004480469,0.004319214,1.00336802
10.733812,-0.100418091,0.045982361,-0.194831848,-0.007410157,0.002244018,1.00349009
10.734437,-0.085159302,0.091758728,0.08745575,-0.00472461,0.002488159,1.001903176
10.735062,-0.108047485,0.068870544,-0.072761536,-0.005334961,0.001145386,1.005931497
10.735687,-0.253005981,-0.045570374,0.095085144,-0.005823242,0.002610229,1.003856301
10.736314,-0.077529907,-0.251564026,0.079826355,-0.007166016,0.000412964,1.00336802
10.73694,-0.024124146,-0.137123108,-0.026985168,-0.006555664,0.002610229,1.004832864
10.737567,-0.11567688,-0.068458557,-0.019355774,-0.005090821,0.000657104,1.004954934
10.738193,-0.039382935,0.023094177,0.056938171,-0.007898438,0.000535034,1.00336802
10.738818,-0.123306274,-0.091346741,0.117973328,-0.006677735,0.003953003,1.001659036
10.739484,0.120834351,-0.076087952,-0.049873352,-0.006433594,-0.000197388,1.004588723
10.740111,-0.344558716,-0.373634338,0.064567566,-0.005579102,0.000535034,1.005687356
10.740738,0.006393433,-0.152381897,0.163749695,-0.004602539,0.001633667,1.007030129
10.741364,0.021652222,-0.053199768,-0.133796692,-0.007043946,0.001877808,1.001659036
10.74199,-0.11567688,-0.10660553,0.110343933,-0.004114258,0.003586792,1.002391458
10.742615,-0.169082642,-0.19052887,0.00353241,-0.002893555,0.002610229,1.000316262
10.74324,0.021652222,-0.129493713,0.07219696,-0.003259766,0.005784058,1.001536965
10.743867,0.044540405,0.099388123,-0.065132141,-0.006067383,-0.000075317,1.002757668
10.744492,0.13609314,-0.144752502,0.07219696,-0.005212891,0.003098511,1.001781106
10.745117,-0.03175354,-0.289710999,-0.08039093,-0.006311524,0.001755737,1.002269387
10.746882,0.075057983,-0.34311676,0.034049988,-0.006677735,0.004563354,1.003001809
10.747508,-0.03175354,0.206199646,-0.011726379,-0.006677735,0.0027323,1.001903176
10.748134,-0.260635376,-0.114234924,0.079826355,-0.004358399,0.000779175,1.000438333
10.748761,0.258163452,-0.205787659,0.041679382,-0.004114258,0.001755737,1.004100442
10.761476,-0.016494751,-0.266822815,0.034049988,-0.007166016,0.005539917,1.003123879
10.762224,-0.062271118,-0.030311584,-0.011726379,-0.003137696,0.003464722,1.004588723
10.762849,-0.130935669,-0.19052887,-0.118537903,-0.003625977,0.003708862,1.002269387
10.763475,-0.077529907,-0.167640686,0.07219696,-0.008508789,-0.000807739,1.000560403
10.7641,-0.123306274,-0.205787659,-0.042243958,-0.005579102,0.001755737,1.002635598
10.764727,-0.062271118,-0.221046448,-0.225349426,-0.004480469,0.000168823,1.001659036
10.765354,0.120834351,-0.076087952,-0.034614563,-0.005334961,0.000901245,1.003612161
10.76598,-0.153823853,-0.175270081,0.209526062,-0.005579102,0.000901245,1.001659036
10.766607,0.0521698,0.038352966,0.095085144,-0.003992188,0.000535034,1.00349009
10.767233,0.128463745,0.045982361,0.110343933,-0.003748047,0.001999878,1.002025247
10.767858,-0.054641724,-0.129493713,-0.011726379,-0.002527344,0.003586792,1.002879739
10.768485,0.20475769,-0.114234924,-0.103279114,-0.006555664,-0.000319458,0.999095559
10.769111,-0.062271118,-0.060829163,0.011161804,-0.005823242,0.003098511,1.003001809
10.769736,-0.039382935,-0.030311584,0.171379089,-0.005945313,0.00285437,1.001536965
10.770362,-0.077529907,-0.129493713,-0.004096985,-0.008142578,0.00285437,1.003978372
10.770988,0.006393433,-0.327857971,-0.095649719,-0.00496875,0.000779175,1.002269387
10.771615,0.212387085,0.023094177,-0.019355774,-0.00863086,-0.002028442,1.000438333
10.772241,0.166610718,-0.114234924,-0.026985168,-0.005823242,0.002610229,1.000438333
10.772867,0.006393433,-0.098976135,-0.026985168,-0.003870117,0.00297644,1.001781106
10.773493,0.006393433,-0.10660553,0.056938171,-0.006189453,0.00297644,1.004954934
10.77412,0.13609314,0.068870544,0.041679382,-0.006067383,0.003342651,1.002635598
10.774745,-0.085159302,-0.129493713,-0.194831848,-0.00472461,0.005661987,1.004344583
10.775372,-0.062271118,0.045982361,0.011161804,-0.005212891,0.004441284,1.00324595
10.775998,-0.054641724,-0.282081604,0.125602722,-0.004602539,-0.000441528,1.002513528
10.776623,-0.161453247,-0.175270081,-0.088020325,-0.006921875,0.000046753,1.003734231
10.777249,-0.19960022,0.007835388,-0.202461243,-0.005457032,0.002244018,1.000438333
10.777875,0.067428589,-0.015052795,0.018791199,-0.005334961,0.001145386,1.002269387
10.795985,0.021652222,0.06124115,0.011161804,-0.007166016,0.001511597,1.004832864
10.79661,-0.130935669,0.06124115,-0.026985168,-0.007043946,0.000901245,1.005443215
10.797235,-0.191970825,0.053611755,0.07219696,-0.006189453,0.003342651,1.001536965
10.797862,0.090316772,0.015464783,0.049308777,-0.006799805,0.003342651,1.002025247
10.798487,-0.298782349,0.099388123,-0.057502747,-0.005212891,0.003464722,1.003001809
10.799112,0.014022827,-0.015052795,0.102714539,-0.003992188,0.001511597,1.004466653
10.799739,0.036911011,0.160423279,0.041679382,-0.003870117,0.004197143,1.002879739
10.800365,0.006393433,0.114646912,-0.210090637,-0.005334961,0.00297644,1.002269387
10.800991,-0.001235962,0.06124115,-0.225349426,-0.006067383,0.004319214,1.003612161
10.801616,-0.092788696,-0.098976135,0.1561203,-0.00472461,0.00297644,1.00336802
10.802242,-0.024124146,-0.129493713,-0.072761536,-0.006677735,0.001511597,1.001170754
10.802867,-0.11567688,-0.030311584,-0.156684875,-0.007166016,0.002244018,1.001659036
10.803493,-0.016494751,0.000205994,0.049308777,-0.004114258,0.001267456,1.002635598
10.804118,-0.085159302,-0.205787659,-0.011726379,-0.004358399,0.00285437,1.002635598
10.804744,-0.03175354,0.045982361,0.041679382,-0.005334961,0.003098511,1.004344583
10.80537,-0.069900513,-0.076087952,-0.026985168,-0.006799805,0.003220581,1.002635598
10.805996,-0.138565063,0.068870544,-0.019355774,-0.004236328,0.003586792,1.004222512
10.806623,-0.03175354,-0.076087952,0.102714539,-0.007166016,0.006516479,1.002513528
10.807248,-0.130935669,0.175682068,-0.24823761,-0.006311524,0.005173706,1.001659036
10.807874,0.067428589,-0.045570374,0.331596375,-0.006677735,0.001755737,1.003734231
10.8085,0.128463745,-0.160011292,0.07219696,-0.004480469,0.004075073,1.004344583
10.809126,-0.092788696,0.045982361,0.034049988,-0.003015625,0.001023315,1.006419778
10.821844,-0.016494751,0.038352966,-0.263496399,-0.003015625,0.001023315,1.001048684
10.822578,-0.11567688,0.152793884,0.041679382,-0.006555664,0.001267456,0.998851418
10.823205,0.082687378,-0.274452209,0.08745575,-0.007043946,0.002488159,0.999950051
10.823831,-0.024124146,0.068870544,0.011161804,-0.001794922,0.002244018,0.998851418
10.824456,-0.047012329,-0.091346741,0.133232117,-0.006799805,0.0027323,1.000072122
10.825082,-0.207229614,0.045982361,-0.049873352,-0.006189453,0.003464722,1.002147317
10.825708,0.105575562,-0.02268219,-0.042243958,-0.00484668,0.0027323,1.003001809
10.826334,-0.016494751,0.107017517,0.125602722,-0.005212891,0.000657104,1.001903176
10.826961,-0.024124146,0.137535095,0.148490906,-0.006433594,0.000290893,1.004222512
10.827588,-0.108047485,0.129905701,0.034049988,-0.005701172,0.000290893,1.002513528
10.828215,-0.123306274,-0.037940979,-0.095649719,-0.003137696,0.004563354,1.002635598
10.828842,0.143722534,0.000205994,0.011161804,-0.004114258,-0.000441528,1.003856301
10.829467,-0.222488403,-0.030311584,-0.011726379,-0.004602539,0.000901245,0.999827981
10.830094,-0.214859009,-0.137123108,0.102714539,-0.007288086,0.00297644,1.002391458
10.83072,-0.092788696,0.122276306,-0.095649719,-0.00484668,0.004685425,1.001536965
10.831345,-0.222488403,0.152793884,0.00353241,-0.00472461,0.000412964,1.00336802
10.831972,-0.024124146,-0.037940979,0.117973328,-0.005945313,0.003708862,1.002635598
10.832599,0.082687378,-0.045570374,0.056938171,-0.008386719,0.002121948,1.001903176
10.833225,0.0521698,-0.091346741,0.194267273,-0.008875,0.000290893,1.001659036
10.833851,0.006393433,0.030723572,0.102714539,-0.006067383,0.001633667,1.003001809
10.834476,-0.062271118,-0.205787659,-0.065132141,-0.006433594,0.000779175,1.003978372
10.835101,-0.375076294,-0.060829163,0.018791199,-0.005823242,-0.000807739,1.004954934
10.835728,-0.153823853,0.038352966,0.018791199,-0.005945313,0.00285437,1.003856301
10.836355,0.20475769,-0.137123108,0.049308777,-0.005701172,0.003830933,1.000194192
10.836982,0.0521698,0.023094177,-0.034614563,-0.003503907,0.000412964,1.002757668
10.837608,0.151351929,-0.167640686,0.079826355,-0.00484668,0.001999878,1.003612161
10.838235,-0.077529907,-0.251564026,-0.210090637,-0.005823242,0.00285437,1.002391458
10.838862,0.158981323,-0.091346741,0.117973328,-0.003503907,0.001633667,1.002147317
10.839488,-0.130935669,-0.137123108,0.049308777,-0.005334961,0.001755737,1.000438333
10.840113,0.006393433,-0.152381897,-0.16431427,-0.001550782,0.002121948,1.006785989
10.840738,0.014022827,-0.007423401,0.1561203,-0.005579102,0.000901245,1.002147317
10.841364,-0.039382935,0.175682068,-0.103279114,-0.005945313,-0.000441528,1.003612161
10.841991,0.197128296,0.053611755,-0.103279114,-0.005945313,0.000901245,1.002879739
10.842617,-0.138565063,0.084129333,-0.004096985,-0.005823242,0.003464722,1.002757668
10.843244,-0.085159302,-0.02268219,-0.034614563,-0.005579102,0.001999878,1.00349009
10.84387,-0.054641724,0.084129333,-0.026985168,-0.005457032,0.000779175,1.003001809
10.844496,0.059799194,-0.144752502,-0.187202454,-0.001916992,0.001877808,1.002147317
10.845123,-0.077529907,0.045982361,-0.156684875,-0.002893555,-0.000441528,1.000804543
10.846903,-0.085159302,-0.175270081,-0.210090637,-0.005090821,0.001511597,1.002879739
10.847529,-0.108047485,-0.053199768,0.08745575,-0.004602539,0.001511597,1.003612161
10.848155,0.036911011,-0.098976135,0.117973328,-0.005090821,0.001999878,1.00727427
10.848782,-0.085159302,-0.152381897,-0.034614563,-0.005090821,0.003098511,1.001414895
10.849409,-0.092788696,-0.007423401,0.110343933,-0.005945313,0.001511597,1.004100442
10.850035,-0.03175354,0.007835388,-0.072761536,-0.00875293,0.000046753,1.002513528
10.85066,-0.11567688,-0.083717346,0.079826355,-0.010095703,0.000535034,1.002635598
10.851285,-0.03175354,-0.007423401,-0.126167297,-0.005701172,0.001145386,1.001659036
10.85191,0.075057983,0.000205994,0.011161804,-0.004602539,0.000779175,1.000194192
10.852535,-0.001235962,-0.053199768,-0.049873352,-0.00472461,0.002366089,1.002269387
10.865289,0.014022827,-0.10660553,-0.026985168,-0.003870117,0.002610229,1.004222512
10.866038,0.197128296,-0.068458557,0.179008484,-0.00472461,0.003953003,1.00336802
10.866665,0.20475769,0.107017517,0.07219696,-0.005090821,0.001755737,1.001536965
10.86729,0.021652222,-0.053199768,-0.049873352,-0.005579102,0.000290893,1.001659036
10.867915,-0.138565063,-0.053199768,0.095085144,-0.00496875,0.004441284,0.999827981
10.86854,-0.039382935,0.045982361,-0.034614563,-0.005701172,0.005539917,1.00336802
10.869167,0.158981323,-0.007423401,-0.179573059,-0.005579102,0.00285437,1.001659036
10.869793,-0.054641724,0.107017517,0.079826355,-0.007166016,0.001023315,1.003123879
10.870418,0.0521698,-0.030311584,0.08745575,-0.007898438,0.001877808,1.00324595
10.871044,0.036911011,0.015464783,-0.141426086,-0.005579102,0.003586792,1.002269387
10.871669,-0.001235962,-0.297340393,0.079826355,-0.008997071,0.00297644,1.001414895
10.872294,0.044540405,0.084129333,-0.126167297,-0.002649414,0.001267456,1.001292825
10.87292,0.014022827,-0.068458557,0.08745575,-0.006677735,0.004441284,1.001781106
10.873546,0.067428589,0.091758728,0.018791199,-0.006799805,0.004075073,1.003612161
10.874173,-0.077529907,-0.02268219,-0.026985168,-0.009973633,0.005051636,1.00727427
10.874798,0.014022827,-0.076087952,-0.110908508,-0.002161133,0.001145386,1.00336802
10.875423,-0.092788696,0.038352966,-0.011726379,0.000768554,0.005173706,1.002147317
10.87605,-0.253005981,0.084129333,-0.026985168,-0.006311524,0.006028198,1.002025247
10.876676,-0.253005981,0.267234802,0.140861511,-0.010461914,-0.006789185,1.002513528
10.877301,0.075057983,-0.053199768,-0.171943665,-0.012903321,-0.013380982,1.001170754
10.877927,0.227645874,-0.182899475,0.102714539,-0.005334961,-0.006789185,1.004832864
10.878552,0.426010132,-0.19052887,-0.110908508,-0.001550782,0.007126831,1.006908059
10.879178,0.235275269,-0.091346741,0.125602722,-0.001550782,0.009202026,1.003001809
10.879803,0.075057983,-0.098976135,0.049308777,-0.010095703,0.004319214,0.996898293
10.880429,0.014022827,-0.221046448,-0.049873352,-0.009973633,0.000535034,1.003734231
10.881054,0.021652222,-0.434669495,0.00353241,-0.002649414,0.001633667,1.006419778
10.881679,0.044540405,-0.129493713,-0.141426086,-0.004358399,0.000657104,1.006053567
10.882305,0.0521698,-0.205787659,0.079826355,-0.005457032,0.001145386,1.006053567
10.882931,-0.016494751,-0.175270081,-0.149055481,-0.003992188,0.0027323,1.005809426
10.883557,0.059799194,-0.137123108,0.117973328,-0.00484668,0.002121948,1.001048684
10.884183,0.059799194,-0.068458557,-0.049873352,-0.005701172,0.004685425,1.001659036
10.884809,0.075057983,-0.198158264,-0.065132141,-0.004602539,0.000779175,0.997630715
10.885436,-0.001235962,-0.152381897,0.140861511,-0.002405274,0.000168823,1.001781106
10.886061,-0.062271118,0.091758728,-0.072761536,-0.004480469,0.00285437,0.998851418
10.886686,-0.207229614,-0.137123108,-0.042243958,-0.003992188,0.001877808,0.998607278
10.887312,-0.11567688,-0.213417053,0.133232117,-0.001916992,0.003098511,0.996165872
10.887939,0.021652222,-0.098976135,0.117973328,-0.007532227,0.002121948,0.999827981
10.888565,0.029281616,-0.068458557,-0.08039093,-0.005579102,0.003342651,1.000072122
10.889192,-0.008865356,0.068870544,-0.103279114,-0.003625977,0.004807495,1.001292825
10.889817,-0.008865356,0.114646912,0.049308777,-0.00472461,0.002121948,1.000194192
10.890444,0.021652222,-0.053199768,-0.088020325,-0.002649414,0.001145386,1.001048684
10.89107,-0.161453247,0.084129333,0.041679382,-0.002649414,0.00285437,1.001170754
10.891697,0.075057983,-0.144752502,-0.065132141,-0.003992188,0.001999878,1.00324595
10.892324,0.128463745,0.000205994,0.07219696,-0.003625977,0.000412964,1.005687356
10.89295,0.044540405,0.114646912,0.026420593,-0.006189453,0.001023315,1.000072122
10.893577,-0.03175354,-0.182899475,0.117973328,-0.003381836,0.003830933,1.004466653
10.894203,0.014022827,-0.137123108,0.102714539,-0.003992188,0.004807495,1.004222512
10.894828,-0.275894165,0.023094177,-0.194831848,-0.00875293,0.003220581,1.003123879
10.895454,-0.03175354,-0.037940979,0.095085144,-0.008508789,0.003586792,1.007518411
10.908451,-0.100418091,-0.198158264,0.278190613,-0.006433594,0.004075073,1.000194192
10.909148,0.075057983,-0.213417053,0.00353241,-0.005457032,0.003464722,0.998607278
10.909774,0.0521698,-0.121864319,-0.156684875,-0.004114258,0.003708862,0.997996926
10.910399,0.166610718,-0.304969788,-0.057502747,-0.007166016,0.000290893,1.000682473
10.911024,0.075057983,0.045982361,-0.126167297,-0.00875293,0.003586792,0.998363137
10.911651,-0.11567688,-0.060829163,0.117973328,-0.005823242,0.004319214,0.998118997
10.912276,-0.11567688,0.107017517,0.018791199,-0.007166016,0.003098511,0.997508645
10.912901,0.151351929,-0.083717346,0.24004364,-0.005579102,0.001389526,0.999827981
10.913527,-0.03175354,0.06124115,-0.072761536,-0.00496875,0.001999878,0.997996926
10.914152,-0.123306274,-0.129493713,0.034049988,-0.003992188,0.00285437,0.999827981
10.914778,0.029281616,-0.076087952,0.163749695,-0.007532227,0.001389526,0.998729348
10.915405,-0.077529907,0.038352966,-0.110908508,-0.005334961,0.003220581,0.999217629
10.916031,-0.069900513,0.045982361,0.00353241,-0.00094043,0.004075073,1.003734231
10.916658,0.090316772,-0.221046448,-0.034614563,-0.004480469,0.003220581,1.001903176
10.917284,0.067428589,-0.182899475,0.110343933,-0.003870117,0.001511597,1.003001809
10.91791,0.220016479,0.045982361,-0.088020325,-0.006311524,0.004075073,1.004344583
10.918535,0.059799194,-0.060829163,0.026420593,-0.006921875,0.004075073,1.006053567
10.91916,-0.069900513,-0.007423401,-0.103279114,-0.005457032,0.004075073,1.007030129
10.919787,0.13609314,0.183311462,-0.011726379,-0.007654297,0.001877808,1.004222512
10.920414,0.105575562,-0.221046448,-0.110908508,-0.007410157,0.003953003,1.007884622
10.92104,-0.001235962,-0.137123108,-0.026985168,-0.00472461,0.002488159,1.004954934
10.921665,0.067428589,0.030723572,0.018791199,-0.006311524,0.000901245,1.008372903
10.92229,-0.085159302,-0.060829163,0.034049988,-0.003992188,0.004075073,1.003001809
10.922916,-0.146194458,-0.060829163,0.064567566,-0.004114258,0.00285437,1.008372903
10.923541,0.303939819,-0.007423401,0.133232117,-0.005212891,0.002610229,1.006663918
10.924166,0.029281616,-0.091346741,-0.103279114,-0.005579102,0.004685425,1.006053567
10.924791,0.197128296,-0.037940979,0.064567566,-0.008020508,0.004563354,1.005077004
10.925418,-0.001235962,-0.213417053,0.034049988,-0.007532227,0.002244018,1.004954934
10.926044,0.120834351,-0.02268219,0.079826355,-0.003015625,0.0027323,1.005931497
10.92667,-0.077529907,-0.160011292,-0.011726379,-0.004480469,0.002366089,1.0071522
10.927296,-0.008865356,-0.144752502,0.026420593,-0.00496875,0.004075073,1.0071522
10.927923,0.036911011,0.099388123,-0.019355774,-0.008020508,0.003708862,1.006053567
10.928549,-0.085159302,-0.030311584,-0.088020325,-0.007166016,0.003708862,1.002635598
10.929174,-0.092788696,-0.121864319,0.194267273,-0.005579102,0.001877808,1.003001809
10.929799,-0.024124146,0.015464783,0.117973328,-0.003992188,0.002610229,1.002757668
10.930424,-0.123306274,0.045982361,-0.095649719,-0.003503907,-0.00105188,1.002269387
10.931049,0.105575562,0.045982361,-0.072761536,-0.005945313,0.001877808,0.998973489
10.931674,-0.069900513,0.007835388,0.232414246,-0.005090821,0.001999878,0.999095559
10.932299,0.212387085,-0.045570374,0.07219696,-0.006799805,0.002610229,1.000438333
10.932924,-0.069900513,-0.015052795,-0.110908508,-0.003870117,0.002121948,0.998729348
10.93355,-0.275894165,0.06124115,0.102714539,-0.005212891,0.0027323,0.999827981
10.934175,-0.062271118,0.053611755,-0.019355774,-0.003748047,0.003708862,0.996165872
10.9348,0.014022827,0.007835388,-0.072761536,-0.004236328,0.004441284,0.998607278
10.935425,-0.146194458,0.351158142,0.08745575,-0.006921875,-0.001784302,1.001536965
10.936051,-0.138565063,0.053611755,-0.072761536,-0.006799805,0.000657104,0.996654153
10.936678,-0.062271118,-0.076087952,0.011161804,-0.005212891,-0.00092981,0.99946177
10.937303,0.105575562,-0.045570374,0.018791199,-0.005579102,0.000168823,1.002391458
10.937929,-0.03175354,-0.02268219,0.049308777,-0.005579102,0.002488159,1.001170754
10.951815,-0.169082642,-0.083717346,-0.042243958,-0.007898438,0.000290893,1.004466653
10.952536,-0.062271118,0.053611755,0.07219696,-0.005090821,0.000779175,1.003001809
10.953162,-0.108047485,0.374046326,-0.034614563,-0.003748047,0.002366089,1.003856301
10.953787,-0.11567688,0.068870544,-0.065132141,-0.00496875,0.001999878,1.00349009
10.954414,-0.016494751,0.053611755,-0.034614563,-0.003625977,0.001755737,1.004100442
10.955039,0.029281616,0.290122986,-0.065132141,-0.007776367,-0.000319458,1.002269387
10.955664,-0.11567688,-0.160011292,0.034049988,-0.004602539,0.001023315,0.998729348
10.95629,0.006393433,0.045982361,-0.088020325,-0.008142578,-0.000075317,1.003856301
10.956916,-0.008865356,0.114646912,-0.019355774,-0.006799805,0.000779175,1.001170754
10.957541,0.166610718,-0.045570374,-0.004096985,-0.003625977,0.001633667,0.99946177
10.958166,-0.11567688,0.076499939,-0.118537903,-0.008997071,0.003708862,1.002025247
10.958792,-0.207229614,0.000205994,-0.103279114,-0.007654297,0.001511597,1.002635598
10.959418,0.067428589,-0.060829163,-0.026985168,-0.007654297,0.002244018,1.004344583
10.960044,-0.176712036,-0.091346741,0.056938171,-0.007654297,0.000779175,1.003123879
10.960671,0.075057983,0.206199646,-0.004096985,-0.006921875,0.005661987,1.001659036
10.961296,-0.153823853,-0.121864319,0.026420593,-0.004358399,-0.000685669,1.003734231
10.961921,-0.008865356,-0.10660553,0.140861511,-0.004114258,0.003098511,1.001048684
10.962547,0.120834351,0.107017517,-0.049873352,-0.006799805,0.005173706,1.001903176
10.963173,-0.069900513,0.015464783,0.034049988,-0.005823242,0.003708862,1.00349009
10.963799,0.006393433,0.068870544,0.133232117,-0.00484668,0.002121948,1.004100442
10.964424,-0.062271118,-0.02268219,0.034049988,-0.005945313,-0.000685669,1.001536965
10.965049,-0.001235962,-0.129493713,-0.156684875,-0.005701172,0.001389526,1.001536965
10.965675,-0.100418091,0.023094177,0.049308777,-0.001306641,0.001267456,1.001292825
10.966301,-0.176712036,-0.388893127,0.011161804,-0.007166016,0.002488159,1.000926614
10.966927,0.021652222,0.053611755,0.041679382,-0.005212891,0.002121948,1.001414895
10.967554,-0.054641724,-0.213417053,-0.171943665,-0.005090821,0.002121948,0.998851418
10.968179,0.059799194,-0.030311584,0.00353241,-0.007410157,0.003708862,1.002879739
10.968806,0.059799194,-0.030311584,-0.011726379,-0.007166016,0.001999878,1.000804543
10.969431,0.113204956,-0.160011292,0.026420593,-0.005579102,0.0027323,1.002879739
10.970056,0.197128296,-0.083717346,-0.187202454,-0.007410157,0.003586792,1.002269387
10.970682,-0.024124146,0.023094177,0.049308777,-0.007898438,0.004197143,1.001659036
10.971307,-0.214859009,0.053611755,0.026420593,-0.006677735,0.000901245,1.000560403
10.971933,0.029281616,-0.160011292,0.125602722,-0.006555664,0.000779175,1.003612161
10.972558,0.021652222,0.023094177,0.049308777,-0.004114258,0.001267456,1.001048684
10.973185,-0.146194458,0.129905701,0.232414246,-0.005457032,0.003220581,1.004344583
10.973811,0.029281616,-0.175270081,-0.026985168,-0.005090821,0.006394409,1.005443215
10.974436,0.090316772,0.190940857,-0.210090637,-0.005090821,0.004563354,1.004222512
10.975061,-0.047012329,-0.213417053,0.07219696,-0.005090821,0.003342651,1.000926614
10.975688,-0.169082642,0.045982361,0.117973328,-0.007043946,0.000046753,1.002879739
10.976314,-0.039382935,-0.068458557,-0.042243958,-0.004602539,0.003953003,1.002391458
10.97694,-0.03175354,-0.167640686,0.018791199,-0.00484668,0.000657104,1.002025247
10.977567,0.0521698,-0.129493713,0.049308777,-0.003870117,0.002488159,0.998118997
10.978194,0.006393433,0.045982361,-0.149055481,-0.005090821,0.004075073,1.002147317
10.978819,-0.092788696,-0.007423401,0.079826355,-0.005579102,0.003220581,1.001536965
10.979444,-0.138565063,0.038352966,-0.179573059,-0.008020508,0.003342651,1.002147317
10.98007,-0.146194458,-0.007423401,-0.034614563,-0.004358399,0.003220581,0.998973489
10.980697,0.036911011,0.000205994,-0.034614563,-0.005334961,0.002488159,0.998607278
10.981324,-0.069900513,-0.037940979,-0.034614563,-0.00496875,0.003220581,1.002025247
10.99399,-0.138565063,-0.02268219,0.041679382,-0.002771485,0.003220581,1.001536965
10.994711,-0.016494751,0.06124115,-0.141426086,-0.007898438,0.001145386,1.000438333
10.995337,-0.11567688,-0.167640686,0.125602722,-0.008264649,-0.000441528,0.996532083
10.995963,0.059799194,0.068870544,-0.179573059,-0.003381836,0.000657104,0.998973489
10.996589,-0.03175354,0.099388123,0.1561203,-0.006799805,0.002121948,0.997874856
10.997214,0.044540405,0.22908783,-0.088020325,-0.003381836,0.002366089,1.000438333
10.997841,-0.161453247,0.038352966,0.00353241,-0.001428711,0.002610229,1.001536965
10.998466,-0.237747192,0.000205994,0.056938171,-0.008264649,0.004319214,1.000560403
10.999092,-0.092788696,0.114646912,0.018791199,-0.005701172,0.005906128,1.00324595
10.999717,-0.161453247,-0.007423401,-0.149055481,-0.004602539,0.001267456,1.000194192
11.000342,-0.11567688,0.06124115,0.018791199,-0.003992188,0.001511597,1.004222512
11.000967,-0.123306274,0.129905701,0.064567566,-0.007166016,0.003586792,1.00349009
11.001594,-0.306411743,-0.236305237,-0.141426086,-0.004114258,0.002366089,1.004466653
11.002219,-0.222488403,-0.083717346,-0.011726379,-0.010339844,-0.000685669,1.002757668
11.002845,-0.397964478,-0.114234924,-0.088020325,-0.007043946,0.003220581,1.006053567
11.003472,-0.11567688,-0.213417053,-0.08039093,-0.005945313,0.003953003,1.004954934
11.004098,-0.077529907,-0.076087952,0.079826355,-0.008142578,0.003830933,1.00336802
11.004724,-0.245376587,-0.030311584,0.08745575,-0.007043946,0.002244018,1.006419778
11.005349,-0.077529907,-0.060829163,-0.042243958,-0.004358399,0.002488159,1.005443215
11.005974,-0.359817505,-0.160011292,-0.202461243,-0.006555664,0.00285437,1.004832864
11.0066,-0.291152954,0.183311462,0.00353241,-0.008020508,0.001755737,1.008006692
11.007226,-0.291152954,-0.251564026,0.00353241,-0.006433594,0.002366089,1.006053567
11.007852,-0.43611145,-0.129493713,0.041679382,-0.005945313,0.00285437,1.007030129
11.008478,-0.237747192,0.045982361,-0.210090637,-0.005090821,0.00297644,1.006908059
11.009105,-0.085159302,-0.304969788,-0.004096985,-0.005334961,0.000046753,1.008617043
11.009731,-0.077529907,-0.091346741,-0.110908508,-0.002893555,0.002244018,1.007518411
11.010357,-0.329299927,0.038352966,-0.103279114,-0.005945313,0.003464722,1.006541848
11.010982,-0.291152954,-0.137123108,0.056938171,-0.004602539,0.001511597,1.006663918
11.011609,-0.253005981,-0.205787659,0.079826355,-0.007288086,0.00297644,1.00727427
11.012234,-0.092788696,0.000205994,-0.026985168,-0.00875293,0.001999878,1.006785989
11.01286,-0.214859009,-0.045570374,0.011161804,-0.005579102,0.001755737,1.008861184
11.013486,-0.039382935,-0.419410706,0.00353241,-0.010828125,0.001999878,1.010203958
11.014112,-0.466629028,0.053611755,0.026420593,-0.007043946,0.001877808,1.008250833
11.014739,-0.207229614,-0.098976135,-0.126167297,-0.008142578,0.004563354,1.00727427
11.015365,-0.191970825,-0.129493713,0.117973328,-0.008020508,0.000901245,1.011668801
11.01599,-0.237747192,-0.037940979,0.224784851,-0.005945313,0.000412964,1.013499856
11.016615,-0.130935669,-0.182899475,0.041679382,-0.008264649,-0.000685669,1.01130259
11.017241,-0.291152954,-0.236305237,0.08745575,-0.006067383,0.000168823,1.008983254
11.017867,-0.336929321,0.068870544,0.018791199,-0.004480469,0.001145386,1.006663918
11.018494,0.006393433,-0.175270081,0.026420593,-0.003137696,0.00297644,1.000926614
11.019121,-0.100418091,-0.243934631,0.00353241,-0.005212891,0.004075073,1.005565286
11.019746,-0.336929321,-0.068458557,-0.065132141,-0.00496875,0.005539917,1.002757668
11.020371,-0.260635376,-0.053199768,0.079826355,-0.005334961,0.000779175,1.002269387
11.020997,-0.169082642,-0.121864319,0.07219696,-0.002405274,0.001755737,1.001903176
11.021624,0.021652222,-0.045570374,0.079826355,-0.005823242,0.005173706,0.998851418
11.022249,-0.321670532,-0.098976135,0.079826355,-0.005579102,0.00285437,0.997142434
11.022876,-0.291152954,0.160423279,0.125602722,-0.006799805,0.005784058,1.000560403
11.023502,-0.565811157,-0.030311584,0.125602722,-0.011316407,0.011155151,0.990794778
11.054911,0.303939819,-0.129493713,-0.019355774,-0.00875293,0.003830933,0.997630715
11.055646,0.20475769,0.076499939,0.026420593,-0.009729492,0.003342651,0.996410012
11.056271,0.067428589,-0.274452209,0.041679382,-0.005090821,0.000535034,0.997264504
11.056897,0.044540405,-0.350746155,-0.225349426,-0.005701172,0.004319214,0.996898293
11.057522,0.075057983,-0.312599182,-0.011726379,-0.003625977,0.002121948,1.000560403
11.058149,0.082687378,-0.373634338,0.102714539,-0.001306641,0.002610229,1.003612161
11.058775,-0.016494751,-0.160011292,-0.118537903,-0.002283203,0.001023315,1.004832864
11.059402,0.044540405,0.152793884,-0.011726379,-0.001306641,-0.000685669,1.002635598
11.060028,0.067428589,-0.045570374,-0.179573059,-0.002527344,0.002244018,1.005809426
11.060654,0.189498901,-0.129493713,-0.210090637,-0.002527344,-0.000197388,1.003978372
11.061279,0.029281616,0.084129333,0.07219696,-0.003625977,0.003586792,1.004100442
11.061905,0.0521698,-0.076087952,-0.286384583,-0.00472461,0.004319214,1.001659036
11.062532,0.029281616,-0.030311584,-0.072761536,-0.006677735,0.00285437,1.004954934
11.063159,-0.108047485,0.221458435,-0.103279114,-0.006433594,0.001145386,1.003856301
11.063786,0.113204956,0.038352966,-0.278755188,-0.006921875,0.005539917,1.007030129
11.064412,0.029281616,-0.228675842,-0.271125793,-0.005212891,0.005051636,1.002269387
11.065038,0.197128296,0.045982361,-0.347419739,-0.007776367,0.003708862,1.00336802
11.065665,0.029281616,-0.182899475,-0.286384583,-0.003503907,0.004319214,1.005199075
11.066292,0.235275269,-0.266822815,-0.339790344,-0.006921875,0.001267456,1.006175637
11.066917,0.029281616,-0.228675842,-0.217720032,-0.005579102,0.000046753,1.003856301
11.067543,0.006393433,-0.236305237,-0.286384583,-0.004236328,0.001633667,1.004710793
11.068168,0.120834351,-0.137123108,-0.370307922,-0.003503907,0.00285437,1.002025247
11.068793,0.014022827,-0.465187073,-0.461860657,-0.004480469,-0.000441528,1.001781106
11.069419,0.212387085,-0.282081604,-0.48474884,-0.005334961,0.003586792,1.003001809
11.070046,-0.069900513,-0.243934631,-0.263496399,-0.005457032,0.001755737,1.003856301
11.070671,-0.03175354,-0.419410706,-0.500007629,-0.006921875,0.00285437,1.005199075
11.071298,0.197128296,-0.404151917,-0.370307922,-0.005945313,0.002488159,1.003734231
11.071923,-0.03175354,-0.404151917,-0.530525208,-0.005945313,-0.001540161,1.004344583
11.072549,0.059799194,-0.312599182,-0.530525208,-0.004480469,0.003220581,1.004954934
11.073175,0.067428589,-0.602516174,-0.454231262,-0.006921875,0.001023315,1.003612161
11.073801,0.273422241,-0.274452209,-0.24823761,-0.006311524,0.001389526,1.001659036
11.074427,-0.047012329,-0.312599182,-0.561042786,-0.004114258,0.002488159,1.001659036
11.075054,0.090316772,-0.457557678,-0.500007629,-0.002405274,0.000779175,1.002757668
11.075681,0.143722534,-0.282081604,-0.507637024,-0.002771485,0.001755737,1.001781106
11.076308,0.075057983,-0.152381897,-0.515266418,-0.005457032,0.00285437,1.001659036
11.076933,-0.108047485,-0.465187073,-0.461860657,-0.002649414,0.004075073,1.004832864
11.077559,-0.291152954,-0.480445862,-0.461860657,-0.004114258,0.004075073,1.001536965
11.078186,0.166610718,-0.129493713,-0.530525208,-0.004602539,0.004563354,1.002147317
11.078812,0.113204956,-0.541481018,-0.408454895,-0.007532227,0.003586792,0.998607278
11.079438,0.090316772,-0.289710999,-0.530525208,-0.005090821,0.003342651,0.999950051
11.080063,0.036911011,-0.175270081,-0.698371887,-0.003381836,0.002610229,0.999217629
11.080688,0.006393433,-0.34311676,-0.461860657,-0.006555664,0.002610229,0.999217629
11.081313,-0.069900513,-0.388893127,-0.690742493,-0.004602539,0.001511597,1.00349009
11.081938,-0.176712036,-0.335487366,-0.660224915,-0.005579102,0.002121948,0.999827981
11.082564,-0.28352356,-0.312599182,-0.843330383,-0.002527344,0.004075073,0.9993397
11.083189,-0.062271118,-0.289710999,-0.759407043,-0.002649414,0.004075073,1.000682473
11.083816,-0.207229614,-0.404151917,-0.767036438,-0.002649414,0.003098511,0.998851418
11.084442,0.006393433,-0.304969788,-0.957771301,-0.002771485,0.005417847,1.002513528
11.085067,-0.11567688,-0.366004944,-0.927253723,-0.003870117,0.005539917,1.001170754
11.097737,-0.375076294,-0.633033752,-2.002998352,-0.008142578,0.005295776,1.004832864
11.098453,-0.275894165,-0.457557678,-2.064033508,-0.008875,-0.000319458,1.002269387
11.099078,-0.237747192,-0.304969788,-1.858039856,-0.004236328,-0.000319458,1.002147317
11.099704,-0.382705688,-0.419410706,-1.926704407,-0.005090821,-0.001296021,1.003978372
11.100329,-0.085159302,-0.533851624,-2.010627747,-0.004114258,0.00285437,1.001903176
11.100954,-0.451370239,-0.411781311,-1.896186829,-0.005579102,0.001755737,1.004222512
11.101581,-0.230117798,-0.732215881,-1.980110168,-0.005090821,0.001999878,1.001903176
11.102206,-0.497146606,-0.602516174,-2.132698059,-0.004480469,0.006394409,1.001903176
11.102833,-0.253005981,-0.312599182,-2.079292297,-0.003870117,0.003708862,1.000804543
11.103459,-0.390335083,-0.457557678,-2.20136261,-0.003015625,0.002244018,1.001903176
11.104085,-0.245376587,-0.366004944,-2.346321106,-0.003870117,0.005051636,1.002025247
11.104712,-0.382705688,-0.503334045,-2.140327454,-0.003992188,0.002610229,1.00336802
11.105339,-0.397964478,-0.465187073,-2.308174133,-0.006921875,0.001755737,1.00324595
11.105964,-0.314041138,-0.533851624,-2.445503235,0.000036133,0.006394409,1.002025247
11.10659,-0.214859009,-0.556739807,-2.682014465,-0.00484668,0.003342651,1.002513528
11.107217,-0.458999634,-0.709327698,-2.216621399,-0.00484668,0.004441284,1.003123879
11.107844,-0.306411743,-0.694068909,-2.529426575,-0.00484668,0.00285437,1.000926614
11.10847,-0.28352356,-0.465187073,-2.704902649,-0.003992188,0.000046753,1.002757668
11.109095,-0.497146606,-0.411781311,-2.659126282,-0.008508789,0.002366089,1.004100442
11.10972,-0.35218811,-0.610145569,-2.682014465,-0.003748047,0.001145386,1.004466653
11.110345,-0.52003479,-0.388893127,-2.552314758,-0.002527344,0.001511597,1.003978372
11.110971,-0.390335083,-0.526222229,-2.537055969,-0.006799805,0.001267456,1.004100442
11.111598,-0.298782349,-0.694068909,-2.628608704,-0.003381836,0.000535034,1.002513528
11.112225,-0.298782349,-0.587257385,-2.620979309,-0.002649414,0.001633667,1.005687356
11.112852,-0.466629028,-0.465187073,-2.529426575,-0.005579102,0.000657104,1.004100442
11.113479,-0.443740845,-0.488075256,-2.704902649,-0.006433594,0.00285437,1.003001809
11.114106,-0.291152954,-0.67881012,-2.598091125,-0.00081836,0.003464722,1.002269387
11.114732,-0.367446899,-0.549110413,-2.445503235,-0.004602539,0.003220581,1.003978372
11.115357,-0.512405396,-0.457557678,-2.60572052,-0.002649414,0.000657104,1.002879739
11.115982,-0.634475708,-0.404151917,-2.720161438,-0.001794922,0.004197143,1.003612161
11.116609,-0.619216919,-0.541481018,-2.598091125,-0.000452149,0.001999878,1.000438333
11.117236,-0.588699341,-0.465187073,-2.628608704,-0.00094043,0.002488159,1.000804543
11.117861,-0.664993286,-0.663551331,-2.826972961,-0.004114258,0.005906128,1.001170754
11.118486,-0.558181763,-0.480445862,-2.84223175,-0.001306641,0.005539917,0.999705911
11.119111,-0.756546021,-0.633033752,-2.743049622,-0.005823242,0.002488159,0.997996926
11.119738,-0.43611145,-0.282081604,-2.865119934,-0.002893555,0.001877808,1.000560403
11.120364,-0.756546021,-0.480445862,-2.781196594,-0.003992188,0.001145386,1.001781106
11.120991,-0.581069946,-0.518592834,-2.804084778,-0.000696289,0.004319214,1.001659036
11.121616,-0.710769653,-0.556739807,-2.994819641,-0.004236328,0.001267456,1.001903176
11.122242,-0.672622681,-0.503334045,-2.941413879,-0.001794922,0.002244018,1.001414895
11.122868,-0.718399048,-0.312599182,-2.971931458,-0.003625977,0.00285437,1.002269387
11.123493,-0.695510864,-0.587257385,-2.971931458,-0.008386719,0.001877808,1.003001809
11.124119,-0.848098755,-0.633033752,-3.032966614,-0.003015625,0.000901245,1.004344583
11.124744,-0.68788147,-0.388893127,-3.147407532,-0.004236328,-0.000075317,1.002757668
11.125371,-0.748916626,-0.587257385,-3.040596008,-0.00496875,0.001145386,1.003734231
11.125998,-0.756546021,-0.549110413,-3.063484192,-0.006433594,0.001145386,1.001414895
11.126625,-0.664993286,-0.571998596,-3.155036926,-0.00496875,0.001877808,1.005565286
11.139302,-0.581069946,-0.4270401,-2.880378723,-0.00875293,0.001267456,1.00336802
11.140037,-0.672622681,-0.495704651,-2.743049622,-0.007776367,-0.002150513,1.003123879
11.140662,-0.672622681,-0.358375549,-2.735420227,-0.004480469,-0.00117395,1.005077004
11.141289,-0.710769653,-0.388893127,-2.750679016,-0.002405274,0.001145386,1.00336802
11.141915,-0.367446899,-0.465187073,-2.903266907,-0.003503907,0.001267456,1.003123879
11.142541,-0.664993286,-0.350746155,-2.804084778,-0.00094043,0.003953003,1.00324595
11.143166,-0.550552368,-0.419410706,-3.002449036,-0.006311524,0.005051636,1.002147317
11.143792,-0.626846313,-0.434669495,-2.971931458,-0.009851563,0.004563354,1.001903176
11.144419,-0.596328735,-0.51096344,-3.055854797,-0.006677735,0.004319214,1.002391458
11.145044,-0.748916626,-0.4270401,-2.888008118,-0.009729492,-0.000685669,1.004100442
11.14567,-0.581069946,-0.373634338,-2.910896301,-0.007410157,0.000046753,1.005443215
11.146297,-0.542922974,-0.434669495,-2.84223175,-0.007043946,-0.001662232,1.006297708
11.146923,-0.703140259,-0.495704651,-2.636238098,-0.008508789,-0.000319458,1.005687356
11.147549,-0.535293579,-0.4270401,-2.544685364,-0.009485352,-0.001296021,1.003612161
11.148228,-0.314041138,-0.34311676,-2.52179718,-0.011804688,-0.003615357,1.003612161
11.148854,-0.375076294,-0.503334045,-2.36920929,-0.005945313,-0.003981567,1.002635598
11.149479,-0.405593872,-0.34311676,-2.430244446,0.00296582,0.008591674,1.003734231
11.150104,-0.619216919,-0.205787659,-2.315803528,-0.003748047,0.009446166,1.001414895
11.15073,-0.413223267,-0.396522522,-2.52179718,-0.010461914,-0.004103638,1.001903176
11.151357,-0.176712036,-0.465187073,-2.682014465,0.005895508,0.003098511,1.005687356
11.151984,-0.43611145,-0.060829163,-2.788825989,-0.003137696,0.014451049,1.002269387
11.152611,-0.474258423,-0.434669495,-2.682014465,-0.013513672,0.001145386,0.996165872
11.153238,-0.558181763,-0.503334045,-2.52179718,-0.008264649,0.0027323,0.999827981
11.154955,-0.718399048,-0.312599182,-2.636238098,-0.002771485,-0.001784302,1.004222512
11.155581,-0.634475708,-0.335487366,-2.483650208,-0.008020508,-0.002028442,1.004710793
11.156206,-0.497146606,-0.274452209,-2.361579895,-0.004236328,0.001633667,1.001414895
11.156832,-0.375076294,-0.335487366,-2.514167786,-0.004114258,0.004197143,1.001170754
11.157458,-0.542922974,-0.160011292,-2.514167786,-0.002405274,0.000168823,1.002757668
11.158084,-0.336929321,-0.503334045,-2.666755676,-0.004114258,0.004197143,1.000804543
11.158709,-0.596328735,-0.198158264,-2.720161438,-0.008264649,0.004929565,1.000316262
11.159335,-0.382705688,-0.404151917,-2.384468079,-0.007166016,0.000535034,1.002269387
11.159961,-0.581069946,-0.503334045,-2.453132629,-0.004114258,0.001633667,1.003001809
11.160587,-0.573440552,-0.404151917,-2.460762024,-0.008386719,0.000046753,1.00324595
11.161212,-0.28352356,-0.541481018,-2.247138977,-0.005945313,0.000046753,1.003856301
11.161839,-0.451370239,-0.34311676,-2.399726868,-0.005579102,0.00285437,1.001903176
11.162466,-0.420852661,-0.388893127,-2.361579895,-0.00496875,0.000046753,1.001781106
11.163091,-0.43611145,-0.34311676,-2.109809875,-0.005090821,-0.000685669,1.003978372
11.163718,-0.260635376,-0.312599182,-2.292915344,-0.004602539,0.001389526,1.005931497
11.164344,-0.306411743,-0.465187073,-2.376838684,-0.003625977,-0.00092981,1.001170754
11.164971,-0.428482056,-0.312599182,-2.216621399,0.002477539,0.000290893,1.003856301
11.165597,-0.161453247,0.099388123,-2.36920929,0.009191406,-0.000319458,1.008861184
11.166222,-0.047012329,-0.243934631,-2.910896301,0.006505859,0.011643432,1.001536965
11.166847,-0.100418091,-0.10660553,-2.918525696,0.006139648,0.01469519,0.997508645
11.167472,-0.169082642,-0.121864319,-3.490730286,-0.001306641,0.014084838,0.99567759
11.168097,-0.420852661,-0.060829163,-3.551765442,-0.002283203,0.007737183,0.997386575
11.168724,-0.405593872,-0.205787659,-3.719612122,-0.007410157,0.002244018,0.999827981
11.169351,-0.558181763,-0.388893127,-3.567024231,-0.008997071,-0.004713989,1.004466653
11.169977,-0.28352356,-0.175270081,-3.361030579,-0.005945313,-0.002760864,1.005443215
11.182626,-0.161453247,-0.366004944,-1.964851379,-0.003381836,0.001633667,1.002147317
11.18333,-0.28352356,-0.243934631,-1.995368958,-0.007043946,0.003098511,1.000194192
11.183957,-0.207229614,-0.388893127,-1.941963196,-0.001916992,0.0027323,0.999827981
11.184582,-0.443740845,-0.411781311,-2.002998352,-0.002649414,0.008103393,1.000438333
11.185207,-0.565811157,-0.312599182,-2.086921692,-0.002527344,0.005906128,1.004466653
11.185832,-0.367446899,-0.388893127,-2.224250793,0.001989258,0.00663855,0.999827981
11.186459,-0.52003479,-0.289710999,-2.43787384,0.002477539,0.004441284,1.001536965
11.187086,-0.176712036,-0.388893127,-2.529426575,0.001989258,0.00663855,1.00349009
11.187712,-0.321670532,-0.358375549,-2.682014465,-0.002771485,0.005906128,1.002391458
11.188338,-0.298782349,-0.304969788,-2.758308411,-0.000696289,0.005539917,1.002147317
11.188963,-0.336929321,-0.221046448,-2.85749054,0.001134765,0.007004761,1.00336802
11.18959,-0.512405396,-0.434669495,-3.147407532,0.001745117,0.005784058,1.004100442
11.190216,-0.52003479,-0.045570374,-3.139778137,-0.001306641,0.007126831,1.000926614
11.190842,-0.28352356,-0.274452209,-3.34577179,-0.000452149,0.003464722,1.002025247
11.191469,-0.474258423,-0.282081604,-3.376289368,0.000768554,0.005784058,1.001659036
11.192095,-0.222488403,-0.25919342,-3.711982727,-0.000452149,0.005906128,1.006663918
11.192721,-0.359817505,-0.34311676,-3.658576965,0.002233398,0.007004761,1.00336802
11.193346,-0.100418091,-0.221046448,-3.879829407,0.003698242,0.005784058,1.002391458
11.193972,-0.428482056,-0.358375549,-4.062934875,0.005285156,0.008957885,1.004222512
11.194597,-0.527664185,-0.289710999,-4.482551575,0.005651367,0.006150268,1.002391458
11.195222,-0.466629028,-0.358375549,-4.375740051,0.008947265,0.007370972,0.99958384
11.195847,-0.390335083,-0.518592834,-4.917427063,0.007116211,0.008713745,1.001659036
11.196472,-0.329299927,-0.480445862,-5.230232239,0.008703125,0.01066687,1.000438333
11.197098,-0.542922974,-0.4270401,-5.321784973,0.00675,0.007981323,1.002513528
11.197724,-0.359817505,-0.457557678,-5.764289856,0.00675,0.009446166,0.9993397
11.19835,-0.565811157,-0.350746155,-6.130500793,0.007726562,0.001023315,1.003978372
11.198976,-0.649734497,-0.67881012,-6.145759583,0.003820312,0.002244018,1.004466653
11.199603,-0.512405396,-0.503334045,-6.565376282,0.008092773,0.003708862,1.001536965
11.200229,-0.512405396,-0.579627991,-6.664558411,0.011632812,0.00688269,1.001903176
11.200854,-0.718399048,-0.541481018,-6.786628723,0.009191406,0.00297644,1.005443215
11.201481,-0.741287231,-0.846656799,-7.053657532,0.009069336,0.004563354,1.000316262
11.202106,-0.787063599,-0.533851624,-7.129951477,0.008336914,0.004075073,0.997386575
11.202731,-0.596328735,-0.67881012,-7.160469055,0.009313476,0.002488159,1.001170754
11.203356,-0.718399048,-0.655921936,-7.473274231,0.010045898,-0.000807739,1.003978372
11.203983,-0.764175415,-0.816139221,-7.480903625,0.013219726,0.000168823,1.006297708
11.204608,-0.527664185,-0.671180725,-7.625862122,0.016027343,0.000535034,1.001659036
11.205234,-0.893875122,-0.503334045,-7.641120911,0.013341797,-0.000563599,1.001292825
11.205859,-0.932022095,-0.716957092,-7.625862122,0.020177733,0.00285437,1.002391458
11.206485,-0.916763306,-0.655921936,-7.923408508,0.027013671,-0.002272583,1.002269387
11.207111,-0.962539673,-0.724586487,-7.816596985,0.028478514,-0.004591919,1.003001809
11.207736,-1.046463013,-0.701698303,-7.953926086,0.034337889,-0.0050802,1.005443215
11.208361,-0.893875122,-0.716957092,-8.350654602,0.039098632,-0.010695435,1.004954934
11.208987,-0.993057251,-0.800880432,-8.2133255,0.04617871,-0.011427857,0.99946177
11.209613,-0.741287231,-0.938209534,-8.159919739,0.047765624,-0.013258912,1.002513528
11.210239,-0.817581177,-0.823768616,-8.449836731,0.049108397,-0.011305787,1.002025247
11.210865,-0.863357544,-0.793251038,-8.198066711,0.051305663,-0.013380982,1.005443215
11.21149,-0.901504517,-0.99924469,-8.068367004,0.048131835,-0.015578248,1.006053567
11.212115,-0.932022095,-0.930580139,-7.931037903,0.055822264,-0.015334107,1.005687356
11.224793,-0.657363892,-0.839027405,-5.237861633,-0.057825197,0.009324096,1.001536965
11.225523,-0.649734497,-1.045021057,-5.436225891,-0.04744922,0.011277221,1.005687356
11.22615,-0.802322388,-1.128944397,-5.359931946,-0.045618165,0.008103393,1.007762551
11.226776,-0.68788147,-0.808509827,-5.344673157,-0.029260743,-0.004591919,1.003978372
11.227403,-0.649734497,-0.861915588,-5.489631653,-0.006189453,-0.010817505,1.010326028
11.228028,-0.481887817,-0.991615295,-5.932136536,0.008825195,-0.007643677,1.009227395
11.228655,-0.344558716,-1.037391663,-6.244941711,0.020055663,-0.011305787,1.006908059
11.22928,-0.390335083,-0.938209534,-6.664558411,0.023351561,-0.005324341,1.004588723
11.229907,-0.489517212,-0.861915588,-6.91632843,0.013463867,-0.001906372,1.001048684
11.230532,-0.542922974,-0.938209534,-7.046028137,-0.007654297,-0.003249146,1.00349009
11.231158,-0.672622681,-0.709327698,-6.984992981,-0.030725587,0.00688269,1.001659036
11.231783,-0.657363892,-0.739845276,-6.618782043,-0.051599611,0.006394409,1.002513528
11.232408,-0.649734497,-0.793251038,-6.161018372,-0.06441699,0.008591674,1.005809426
11.233034,-0.664993286,-0.777992249,-5.710884094,-0.081018552,0.013596557,1.000682473
11.233661,-0.748916626,-0.800880432,-5.222602844,-0.09176074,0.01091101,0.998973489
11.234287,-0.825210571,-0.533851624,-4.543586731,-0.098474607,0.011277221,1.003001809
11.234913,-0.748916626,-0.350746155,-3.83405304,-0.098718747,0.010056518,1.004100442
11.235539,-0.741287231,-0.4270401,-3.086372375,-0.092615232,0.006272339,0.999827981
11.236165,-0.794692993,-0.350746155,-2.247138977,-0.077112302,0.003098511,1.000072122
11.23679,-0.764175415,-0.304969788,-1.720710754,-0.062585935,0.001877808,1.007030129
11.237417,-0.787063599,-0.335487366,-1.125617981,-0.050256837,-0.00117395,1.001781106
11.238042,-0.680252075,-0.266822815,-0.706001282,-0.035364259,-0.00105188,0.99958384
11.238668,-0.634475708,-0.251564026,-0.423713684,-0.022546876,0.000412964,1.001659036
11.239294,-0.718399048,-0.182899475,-0.16431427,-0.011316407,0.000046753,0.997874856
11.23992,-0.726028442,-0.152381897,0.049308777,-0.007410157,0.00285437,0.999705911
11.240545,-1.130386353,-0.175270081,0.110343933,-0.004602539,-0.001906372,1.000316262
11.241171,-0.642105103,-0.053199768,0.00353241,-0.006921875,-0.001418091,1.001414895
11.241796,-0.817581177,-0.358375549,-0.095649719,-0.006067383,-0.000319458,1.001659036
11.242422,-0.779434204,-0.304969788,0.232414246,-0.008264649,0.001633667,0.99958384
11.243049,-0.779434204,-0.282081604,-0.049873352,-0.006921875,-0.000441528,1.001292825
11.243675,-0.756546021,-0.327857971,0.079826355,-0.007532227,0.002121948,0.9993397
11.244302,-0.794692993,-0.571998596,0.095085144,-0.005701172,0.00285437,1.002879739
11.244928,-0.794692993,-0.419410706,-0.171943665,-0.004480469,0.000901245,1.003856301
11.245553,-0.787063599,-0.274452209,0.163749695,-0.004480469,-0.003249146,1.006663918
11.246178,-0.672622681,-0.59488678,0.102714539,-0.00472461,-0.002028442,1.005687356
11.246804,-0.741287231,-0.602516174,-0.149055481,-0.002893555,-0.002760864,1.010203958
11.247429,-0.451370239,-0.51096344,0.217155457,-0.003625977,-0.002150513,1.006297708
11.248056,-0.474258423,-0.205787659,-0.065132141,-0.00496875,-0.001906372,1.005077004
11.248682,-0.443740845,-0.556739807,0.011161804,-0.00484668,0.000046753,1.007762551
11.249307,-0.489517212,-0.373634338,-0.072761536,-0.003137696,0.001633667,1.004466653
11.249932,-0.611587524,-0.4270401,0.041679382,-0.008875,0.001267456,1.004832864
11.250558,-0.382705688,-0.442298889,-0.065132141,-0.005457032,0.003464722,0.998607278
11.251183,-0.489517212,-0.51096344,-0.034614563,-0.005212891,0.005295776,1.001659036
11.25181,-0.542922974,-0.648292542,0.011161804,-0.006189453,-0.000075317,1.006175637
11.252436,-0.748916626,-0.579627991,0.102714539,-0.007654297,0.003464722,1.006297708
11.253063,-0.367446899,-0.663551331,0.011161804,-0.008997071,-0.001784302,1.006297708
11.253689,-0.443740845,-0.564369202,0.049308777,-0.003992188,-0.000075317,1.007640481
11.267498,-0.039382935,-0.686439514,-0.042243958,-0.006799805,-0.00092981,0.997630715
11.268178,-0.001235962,-0.755104065,-0.210090637,-0.005334961,-0.001540161,1.000560403
11.268804,0.014022827,-0.785621643,-0.088020325,-0.004114258,0.000901245,1.001536965
11.269431,0.242904663,-0.533851624,-0.049873352,-0.006067383,-0.001662232,1.002757668
11.270057,-0.016494751,-0.518592834,-0.110908508,-0.005090821,-0.002150513,1.000438333
11.270682,0.044540405,-0.480445862,-0.232978821,-0.007776367,-0.002638794,1.001048684
11.271307,-0.062271118,-0.419410706,-0.210090637,-0.007776367,-0.003859497,1.000438333
11.271934,0.082687378,-0.556739807,-0.263496399,-0.01265918,-0.003249146,1.00349009
11.272559,0.014022827,-0.655921936,-0.606819153,-0.022791017,-0.007399536,1.003612161
11.273185,0.143722534,-0.549110413,-1.110359192,-0.042322267,-0.027174927,0.998851418
11.273812,-0.138565063,-0.442298889,-1.697822571,-0.073572263,-0.048659302,1.000438333
11.274437,-0.184341431,-0.4270401,-3.330513,-0.103845701,-0.074660279,1.001292825
11.275064,-0.329299927,-0.350746155,-5.726142883,-0.128503904,-0.097853638,1.002391458
11.275691,-0.321670532,-0.160011292,-7.984443665,-0.145837888,-0.115797974,1.004954934
11.276316,-0.565811157,-0.221046448,-11.19641876,-0.157556638,-0.118483521,1.006053567
11.276942,-0.153823853,0.030723572,-14.12610626,-0.157068357,-0.119704224,1.001536965
11.277567,0.021652222,0.038352966,-16.7201004,-0.146204099,-0.111647584,0.999827981
11.278194,-0.298782349,-0.144752502,-19.35224152,-0.149988279,-0.108962037,0.999705911
11.278819,-0.359817505,0.114646912,-21.76313019,-0.144128904,-0.097487427,0.99958384
11.279445,-0.321670532,-0.02268219,-23.31189728,-0.11129199,-0.07514856,1.001659036
11.280071,-0.169082642,-0.198158264,-24.83014679,-0.096033201,-0.065016724,1.003001809
11.280696,-0.207229614,0.091758728,-25.60834503,-0.065759763,-0.034865357,1.0071522
11.281321,0.235275269,-0.030311584,-25.84485626,-0.041833986,-0.02815149,0.998118997
11.281948,-0.039382935,-0.098976135,-25.88300324,-0.007410157,0.000412964,0.997508645
11.282574,-0.214859009,-0.205787659,-25.53968048,0.031408202,0.013352416,1.001170754
11.2832,-0.153823853,-0.312599182,-24.83014679,0.040807616,0.02250769,1.001414895
11.283825,-0.306411743,-0.358375549,-24.1206131,0.03445996,0.012742065,1.000316262
11.284451,-0.237747192,-0.404151917,-23.64759064,0.036413085,0.011765502,0.999950051
11.285076,-0.069900513,-0.480445862,-23.18982697,0.052770507,0.019089721,1.006908059
11.285701,0.067428589,-0.366004944,-22.47266388,0.055822264,0.019211791,1.005565286
11.303778,-0.794692993,-0.221046448,-27.30207062,-0.000696289,0.001023315,1.001170754
11.304405,-0.619216919,-0.312599182,-27.40888214,-0.009241211,0.001755737,1.001903176
11.305032,-0.489517212,-0.358375549,-27.59198761,-0.004602539,0.006028198,1.005199075
11.305658,-0.43611145,-0.243934631,-27.84375763,-0.009363282,0.014206909,1.002391458
11.306284,-0.504776001,-0.335487366,-27.86664581,-0.011438477,0.013596557,0.998241067
11.306911,-0.642105103,-0.366004944,-27.95819855,-0.006189453,0.016160034,1.001903176
11.307537,-0.695510864,-0.388893127,-27.87427521,-0.004114258,0.016892456,1.004832864
11.308163,-0.489517212,-0.243934631,-27.85901642,-0.005823242,0.017991088,1.003123879
11.308788,-0.77180481,-0.182899475,-27.96582794,-0.009973633,0.019578002,0.998729348
11.309414,-0.626846313,-0.404151917,-27.62250519,-0.003503907,0.021286987,1.001048684
11.31004,-0.397964478,-0.243934631,-27.53095245,-0.009607422,0.017991088,1.000804543
11.310667,-0.741287231,-0.205787659,-27.40888214,-0.009241211,0.019700073,1.004344583
11.311292,-0.596328735,-0.320228577,-27.35547638,0.001256836,0.021042846,1.005565286
11.311917,-0.550552368,-0.442298889,-27.22577667,-0.005823242,0.019333862,1.004344583
11.312542,-0.657363892,-0.198158264,-27.26392365,-0.007654297,0.014451049,1.007518411
11.313168,-0.68788147,-0.358375549,-27.4699173,-0.014856446,0.006516479,0.998973489
11.313793,-0.703140259,-0.228675842,-27.82086945,-0.020959962,0.006394409,1.000926614
11.326538,-0.420852661,-0.114234924,-33.748909,-0.027429689,0.011765502,0.99946177
11.327292,-0.512405396,-0.297340393,-33.71839142,-0.027063478,0.013352416,1.001048684
11.327918,-0.359817505,-0.312599182,-34.13800812,-0.037439454,0.013474487,1.000316262
11.328545,-0.443740845,-0.091346741,-34.54999542,-0.025598634,0.021164916,1.004222512
11.329171,-0.336929321,-0.243934631,-34.47370148,-0.041711915,0.018967651,1.00349009
11.329796,-0.359817505,-0.091346741,-34.95435333,-0.045251954,0.00663855,0.999950051
11.330422,-0.733657837,-0.282081604,-35.46552277,-0.049768556,-0.000807739,1.004222512
11.331047,-0.573440552,-0.251564026,-36.04535675,-0.055627931,-0.002394653,1.003123879
11.331672,-0.474258423,-0.221046448,-36.64807892,-0.044763673,0.012253784,1.001414895
11.332298,-0.550552368,-0.297340393,-36.61756134,-0.037927736,0.017502807,1.004222512
11.332923,-0.413223267,-0.121864319,-36.91510773,-0.037073243,0.015305541,1.006053567
11.333549,-0.397964478,-0.327857971,-37.07532501,-0.034265626,0.020676635,1.005443215
11.334175,-0.184341431,-0.045570374,-36.58704376,-0.031213868,0.028244995,1.004100442
11.3348,-0.474258423,-0.34311676,-36.48023224,-0.022424806,0.033860229,1.004832864
11.335426,-0.466629028,-0.419410706,-36.38105011,-0.026453126,0.024949096,1.000804543
11.336051,-0.565811157,-0.358375549,-36.36579132,-0.046106447,0.019089721,1.004344583
11.336676,-0.451370239,-0.243934631,-36.1216507,-0.050256837,0.017258666,1.004588723
11.337302,-0.458999634,-0.25919342,-36.60993195,-0.056726564,0.019822143,1.002391458
11.337927,-0.428482056,-0.335487366,-36.60993195,-0.052576173,0.017136596,1.000438333
11.338552,-0.504776001,-0.167640686,-36.72437286,-0.055505861,0.028855346,1.00349009
11.339178,-0.504776001,-0.182899475,-36.90747833,-0.069910154,0.028122924,1.002879739
11.339804,-0.237747192,-0.526222229,-37.32709503,-0.074426755,0.018113159,1.003123879
11.340429,-0.321670532,-0.182899475,-37.48731232,-0.065881833,0.029709838,1.002147317
11.341055,-0.405593872,-0.129493713,-37.68567658,-0.072107419,0.025193237,1.002757668
11.34168,-0.298782349,-0.152381897,-37.92218781,-0.076990232,0.031174682,1.006908059
11.342305,-0.428482056,-0.228675842,-38.16632843,-0.080652341,0.025193237,1.001170754
11.342931,-0.275894165,-0.549110413,-38.80719757,-0.090662107,0.023728393,1.001903176
11.343556,-0.420852661,-0.137123108,-39.58539581,-0.090295896,0.024704956,0.999217629
11.344182,-0.428482056,-0.465187073,-39.98212433,-0.083459958,0.029343627,1.006053567
11.344808,-0.596328735,-0.236305237,-40.42462921,-0.091150388,0.018845581,1.002391458
11.345434,-0.611587524,-0.434669495,-40.65351105,-0.087732419,0.017258666,1.00324595
11.34606,-0.443740845,-0.228675842,-40.89765167,-0.081506833,0.019944213,1.004344583
11.346686,-0.443740845,-0.243934631,-41.30963898,-0.08419238,0.026169799,1.000560403
11.347312,-0.428482056,-0.518592834,-41.40119171,-0.078333005,0.027512573,1.000438333
11.347937,-0.466629028,-0.457557678,-41.67584992,-0.085779294,0.015549682,1.001536965
11.348562,-0.321670532,-0.587257385,-42.43115997,-0.087244138,0.012375854,1.005077004
11.349187,-0.153823853,-0.571998596,-42.70581818,-0.086511716,0.011155151,1.007518411
11.349812,0.220016479,-0.411781311,-42.87366486,-0.079675779,0.03032019,1.001659036
11.350438,-0.43611145,-0.472816467,-42.76685333,-0.101160154,0.032883666,0.999827981
11.351063,-0.390335083,-0.640663147,-43.01099396,-0.117517576,0.016037963,0.992747903
11.35169,-0.497146606,-0.472816467,-43.6442337,-0.088220701,0.015671752,1.009105325
11.352317,-0.146194458,-0.495704651,-43.9341507,-0.077112302,0.009934448,0.99946177
11.352944,-0.184341431,-0.480445862,-44.21643829,-0.09176074,0.011643432,1.014232278
11.353599,-0.253005981,-0.480445862,-44.51398468,-0.106042966,0.027390502,0.997142434
11.354226,-0.207229614,-0.67881012,-44.39954376,-0.125085935,0.019455932,0.988597512
11.354853,-0.649734497,-0.556739807,-44.79627228,-0.107996091,0.017991088,0.99543345
11.35548,-0.542922974,-0.671180725,-44.9107132,-0.081384763,0.001877808,1.005565286
11.369282,-0.375076294,-0.602516174,-43.14832306,-0.175867185,0.012497924,1.009471536
11.369984,-0.298782349,-0.34311676,-42.69818878,-0.184656247,0.008103393,1.009837747
11.370609,0.151351929,-0.228675842,-42.32434845,-0.204431638,0.004685425,1.006541848
11.371236,-0.069900513,0.114646912,-41.79029083,-0.187097654,0.009690307,1.000194192
11.371863,-0.085159302,-0.213417053,-41.86658478,-0.208704099,0.011033081,0.997752786
11.372489,-0.207229614,-0.327857971,-41.44696808,-0.184290037,0.028611206,1.007640481
11.373114,-0.458999634,-0.236305237,-41.79029083,-0.196497068,0.016648315,0.998729348
11.37374,-0.581069946,-0.198158264,-41.47748566,-0.222009763,0.010422729,1.004344583
11.374366,-0.596328735,-0.396522522,-41.59192658,-0.186731443,0.012253784,0.997630715
11.374993,-0.741287231,-0.839027405,-41.25623322,-0.13887988,0.018357299,1.007640481
11.375618,-1.061721802,-0.381263733,-40.56958771,-0.166467771,0.005906128,1.006541848
11.376244,-0.458999634,-0.602516174,-40.7221756,-0.174890622,0.024338745,1.001903176
11.37687,-0.550552368,-0.221046448,-41.17993927,-0.177332029,0.025071166,1.005687356
11.377495,-0.367446899,-0.449928284,-41.28675079,-0.12716113,0.033127807,0.996165872
11.37812,-0.550552368,-0.755104065,-41.30200958,-0.134241208,0.034958862,0.994578958
11.378746,-0.916763306,-0.297340393,-41.21808624,-0.141199216,0.032883666,1.0071522
11.379372,-0.886245728,-0.884803772,-40.7145462,-0.137170896,0.016526245,0.990428567
11.379999,-0.535293579,-0.724586487,-40.69165802,-0.143518552,0.020310424,1.003856301
11.380625,-0.596328735,-0.808509827,-39.95160675,-0.130579099,0.04191687,1.016673684
11.381251,-0.359817505,-0.892433167,-39.08948517,-0.128381833,0.028367065,0.98005259
11.381878,-0.489517212,-0.640663147,-38.78430939,-0.136926755,0.03422644,1.001903176
11.382503,-0.581069946,-0.770362854,-38.45624542,-0.144495115,0.031296752,1.012035012
11.383129,-0.664993286,-0.716957092,-38.3494339,-0.164026365,0.013230346,0.996043801
11.383756,-0.321670532,-1.029762268,-38.15869904,-0.110681638,0.031785034,1.012889504
11.384383,-0.832839966,-0.655921936,-37.73145294,-0.134241208,0.021409057,0.989940286
11.385012,-1.321121216,-0.564369202,-37.31183624,-0.126794919,0.016160034,0.988719583
11.385638,-1.626296997,-1.243385315,-36.62519074,-0.085168943,0.013718627,1.010448098
