time,gyro x,gyro y,gyro z,accel x,accel y,accel z
8.975457,-0.142601013,0.058334351,-0.050094604,0.000809082,0.008051025,1.001140594
8.996023,-0.157859802,0.210922241,0.018569946,0.006424316,0.020502197,0.997600555
8.996650,-0.287559509,0.218551636,0.056716919,-0.009566895,0.001947510,1.001140594
8.997277,-0.257041931,-0.002700806,0.194046021,-0.000289551,-0.015874757,1.008464813
8.997902,-0.028160095,-0.071365356,-0.057723999,0.003860840,0.015985595,0.997722626
8.998604,-0.455406189,0.157516479,0.018569946,0.002640137,0.012201415,0.992961884
8.999231,-0.417259216,0.119369507,0.064346313,0.000809082,-0.006109131,1.002117157
8.999857,-0.432518005,0.134628296,-0.050094604,0.001541504,0.002924072,0.998699188
9.000482,-0.539329529,0.157516479,0.026199341,-0.002730957,0.001215088,0.997600555
9.001108,-0.264671326,0.310104370,0.110122681,0.001541504,-0.005132569,1.003337860
9.001734,0.048133850,0.104110718,0.194046021,-0.008102051,-0.018804444,1.010662079
9.002359,0.231239319,-0.017959595,-0.088241577,0.004349121,0.005243408,1.005413055
9.002986,0.109169006,0.096481323,0.079605103,-0.001754395,0.013666259,0.996379852
9.003612,-0.005271912,0.058334351,-0.179794312,0.000564941,-0.006475342,1.004070282
9.004237,-0.066307068,0.218551636,0.049087524,0.007156738,0.019647704,0.992473602
9.004864,-0.646141052,0.172775269,0.010940552,-0.006881348,0.005121338,0.996623993
9.005489,-0.348594666,0.111740112,-0.034835815,0.002273926,-0.019414796,1.008342743
9.006115,0.017616272,0.073593140,0.224563599,-0.001388184,-0.001104248,1.005657196
9.006740,-0.272300720,0.096481323,-0.088241577,-0.006881348,0.008905517,1.000286102
9.007366,0.277015686,0.035446167,-0.080612183,0.004837402,0.000482666,1.003215790
9.007993,-0.272300720,0.287216187,0.140640259,0.003494629,0.029169189,0.992351532
9.008619,-0.714805603,0.165145874,-0.103500366,-0.001021973,-0.011602296,1.004070282
9.009244,-0.501182556,0.233810425,0.155899048,0.003006347,-0.000493897,1.000896454
9.009870,-0.478294373,0.065963745,0.064346313,-0.004439942,0.000726806,1.007244110
9.010496,-0.402000427,0.241439819,0.323745728,-0.003585449,-0.005620850,1.003459930
9.011122,-0.104454041,0.020187378,0.003311157,-0.000167481,-0.005742920,1.007244110
9.011748,-0.005271912,0.081222534,0.010940552,-0.002364746,0.008295165,1.001140594
9.012373,-0.020530701,-0.063735962,-0.004318237,0.002762207,-0.001592529,1.004558563
9.012999,-0.051048279,0.134628296,0.117752075,0.004593262,0.006464111,1.001384735
9.013625,-0.211265564,-0.025588989,0.026199341,-0.003829590,0.000116455,0.999431610
9.014250,-0.058677673,0.172775269,-0.126388550,0.003494629,-0.008672608,1.001995087
9.014877,0.101539612,0.126998901,-0.072982788,-0.000655762,0.003900635,0.997844696
9.015504,-0.119712830,0.004928589,-0.057723999,0.000687012,-0.000127686,1.001140594
9.016130,-0.279930115,0.241439819,-0.042465210,0.008865722,0.024286376,0.989665985
9.016755,-0.752952576,0.233810425,-0.248458862,-0.007125488,-0.006963623,0.997844696
9.017380,-0.203636169,0.249069214,-0.011947632,-0.000411621,-0.015020264,1.010295868
9.018010,0.017616272,-0.063735962,-0.027206421,0.006180176,0.011346923,0.999797821
9.018636,-0.333335876,0.233810425,0.056716919,-0.004073731,0.007928954,0.995769501
9.019262,-0.409629822,0.264328003,-0.187423706,0.007400879,-0.003179444,0.998088837
9.019887,-0.096824646,-0.002700806,0.026199341,-0.010421387,-0.021856202,1.013225555
9.020513,0.383827209,-0.208694458,-0.088241577,0.006790527,0.003656494,1.005535126
9.021138,0.048133850,0.394027710,-0.034835815,-0.001876465,0.025507079,0.987224579
9.021764,-0.012901306,-0.140029907,0.102493286,-0.007125488,-0.032354247,1.012859344
9.022390,0.414344788,0.104110718,-0.027206421,0.003250488,0.006219971,1.002239227
9.023015,0.223609924,0.050704956,0.140640259,0.003616699,0.020990478,0.994670868
9.023642,-1.073387146,0.706832886,0.010940552,0.012039551,0.057977784,0.971111298
9.024267,-1.401451111,0.241439819,-0.095870972,-0.004562012,-0.040288817,1.007854462
9.024894,-0.699546814,0.310104370,0.003311157,0.011062988,0.002679931,0.999919891
9.025519,-0.951316833,0.363510132,-0.080612183,-0.011031738,-0.005620850,1.001750946
9.026145,-0.363853455,0.073593140,-0.080612183,0.001297363,-0.012945069,1.007244110
9.039360,-0.638511658,0.516098022,-0.118759155,-0.013473145,0.092035398,0.960735321
9.040058,-1.325157166,0.027816772,0.079605103,0.003006347,-0.058843505,1.007854462
9.040683,0.338050842,0.126998901,0.041458130,0.000564941,-0.041143309,1.020793915
9.041310,0.467750549,0.134628296,-0.004318237,-0.006148926,0.026483642,1.000774384
9.041935,-0.134971619,-0.002700806,-0.042465210,-0.004073731,0.008051025,0.993450165
9.042562,-0.035789490,0.004928589,0.125381470,0.016312011,-0.004644287,1.001750946
9.043189,0.116798401,0.035446167,0.033828735,-0.042281739,-0.046880614,1.027629852
9.043814,0.689002991,0.073593140,0.087234497,0.069534667,0.100824460,0.962322235
9.044440,-1.676109314,0.645797729,-0.141647339,-0.054977052,-0.015264405,0.993816376
9.045066,-0.051048279,0.439804077,0.056716919,-0.022384278,0.020380126,0.992595673
9.045693,0.376197815,-0.109512329,-0.149276733,-0.022750489,-0.086431399,1.036418915
9.046320,1.329872131,-0.193435669,0.018569946,0.013992676,0.030756103,0.998210907
9.046947,0.269386292,-0.124771118,-0.065353394,0.023025878,0.085809812,0.966106415
9.047574,-1.744773865,0.516098022,-0.225570679,0.006912597,0.026483642,0.976726532
9.048200,-1.256492615,0.226181030,-0.210311890,-0.005172363,-0.069097415,1.017620087
9.048825,-0.279930115,0.424545288,-0.072982788,-0.001754395,0.004755127,1.002239227
9.049450,-0.424888611,0.317733765,-0.027206421,-0.001998535,0.016595947,0.991985321
9.050076,-0.478294373,0.218551636,0.117752075,-0.003707520,-0.027227296,1.006145477
9.050703,-0.501182556,0.394027710,-0.034835815,0.008743652,0.030389892,0.986858368
9.051330,-0.722434998,0.119369507,0.018569946,-0.022628419,-0.026250733,1.006389618
9.051955,-0.180747986,0.012557983,-0.126388550,0.014847168,-0.005376709,0.999187469
9.052581,-0.432518005,0.462692261,-0.126388550,-0.015548340,0.005975830,0.997966766
9.053208,0.864479065,-0.544387817,0.186416626,-0.046798341,-0.144903079,1.066448212
9.053835,3.138038635,-0.338394165,0.102493286,0.054397948,0.097406492,0.985393524
9.054462,-0.066307068,-0.361282349,-0.019577026,-0.037032716,0.050653566,0.975749969
9.055089,0.826332092,-0.719863892,0.003311157,0.033645995,-0.071294680,1.027019501
9.055714,1.139137268,0.020187378,-0.072982788,0.004104980,0.067133054,0.988079071
9.056340,-0.638511658,-0.170547485,0.216934204,-0.036056153,-0.025274171,1.009685516
9.056967,1.688453674,-0.574905396,0.003311157,0.033768065,-0.046636473,1.032634735
9.057594,-0.188377380,0.622909546,-0.080612183,0.015579590,0.183343992,0.929363251
9.058219,-1.149681091,-0.643569946,0.079605103,-0.037398927,-0.177862063,1.062908173
9.058845,1.581642151,0.188034058,0.071975708,0.074539550,0.114984617,0.969280243
9.059471,-3.293540955,0.806015015,-0.248458862,-0.063033693,0.100092039,0.940349579
9.060098,-1.683738708,-0.147659302,-0.057723999,0.002640137,-0.228399172,1.073284149
9.060724,2.550575256,0.043075562,0.216934204,0.002884277,0.009882079,1.023601532
9.061349,0.711891174,-0.346023560,0.247451782,-0.008346192,0.092035398,0.975749969
9.061974,0.627967834,-0.704605103,-0.225570679,-0.014571778,-0.119268313,1.040569305
9.062599,1.940223694,0.142257690,0.087234497,0.012649902,0.047235597,0.998699188
9.063226,1.078102112,-0.407058716,0.003311157,-0.008834473,0.013666259,1.005046844
9.063852,1.085731506,-0.399429321,-0.088241577,0.010940918,0.006830322,0.997844696
9.064477,-0.043418884,0.195663452,0.194046021,-0.005538574,0.065668210,0.973064423
9.065103,-0.333335876,-0.201065063,-0.019577026,0.012039551,-0.048833739,1.019329071
9.065728,0.246498108,0.195663452,-0.195053101,-0.003707520,0.005975830,1.002605438
9.066353,0.536415100,-0.277359009,0.262710571,-0.004928223,-0.033330809,1.018108368
9.066979,0.513526917,0.004928589,-0.126388550,0.023270018,0.064569578,0.978435516
9.067606,-0.791099548,0.317733765,0.026199341,-0.009200684,0.015375243,0.979534149
9.068231,-1.012351990,0.416915894,0.110122681,0.005203613,0.007440674,0.989299774
9.068856,-0.257041931,0.012557983,0.018569946,-0.010299317,-0.048711669,1.017986298
9.069482,0.307533264,-0.071365356,-0.042465210,-0.017013185,-0.022344483,1.013713837
9.083810,0.338050842,-0.239212036,0.003311157,0.003616699,-0.019536866,1.005168915
9.084536,1.238319397,-0.323135376,0.033828735,-0.000045410,-0.013555421,1.015422821
9.085163,-0.501182556,0.462692261,-0.095870972,0.025223143,0.133295164,0.940349579
9.085788,-1.630332947,-0.063735962,-0.111129761,-0.018233888,-0.100347415,1.022869110
9.086414,0.689002991,0.371139526,0.033828735,0.014847168,-0.014043702,1.021282196
9.087039,0.093910217,0.210922241,-0.149276733,-0.007979981,0.060052980,0.985515594
9.087666,-0.585105896,0.088851929,0.041458130,-0.007003418,-0.032232177,1.010051727
9.088291,0.055763245,0.264328003,0.148269653,0.007278808,0.012445556,1.006877899
9.088918,-1.103904724,0.325363159,-0.187423706,0.009842285,0.067255124,0.970134735
9.089543,-1.508262634,0.065963745,0.026199341,0.004959472,-0.041143309,1.009563446
9.090169,-0.379112244,0.493209839,0.125381470,-0.012862793,-0.039922606,1.022380829
9.090796,0.017616272,0.004928589,-0.072982788,0.001419433,0.030634033,1.002117157
9.091422,-1.119163513,0.554244995,-0.072982788,0.003982910,0.057367433,0.975139618
9.092049,-1.332786560,0.104110718,-0.195053101,-0.024703614,-0.052251708,1.018718719
9.092675,0.650856018,-0.536758423,0.033828735,-0.019698732,-0.104009524,1.061077118
9.093301,2.603981018,-0.689346313,0.285598755,-0.006881348,0.011224853,1.017375946
9.093926,1.436683655,-0.696975708,0.026199341,0.022415526,0.090448484,0.973186493
9.094552,-0.432518005,-0.201065063,0.087234497,0.005081543,0.010248290,0.989421844
9.096274,-0.600364685,0.203292847,-0.042465210,-0.000533692,-0.014165772,0.995037079
9.096900,0.101539612,-0.277359009,-0.065353394,0.004715332,-0.015996827,1.004924774
9.097526,0.040504456,-0.017959595,0.079605103,0.005447754,0.025018798,0.996990204
9.098153,-0.485923767,0.088851929,0.018569946,0.003860840,0.011224853,0.994426727
9.098778,-0.501182556,0.050704956,0.209304810,-0.018111818,-0.033941161,1.011638641
9.099403,0.231239319,-0.201065063,0.209304810,-0.001144043,-0.009282960,1.009929657
9.100029,0.734779358,-0.101882935,0.071975708,0.000198730,-0.003545654,1.005290985
9.100671,-0.073936462,-0.239212036,0.117752075,0.017166503,0.082391843,0.965618134
9.101298,-1.439598083,-0.010330200,0.079605103,-0.009444824,-0.038457762,1.001262665
9.101924,-0.226524353,0.203292847,-0.294235229,0.006424316,-0.007451904,1.007366180
9.102549,-0.249412537,-0.048477173,0.087234497,0.001541504,0.016229736,0.994792938
9.103188,-0.821617126,0.043075562,0.102493286,-0.005660645,0.003168213,0.992473602
9.103813,-0.112083435,-0.056106567,-0.210311890,-0.003097168,-0.041631591,1.016887665
9.104439,0.742408752,-0.208694458,0.201675415,-0.004439942,-0.050176512,1.021892548
9.105064,1.352760315,0.043075562,-0.004318237,0.001419433,0.058343995,0.991497040
9.105690,-0.196006775,-0.178176880,-0.019577026,-0.006881348,0.043939698,0.972087860
9.106315,-0.249412537,-0.040847778,0.117752075,0.009109863,-0.061284911,1.012981415
9.106941,0.498268127,0.157516479,-0.118759155,0.002884277,0.032220948,0.993938446
9.107568,-0.394371033,0.348251343,-0.011947632,-0.000411621,0.021356689,0.985637665
9.108193,-0.096824646,-0.025588989,0.094863892,-0.000045410,-0.037847411,1.007732391
9.108818,0.193092346,0.081222534,-0.027206421,-0.004928223,0.010614501,1.006145477
9.109444,-0.340965271,0.126998901,-0.057723999,-0.013351074,0.012933837,0.996257782
9.110070,-0.241783142,-0.048477173,0.003311157,0.029251464,-0.012090577,1.000408173
9.110696,0.414344788,0.142257690,-0.057723999,-0.023971193,-0.036748778,1.015178680
9.111323,0.704261780,-0.407058716,-0.011947632,0.012527832,0.045770753,0.996746063
9.111948,-0.966575623,0.256698608,-0.072982788,0.005203613,0.053094972,0.969402313
9.112574,-0.798728943,-0.132400513,0.102493286,-0.005538574,-0.074590579,1.022502899
9.113199,0.544044495,0.302474976,0.033828735,0.011795410,0.016962158,1.005413055
9.113824,-0.470664978,0.218551636,-0.195053101,-0.005904785,0.030878173,0.984661102
9.114449,-0.470664978,0.264328003,0.125381470,0.004593262,-0.029790772,1.004314423
9.115074,-8.389976501,3.995101929,-0.187423706,0.187698737,0.788324475,0.697673798
9.128044,-1.103904724,0.134628296,-0.072982788,-0.003707520,0.002313721,1.005290985
9.128737,-0.730064392,0.111740112,0.102493286,0.000564941,-0.005010498,1.011150360
9.129362,-0.737693787,0.332992554,0.071975708,-0.000289551,-0.000371826,1.004436493
9.129988,-0.524070740,0.355880737,0.033828735,-0.000899903,0.001581299,1.006877899
9.130615,-0.546958923,0.249069214,-0.027206421,-0.001998535,-0.002691162,1.004680634
9.131241,-0.623252869,0.188034058,0.018569946,0.001175293,0.002191650,1.002483368
9.131866,-0.798728943,0.195663452,0.026199341,0.000320801,-0.001592529,1.001628876
9.132492,-0.524070740,0.180404663,-0.042465210,-0.001510254,-0.000860108,1.003704071
9.133118,-0.569847107,0.126998901,0.186416626,-0.001632324,0.001947510,0.999187469
9.133743,-0.531700134,0.233810425,0.163528442,-0.004073731,0.001947510,1.004680634
9.134369,-0.875022888,0.203292847,0.117752075,0.000687012,-0.001714600,0.999431610
9.134995,-0.554588318,0.371139526,0.133010864,0.001785644,-0.006475342,0.996013641
9.135620,-0.615623474,0.394027710,-0.057723999,0.003860840,-0.000127686,1.000408173
9.136245,-0.691917419,0.310104370,0.064346313,0.001053222,0.004022705,0.996746063
9.136870,-0.478294373,0.188034058,-0.027206421,-0.000533692,-0.002935303,0.997600555
9.137496,-0.424888611,0.355880737,-0.233200073,0.004593262,0.000970947,0.996257782
9.138122,-0.516441345,0.218551636,0.148269653,0.000687012,0.001825439,0.998455048
9.138749,-0.554588318,0.233810425,-0.080612183,-0.001144043,-0.001104248,0.996013641
9.139374,-0.554588318,0.439804077,-0.156906128,0.000687012,0.001093017,1.000041962
9.140000,-0.768211365,0.348251343,-0.080612183,0.003860840,-0.001470459,0.994670868
9.140625,-0.745323181,0.401657104,0.117752075,-0.000899903,0.000848877,0.991497040
9.141252,-0.875022888,0.477951050,-0.141647339,0.002151855,0.002435791,0.995647430
9.141878,-0.791099548,0.485580444,0.026199341,0.002029785,0.000360596,0.999065399
9.142504,-0.844505310,0.584762573,0.117752075,0.002884277,-0.002447022,0.995403290
9.143131,-0.661399841,0.348251343,-0.072982788,0.001785644,0.002802002,0.992595673
9.143756,-0.730064392,0.401657104,-0.050094604,0.000809082,0.001825439,0.998577118
9.144381,-0.859764099,0.569503784,-0.240829468,0.002151855,-0.000615967,0.997600555
9.145013,-0.951316833,0.546615601,0.117752075,0.001663574,0.003534424,1.000774384
9.145638,-1.065757751,0.226181030,-0.156906128,0.001175293,-0.001714600,1.003215790
9.146264,-0.897911072,0.592391968,-0.195053101,-0.001998535,-0.000005615,1.000286102
9.146891,-0.958946228,0.538986206,-0.050094604,0.004959472,-0.000615967,1.001384735
9.147517,-0.943687439,0.477951050,-0.034835815,0.000931152,0.000116455,0.999919891
9.148142,-0.958946228,0.508468628,0.003311157,0.000809082,-0.001104248,1.002727509
9.148769,-0.791099548,0.310104370,-0.263717651,0.001663574,-0.001714600,1.001018524
9.149396,-0.730064392,0.378768921,0.056716919,0.001541504,-0.001470459,1.000530243
9.150023,-0.867393494,0.630538940,-0.034835815,-0.002242676,-0.000493897,1.004558563
9.150650,-0.897911072,0.477951050,-0.034835815,0.000809082,0.000848877,1.001995087
9.151277,-0.966575623,0.409286499,-0.202682495,-0.000655762,-0.000738037,1.005535126
9.151902,-0.730064392,0.432174683,-0.134017944,-0.001632324,0.000726806,1.006633759
9.152527,-0.958946228,0.477951050,-0.187423706,0.003860840,0.001337158,1.002239227
9.153153,-0.905540466,0.424545288,-0.057723999,0.000076660,-0.017949952,1.002239227
9.153780,-0.180747986,0.294845581,0.125381470,0.003494629,-0.025640382,1.009563446
9.154406,0.025245667,0.607650757,-0.103500366,0.001419433,0.014276611,1.004436493
9.155033,-0.234153748,0.569503784,-0.080612183,-0.000899903,0.003290283,0.999065399
9.155659,-0.257041931,0.462692261,0.003311157,-0.000289551,-0.007818116,1.003459930
9.156284,-0.127342224,0.508468628,-0.118759155,-0.005050293,0.004877197,1.004802704
9.156909,-0.272300720,0.661056519,0.140640259,-0.008590332,0.003900635,1.002605438
9.157535,-0.478294373,0.546615601,0.018569946,-0.005050293,-0.002324951,1.005168915
9.158160,-0.279930115,0.416915894,-0.172164917,-0.000167481,0.003290283,0.998455048
9.170735,-0.546958923,0.386398315,-0.034835815,-0.000533692,-0.004766358,0.998943329
9.171437,-0.440147400,0.172775269,0.140640259,0.001297363,-0.002324951,1.001628876
9.172062,-0.264671326,0.287216187,0.079605103,-0.003341309,-0.000249756,1.003337860
9.172687,-0.524070740,-0.010330200,-0.210311890,0.002273926,0.003534424,0.998699188
9.173313,-0.516441345,0.233810425,0.201675415,-0.001754395,0.001093017,1.002605438
9.173938,-0.257041931,-0.048477173,0.194046021,0.001541504,0.000238525,1.002483368
9.174565,-0.165489197,0.172775269,-0.156906128,-0.000655762,0.001093017,1.001262665
9.175191,-0.493553162,0.111740112,0.140640259,-0.002242676,0.000604736,1.005046844
9.175817,-0.463035583,0.004928589,-0.202682495,0.000564941,-0.003301514,1.000041962
9.176442,-0.463035583,0.096481323,0.117752075,-0.003829590,0.001947510,1.001506805
9.177067,-0.295188904,0.027816772,0.064346313,-0.001998535,-0.000738037,1.004680634
9.177693,-0.310447693,0.126998901,-0.095870972,0.000809082,0.002313721,1.003337860
9.178320,-0.272300720,0.027816772,-0.164535522,0.001419433,-0.002691162,1.000774384
9.178946,-0.402000427,0.020187378,0.155899048,-0.002120606,0.000604736,1.004436493
9.179571,-0.455406189,-0.010330200,0.255081177,-0.000167481,0.002069580,1.002483368
9.180198,-0.783470154,0.188034058,0.026199341,0.000198730,-0.003301514,1.002483368
9.180823,-0.066307068,0.035446167,-0.019577026,0.002273926,-0.002813233,1.002239227
9.181448,-0.188377380,-0.002700806,-0.050094604,0.000198730,-0.001348389,1.006389618
9.182073,-0.447776794,0.203292847,0.049087524,-0.000655762,-0.002447022,1.002727509
9.182699,-0.478294373,0.165145874,-0.202682495,0.000198730,0.002191650,1.003582001
9.183324,-0.226524353,0.058334351,-0.149276733,0.001907715,0.001337158,1.004314423
9.183951,-0.112083435,0.111740112,0.064346313,0.002151855,-0.000860108,1.002239227
9.184576,-0.257041931,0.088851929,-0.027206421,-0.002120606,-0.000982178,1.004802704
9.185201,-0.051048279,-0.086624146,0.087234497,0.000687012,-0.001592529,1.002971649
9.185827,-0.180747986,0.111740112,0.003311157,-0.002364746,0.006219971,1.004070282
9.186453,-0.264671326,0.058334351,0.026199341,-0.006026856,0.002924072,1.001018524
9.187079,-0.295188904,0.088851929,-0.103500366,-0.000777832,0.000482666,0.999187469
9.187704,0.078651428,-0.040847778,-0.134017944,0.000564941,0.000604736,1.002605438
9.188331,-0.058677673,0.058334351,-0.011947632,-0.001388184,-0.000005615,1.001750946
9.188957,-0.035789490,0.065963745,0.010940552,0.003738769,0.001703369,1.000286102
9.189583,-0.150230408,0.035446167,-0.034835815,-0.000411621,-0.001104248,1.000530243
9.190209,-0.051048279,-0.109512329,-0.118759155,-0.001021973,-0.001104248,1.002361298
9.190836,-0.028160095,-0.063735962,0.033828735,0.000320801,0.000360596,1.001506805
9.191462,-0.142601013,-0.086624146,-0.126388550,0.000198730,-0.001104248,1.001262665
9.192089,0.048133850,-0.017959595,-0.050094604,-0.000411621,0.002069580,0.999919891
9.192714,-0.127342224,0.027816772,-0.126388550,0.000320801,-0.000005615,1.001506805
9.193340,-0.035789490,-0.063735962,-0.088241577,0.001297363,-0.000493897,1.003093719
9.193965,-0.073936462,-0.239212036,-0.080612183,-0.000167481,0.002191650,0.998332977
9.194592,0.048133850,0.081222534,-0.072982788,0.002029785,0.000116455,1.000041962
9.196330,0.048133850,-0.010330200,-0.164535522,-0.000533692,-0.000860108,0.999797821
9.196956,-0.081565857,0.241439819,0.041458130,-0.000655762,-0.000493897,1.000896454
9.197582,0.055763245,0.020187378,-0.004318237,-0.001021973,-0.000738037,1.002727509
9.198208,-0.028160095,0.088851929,-0.065353394,-0.002120606,0.001337158,1.001018524
9.198835,0.132057190,0.012557983,0.064346313,-0.001266113,-0.000615967,1.001262665
9.199462,-0.073936462,0.073593140,0.003311157,-0.003341309,-0.000493897,1.002483368
9.200087,0.246498108,0.027816772,-0.034835815,-0.001510254,-0.001104248,1.004558563
9.200712,-0.028160095,0.012557983,0.094863892,0.001297363,0.000360596,1.003948212
9.201339,0.055763245,-0.010330200,-0.019577026,0.001419433,-0.001348389,1.002727509
9.201964,0.055763245,0.043075562,-0.088241577,0.000076660,0.002191650,1.001873016
9.214575,0.208351135,-0.101882935,-0.027206421,-0.001144043,-0.001958740,1.001750946
9.215285,0.193092346,0.081222534,0.171157837,-0.001632324,-0.000493897,0.999065399
9.215912,0.193092346,0.096481323,0.041458130,0.000564941,-0.001470459,1.001262665
9.216538,0.231239319,-0.147659302,-0.034835815,0.001175293,-0.000493897,1.004436493
9.217165,0.299903870,0.027816772,-0.088241577,-0.000167481,0.001703369,1.001262665
9.217790,0.208351135,0.027816772,0.010940552,-0.000167481,0.000482666,1.002239227
9.218415,0.299903870,-0.231582642,0.155899048,-0.000777832,-0.000371826,0.999431610
9.219042,0.330421448,0.020187378,-0.126388550,0.001053222,-0.002202881,1.000530243
9.219668,0.261756897,-0.025588989,0.194046021,-0.001266113,-0.000860108,0.999431610
9.220293,0.231239319,-0.025588989,-0.141647339,0.000320801,0.003290283,1.000286102
9.220919,0.307533264,0.004928589,-0.179794312,0.000931152,0.002435791,0.998455048
9.221544,0.238868713,-0.010330200,0.026199341,0.001541504,0.001215088,1.000164032
9.222170,0.322792053,0.096481323,-0.217941284,-0.000045410,0.000482666,1.001873016
9.222795,0.429603577,-0.025588989,-0.004318237,0.000931152,0.001581299,1.001018524
9.223421,0.170204163,0.058334351,0.056716919,0.003372558,0.000482666,1.002117157
9.224046,0.177833557,0.004928589,-0.072982788,-0.002364746,0.000604736,1.002605438
9.224672,0.238868713,-0.117141724,-0.034835815,0.000687012,0.001581299,1.000286102
9.225298,0.223609924,-0.155288696,-0.111129761,-0.001388184,-0.001470459,1.003093719
9.225923,0.185462952,-0.078994751,0.071975708,0.001419433,0.000604736,1.001750946
9.226550,0.147315979,0.165145874,0.003311157,0.001907715,0.001703369,1.003459930
9.244661,0.246498108,-0.078994751,0.003311157,-0.001632324,-0.001714600,1.001262665
9.245286,0.040504456,0.035446167,0.125381470,-0.000655762,-0.001104248,1.000041962
9.245913,-0.043418884,-0.056106567,0.018569946,0.000198730,-0.000005615,0.999065399
9.246540,-0.012901306,-0.185806274,0.056716919,-0.001021973,0.001093017,1.001262665
9.247165,0.048133850,0.004928589,-0.034835815,0.000687012,-0.002447022,1.001750946
9.247790,0.063392639,-0.284988403,-0.034835815,0.000564941,0.002435791,1.001506805
9.248415,0.231239319,-0.315505981,-0.042465210,-0.001998535,-0.002935303,1.003215790
9.249040,-0.005271912,-0.254470825,0.064346313,-0.002242676,0.001093017,1.002361298
9.249665,0.025245667,-0.063735962,0.102493286,0.001541504,-0.000982178,1.001140594
9.250291,0.009986877,-0.201065063,0.056716919,-0.000045410,0.000848877,1.002727509
9.250918,0.269386292,-0.277359009,0.110122681,0.001419433,-0.001470459,1.003337860
9.251543,0.139686584,-0.048477173,-0.126388550,0.002884277,-0.000249756,1.002483368
9.252170,0.338050842,-0.132400513,-0.034835815,-0.001388184,-0.000127686,0.999309540
9.252795,0.231239319,-0.147659302,0.277969360,0.000320801,0.000848877,0.999919891
9.253420,0.116798401,-0.239212036,0.094863892,0.001053222,-0.001714600,0.999919891
9.254046,0.322792053,-0.223953247,-0.095870972,-0.002608887,-0.001226319,1.002605438
9.254671,0.238868713,-0.071365356,0.140640259,-0.001144043,-0.000982178,1.001750946
9.255297,0.231239319,-0.330764771,0.049087524,0.000564941,-0.002324951,0.997356415
9.255923,0.132057190,-0.071365356,-0.080612183,0.000320801,0.000970947,1.003093719
9.256549,0.299903870,-0.178176880,0.018569946,-0.000899903,-0.000493897,1.003215790
9.257175,0.009986877,-0.147659302,-0.050094604,-0.000533692,-0.001592529,1.003093719
9.257801,0.399085999,0.020187378,-0.019577026,0.001785644,-0.002324951,0.998332977
9.258426,0.139686584,-0.109512329,-0.149276733,-0.000289551,-0.001958740,1.000774384
9.259051,0.299903870,-0.155288696,0.049087524,-0.002853028,-0.001104248,1.003215790
9.259677,0.406715393,-0.170547485,0.003311157,-0.001510254,-0.002569092,1.001995087
9.260302,0.246498108,-0.185806274,-0.111129761,-0.001266113,-0.000127686,1.002605438
9.260928,0.376197815,-0.094253540,0.155899048,-0.000655762,0.003046142,0.996623993
9.261553,0.071022034,-0.040847778,0.087234497,-0.002486817,0.000848877,0.999065399
9.262179,0.261756897,-0.048477173,0.041458130,0.001419433,0.000116455,1.002849579
9.274844,0.406715393,-0.208694458,-0.072982788,0.000931152,-0.000860108,1.000286102
9.275568,0.223609924,-0.178176880,0.056716919,0.001663574,-0.003545654,1.000530243
9.276193,0.269386292,-0.071365356,-0.065353394,-0.001998535,0.000238525,1.002727509
9.276819,0.483009338,-0.216323853,-0.072982788,-0.001388184,-0.002935303,1.003948212
9.277444,0.345680237,-0.185806274,-0.004318237,0.001175293,0.003778564,1.001018524
9.278071,0.414344788,-0.140029907,0.277969360,-0.002608887,-0.002691162,1.000041962
9.278697,0.490638733,0.035446167,-0.103500366,0.002640137,0.000970947,1.000652313
9.279322,0.254127502,-0.147659302,0.064346313,-0.000167481,-0.001470459,1.001384735
9.279948,0.505897522,-0.277359009,0.026199341,0.000198730,-0.001104248,0.998332977
9.280574,0.322792053,-0.071365356,-0.027206421,-0.000655762,-0.001348389,1.002971649
9.281199,0.406715393,-0.361282349,0.018569946,0.000320801,0.003290283,0.999919891
9.281825,0.444862366,-0.109512329,-0.195053101,0.001175293,-0.002691162,1.002483368
9.282451,0.475379944,-0.017959595,-0.195053101,0.002884277,-0.003057373,1.001384735
9.283076,0.353309631,-0.101882935,0.133010864,0.001785644,0.002191650,1.001750946
9.283702,0.231239319,-0.086624146,0.033828735,0.001175293,0.003290283,0.998821259
9.284327,0.452491760,-0.147659302,-0.050094604,0.001663574,0.008295165,0.999675751
9.284953,0.544044495,-0.292617798,0.087234497,0.002762207,0.001581299,0.999065399
9.285578,0.261756897,-0.246841431,0.056716919,-0.004684082,0.004999267,0.997234344
9.286203,0.246498108,-0.094253540,0.010940552,0.003860840,0.003046142,0.999675751
9.286828,0.315162659,-0.277359009,0.003311157,-0.001510254,0.001703369,1.002117157
9.287455,0.368568420,-0.117141724,-0.065353394,0.004104980,0.001581299,0.997112274
9.288080,0.345680237,-0.376541138,0.148269653,0.000442871,0.003290283,0.997600555
9.288706,0.139686584,-0.178176880,0.140640259,0.002029785,0.001093017,1.000408173
9.289331,0.055763245,-0.056106567,0.087234497,0.001663574,0.001581299,1.000530243
9.289957,0.277015686,-0.246841431,-0.027206421,-0.000533692,-0.003179444,0.999919891
9.290583,0.231239319,-0.284988403,-0.050094604,0.002395996,-0.001836670,1.000652313
9.291208,0.284645081,-0.384170532,0.010940552,0.001663574,0.005609619,0.997478485
9.291834,0.360939026,-0.170547485,0.018569946,-0.000533692,-0.008550538,1.002117157
9.292459,0.277015686,-0.132400513,0.026199341,0.001663574,0.004144775,1.000041962
9.293086,0.170204163,-0.254470825,0.003311157,-0.000411621,0.005731689,1.000774384
9.293713,0.063392639,-0.223953247,-0.126388550,-0.003951660,-0.002935303,1.000164032
9.294338,0.360939026,-0.078994751,0.071975708,0.002273926,-0.015996827,1.008098602
9.294965,0.597450256,-0.223953247,0.056716919,-0.004195801,-0.006841553,1.008831024
9.296721,0.719520569,-0.437576294,0.071975708,-0.001876465,-0.007940186,1.006877899
9.297346,0.658485413,-0.193435669,0.171157837,0.009231933,0.018671142,0.995647430
9.297973,0.307533264,-0.140029907,0.102493286,-0.006026856,-0.013555421,1.006877899
9.298599,0.681373596,-0.147659302,-0.118759155,0.020218261,0.012079345,1.000408173
9.299226,-0.463035583,0.188034058,-0.095870972,-0.011764160,0.043939698,0.981853485
9.299851,-0.196006775,-0.246841431,0.316116333,0.001419433,-0.049322020,1.015178680
9.300477,0.627967834,-0.117141724,-0.011947632,-0.001754395,-0.001348389,1.004802704
9.301102,0.574562073,-0.262100220,0.110122681,-0.009688965,0.003900635,1.003093719
9.301728,0.826332092,-0.399429321,0.026199341,-0.003341309,-0.038701903,1.015178680
9.302353,1.680824280,-0.353652954,0.079605103,0.000809082,0.005243408,1.007244110
9.302980,1.154396057,-0.262100220,0.003311157,0.002884277,0.024774658,0.992595673
9.303606,0.788185120,-0.132400513,0.102493286,-0.007247559,-0.001104248,1.002483368
9.304232,0.994178772,-0.445205688,0.087234497,0.001053222,-0.016363038,1.004070282
9.304858,1.581642151,-0.460464478,0.041458130,-0.013961426,-0.044439208,1.021526337
9.305541,2.565834045,-0.536758423,0.026199341,-0.028365724,-0.044072997,1.026775360
9.306168,4.160377502,-1.330215454,0.140640259,0.038650878,0.037103761,1.010295868
9.318777,0.605079651,-0.391799927,-0.050094604,0.002884277,0.025262939,0.987957001
9.319467,0.200721741,-0.429946899,0.003311157,0.004959472,0.025262939,0.983562469
9.320093,0.368568420,-0.208694458,0.087234497,-0.004562012,-0.052862059,1.010662079
9.320720,0.956031799,-0.460464478,0.224563599,0.010452637,0.011224853,0.996501923
9.321345,0.460121155,-0.277359009,0.018569946,-0.007247559,0.028925048,0.984539032
9.321970,0.414344788,-0.178176880,-0.042465210,0.004959472,-0.013311280,1.000164032
9.322597,0.643226624,-0.239212036,0.117752075,0.001663574,0.003290283,0.997112274
9.323222,0.299903870,-0.094253540,-0.095870972,-0.000777832,0.015375243,0.992839813
9.323849,0.284645081,-0.269729614,-0.134017944,-0.000533692,-0.010625733,0.996013641
9.324475,0.589820862,-0.078994751,0.033828735,0.002518066,-0.000615967,0.996623993
9.325100,0.246498108,-0.162918091,0.003311157,0.001297363,0.005975830,0.996257782
9.325726,0.284645081,-0.262100220,-0.034835815,0.003250488,-0.000371826,0.998210907
9.326351,0.284645081,-0.262100220,-0.034835815,0.003250488,-0.000371826,0.998210907
9.326977,0.307533264,0.104110718,-0.011947632,0.000931152,0.000482666,1.002483368
9.327603,0.299903870,0.058334351,0.201675415,0.001175293,0.001947510,0.998455048
9.328230,0.345680237,-0.071365356,-0.004318237,0.017166503,-0.011602296,0.998577118
9.328856,-0.188377380,0.271957397,-0.027206421,-0.044356935,0.000238525,1.003337860
9.329481,0.360939026,-0.140029907,-0.011947632,0.042435057,0.015741454,0.997722626
9.330107,0.177833557,0.340621948,0.064346313,-0.016524903,-0.009160889,1.000286102
9.330732,0.322792053,-0.094253540,0.186416626,-0.007491699,0.006342041,1.006877899
9.331358,0.154945374,-0.185806274,0.064346313,0.013138183,0.003046142,1.005046844
9.331983,0.025245667,0.218551636,0.026199341,-0.002242676,0.000482666,1.002361298
9.332608,0.009986877,-0.071365356,0.010940552,-0.003463379,-0.000005615,1.002971649
9.333234,0.421974182,0.157516479,0.033828735,0.003250488,0.000970947,0.998943329
9.333859,0.223609924,0.027816772,-0.072982788,-0.001266113,0.001093017,1.002605438
9.334484,0.132057190,0.043075562,0.171157837,-0.000411621,-0.000005615,1.001262665
9.335110,0.147315979,0.188034058,-0.004318237,0.001419433,-0.000005615,1.003826141
9.335735,0.025245667,0.157516479,-0.004318237,-0.001510254,0.002679931,1.004436493
9.336360,0.147315979,0.157516479,0.064346313,0.002395996,0.000238525,1.007122040
9.336987,0.009986877,-0.109512329,-0.141647339,0.000320801,0.001337158,1.002605438
9.337614,0.139686584,0.096481323,0.178787231,-0.002486817,-0.000615967,1.001384735
9.338241,-0.127342224,-0.086624146,0.125381470,-0.000167481,0.000604736,1.003826141
9.338867,0.063392639,-0.094253540,0.003311157,0.002029785,-0.000127686,1.002727509
9.339492,0.154945374,-0.056106567,-0.095870972,-0.000655762,0.002924072,1.003582001
9.340117,-0.005271912,0.241439819,0.155899048,-0.000167481,0.000726806,1.002117157
9.340742,0.071022034,0.073593140,-0.004318237,0.000198730,-0.002080811,1.002727509
9.341367,0.208351135,-0.063735962,-0.057723999,0.000198730,0.003534424,1.003826141
9.341993,0.002357483,-0.178176880,-0.080612183,0.000442871,0.000482666,1.000896454
9.342619,0.208351135,-0.078994751,-0.027206421,0.002395996,-0.000615967,1.001262665
9.343244,0.055763245,-0.132400513,0.056716919,-0.000777832,0.000482666,1.001506805
9.343871,0.139686584,-0.048477173,-0.072982788,-0.000289551,0.001581299,0.997356415
9.344497,-0.066307068,-0.178176880,0.125381470,0.002884277,0.001459228,0.999919891
9.345122,0.025245667,0.104110718,0.018569946,-0.000167481,-0.000982178,1.000164032
9.345747,-0.089195251,0.027816772,-0.057723999,-0.000167481,0.002069580,1.000164032
9.346373,0.116798401,0.111740112,-0.034835815,0.001907715,-0.000371826,1.001506805
9.347000,-0.165489197,0.149887085,0.049087524,-0.000899903,0.001093017,1.002727509
9.347626,0.025245667,0.020187378,-0.111129761,-0.001388184,0.000238525,1.001995087
9.348252,0.177833557,0.142257690,-0.019577026,0.001907715,0.000970947,0.999553680
9.348879,0.154945374,-0.078994751,0.087234497,-0.001021973,-0.001714600,0.999675751
9.349506,0.101539612,0.020187378,0.216934204,0.002273926,0.000482666,0.999919891
9.362100,0.154945374,0.043075562,0.049087524,-0.001510254,0.001459228,1.002239227
9.362831,0.032875061,0.065963745,-0.103500366,0.000198730,-0.001226319,1.004802704
9.363456,0.086280823,-0.086624146,-0.027206421,-0.003341309,0.000482666,1.002361298
9.364082,0.109169006,-0.178176880,0.102493286,0.002518066,0.001337158,1.000286102
9.364707,-0.096824646,-0.178176880,-0.050094604,-0.001632324,0.001459228,0.998699188
9.365332,0.132057190,0.081222534,-0.019577026,-0.002486817,0.000360596,1.000652313
9.365958,0.139686584,0.271957397,-0.004318237,0.001419433,0.000482666,0.999675751
9.366584,0.017616272,-0.162918091,0.003311157,-0.002486817,0.001703369,0.996990204
9.367209,-0.043418884,0.065963745,-0.057723999,0.001053222,0.001703369,1.001506805
9.367834,0.048133850,0.012557983,0.079605103,0.001663574,0.000726806,1.000408173
9.368461,0.132057190,0.027816772,0.102493286,-0.002975098,0.001459228,1.001873016
9.369088,-0.119712830,-0.201065063,-0.034835815,0.001175293,-0.000127686,1.001995087
9.369713,0.032875061,0.134628296,-0.072982788,0.002395996,0.001459228,1.001018524
9.370338,-0.035789490,-0.033218384,0.049087524,-0.000167481,0.005121338,1.002361298
9.370964,0.208351135,-0.056106567,0.018569946,0.001175293,0.003168213,0.998943329
9.371589,0.101539612,0.249069214,-0.141647339,0.003006347,0.001215088,1.000041962
9.372215,0.002357483,0.149887085,-0.011947632,-0.000167481,0.000726806,0.999675751
9.372840,0.025245667,-0.010330200,0.026199341,0.000687012,0.002313721,1.001140594
9.373466,-0.134971619,0.012557983,-0.179794312,0.001785644,-0.000860108,1.002361298
9.374091,0.002357483,-0.048477173,0.018569946,0.000931152,0.001337158,0.999187469
9.374716,0.002357483,-0.040847778,-0.072982788,-0.000899903,0.001337158,1.001262665
9.375341,0.040504456,0.104110718,0.026199341,-0.000533692,0.002191650,1.001140594
9.375966,0.223609924,-0.162918091,-0.156906128,-0.001144043,0.002679931,0.998088837
9.376592,-0.043418884,-0.002700806,0.239822388,0.001175293,0.002679931,1.001018524
9.377218,-0.043418884,-0.002700806,0.087234497,-0.000777832,0.001581299,1.001384735
9.377843,0.055763245,0.172775269,-0.149276733,-0.001266113,-0.000982178,1.000896454
9.378468,-0.104454041,0.104110718,-0.118759155,0.001175293,0.000482666,1.001873016
9.379094,0.162574768,0.104110718,0.010940552,0.000931152,-0.000249756,1.000041962
9.379720,-0.035789490,-0.109512329,-0.095870972,-0.000411621,-0.000005615,1.003093719
9.380346,-0.035789490,0.035446167,-0.019577026,-0.002242676,0.002557861,0.998088837
9.380972,0.055763245,0.058334351,-0.050094604,-0.003829590,-0.000738037,1.001262665
9.381598,-0.066307068,0.096481323,0.003311157,-0.002120606,0.000726806,1.001628876
9.382224,-0.180747986,-0.094253540,0.064346313,-0.001144043,0.000970947,1.002117157
9.382850,0.193092346,-0.086624146,-0.034835815,-0.000899903,0.000848877,1.002727509
9.383476,-0.066307068,-0.071365356,0.003311157,-0.001876465,-0.001348389,1.006511688
9.384101,0.170204163,0.188034058,0.003311157,0.001053222,0.001581299,1.000652313
9.384726,0.215980530,0.073593140,-0.065353394,-0.000411621,0.000482666,1.004436493
9.385351,0.101539612,-0.201065063,-0.088241577,-0.001388184,-0.001470459,1.003215790
9.385977,0.002357483,0.157516479,0.026199341,-0.001510254,0.001825439,1.001750946
9.386602,0.055763245,0.004928589,0.049087524,-0.001754395,0.000482666,1.004314423
9.387229,-0.188377380,0.081222534,-0.019577026,0.002395996,0.001581299,1.002605438
9.387856,-0.020530701,0.012557983,-0.057723999,0.002762207,0.001215088,1.003459930
9.388482,0.132057190,-0.140029907,0.071975708,-0.000411621,0.001459228,1.001628876
9.389108,0.116798401,-0.017959595,0.003311157,-0.002486817,0.001337158,1.000896454
9.389733,0.154945374,0.027816772,0.087234497,-0.000899903,0.000116455,1.000774384
9.390359,-0.043418884,0.035446167,-0.202682495,0.000564941,0.001215088,1.002361298
9.390986,0.116798401,-0.002700806,-0.156906128,-0.000777832,-0.000371826,1.002605438
9.391611,0.063392639,-0.040847778,0.010940552,0.003738769,0.002679931,1.002605438
9.392236,-0.112083435,0.180404663,-0.065353394,0.000931152,0.001337158,1.002605438
9.406066,0.193092346,0.065963745,-0.095870972,-0.001876465,0.000970947,0.999675751
9.406750,0.093910217,-0.017959595,-0.118759155,-0.002364746,0.000116455,0.999065399
9.407377,0.193092346,-0.155288696,-0.057723999,-0.001266113,0.001093017,0.998821259
9.408010,0.040504456,-0.025588989,0.102493286,-0.001510254,-0.000738037,0.999065399
9.408637,0.071022034,0.065963745,-0.065353394,0.000320801,-0.000738037,0.999431610
9.409263,0.078651428,-0.017959595,-0.050094604,0.000687012,0.001703369,0.999553680
9.409889,0.101539612,-0.056106567,-0.004318237,0.000809082,-0.000615967,1.000530243
9.410514,0.025245667,0.142257690,0.110122681,-0.000167481,0.001337158,0.998943329
9.411139,0.162574768,-0.117141724,0.010940552,-0.000167481,-0.000005615,1.001262665
9.411764,-0.073936462,-0.140029907,-0.004318237,0.001175293,0.001459228,0.998332977
9.412390,-0.028160095,-0.078994751,-0.141647339,-0.000899903,0.002924072,1.000286102
9.413016,0.002357483,0.111740112,-0.179794312,0.002884277,0.001581299,1.002483368
9.413642,-0.043418884,0.004928589,-0.072982788,-0.003219238,0.001703369,1.003826141
9.414267,0.063392639,0.058334351,0.064346313,-0.002364746,0.001337158,1.001140594
9.414892,0.124427795,-0.109512329,0.064346313,0.001053222,0.003290283,1.001506805
9.415518,0.071022034,0.035446167,0.064346313,0.001297363,0.002313721,1.003337860
9.416144,0.124427795,-0.117141724,0.079605103,-0.000167481,-0.000127686,1.002483368
9.416770,0.063392639,-0.063735962,-0.034835815,0.002273926,0.002313721,1.000286102
9.417395,-0.096824646,-0.071365356,0.079605103,-0.000533692,0.000970947,1.001750946
9.418020,0.124427795,0.027816772,-0.141647339,0.000198730,-0.000860108,1.001384735
9.418646,0.124427795,0.027816772,0.102493286,0.001053222,-0.000127686,1.001506805
9.419272,-0.020530701,-0.017959595,-0.202682495,0.001663574,0.001581299,1.001873016
9.419898,0.071022034,-0.017959595,-0.057723999,-0.000167481,-0.000005615,1.004070282
9.420523,-0.020530701,0.065963745,-0.034835815,0.001541504,0.000604736,1.002117157
9.421149,0.078651428,0.004928589,-0.149276733,0.000320801,-0.000738037,1.001873016
9.421775,0.048133850,-0.147659302,0.194046021,0.002151855,-0.001348389,1.004558563
9.422400,0.162574768,-0.132400513,-0.164535522,0.000809082,0.001215088,1.002727509
9.423025,0.162574768,-0.132400513,-0.164535522,0.000809082,0.001215088,1.002727509
9.423652,0.147315979,0.020187378,0.010940552,-0.001021973,0.000848877,1.003704071
9.424279,-0.005271912,0.165145874,-0.034835815,-0.000655762,-0.000615967,1.001628876
9.424905,0.025245667,-0.078994751,-0.065353394,0.001785644,0.001703369,1.002727509
9.425532,0.170204163,-0.124771118,0.026199341,0.000564941,-0.001226319,1.002361298
9.426158,-0.005271912,0.058334351,-0.042465210,0.001663574,0.001337158,1.002605438
9.426784,-0.226524353,0.073593140,-0.011947632,0.000076660,-0.000127686,1.003093719
9.427409,0.009986877,-0.223953247,-0.004318237,0.003006347,0.003534424,1.001140594
9.428034,0.078651428,-0.025588989,-0.019577026,-0.000533692,-0.001714600,1.001995087
9.428660,-0.020530701,0.004928589,-0.004318237,-0.000045410,0.002924072,1.000896454
9.429285,0.071022034,-0.292617798,-0.004318237,-0.000777832,0.002313721,1.001262665
9.429910,-0.058677673,0.020187378,0.010940552,-0.001754395,0.001703369,1.000408173
9.430536,0.002357483,0.203292847,0.094863892,0.000442871,0.002069580,1.001873016
9.431162,0.063392639,-0.017959595,-0.027206421,-0.000167481,-0.000249756,0.999431610
9.431788,-0.051048279,-0.117141724,-0.095870972,-0.001021973,0.000604736,0.997966766
9.432414,-0.112083435,0.188034058,-0.225570679,0.000076660,-0.001104248,1.000164032
9.433039,0.109169006,0.104110718,-0.050094604,-0.002242676,-0.000615967,1.003459930
9.433664,0.200721741,-0.056106567,0.018569946,0.001785644,0.002435791,0.998210907
9.434289,0.009986877,0.058334351,-0.134017944,0.000931152,-0.000127686,0.999309540
9.434915,0.009986877,-0.040847778,-0.103500366,0.000687012,0.000848877,0.998699188
9.435540,0.040504456,-0.132400513,0.064346313,-0.001144043,-0.001958740,1.000041962
9.436165,-0.020530701,-0.170547485,-0.050094604,0.002029785,-0.002080811,1.002361298
9.448862,-0.043418884,-0.086624146,-0.027206421,-0.000411621,0.000482666,0.996746063
9.449576,0.116798401,-0.033218384,-0.004318237,0.000320801,0.002557861,1.003582001
9.450203,-0.028160095,0.012557983,-0.027206421,-0.002975098,0.000360596,1.001628876
9.450830,0.071022034,-0.071365356,0.018569946,-0.000167481,0.000970947,1.000530243
9.451456,-0.051048279,0.073593140,-0.050094604,-0.001876465,0.001581299,1.001384735
9.452083,-0.119712830,0.111740112,-0.278976440,-0.001510254,-0.000371826,1.000652313
9.452709,-0.196006775,0.012557983,0.064346313,0.003250488,0.000604736,1.001140594
9.453335,0.139686584,-0.162918091,-0.011947632,0.002395996,-0.000249756,1.002605438
9.453961,0.055763245,-0.239212036,-0.271347046,0.003006347,0.000848877,1.000041962
9.454586,-0.089195251,-0.078994751,-0.141647339,-0.003463379,0.001825439,1.000652313
9.455213,-0.028160095,0.020187378,0.079605103,0.002029785,0.001215088,1.002971649
9.455838,-0.134971619,-0.254470825,-0.072982788,-0.001144043,0.001581299,1.000286102
9.456463,0.040504456,-0.109512329,0.117752075,0.000809082,0.002435791,1.000286102
9.457090,-0.066307068,0.004928589,-0.050094604,0.002640137,-0.000249756,1.002117157
9.457716,0.055763245,-0.178176880,-0.042465210,0.000198730,-0.000005615,1.001750946
9.458342,0.017616272,-0.117141724,0.003311157,0.002640137,-0.000493897,1.003215790
9.458967,0.162574768,-0.078994751,0.071975708,0.001297363,0.002679931,1.001384735
9.459594,0.116798401,0.088851929,-0.011947632,0.001541504,0.001459228,1.000408173
9.460220,-0.112083435,-0.109512329,-0.126388550,-0.000167481,0.000726806,0.999675751
9.460846,0.071022034,-0.155288696,-0.080612183,0.002884277,-0.000371826,1.001628876
9.461472,-0.142601013,-0.033218384,-0.057723999,-0.000411621,-0.000371826,0.999797821
9.462098,-0.142601013,-0.002700806,0.194046021,-0.000777832,0.002924072,1.001628876
9.462723,0.193092346,-0.170547485,-0.149276733,-0.000167481,-0.002080811,1.002727509
9.463348,-0.051048279,-0.078994751,0.026199341,0.000809082,0.002313721,1.002971649
9.463974,-0.180747986,0.088851929,0.087234497,0.001297363,0.000726806,1.001506805
9.464599,-0.035789490,-0.048477173,-0.210311890,-0.001998535,0.001337158,1.000164032
9.465226,0.238868713,-0.101882935,-0.179794312,-0.000655762,0.000116455,1.004192352
9.465851,0.116798401,-0.124771118,-0.111129761,-0.000167481,0.001215088,1.002361298
9.466477,-0.073936462,-0.002700806,0.056716919,0.002518066,0.003046142,0.999797821
9.467103,0.063392639,0.111740112,-0.210311890,0.000931152,0.001703369,0.999187469
9.467728,-0.142601013,-0.178176880,-0.072982788,0.001053222,0.000848877,1.001506805
9.468354,0.048133850,0.104110718,-0.187423706,0.000442871,-0.000371826,1.001262665
9.468979,-0.218894958,0.065963745,0.140640259,-0.000289551,-0.002569092,0.998943329
9.469605,-0.051048279,-0.162918091,-0.011947632,-0.000777832,0.002557861,1.001750946
9.470231,0.002357483,0.004928589,-0.278976440,-0.001021973,0.001703369,1.000408173
9.470856,-0.043418884,-0.010330200,-0.034835815,0.000442871,0.002924072,1.000041962
9.471481,0.048133850,0.012557983,-0.225570679,0.002518066,0.002435791,1.001750946
9.472107,-0.142601013,0.027816772,0.216934204,-0.000533692,0.000116455,1.002971649
9.472733,0.078651428,-0.010330200,-0.057723999,-0.000533692,0.001337158,0.999919891
9.473358,0.025245667,0.226181030,-0.095870972,0.001419433,0.000726806,1.001384735
9.473985,0.017616272,-0.078994751,-0.042465210,-0.000045410,0.000726806,1.001995087
9.474611,-0.096824646,0.088851929,-0.332382202,0.000687012,0.002435791,1.004924774
9.475238,0.162574768,0.180404663,0.186416626,0.001053222,0.000726806,1.002727509
9.475864,-0.279930115,-0.170547485,-0.202682495,-0.000411621,0.000726806,0.999309540
9.476489,-0.127342224,0.104110718,-0.111129761,0.000442871,0.001703369,1.000286102
9.494643,0.101539612,0.050704956,-0.080612183,-0.000655762,0.002435791,1.003337860
9.495269,0.040504456,0.050704956,-0.126388550,0.001175293,0.003412353,1.001140594
9.495895,0.132057190,-0.254470825,0.041458130,0.001297363,0.000726806,0.998943329
9.496520,-0.272300720,-0.002700806,0.148269653,-0.001144043,-0.000615967,1.000896454
9.510427,0.116798401,0.126998901,0.056716919,0.001785644,0.006830322,0.999797821
9.511202,0.078651428,-0.109512329,-0.118759155,-0.002120606,-0.002080811,1.002605438
9.511827,0.025245667,0.027816772,-0.057723999,0.000931152,-0.000615967,0.997844696
9.512452,0.002357483,-0.033218384,-0.164535522,-0.000167481,0.005487549,0.999309540
9.513078,0.086280823,0.012557983,0.026199341,-0.005782715,0.000604736,1.005657196
9.513704,0.017616272,0.020187378,0.071975708,0.000809082,-0.002324951,1.002971649
9.514330,0.177833557,0.073593140,0.010940552,-0.001266113,0.006586181,1.001384735
9.514955,-0.165489197,-0.040847778,-0.050094604,-0.000167481,0.002557861,0.997478485
9.515581,-0.051048279,0.088851929,0.071975708,0.001297363,-0.003423584,0.996746063
9.516208,0.261756897,-0.025588989,0.003311157,0.002151855,0.002191650,0.994304657
9.516833,-0.142601013,0.043075562,0.056716919,0.003982910,0.003900635,1.003459930
9.517460,-0.173118591,-0.239212036,0.041458130,-0.004684082,-0.003423584,1.005779266
9.518085,0.147315979,-0.017959595,0.041458130,0.001785644,-0.002324951,0.996868134
9.518710,0.025245667,-0.025588989,0.056716919,-0.001510254,0.004755127,0.999675751
9.519337,-0.020530701,0.134628296,-0.065353394,-0.000289551,-0.002447022,1.008342743
9.519962,-0.112083435,-0.078994751,0.026199341,-0.000167481,0.001215088,1.006267548
9.520587,0.040504456,-0.040847778,0.102493286,0.002029785,0.000482666,0.999309540
9.521212,-0.066307068,0.027816772,-0.065353394,0.002029785,0.001825439,0.995891571
9.521837,0.002357483,-0.086624146,-0.080612183,-0.000167481,0.000238525,1.004192352
9.522462,0.040504456,-0.040847778,0.087234497,-0.002486817,-0.001714600,1.005290985
9.523087,-0.043418884,-0.086624146,-0.156906128,-0.003829590,0.004877197,0.998943329
9.523712,-0.127342224,0.020187378,-0.027206421,-0.002120606,0.005121338,1.001750946
9.524338,0.154945374,-0.140029907,-0.065353394,-0.000167481,-0.003423584,1.000286102
9.524963,0.048133850,0.012557983,-0.095870972,0.000809082,0.001337158,1.004924774
9.525588,-0.104454041,0.073593140,0.018569946,0.000687012,-0.001714600,1.001995087
9.526213,-0.020530701,-0.208694458,0.041458130,-0.002364746,0.003778564,0.999919891
9.526839,-0.005271912,0.050704956,-0.248458862,0.000931152,0.001459228,0.992839813
9.527464,-0.012901306,0.149887085,-0.172164917,-0.002364746,-0.000493897,0.998210907
9.528091,-0.020530701,-0.010330200,0.094863892,0.000198730,0.001215088,1.001140594
9.528716,0.139686584,-0.017959595,0.033828735,-0.000899903,0.002679931,1.006633759
9.529341,-0.157859802,0.020187378,-0.118759155,0.001785644,-0.000982178,1.004070282
9.529967,-0.096824646,-0.071365356,0.041458130,0.001663574,-0.000615967,1.001018524
9.530592,0.101539612,0.096481323,-0.088241577,0.002762207,-0.002569092,1.000408173
9.531217,-0.035789490,0.302474976,-0.019577026,0.003372558,0.004755127,0.993816376
9.531844,0.002357483,-0.056106567,0.079605103,-0.001021973,0.000848877,1.001873016
9.532470,0.032875061,-0.170547485,0.117752075,0.003250488,-0.000738037,1.002971649
9.533096,-0.295188904,0.096481323,-0.057723999,0.001297363,0.001825439,1.002361298
9.533721,0.048133850,-0.140029907,0.071975708,-0.001510254,0.003900635,1.004924774
9.534346,0.071022034,0.149887085,0.056716919,0.002395996,-0.003545654,1.000041962
9.534972,0.040504456,-0.033218384,-0.095870972,0.001175293,0.003290283,1.005168915
9.535599,-0.028160095,-0.010330200,0.018569946,0.000809082,-0.004033936,1.004192352
9.536225,0.139686584,0.264328003,-0.065353394,0.002029785,0.000482666,0.998943329
9.536851,-0.051048279,-0.086624146,-0.210311890,-0.000655762,0.004144775,1.001140594
9.537478,0.055763245,0.004928589,0.041458130,0.000442871,-0.001348389,1.001140594
9.538105,0.048133850,-0.109512329,-0.004318237,-0.001876465,0.001459228,1.003582001
9.538731,0.009986877,0.073593140,-0.034835815,-0.002242676,-0.000982178,0.998821259
9.539357,-0.051048279,0.050704956,-0.080612183,0.000687012,0.001337158,1.002483368
9.539982,0.009986877,-0.033218384,0.117752075,0.001053222,0.000726806,0.996013641
9.540609,-0.272300720,0.088851929,-0.080612183,0.003616699,0.000482666,0.994915009
9.553292,0.139686584,-0.109512329,-0.034835815,0.002884277,0.001825439,0.997966766
9.554010,-0.134971619,0.043075562,0.178787231,0.000320801,-0.003301514,1.002239227
9.554635,0.002357483,-0.025588989,-0.019577026,-0.001021973,-0.001226319,1.001262665
9.555262,0.009986877,0.058334351,-0.080612183,-0.000289551,0.002313721,1.001873016
9.555888,-0.051048279,-0.048477173,-0.065353394,-0.001266113,-0.000860108,1.002971649
9.556513,-0.005271912,0.264328003,-0.134017944,0.000687012,0.002435791,1.000408173
9.557139,-0.028160095,0.088851929,0.155899048,0.001297363,-0.001348389,1.000896454
9.557765,-0.035789490,0.004928589,0.064346313,-0.000899903,0.002313721,1.003337860
9.558391,0.162574768,0.134628296,0.041458130,-0.001021973,-0.001226319,1.004802704
9.559016,-0.035789490,0.149887085,0.041458130,0.001785644,0.002191650,1.003093719
9.559642,0.009986877,0.104110718,-0.027206421,-0.000167481,0.000482666,1.001628876
9.560267,0.032875061,-0.040847778,-0.111129761,-0.001632324,0.001093017,1.003459930
9.560892,0.132057190,0.058334351,0.033828735,-0.000411621,-0.003179444,0.999797821
9.561518,0.116798401,-0.056106567,0.056716919,-0.001144043,0.002924072,1.003337860
9.562144,-0.051048279,0.165145874,0.094863892,-0.000289551,0.000482666,1.002849579
9.562771,-0.104454041,0.088851929,0.010940552,0.000076660,-0.000493897,1.007122040
9.563396,-0.165489197,0.065963745,-0.111129761,0.002884277,-0.003667725,1.005535126
9.564021,0.162574768,0.119369507,0.049087524,-0.000411621,0.001581299,1.004680634
9.564647,-0.028160095,0.104110718,-0.034835815,-0.002853028,-0.000982178,1.007976532
9.565272,-0.112083435,0.027816772,-0.027206421,-0.002975098,0.000482666,1.013103485
9.565897,-0.028160095,0.088851929,0.018569946,0.001663574,-0.000738037,1.011150360
9.566523,0.025245667,-0.025588989,0.071975708,0.001663574,0.000482666,1.006389618
9.567149,-0.058677673,0.027816772,0.026199341,-0.001266113,0.003290283,1.004924774
9.567776,0.078651428,-0.201065063,0.026199341,0.000564941,-0.000371826,1.004436493
9.568401,-0.165489197,0.119369507,-0.072982788,0.000198730,-0.001592529,0.996501923
9.569026,-0.104454041,0.065963745,0.110122681,0.003250488,0.002435791,0.987957001
9.569651,-0.112083435,0.035446167,-0.057723999,0.002029785,-0.000982178,0.989299774
9.570277,0.002357483,-0.078994751,0.155899048,-0.000167481,-0.004400147,0.993694305
9.570903,-0.020530701,-0.017959595,0.110122681,0.001053222,0.002435791,0.993694305
9.571529,0.048133850,0.142257690,-0.202682495,-0.001144043,0.000604736,0.991130829
9.572154,-0.150230408,-0.208694458,-0.149276733,-0.000899903,0.001703369,0.997234344
9.572780,0.002357483,0.004928589,0.133010864,-0.001510254,0.001337158,0.999187469
9.573405,-0.066307068,-0.086624146,-0.095870972,0.001175293,0.003290283,0.998088837
9.574031,0.048133850,-0.040847778,0.041458130,0.001053222,0.002069580,0.996257782
9.574657,-0.012901306,-0.124771118,0.041458130,0.000687012,0.001825439,0.996501923
9.575282,-0.188377380,-0.048477173,0.003311157,0.000931152,0.000604736,0.993206024
9.575909,-0.142601013,0.104110718,0.010940552,0.001541504,0.000360596,0.990764618
9.576535,0.040504456,0.027816772,0.049087524,0.005691894,-0.000860108,0.993083954
9.577162,-0.127342224,0.050704956,-0.118759155,-0.001388184,0.002069580,0.993083954
9.577788,0.017616272,0.126998901,-0.065353394,0.000320801,-0.002447022,1.001628876
9.578413,-0.051048279,0.027816772,0.064346313,-0.000899903,0.001459228,0.998455048
9.579038,0.101539612,0.126998901,-0.027206421,-0.003951660,0.003656494,0.992351532
9.579664,-0.089195251,0.065963745,-0.057723999,-0.001754395,0.003290283,0.998699188
9.580289,-0.150230408,-0.078994751,0.133010864,0.001907715,0.001581299,0.997112274
9.580915,-0.005271912,-0.017959595,-0.179794312,0.004837402,-0.001470459,1.002117157
9.581541,0.002357483,0.111740112,-0.095870972,0.002151855,0.000360596,1.000896454
9.582167,0.032875061,0.180404663,0.102493286,-0.001510254,0.002924072,0.999797821
9.582793,-0.165489197,-0.078994751,-0.118759155,0.000687012,0.002191650,1.007488251
9.583418,0.032875061,0.126998901,0.056716919,-0.001754395,0.002313721,1.006999969
9.596067,0.048133850,-0.140029907,-0.042465210,0.001053222,-0.000127686,0.995769501
9.596751,0.025245667,-0.078994751,-0.019577026,0.001419433,-0.000738037,0.997356415
9.597376,0.017616272,0.050704956,0.003311157,-0.002120606,0.001337158,1.000286102
9.598001,-0.134971619,-0.086624146,-0.004318237,0.000076660,0.000116455,1.002239227
9.598628,0.215980530,-0.056106567,0.056716919,-0.001144043,0.001093017,1.001018524
9.599254,-0.081565857,0.020187378,0.033828735,-0.000045410,0.003290283,1.002361298
9.599881,0.071022034,0.096481323,0.171157837,-0.000045410,0.000604736,1.001628876
9.600507,-0.112083435,0.004928589,-0.065353394,0.001785644,0.001337158,0.999919891
9.601134,-0.035789490,-0.002700806,0.117752075,0.002884277,0.002191650,0.998577118
9.601759,-0.134971619,0.081222534,-0.057723999,0.003494629,0.002802002,1.000652313
9.602384,-0.012901306,0.096481323,0.094863892,0.001419433,0.000848877,0.998943329
9.603013,-0.020530701,0.065963745,0.201675415,0.001053222,0.000482666,0.999431610
9.603638,0.078651428,-0.117141724,-0.126388550,-0.001021973,0.002191650,0.997356415
9.604264,0.116798401,0.165145874,-0.034835815,0.001785644,0.003168213,0.999309540
9.604890,0.162574768,0.050704956,0.110122681,-0.000777832,0.002802002,0.996501923
9.605516,0.025245667,-0.101882935,-0.172164917,0.001663574,0.001703369,1.002239227
9.606142,-0.028160095,0.134628296,-0.080612183,0.005081543,0.001459228,1.001140594
9.606767,0.063392639,0.088851929,0.155899048,0.000687012,0.001215088,0.999187469
9.607393,-0.066307068,0.043075562,-0.011947632,-0.000411621,-0.000371826,0.997966766
9.608018,0.017616272,-0.017959595,-0.011947632,0.000320801,-0.000005615,1.002239227
9.608643,-0.089195251,-0.155288696,-0.072982788,0.001541504,0.001459228,1.000652313
9.610388,-0.127342224,-0.033218384,-0.095870972,0.001419433,0.002313721,1.002605438
9.611014,0.086280823,-0.124771118,0.071975708,-0.001388184,0.002069580,0.999553680
9.611641,-0.020530701,-0.185806274,-0.195053101,0.000931152,0.003046142,1.001506805
9.612268,-0.173118591,0.119369507,0.003311157,0.000564941,0.002802002,1.004436493
9.612901,0.185462952,-0.010330200,-0.034835815,-0.000045410,0.003290283,1.003704071
9.613526,-0.073936462,-0.063735962,-0.011947632,0.000564941,0.000970947,0.999309540
9.614151,-0.142601013,0.012557983,-0.065353394,0.002640137,0.002557861,1.003826141
9.614776,0.002357483,-0.056106567,-0.050094604,-0.001144043,-0.000615967,1.003337860
9.615401,-0.089195251,0.149887085,-0.088241577,0.000320801,0.002069580,1.004070282
9.616027,-0.104454041,0.043075562,-0.187423706,-0.000289551,0.001459228,1.005657196
9.616652,0.009986877,0.043075562,0.049087524,-0.000655762,0.000726806,1.006023407
9.617277,-0.020530701,-0.025588989,0.064346313,-0.002242676,0.000116455,1.004924774
9.617902,-0.157859802,-0.124771118,-0.210311890,-0.000289551,0.000482666,1.004802704
9.618529,0.132057190,-0.101882935,0.064346313,0.000198730,-0.000249756,1.006267548
9.619154,-0.119712830,0.065963745,0.049087524,-0.000289551,-0.000371826,1.002971649
9.619779,0.071022034,0.050704956,-0.103500366,-0.000167481,0.000116455,0.998943329
9.620406,-0.089195251,-0.025588989,0.079605103,-0.001998535,0.000238525,1.002117157
9.621031,-0.142601013,-0.002700806,-0.095870972,0.000931152,0.000970947,1.003337860
9.621657,0.185462952,-0.033218384,-0.050094604,-0.000045410,0.003412353,1.003215790
9.622282,0.009986877,-0.132400513,0.049087524,-0.001266113,0.001215088,0.999187469
9.622907,-0.043418884,0.126998901,-0.004318237,0.000198730,0.003412353,1.000041962
9.623533,-0.096824646,0.012557983,0.026199341,0.001419433,0.001703369,1.004192352
9.624159,0.132057190,0.027816772,0.071975708,0.001785644,0.000116455,1.002849579
9.624785,-0.150230408,0.111740112,-0.195053101,0.000320801,0.002802002,1.004558563
9.625410,-0.073936462,0.035446167,0.056716919,0.000809082,0.001337158,1.006145477
9.626037,-0.196006775,0.027816772,0.064346313,-0.000045410,0.000848877,1.003948212
9.626662,0.048133850,-0.002700806,0.125381470,0.000931152,0.002313721,1.005168915
9.627288,-0.005271912,0.043075562,-0.141647339,-0.000777832,-0.002569092,1.003093719
9.627914,-0.020530701,0.119369507,-0.103500366,0.001785644,0.000116455,1.002971649
9.640598,-0.112083435,-0.048477173,-0.004318237,0.001053222,-0.000493897,0.997234344
9.641310,-0.051048279,0.050704956,0.071975708,0.003128418,-0.000005615,1.000041962
9.641935,-0.051048279,0.050704956,0.071975708,0.003128418,-0.000005615,1.000041962
9.642562,0.063392639,-0.040847778,-0.217941284,-0.000289551,-0.000127686,0.996623993
9.643188,0.063392639,-0.040847778,-0.217941284,-0.000289551,-0.000127686,0.996623993
9.643814,0.009986877,0.012557983,-0.050094604,0.000931152,-0.000615967,0.999065399
9.644439,-0.188377380,0.012557983,-0.042465210,-0.001876465,-0.000371826,1.005046844
9.645065,-0.043418884,-0.117141724,0.140640259,-0.001754395,0.003046142,1.002239227
9.645690,0.048133850,0.165145874,-0.019577026,0.002884277,-0.000005615,1.001384735
9.646315,0.063392639,0.172775269,0.148269653,0.000076660,0.000970947,0.998943329
9.646940,-0.302818298,-0.048477173,0.010940552,-0.001144043,0.000848877,1.001506805
9.647565,0.002357483,-0.193435669,0.026199341,-0.002364746,0.004510986,0.999797821
9.648191,0.009986877,0.081222534,0.133010864,-0.001632324,0.000604736,1.001995087
9.648817,0.048133850,0.302474976,0.049087524,0.001053222,-0.001348389,0.998821259
9.649443,-0.051048279,-0.155288696,-0.057723999,0.001663574,0.000604736,1.000408173
9.650068,-0.020530701,0.004928589,-0.027206421,-0.000167481,0.001337158,1.001750946
9.650693,-0.066307068,0.035446167,-0.080612183,0.001785644,0.001581299,0.999309540
9.651318,-0.287559509,0.058334351,-0.072982788,-0.001021973,-0.000127686,1.002605438
9.651944,0.017616272,-0.086624146,-0.111129761,0.000076660,-0.004156006,1.001262665
9.652569,0.185462952,0.104110718,-0.065353394,-0.001632324,0.000604736,1.002239227
9.653196,0.055763245,-0.048477173,-0.065353394,-0.003097168,0.000482666,1.002361298
9.653821,0.025245667,0.043075562,0.094863892,0.000198730,0.000482666,1.004436493
9.654447,-0.066307068,0.050704956,0.049087524,-0.001754395,0.000848877,1.001262665
9.655072,-0.043418884,0.073593140,0.049087524,-0.002120606,0.003290283,1.002727509
9.655698,-0.020530701,0.088851929,0.026199341,0.000564941,0.000360596,1.002483368
9.656324,0.032875061,0.020187378,-0.019577026,-0.001266113,0.002679931,1.002239227
9.656951,0.063392639,0.012557983,-0.172164917,0.002273926,0.001215088,1.001506805
9.657577,0.009986877,0.020187378,0.010940552,-0.000655762,0.000604736,1.001262665
9.658202,-0.104454041,0.134628296,-0.019577026,-0.000777832,0.003290283,1.003582001
9.658828,0.002357483,-0.140029907,0.056716919,0.002518066,0.002191650,1.001750946
9.659455,0.009986877,0.012557983,-0.080612183,-0.000533692,0.000726806,1.001140594
9.660081,-0.211265564,0.012557983,0.026199341,0.002884277,-0.001836670,1.000896454
9.660706,0.017616272,-0.040847778,0.056716919,0.000931152,0.001825439,1.002727509
9.661332,0.086280823,-0.048477173,-0.019577026,0.000320801,0.000360596,1.002727509
9.661959,-0.012901306,-0.071365356,0.102493286,0.001419433,0.000726806,1.000408173
9.662584,-0.173118591,0.233810425,0.018569946,0.001419433,0.000482666,1.000530243
9.663211,0.193092346,0.043075562,0.071975708,0.002884277,0.000970947,1.003459930
9.663838,0.025245667,0.020187378,0.140640259,-0.000167481,0.000116455,0.999553680
9.664463,0.025245667,0.142257690,0.033828735,0.003250488,0.001581299,0.999553680
9.665088,0.078651428,0.111740112,0.071975708,0.002273926,0.001215088,1.001262665
9.665713,-0.012901306,-0.109512329,0.064346313,-0.001021973,0.003290283,1.001384735
9.666338,-0.112083435,-0.048477173,-0.034835815,0.001785644,0.002191650,1.001506805
9.666964,-0.005271912,-0.017959595,0.171157837,0.001541504,0.002191650,1.000774384
9.667590,-0.012901306,0.020187378,0.125381470,0.000076660,0.002313721,0.999187469
9.668216,0.101539612,-0.109512329,-0.118759155,-0.001388184,0.000360596,1.001506805
9.668843,-0.012901306,0.043075562,-0.134017944,-0.000655762,-0.000615967,0.998821259
9.669468,0.055763245,0.027816772,0.026199341,0.000687012,0.001215088,0.998943329
9.670094,-0.272300720,0.043075562,0.071975708,0.000931152,0.000360596,1.002117157
9.670720,-0.066307068,0.142257690,-0.011947632,-0.001388184,0.000482666,0.998088837
9.683346,-0.096824646,0.165145874,0.049087524,0.001907715,0.002679931,1.000530243
9.684057,0.063392639,0.027816772,-0.080612183,0.001419433,0.001093017,1.000286102
9.684683,-0.089195251,-0.025588989,0.171157837,-0.001021973,0.002191650,0.999553680
9.685308,-0.081565857,0.027816772,-0.103500366,-0.001510254,0.001215088,1.001750946
9.685935,0.124427795,-0.040847778,0.216934204,0.003006347,0.002924072,0.997112274
9.686560,-0.043418884,-0.017959595,-0.042465210,0.002029785,0.000970947,1.001384735
9.687186,0.109169006,0.104110718,0.003311157,-0.000289551,-0.001470459,0.999675751
9.687812,0.086280823,0.119369507,0.018569946,0.001419433,-0.000615967,0.999797821
9.688437,0.139686584,-0.124771118,-0.042465210,0.002518066,-0.000127686,1.001628876
9.689064,-0.150230408,0.020187378,0.018569946,0.003616699,0.000848877,1.000652313
9.689689,0.025245667,0.027816772,0.026199341,0.001907715,0.001337158,0.999187469
9.690315,-0.134971619,0.226181030,0.018569946,0.001175293,0.000360596,0.998577118
9.690942,-0.051048279,0.210922241,0.018569946,0.000442871,0.000604736,1.000286102
9.691569,-0.150230408,0.012557983,-0.065353394,-0.000167481,-0.001836670,1.000896454
9.692195,-0.035789490,0.172775269,0.033828735,0.002884277,0.002679931,1.000530243
9.692821,-0.020530701,-0.239212036,-0.118759155,0.001419433,-0.000005615,0.999309540
9.693446,-0.012901306,0.142257690,-0.050094604,0.000442871,-0.000371826,1.000530243
9.694072,-0.096824646,0.142257690,-0.134017944,-0.000045410,0.000848877,1.001140594
9.694697,-0.234153748,0.104110718,0.049087524,-0.000167481,-0.000615967,0.999797821
9.695322,0.040504456,0.096481323,0.094863892,0.001053222,0.003534424,1.001628876
9.695949,0.002357483,0.195663452,0.056716919,0.001663574,0.001459228,0.999553680
9.696575,-0.043418884,0.012557983,-0.065353394,0.001053222,-0.000371826,1.002727509
9.697202,-0.104454041,0.081222534,0.079605103,0.001297363,-0.000738037,0.998455048
9.697829,0.109169006,0.043075562,0.003311157,-0.001632324,0.000848877,0.999431610
9.698454,-0.012901306,0.119369507,0.133010864,-0.001632324,0.001459228,1.002117157
9.699080,0.078651428,0.096481323,-0.126388550,-0.000411621,0.002069580,0.998699188
9.699706,-0.058677673,0.027816772,0.026199341,-0.001632324,0.001337158,1.001384735
9.700333,0.002357483,0.126998901,0.102493286,-0.000289551,0.001825439,1.002483368
9.700959,0.132057190,0.088851929,0.079605103,0.000320801,0.002679931,1.003948212
9.701584,-0.257041931,0.012557983,0.041458130,0.001297363,-0.000005615,1.002971649
9.702210,0.071022034,0.043075562,-0.011947632,-0.001266113,0.002191650,1.006999969
9.702837,-0.005271912,0.020187378,0.056716919,-0.000167481,0.001337158,1.002971649
9.703462,-0.020530701,0.027816772,-0.042465210,0.001053222,0.003778564,1.002239227
9.704087,-0.249412537,-0.193435669,-0.065353394,0.000564941,0.001093017,1.001384735
9.704713,0.017616272,0.317733765,0.079605103,0.001541504,0.003534424,1.002849579
9.705338,-0.127342224,0.035446167,-0.080612183,0.001053222,0.000848877,1.003093719
9.705965,-0.089195251,-0.063735962,0.026199341,-0.001510254,0.000360596,1.006999969
9.706592,0.002357483,-0.109512329,0.033828735,0.000564941,0.000726806,1.004436493
9.707218,-0.096824646,0.012557983,0.209304810,0.000198730,0.001703369,1.002361298
9.707845,0.071022034,0.020187378,-0.050094604,0.000442871,0.001947510,1.005901337
9.708470,-0.127342224,-0.101882935,0.071975708,-0.000045410,0.001215088,1.001506805
9.709096,-0.112083435,0.218551636,0.163528442,-0.001754395,0.001459228,1.004192352
9.710808,-0.081565857,-0.193435669,0.125381470,-0.001510254,0.002679931,1.002483368
9.711434,-0.051048279,0.134628296,0.064346313,0.001541504,0.001093017,1.001995087
9.712060,-0.157859802,0.035446167,0.049087524,0.001663574,-0.000127686,1.004314423
9.712685,0.055763245,-0.040847778,0.110122681,0.001297363,0.001947510,1.001873016
9.713310,-0.020530701,-0.071365356,0.026199341,0.001175293,0.000360596,1.001873016
9.713935,-0.043418884,-0.010330200,0.026199341,0.003128418,0.001459228,1.001628876
9.714561,-0.066307068,-0.025588989,0.003311157,-0.000899903,-0.002080811,1.000896454
9.744922,-0.058677673,0.058334351,0.133010864,0.001419433,0.000604736,1.001018524
9.745688,-0.096824646,-0.025588989,-0.057723999,-0.000411621,0.001093017,1.001262665
9.746314,-0.028160095,-0.086624146,-0.034835815,0.000809082,0.001337158,0.998821259
9.746940,-0.073936462,0.027816772,-0.011947632,-0.000533692,-0.000249756,1.000896454
9.747567,0.040504456,-0.124771118,0.041458130,-0.000289551,-0.000982178,0.999553680
9.748192,-0.340965271,0.020187378,0.087234497,-0.000167481,0.000116455,1.000286102
9.748817,-0.028160095,-0.002700806,-0.065353394,-0.000777832,0.001825439,1.003826141
9.749442,0.109169006,0.065963745,0.071975708,-0.000045410,-0.000982178,1.000896454
9.750068,-0.028160095,0.058334351,0.041458130,-0.001510254,0.001093017,1.001995087
9.750693,-0.066307068,-0.078994751,0.018569946,0.003860840,0.002435791,1.003948212
9.751318,-0.173118591,-0.101882935,0.049087524,-0.000655762,0.000604736,1.001140594
9.751943,-0.096824646,-0.002700806,-0.011947632,-0.001021973,0.002802002,1.002971649
9.752570,0.055763245,0.020187378,-0.050094604,0.000442871,0.000848877,1.003215790
9.753195,0.048133850,0.180404663,0.064346313,0.001541504,0.000604736,1.002361298
9.753820,0.101539612,-0.040847778,0.026199341,0.001907715,0.000482666,1.002727509
9.754445,-0.188377380,-0.002700806,-0.149276733,0.001297363,0.001337158,1.002117157
9.755070,-0.180747986,-0.010330200,-0.034835815,0.001785644,0.001825439,1.000286102
9.755696,-0.035789490,0.035446167,0.110122681,0.002518066,-0.000860108,1.000408173
9.756322,0.048133850,0.081222534,-0.149276733,-0.000777832,0.003778564,1.003704071
9.756948,-0.180747986,0.119369507,-0.057723999,0.000320801,0.001337158,1.003459930
9.757573,-0.279930115,0.149887085,-0.065353394,-0.000411621,0.000482666,1.002117157
9.758199,-0.096824646,0.149887085,0.125381470,0.001541504,0.001703369,1.002117157
9.758826,-0.226524353,-0.017959595,-0.027206421,-0.000167481,0.002435791,1.000408173
9.759452,-0.234153748,-0.017959595,-0.111129761,0.001053222,0.001459228,1.001384735
9.760077,-0.188377380,0.035446167,0.216934204,0.002395996,0.000238525,1.003215790
9.760704,-0.112083435,-0.216323853,-0.164535522,-0.000411621,0.002557861,1.003215790
9.761330,-0.112083435,0.165145874,-0.118759155,-0.000899903,0.000970947,1.002605438
9.761957,-0.096824646,0.195663452,0.064346313,-0.000899903,0.001093017,1.000652313
9.762582,0.002357483,0.104110718,0.049087524,0.000076660,0.001825439,1.001262665
9.763207,-0.203636169,-0.002700806,0.071975708,0.000564941,0.003046142,1.001995087
9.763833,-0.180747986,0.096481323,-0.095870972,0.001175293,0.001947510,1.001506805
9.764460,-0.005271912,0.203292847,0.110122681,-0.000289551,0.000726806,1.002239227
9.765085,-0.112083435,0.088851929,0.018569946,-0.001510254,-0.000127686,1.002483368
9.765711,-0.188377380,-0.010330200,0.110122681,0.000442871,0.004266846,1.002483368
9.766336,-0.012901306,-0.078994751,0.148269653,-0.000045410,-0.000860108,1.000652313
9.766961,-0.112083435,-0.056106567,-0.179794312,0.000442871,0.001825439,1.002117157
9.767588,-0.043418884,-0.010330200,0.018569946,-0.000167481,0.002802002,1.004192352
9.768214,-0.218894958,-0.002700806,-0.034835815,-0.000045410,0.000848877,1.002849579
9.768840,0.025245667,0.027816772,0.010940552,-0.002120606,0.001093017,1.001995087
9.769465,-0.058677673,-0.048477173,0.064346313,0.001419433,0.003168213,0.999675751
9.770092,-0.104454041,-0.033218384,-0.011947632,0.001419433,0.003290283,0.997600555
9.770718,-0.203636169,0.020187378,-0.034835815,-0.000533692,0.000970947,0.998455048
9.771343,-0.096824646,0.142257690,-0.141647339,-0.001632324,-0.001104248,1.002727509
9.771970,-0.165489197,0.050704956,-0.179794312,-0.000899903,-0.000005615,1.002361298
9.772595,0.017616272,-0.117141724,0.033828735,0.001419433,-0.002691162,1.001506805
9.773220,-0.142601013,-0.010330200,0.018569946,0.002395996,0.001581299,1.004558563
9.773847,-0.051048279,-0.002700806,0.018569946,-0.000167481,0.002802002,1.002849579
9.774473,-0.028160095,0.012557983,-0.103500366,0.001419433,0.000482666,1.001750946
9.775099,-0.096824646,-0.040847778,0.018569946,0.002395996,0.001459228,1.002117157
9.787804,-0.104454041,0.134628296,-0.095870972,-0.000045410,-0.001104248,0.997966766
9.788495,-0.127342224,0.081222534,0.003311157,0.000564941,0.002679931,1.000774384
9.789121,0.086280823,-0.033218384,0.018569946,0.000198730,0.002313721,1.000164032
9.789748,-0.089195251,0.027816772,0.033828735,0.000442871,0.001825439,0.999919891
9.790374,-0.188377380,0.073593140,-0.011947632,-0.001266113,0.001093017,0.997112274
9.790999,-0.051048279,0.020187378,-0.111129761,0.003006347,0.001093017,0.999919891
9.791624,-0.051048279,0.020187378,-0.111129761,0.003006347,0.001093017,0.999919891
9.792249,-0.096824646,0.020187378,0.110122681,-0.001266113,0.001215088,1.000652313
9.792876,-0.028160095,-0.017959595,-0.019577026,0.001175293,0.003046142,0.999553680
9.793501,-0.188377380,0.035446167,-0.095870972,0.001907715,0.000848877,1.000408173
9.794127,0.071022034,0.218551636,0.064346313,0.000198730,0.001703369,0.998943329
9.794753,-0.051048279,0.111740112,-0.050094604,-0.001021973,0.001703369,0.999065399
9.795378,0.017616272,-0.063735962,0.163528442,0.002884277,0.001093017,1.000652313
9.796012,-0.234153748,0.027816772,-0.027206421,0.002884277,0.002557861,1.001628876
9.796637,-0.150230408,0.096481323,0.033828735,0.001541504,0.001459228,1.001140594
9.797264,-0.287559509,-0.147659302,-0.011947632,0.001053222,0.001215088,1.001140594
9.797889,0.009986877,-0.017959595,-0.011947632,-0.000167481,-0.000738037,1.002117157
9.798514,-0.104454041,0.081222534,0.003311157,0.002640137,0.000360596,1.004436493
9.799139,0.002357483,0.073593140,0.117752075,0.002884277,0.002069580,0.999553680
9.799765,0.139686584,0.210922241,0.010940552,0.001053222,0.001093017,1.000652313
9.800390,-0.089195251,0.027816772,0.140640259,0.002151855,0.001825439,1.001628876
9.801016,-0.020530701,0.172775269,0.094863892,0.000687012,0.001459228,1.002727509
9.801643,-0.119712830,0.050704956,0.216934204,0.002151855,0.002313721,0.999309540
9.802268,-0.043418884,0.081222534,0.018569946,0.003494629,0.001337158,1.002361298
9.802894,-0.043418884,-0.101882935,0.033828735,0.002518066,-0.000249756,1.000896454
9.803519,-0.173118591,0.180404663,0.094863892,0.000076660,0.002802002,1.003093719
9.804145,-0.066307068,0.081222534,0.064346313,0.000442871,0.001459228,1.002727509
9.804770,-0.066307068,0.218551636,-0.103500366,0.000931152,0.003290283,1.002239227
9.805396,0.025245667,-0.040847778,0.079605103,0.000931152,0.000360596,1.005290985
9.806021,-0.051048279,-0.147659302,0.049087524,0.001907715,0.001093017,1.001750946
9.806648,-0.081565857,0.096481323,-0.202682495,-0.001998535,0.000360596,0.999187469
9.807274,0.078651428,-0.140029907,0.056716919,0.002884277,-0.000493897,1.000652313
9.807899,-0.028160095,-0.002700806,0.071975708,0.002029785,0.000970947,0.999065399
9.808525,0.032875061,0.088851929,0.033828735,0.002029785,-0.000127686,0.998455048
9.809150,-0.066307068,0.134628296,-0.141647339,-0.000167481,-0.000615967,1.002117157
9.810856,0.025245667,0.058334351,0.056716919,0.000076660,0.000238525,1.001018524
9.811481,0.086280823,0.035446167,0.018569946,0.000076660,0.002924072,0.999309540
9.812107,0.093910217,0.142257690,0.033828735,-0.001754395,-0.000615967,1.000286102
9.812733,-0.051048279,0.043075562,0.026199341,-0.000045410,-0.000005615,1.004680634
9.813358,0.009986877,0.004928589,0.133010864,0.001419433,0.000238525,1.002239227
9.813983,-0.089195251,0.035446167,-0.118759155,-0.001510254,0.002069580,1.002361298
9.814610,-0.066307068,0.218551636,-0.034835815,-0.001754395,-0.000371826,0.999431610
9.815235,-0.020530701,-0.040847778,-0.004318237,0.001053222,0.002191650,0.999187469
9.815862,-0.043418884,0.065963745,0.133010864,-0.000167481,0.003900635,1.000530243
9.816488,0.002357483,0.012557983,0.010940552,0.000076660,-0.002691162,1.001384735
9.817114,0.032875061,0.050704956,-0.164535522,0.000320801,-0.003545654,0.999065399
9.817739,0.055763245,0.256698608,0.003311157,0.000076660,0.000848877,0.995769501
9.818364,-0.073936462,0.165145874,-0.156906128,-0.002853028,0.000848877,1.002727509
9.818990,-0.058677673,0.149887085,0.171157837,-0.001510254,0.000482666,1.004558563
9.819616,0.338050842,-0.033218384,-0.072982788,0.002029785,0.000970947,0.997112274
9.832359,-0.028160095,0.188034058,-0.156906128,-0.002730957,0.002191650,1.001750946
9.833096,0.071022034,0.050704956,-0.134017944,0.002029785,-0.002447022,0.999919891
9.833722,0.025245667,0.027816772,0.026199341,0.000442871,0.003900635,1.001262665
9.834348,-0.020530701,0.065963745,0.117752075,0.000809082,0.001703369,1.002239227
9.834975,-0.028160095,0.081222534,0.178787231,-0.000289551,-0.001226319,1.002483368
9.835601,0.193092346,0.134628296,-0.210311890,0.000198730,0.003046142,0.999431610
9.836227,0.032875061,0.256698608,0.216934204,0.001663574,0.001337158,0.998332977
9.836853,0.002357483,0.043075562,0.094863892,-0.002730957,-0.002447022,1.003459930
9.837479,0.132057190,0.203292847,0.049087524,0.000320801,0.000482666,1.001140594
9.838104,0.071022034,0.249069214,-0.072982788,0.000687012,-0.000249756,0.999065399
9.838729,0.170204163,0.126998901,-0.118759155,-0.000777832,0.003046142,0.998699188
9.839354,-0.020530701,0.165145874,-0.095870972,0.001907715,-0.002447022,1.002605438
9.839979,-0.028160095,0.081222534,0.049087524,0.001053222,0.002435791,0.999675751
9.840605,0.017616272,0.233810425,-0.164535522,-0.001144043,0.003290283,1.001995087
9.841232,-0.119712830,0.004928589,0.102493286,-0.001266113,-0.001836670,1.002727509
9.841857,0.132057190,0.096481323,-0.164535522,0.001297363,-0.002569092,1.001018524
9.842482,0.078651428,0.088851929,-0.195053101,0.001541504,0.001703369,0.999187469
9.843108,0.009986877,-0.048477173,0.110122681,0.000809082,-0.000127686,1.004680634
9.843734,-0.134971619,0.012557983,-0.141647339,-0.001632324,-0.000005615,1.003948212
9.844360,0.109169006,-0.025588989,0.125381470,-0.000777832,0.000848877,1.003093719
9.844985,0.009986877,-0.109512329,-0.134017944,0.001419433,0.002557861,1.002483368
9.845610,0.086280823,-0.063735962,-0.111129761,0.003738769,-0.000860108,0.998210907
9.846235,-0.035789490,0.401657104,0.026199341,0.000809082,0.003046142,0.998210907
9.846862,0.025245667,0.035446167,-0.057723999,0.001419433,0.002557861,1.002483368
9.847489,-0.005271912,0.119369507,-0.004318237,0.000442871,-0.000860108,0.999309540
9.848114,0.185462952,0.210922241,0.018569946,-0.000533692,0.001093017,0.996135712
9.848741,0.238868713,0.241439819,-0.256088257,0.001053222,0.000726806,0.999309540
9.849366,0.238868713,0.050704956,0.125381470,0.001541504,-0.000249756,1.002361298
9.849992,-0.081565857,0.233810425,-0.156906128,-0.000045410,0.002313721,0.995647430
9.850618,0.048133850,0.149887085,-0.042465210,0.001419433,0.002313721,0.991374969
9.851243,0.078651428,0.088851929,-0.088241577,0.000076660,0.001703369,0.993816376
9.851868,-0.051048279,0.088851929,-0.080612183,-0.001021973,-0.000371826,0.992717743
9.852494,0.116798401,-0.033218384,-0.134017944,-0.001266113,0.001947510,0.992351532
9.853119,-0.035789490,0.172775269,0.049087524,0.001175293,0.001215088,0.989910126
9.853745,-0.142601013,-0.155288696,0.049087524,0.003616699,0.004633056,0.989788055
9.854370,-0.035789490,-0.025588989,-0.065353394,-0.001876465,-0.002447022,0.996257782
9.854995,0.177833557,0.126998901,-0.088241577,-0.000899903,-0.002202881,1.000896454
9.855622,0.078651428,0.126998901,-0.042465210,-0.001388184,-0.002202881,1.003459930
9.856247,0.009986877,0.126998901,0.010940552,0.000809082,-0.000493897,1.004558563
9.856873,-0.165489197,0.325363159,-0.164535522,0.001663574,0.002191650,1.006511688
9.857499,-0.051048279,0.256698608,-0.019577026,0.003250488,0.002924072,1.008098602
9.858125,0.116798401,0.142257690,-0.057723999,0.003128418,0.002679931,1.013835907
9.858750,0.078651428,0.134628296,-0.126388550,0.000198730,0.000360596,1.014812469
9.859377,0.063392639,0.065963745,-0.088241577,-0.001388184,-0.001592529,1.017498016
9.860011,-0.134971619,0.081222534,0.140640259,-0.000899903,0.001459228,1.015300751
9.860638,-0.005271912,0.271957397,0.049087524,0.000564941,0.000604736,1.014812469
9.861265,0.048133850,0.203292847,0.010940552,-0.001876465,0.001093017,1.014324188
9.861890,0.109169006,0.088851929,-0.050094604,-0.002364746,-0.001958740,1.015544891
9.862517,-0.058677673,-0.109512329,0.010940552,-0.002242676,0.000482666,1.012859344
9.875472,-0.051048279,-0.017959595,0.018569946,0.000931152,-0.000371826,0.993083954
9.876158,0.017616272,0.065963745,-0.004318237,0.000809082,-0.000738037,0.994060516
9.876784,0.223609924,-0.086624146,-0.072982788,0.002395996,-0.009160889,0.990520477
9.877411,0.330421448,0.195663452,0.079605103,0.011062988,0.000238525,0.996013641
9.878036,0.231239319,0.279586792,0.079605103,-0.000167481,0.009149658,1.000164032
9.878662,0.009986877,0.165145874,0.224563599,-0.004562012,0.004999267,0.998943329
9.879287,0.208351135,0.172775269,0.110122681,-0.006881348,0.004510986,0.997478485
9.879913,0.009986877,0.287216187,-0.210311890,0.000687012,0.004388916,0.997966766
9.880539,-0.157859802,0.012557983,0.018569946,0.001907715,0.000482666,0.998943329
9.881166,-0.196006775,-0.063735962,-0.072982788,0.002395996,-0.000249756,1.000530243
9.881791,-0.089195251,-0.048477173,0.117752075,0.002884277,0.001459228,0.999065399
9.882417,-0.043418884,0.111740112,-0.019577026,0.001053222,0.003290283,1.002605438
9.883043,-0.310447693,0.180404663,-0.095870972,0.000442871,0.000360596,1.003215790
9.883668,-0.150230408,0.050704956,0.033828735,0.001785644,0.001459228,1.004802704
9.884293,0.017616272,0.149887085,-0.057723999,-0.001266113,0.001825439,1.004680634
9.884918,-0.104454041,-0.132400513,-0.118759155,0.001175293,0.001703369,1.005657196
9.885544,-0.241783142,-0.033218384,-0.034835815,-0.001632324,0.001947510,1.006023407
9.886171,-0.081565857,0.157516479,0.041458130,-0.002364746,0.001093017,1.006511688
9.886796,-0.142601013,-0.056106567,0.018569946,-0.000167481,0.001947510,1.006755829
9.887423,-0.119712830,-0.124771118,0.010940552,0.002640137,0.001337158,1.005168915
9.888049,-0.264671326,0.310104370,-0.118759155,0.002884277,-0.000738037,1.003948212
9.888674,-0.226524353,-0.124771118,-0.111129761,-0.000411621,0.000970947,1.006511688
9.889300,-0.264671326,0.096481323,-0.072982788,0.000198730,0.002069580,1.008464813
9.889925,-0.073936462,0.065963745,-0.080612183,0.002395996,0.003534424,1.005657196
9.890550,-0.134971619,-0.109512329,0.140640259,0.000931152,0.000238525,1.001995087
9.891176,-0.012901306,0.088851929,0.087234497,-0.002853028,-0.001226319,1.002849579
9.891803,-0.295188904,0.073593140,0.079605103,0.001175293,0.001825439,1.001018524
9.892429,-0.165489197,-0.017959595,0.003311157,0.001419433,0.003412353,1.002849579
9.893055,-0.112083435,0.188034058,-0.088241577,0.002029785,0.002924072,1.001384735
9.893680,-0.165489197,0.104110718,0.079605103,0.001419433,-0.000371826,1.002117157
9.894305,-0.226524353,-0.307876587,-0.004318237,0.000687012,0.000238525,1.001384735
9.894932,-0.211265564,0.096481323,0.033828735,-0.001388184,0.002679931,1.002117157
9.895558,-0.104454041,0.058334351,-0.027206421,0.002884277,-0.001226319,1.001628876
9.896184,-0.073936462,-0.101882935,0.079605103,0.002518066,0.001703369,0.999431610
9.896810,-0.020530701,0.050704956,-0.141647339,-0.001266113,-0.000615967,0.998332977
9.897437,-0.073936462,-0.231582642,-0.011947632,0.000198730,-0.000615967,1.000286102
9.898064,-0.051048279,0.035446167,-0.004318237,-0.001021973,-0.001592529,1.000286102
9.898690,-0.188377380,0.012557983,-0.050094604,0.001907715,0.000970947,0.998332977
9.899317,-0.295188904,-0.033218384,-0.187423706,-0.001021973,0.000360596,0.995525360
9.899943,-0.279930115,-0.048477173,0.026199341,0.002151855,0.000360596,0.996501923
9.900570,-0.150230408,0.126998901,0.049087524,0.002151855,-0.002935303,0.997478485
9.901196,-0.020530701,0.035446167,0.056716919,0.001297363,-0.001714600,1.000652313
9.901822,-0.104454041,-0.025588989,0.171157837,0.003128418,0.002191650,0.998699188
9.902449,0.124427795,-0.109512329,-0.057723999,0.001541504,0.000848877,0.996135712
9.903076,-0.073936462,-0.002700806,-0.088241577,-0.000045410,-0.002202881,1.000896454
9.903702,-0.051048279,-0.048477173,-0.065353394,0.001419433,0.000482666,0.998699188
9.904328,-0.051048279,-0.132400513,-0.065353394,0.000809082,0.002802002,0.999919891
9.904953,-0.028160095,0.142257690,-0.111129761,0.002762207,0.003656494,1.000041962
9.905579,-0.180747986,0.104110718,0.041458130,-0.000533692,0.002557861,0.999309540
9.919414,-0.112083435,-0.185806274,0.041458130,0.001541504,-0.000615967,1.003582001
9.920247,-0.173118591,-0.208694458,-0.019577026,-0.001632324,0.001581299,1.002483368
9.920873,0.032875061,-0.002700806,0.010940552,0.000198730,0.000482666,1.002483368
9.921499,-0.066307068,0.020187378,-0.225570679,-0.001144043,0.000848877,1.002483368
9.922124,-0.035789490,0.058334351,0.033828735,0.001175293,-0.001592529,1.004558563
9.922750,-0.012901306,-0.010330200,0.079605103,-0.000899903,0.000604736,1.006877899
9.923377,-0.119712830,-0.193435669,-0.126388550,-0.000655762,0.000360596,1.006511688
9.924012,-0.234153748,-0.117141724,0.155899048,-0.000289551,-0.000615967,1.002117157
9.924638,-0.028160095,0.119369507,0.041458130,-0.000533692,-0.001226319,1.005779266
9.925263,0.032875061,0.020187378,-0.011947632,0.000442871,0.000604736,0.999431610
9.925889,-0.142601013,-0.155288696,-0.050094604,0.002273926,-0.002324951,1.000286102
9.926516,-0.104454041,0.050704956,-0.050094604,0.001419433,0.000360596,1.001018524
9.927142,-0.096824646,0.111740112,-0.126388550,-0.001021973,0.000848877,1.001873016
9.927767,-0.028160095,-0.017959595,-0.126388550,-0.000777832,-0.001958740,1.001384735
9.928393,0.040504456,-0.284988403,0.003311157,-0.001754395,0.001093017,1.003459930
9.929018,-0.066307068,0.279586792,-0.111129761,0.001419433,0.003046142,0.998699188
9.929643,0.002357483,-0.254470825,-0.080612183,0.002395996,0.000360596,1.003337860
9.930270,0.017616272,-0.101882935,-0.103500366,0.002884277,0.001459228,1.000530243
9.930896,-0.081565857,0.058334351,-0.141647339,0.001419433,0.003046142,1.001628876
9.931521,0.002357483,-0.094253540,-0.095870972,0.000687012,-0.001470459,0.997722626
9.932148,-0.180747986,-0.132400513,-0.118759155,0.001419433,0.003290283,0.999431610
9.932775,0.132057190,0.104110718,0.216934204,0.000809082,0.000726806,0.996868134
9.933401,-0.112083435,-0.140029907,-0.210311890,-0.000167481,0.002069580,1.001384735
9.934026,-0.203636169,-0.216323853,-0.126388550,-0.001998535,0.000116455,0.999431610
9.934652,-0.058677673,-0.078994751,-0.080612183,0.002151855,0.001093017,0.999431610
9.935278,0.101539612,0.012557983,0.163528442,-0.002730957,-0.000615967,1.000652313
9.935904,0.017616272,0.035446167,0.041458130,-0.001144043,-0.000738037,0.999919891
9.936531,-0.203636169,-0.101882935,0.117752075,-0.001876465,-0.001836670,0.999919891
9.937157,-0.188377380,0.027816772,-0.050094604,0.001785644,0.004633056,0.998332977
9.937783,-0.058677673,0.027816772,-0.065353394,0.003860840,-0.001714600,1.000530243
9.938408,-0.096824646,-0.208694458,-0.088241577,-0.000777832,0.000970947,0.997844696
9.939034,-0.096824646,-0.048477173,0.033828735,-0.000167481,0.002557861,1.002117157
9.939659,0.002357483,-0.117141724,0.071975708,0.001541504,-0.000371826,1.001995087
9.940286,-0.096824646,-0.147659302,-0.034835815,-0.000167481,0.002557861,1.004192352
9.940911,-0.051048279,-0.025588989,0.201675415,-0.000167481,-0.000005615,1.000652313
9.941536,0.116798401,-0.010330200,0.064346313,-0.000533692,0.000360596,1.001384735
9.942163,0.078651428,0.058334351,-0.141647339,-0.000167481,0.000726806,1.002483368
9.942789,0.048133850,-0.162918091,0.171157837,-0.000655762,0.002802002,1.000896454
9.943414,-0.012901306,-0.101882935,-0.126388550,-0.001754395,-0.000127686,1.002117157
9.944039,-0.028160095,-0.101882935,0.056716919,-0.002120606,0.002191650,1.003215790
9.944665,-0.058677673,0.111740112,-0.179794312,-0.000899903,0.003290283,1.003337860
9.945290,0.124427795,-0.223953247,-0.111129761,0.001297363,0.000482666,1.003215790
9.945916,0.147315979,-0.017959595,0.071975708,0.001541504,0.002191650,1.005046844
9.946542,-0.005271912,-0.002700806,0.026199341,0.004837402,0.001581299,1.003826141
9.947167,-0.241783142,-0.010330200,-0.141647339,-0.002120606,-0.003423584,1.003704071
9.947792,0.162574768,-0.147659302,0.010940552,-0.001021973,-0.001470459,1.000774384
9.948419,-0.081565857,-0.010330200,-0.019577026,-0.001266113,-0.001958740,1.003704071
9.949044,-0.150230408,-0.094253540,-0.126388550,0.000076660,0.000482666,1.005535126
9.949671,0.025245667,0.012557983,-0.050094604,-0.001144043,-0.000371826,1.006267548
9.962324,-0.073936462,0.226181030,0.056716919,-0.001144043,0.000726806,0.999919891
9.963014,0.009986877,-0.002700806,-0.164535522,-0.001021973,0.000238525,0.999553680
9.963640,-0.051048279,0.065963745,0.026199341,0.004349121,-0.001226319,0.999065399
9.964266,0.086280823,0.447433472,0.125381470,0.022903807,-0.006353272,1.008342743
9.964892,0.292274475,0.607650757,-0.011947632,-0.005782715,-0.005376709,1.009075165
9.965517,0.490638733,0.592391968,0.010940552,-0.007979981,0.005121338,1.000774384
9.966142,0.025245667,0.477951050,0.094863892,-0.008590332,0.004877197,0.999065399
9.966769,0.132057190,-0.010330200,0.079605103,-0.007613770,0.001215088,0.996623993
9.967396,0.009986877,-0.063735962,-0.095870972,-0.004195801,0.002679931,0.996990204
9.968022,0.040504456,-0.300247192,-0.118759155,-0.003219238,0.002069580,0.998332977
9.968647,-0.150230408,-0.323135376,-0.019577026,-0.002486817,0.001581299,0.996990204
9.969273,-0.081565857,-0.284988403,-0.149276733,-0.002608887,0.001825439,0.995403290
9.969899,-0.073936462,-0.330764771,0.163528442,0.001541504,0.001459228,0.996257782
9.970525,-0.104454041,-0.170547485,-0.103500366,0.003494629,0.002557861,0.994182587
9.971150,-0.112083435,-0.239212036,-0.088241577,0.003860840,0.001703369,0.995647430
9.971777,0.009986877,-0.147659302,-0.256088257,0.004471191,0.001581299,0.994915009
9.972403,-0.257041931,0.088851929,0.041458130,0.003738769,0.000360596,0.994670868
9.973029,-0.165489197,-0.002700806,0.117752075,0.002884277,0.003290283,0.996135712
9.973655,-0.112083435,0.073593140,-0.042465210,0.001419433,-0.000738037,0.996013641
9.974280,-0.043418884,0.355880737,0.102493286,0.004593262,0.001947510,0.998821259
9.974907,0.063392639,0.218551636,0.033828735,0.001419433,0.000604736,0.999187469
9.975534,-0.180747986,-0.056106567,0.018569946,-0.000533692,-0.000371826,1.000530243
9.976159,-0.005271912,0.149887085,-0.034835815,-0.004562012,0.000238525,1.000652313
9.976786,-0.157859802,0.195663452,0.056716919,-0.001632324,0.001703369,1.004314423
9.994788,-0.043418884,-0.155288696,-0.072982788,0.003494629,0.002069580,1.000041962
9.995413,-0.020530701,-0.223953247,0.186416626,0.003250488,-0.000615967,0.997722626
9.996039,0.147315979,-0.048477173,0.194046021,0.001297363,0.000238525,0.995281219
9.996664,-0.157859802,-0.063735962,-0.019577026,0.001297363,0.001825439,0.996013641
9.997291,0.055763245,0.195663452,0.171157837,0.000442871,-0.000982178,0.996135712
9.997917,-0.089195251,0.172775269,-0.004318237,0.001785644,-0.002080811,0.997234344
9.998542,-0.127342224,0.035446167,0.056716919,0.000809082,-0.000982178,0.994304657
9.999169,-0.127342224,-0.033218384,0.071975708,0.001541504,0.001337158,0.998943329
9.999794,-0.035789490,-0.025588989,-0.065353394,0.004349121,0.003534424,1.000530243
10.000420,-0.211265564,-0.132400513,-0.057723999,0.002518066,0.001337158,0.999919891
10.001046,-0.066307068,0.088851929,0.026199341,-0.000777832,-0.000615967,0.998088837
10.001673,-0.180747986,0.104110718,0.079605103,0.000564941,0.000726806,1.001262665
10.002300,-0.119712830,0.241439819,0.033828735,0.000931152,0.001337158,1.000652313
10.002925,0.032875061,0.065963745,0.049087524,0.001419433,0.003046142,1.001873016
10.003552,-0.257041931,0.058334351,0.041458130,0.005081543,0.007806885,0.998332977
10.004177,-0.310447693,0.485580444,0.216934204,-0.001632324,0.000116455,1.000896454
10.004803,-0.173118591,0.317733765,0.087234497,-0.003219238,-0.003667725,1.004192352
10.005430,-0.119712830,0.180404663,0.056716919,-0.001510254,-0.000371826,1.006267548
10.006056,0.078651428,0.050704956,0.186416626,-0.003585449,0.002435791,1.002727509
10.006681,-0.302818298,0.226181030,0.018569946,-0.001632324,-0.002324951,1.006633759
10.007306,-0.096824646,0.012557983,-0.072982788,0.002029785,0.001459228,1.006511688
10.007932,-0.134971619,0.126998901,-0.072982788,0.002029785,0.000482666,1.002849579
10.008558,-0.043418884,0.012557983,0.071975708,-0.001266113,-0.001714600,1.004436493
10.009183,-0.005271912,0.035446167,0.079605103,0.001053222,0.002313721,1.005779266
10.009808,-0.127342224,0.012557983,-0.034835815,-0.001876465,0.004144775,1.010051727
10.023778,-0.073936462,-0.231582642,-0.004318237,0.000076660,0.001581299,0.996501923
10.024568,0.063392639,-0.048477173,-0.210311890,0.000809082,0.000970947,0.996013641
10.025193,-0.127342224,-0.063735962,0.003311157,0.002029785,-0.000615967,0.995647430
10.025818,-0.249412537,-0.086624146,0.117752075,0.001419433,-0.000371826,0.999553680
10.026443,-0.112083435,-0.078994751,-0.271347046,0.002273926,0.000726806,1.000652313
10.027068,0.071022034,-0.033218384,0.064346313,-0.002242676,0.002557861,1.003826141
10.027694,0.071022034,-0.002700806,-0.027206421,0.000687012,0.000482666,0.997356415
10.028321,-0.089195251,-0.056106567,-0.095870972,-0.000167481,0.000604736,1.001140594
10.029085,-0.012901306,-0.094253540,-0.088241577,0.000564941,0.000360596,1.000774384
10.029711,0.025245667,-0.117141724,-0.011947632,-0.001144043,0.001703369,0.999919891
10.030336,-0.142601013,0.065963745,-0.134017944,-0.000167481,0.001337158,0.999797821
10.030962,-0.051048279,-0.048477173,0.064346313,0.002518066,0.000482666,0.997478485
10.031587,-0.020530701,0.134628296,0.102493286,0.000198730,-0.001104248,0.999919891
10.032212,-0.043418884,0.073593140,-0.019577026,0.004227051,0.003290283,1.000408173
10.032837,-0.218894958,0.043075562,-0.080612183,0.005325683,0.003778564,1.000408173
10.033464,-0.058677673,0.096481323,0.262710571,0.003494629,0.002679931,1.002117157
10.034089,-0.066307068,-0.109512329,-0.065353394,0.006180176,0.005731689,0.999187469
10.034714,-0.371482849,0.386398315,0.041458130,0.005203613,0.006952392,0.997356415
10.035341,-0.600364685,0.264328003,-0.088241577,-0.002608887,0.014764892,0.996135712
10.035966,-0.867393494,0.287216187,0.094863892,-0.004928223,0.001459228,1.005290985
10.036592,-0.890281677,0.020187378,-0.111129761,0.000198730,-0.008306397,1.007122040
10.037219,-0.485923767,0.439804077,0.026199341,0.010208496,-0.005010498,1.003093719
10.037845,-0.524070740,0.584762573,-0.050094604,0.007034668,-0.001348389,0.998455048
10.038470,-0.234153748,0.508468628,-0.088241577,0.001663574,-0.006475342,1.001750946
10.039096,-0.157859802,0.584762573,0.071975708,-0.001632324,-0.005864990,1.001018524
10.039722,0.269386292,0.233810425,-0.027206421,-0.003219238,-0.005742920,1.003826141
10.040348,0.086280823,-0.147659302,0.064346313,-0.005416504,-0.001226319,1.008342743
10.040973,0.177833557,0.134628296,-0.172164917,-0.005538574,0.003168213,1.010417938
10.041600,0.208351135,-0.246841431,0.026199341,-0.004806153,0.005731689,1.011028290
10.042226,0.101539612,-0.445205688,-0.118759155,-0.002242676,-0.000371826,1.008586884
10.042851,0.048133850,-0.239212036,0.064346313,0.004349121,0.000726806,1.004314423
10.043476,-0.073936462,-0.407058716,0.110122681,0.002884277,0.000482666,1.000164032
10.044103,-0.020530701,-0.201065063,-0.141647339,0.003738769,0.003900635,1.001995087
10.044729,0.086280823,-0.223953247,-0.225570679,0.003738769,0.002313721,1.002849579
10.045354,-0.035789490,-0.254470825,0.026199341,0.000320801,0.000604736,1.001995087
10.045979,-0.043418884,-0.178176880,-0.156906128,0.000931152,0.000482666,1.002361298
10.046605,0.078651428,-0.323135376,0.010940552,0.001785644,-0.000615967,0.999675751
10.047315,0.086280823,-0.117141724,-0.095870972,0.002029785,0.000116455,1.001750946
10.048120,0.177833557,-0.010330200,-0.225570679,-0.000289551,0.001703369,0.998088837
10.048910,-0.012901306,0.165145874,-0.126388550,0.000809082,0.003778564,0.997356415
10.049536,0.132057190,0.027816772,-0.118759155,0.003128418,0.002679931,0.996990204
10.050161,0.032875061,0.165145874,0.003311157,-0.001388184,0.000482666,1.002971649
10.050786,0.025245667,-0.056106567,0.026199341,-0.000655762,0.000482666,1.003704071
10.051510,0.032875061,0.050704956,-0.111129761,0.000809082,-0.000127686,1.003093719
10.052135,0.307533264,-0.071365356,-0.011947632,-0.000167481,0.003778564,1.002239227
10.052761,0.154945374,-0.040847778,-0.034835815,-0.000533692,0.000970947,0.998943329
10.053387,-0.203636169,-0.048477173,-0.042465210,-0.000655762,-0.000127686,0.996623993
10.054013,-0.005271912,0.203292847,-0.233200073,0.002640137,-0.001104248,0.999065399
10.054640,-0.012901306,-0.155288696,-0.057723999,0.000809082,0.004877197,0.995159149
10.067279,0.078651428,-0.140029907,0.026199341,-0.000167481,-0.002447022,1.003826141
10.067971,0.025245667,0.081222534,-0.072982788,0.000198730,0.001947510,1.003215790
10.068596,-0.089195251,-0.040847778,-0.050094604,-0.000533692,0.002191650,1.004192352
10.069221,0.040504456,-0.063735962,0.079605103,-0.002120606,0.002191650,0.998699188
10.069847,0.071022034,-0.323135376,0.110122681,0.002151855,0.000848877,0.999309540
10.070473,0.032875061,-0.071365356,-0.202682495,0.000564941,0.001581299,1.001140594
10.071098,-0.142601013,-0.132400513,-0.202682495,0.001541504,0.002313721,1.003337860
10.071723,-0.012901306,0.081222534,-0.019577026,0.001053222,0.002191650,0.998455048
10.072348,0.002357483,-0.033218384,-0.103500366,0.001663574,-0.000982178,0.998210907
10.072973,0.002357483,-0.002700806,-0.080612183,0.001297363,0.001459228,0.999065399
10.073599,0.177833557,0.043075562,0.125381470,0.002395996,0.002191650,1.002239227
10.074224,0.071022034,-0.124771118,-0.187423706,0.001541504,-0.001104248,0.998821259
10.074850,0.063392639,0.035446167,-0.095870972,0.000931152,0.000604736,0.997112274
10.075476,-0.058677673,-0.033218384,0.056716919,0.000809082,0.000726806,0.996379852
10.076102,-0.043418884,0.027816772,0.033828735,-0.000045410,0.000848877,0.999309540
10.076727,-0.005271912,0.065963745,-0.164535522,0.001541504,-0.000249756,0.997966766
10.077352,0.139686584,-0.025588989,-0.027206421,0.001419433,0.000238525,0.996990204
10.077979,0.048133850,-0.010330200,0.003311157,0.000076660,0.003046142,0.997844696
10.078606,-0.096824646,-0.063735962,0.056716919,-0.000655762,-0.000005615,0.997966766
10.079232,0.109169006,-0.002700806,0.018569946,0.001175293,0.001581299,0.997112274
10.079857,-0.134971619,0.134628296,-0.011947632,0.001297363,0.001459228,1.000652313
10.080484,-0.043418884,-0.254470825,0.155899048,-0.000045410,0.000482666,0.999797821
10.081111,0.063392639,-0.078994751,0.018569946,0.001541504,0.000604736,0.998699188
10.081736,-0.066307068,0.233810425,0.010940552,0.000931152,0.002924072,0.996501923
10.082362,0.071022034,-0.178176880,-0.134017944,0.000931152,0.002435791,0.999919891
10.082988,-0.005271912,-0.155288696,0.033828735,-0.000167481,0.003412353,1.002971649
10.083615,-0.104454041,-0.010330200,0.079605103,-0.000777832,0.001459228,1.000164032
10.084240,-0.043418884,-0.063735962,-0.042465210,-0.001021973,0.003412353,1.002117157
10.084865,-0.012901306,-0.140029907,0.049087524,0.002395996,0.005731689,0.999675751
10.085490,-0.104454041,0.157516479,-0.019577026,-0.001144043,-0.001836670,1.003215790
10.086115,-0.112083435,0.027816772,0.140640259,0.001419433,-0.002935303,1.001873016
10.086740,0.162574768,-0.162918091,-0.027206421,0.003006347,0.002069580,0.999309540
10.087367,0.101539612,-0.094253540,0.033828735,0.001419433,0.001337158,0.999431610
10.087993,-0.127342224,0.027816772,-0.027206421,-0.002853028,-0.001348389,1.002971649
10.088619,0.017616272,-0.025588989,0.201675415,0.001785644,0.001459228,1.006023407
10.089245,-0.142601013,0.088851929,0.117752075,0.000931152,-0.000371826,1.003704071
10.089870,0.032875061,-0.216323853,-0.118759155,-0.001876465,-0.001714600,1.004802704
10.090496,0.040504456,0.081222534,0.102493286,0.001907715,0.000726806,1.000652313
10.091121,-0.089195251,-0.056106567,0.270339966,-0.002730957,0.001215088,1.002727509
10.091748,-0.058677673,0.172775269,0.033828735,0.001785644,-0.001104248,1.002117157
10.092373,-0.005271912,0.073593140,0.194046021,0.002029785,0.002679931,1.006023407
10.092999,-0.043418884,0.027816772,0.140640259,0.002884277,0.001215088,1.005657196
10.093624,-0.112083435,-0.162918091,-0.011947632,0.002273926,0.000848877,1.003459930
10.094249,-0.119712830,0.134628296,0.148269653,0.000687012,0.001947510,1.004192352
10.094876,0.017616272,0.180404663,0.018569946,-0.002242676,-0.000005615,0.999919891
10.095501,-0.012901306,-0.025588989,0.117752075,0.002273926,0.001581299,1.002727509
10.096127,-0.035789490,0.020187378,-0.050094604,-0.001144043,0.001581299,1.005290985
10.096753,0.002357483,0.302474976,-0.111129761,0.000076660,0.002191650,1.002605438
10.097378,-0.119712830,0.096481323,0.232192993,0.002273926,0.000238525,1.006511688
10.110047,0.025245667,0.065963745,0.094863892,0.003494629,0.002679931,0.999675751
10.110785,0.009986877,-0.071365356,0.026199341,-0.001021973,0.001215088,0.996868134
10.111411,0.109169006,0.058334351,-0.126388550,-0.000167481,-0.000615967,0.998699188
10.112037,0.208351135,0.065963745,-0.072982788,0.000076660,0.000970947,1.000286102
10.112664,-0.020530701,-0.201065063,-0.103500366,-0.002608887,0.001459228,1.000164032
10.113290,-0.028160095,0.081222534,-0.072982788,-0.000533692,0.000848877,1.001384735
10.113915,-0.043418884,-0.025588989,0.003311157,-0.000289551,0.001093017,1.002361298
10.114540,0.048133850,-0.063735962,0.071975708,-0.000655762,-0.001226319,0.997600555
10.115167,-0.142601013,-0.033218384,0.010940552,-0.001510254,0.000970947,1.002239227
10.115793,0.002357483,-0.109512329,-0.011947632,-0.001388184,0.000604736,0.997966766
10.116419,-0.096824646,0.058334351,0.064346313,-0.002975098,-0.001226319,1.000408173
10.117046,0.002357483,-0.017959595,0.018569946,-0.001998535,0.000482666,1.002605438
10.117672,0.002357483,-0.132400513,0.079605103,-0.000411621,0.000238525,1.002849579
10.118297,0.063392639,-0.002700806,-0.072982788,-0.000899903,0.000238525,1.002361298
10.118922,-0.081565857,0.149887085,0.087234497,-0.000045410,0.001947510,1.003215790
10.119548,0.040504456,0.142257690,0.041458130,0.000564941,-0.001836670,1.003459930
10.120173,-0.058677673,-0.033218384,0.010940552,-0.001021973,-0.001470459,1.001018524
10.120800,0.139686584,0.195663452,-0.271347046,-0.000411621,0.000848877,1.001628876
10.121426,-0.020530701,0.050704956,-0.103500366,0.001297363,0.000482666,1.001140594
10.122052,0.002357483,-0.071365356,-0.111129761,-0.001144043,-0.000738037,1.001628876
10.123782,-0.058677673,-0.155288696,0.308486938,-0.000533692,0.000482666,1.002239227
10.124408,-0.043418884,-0.017959595,0.056716919,0.003494629,0.001947510,1.003582001
10.125123,0.116798401,-0.048477173,0.171157837,0.002762207,0.000238525,1.005657196
10.125750,-0.104454041,-0.086624146,0.071975708,0.000198730,0.003290283,1.002483368
10.126375,0.109169006,0.027816772,-0.004318237,-0.000167481,-0.000493897,1.001018524
10.127001,0.002357483,-0.071365356,0.026199341,0.000809082,0.000238525,1.001018524
10.127628,0.009986877,-0.063735962,0.079605103,0.003128418,-0.000127686,1.001140594
10.128254,0.071022034,-0.147659302,-0.164535522,-0.000777832,0.001947510,1.001384735
10.128880,0.101539612,0.035446167,0.071975708,0.000076660,0.000726806,1.000774384
10.129507,-0.043418884,0.096481323,-0.042465210,0.003006347,0.005243408,1.004070282
10.130133,-0.066307068,-0.010330200,-0.111129761,0.000931152,-0.000738037,1.002849579
10.130758,-0.058677673,-0.101882935,0.079605103,-0.001876465,-0.000005615,1.004802704
10.131383,-0.066307068,0.012557983,0.133010864,0.002884277,0.001459228,1.000652313
10.132013,-0.020530701,0.210922241,-0.240829468,0.000442871,0.001825439,1.000164032
10.132640,-0.028160095,-0.071365356,-0.088241577,0.001541504,0.000238525,0.999797821
10.133266,0.170204163,-0.010330200,-0.080612183,0.002884277,-0.000249756,1.001506805
10.133891,-0.073936462,0.088851929,0.026199341,0.000564941,0.000238525,1.000774384
10.134517,0.040504456,-0.002700806,-0.095870972,-0.000533692,0.001825439,1.001995087
10.135144,0.025245667,-0.056106567,-0.057723999,-0.001754395,0.000482666,1.001506805
10.135770,-0.134971619,0.203292847,0.018569946,0.002518066,0.004266846,0.997722626
10.136395,-0.119712830,-0.071365356,0.026199341,0.001175293,0.004633056,1.002727509
10.137020,0.147315979,0.149887085,-0.088241577,0.001053222,-0.000860108,1.002117157
10.137646,0.009986877,-0.002700806,-0.141647339,0.003372558,0.002313721,1.002483368
10.138271,0.040504456,-0.048477173,0.079605103,-0.000655762,-0.000005615,1.000652313
10.138896,-0.043418884,-0.056106567,0.064346313,-0.000899903,0.002679931,0.999309540
10.139521,-0.089195251,-0.002700806,-0.034835815,0.002884277,0.002191650,0.998210907
10.140146,0.322792053,-0.063735962,-0.095870972,0.004593262,0.002069580,1.002361298
10.140773,0.101539612,0.027816772,-0.050094604,0.002273926,0.003168213,1.001018524
10.153434,0.048133850,-0.002700806,0.003311157,-0.002486817,-0.000249756,0.998699188
10.154131,0.170204163,-0.033218384,0.026199341,-0.000045410,-0.001348389,1.002971649
10.154757,-0.066307068,-0.056106567,-0.111129761,0.002273926,0.001337158,1.002605438
10.155382,0.124427795,0.020187378,0.102493286,0.001907715,-0.000127686,0.998943329
10.156013,0.132057190,0.126998901,0.071975708,0.001297363,0.000482666,0.998943329
10.156638,0.032875061,0.111740112,0.018569946,0.000198730,0.004755127,1.002727509
10.157263,-0.066307068,-0.101882935,0.010940552,-0.002608887,-0.001592529,1.002605438
10.157889,0.200721741,0.050704956,-0.042465210,-0.001510254,-0.002324951,1.002727509
10.158514,0.048133850,0.149887085,0.216934204,0.000076660,0.002557861,1.000041962
10.159140,0.200721741,-0.086624146,-0.019577026,0.002029785,0.000116455,1.000164032
10.159765,-0.005271912,-0.033218384,0.110122681,-0.000777832,-0.000249756,1.002483368
10.160391,0.177833557,0.065963745,-0.004318237,0.002029785,-0.000738037,1.002971649
10.161016,0.009986877,0.043075562,0.010940552,-0.000167481,-0.000860108,1.002239227
10.161642,0.162574768,0.165145874,-0.034835815,0.001297363,-0.000371826,1.002239227
10.162268,0.048133850,0.035446167,-0.134017944,0.002151855,-0.000982178,1.001140594
10.162894,0.162574768,-0.117141724,-0.088241577,0.001541504,0.001947510,1.000774384
10.163521,0.101539612,0.043075562,0.041458130,-0.001388184,0.000116455,0.998577118
10.164146,0.124427795,-0.124771118,-0.019577026,-0.000411621,0.001581299,1.001628876
10.164772,0.040504456,0.020187378,-0.103500366,-0.001998535,0.002191650,1.001018524
10.165398,0.246498108,-0.071365356,0.056716919,-0.000045410,0.003412353,1.003704071
10.166023,0.017616272,-0.017959595,0.079605103,0.003128418,0.003168213,0.997966766
10.166648,0.231239319,-0.094253540,-0.256088257,0.001663574,-0.001470459,0.999309540
10.167275,0.017616272,-0.132400513,-0.011947632,0.004349121,0.001947510,1.001140594
10.167900,0.063392639,-0.071365356,0.033828735,0.000687012,0.001215088,0.999431610
10.168525,-0.112083435,0.004928589,0.056716919,0.000687012,-0.000860108,1.000286102
10.169150,-0.005271912,-0.162918091,0.133010864,-0.001754395,-0.001958740,1.003704071
10.169775,0.170204163,-0.208694458,0.041458130,0.000076660,0.002191650,1.001750946
10.170402,-0.157859802,-0.025588989,-0.095870972,-0.002608887,0.001703369,1.002971649
10.171029,-0.112083435,0.134628296,0.163528442,-0.003463379,-0.002813233,1.002361298
10.171654,0.078651428,-0.124771118,0.026199341,0.001419433,-0.000615967,1.001873016
10.172279,-0.012901306,0.157516479,-0.080612183,0.001419433,0.005243408,0.999187469
10.172904,0.170204163,-0.147659302,0.049087524,0.000564941,-0.000615967,1.003459930
10.173530,0.162574768,-0.101882935,-0.141647339,0.000198730,0.001459228,1.002483368
10.174157,-0.051048279,0.104110718,-0.042465210,0.001175293,-0.000371826,1.002727509
10.174784,-0.112083435,-0.071365356,-0.027206421,-0.000899903,0.001093017,1.001628876
10.175411,-0.058677673,0.004928589,0.133010864,-0.001266113,0.000604736,1.002483368
10.176036,0.017616272,-0.178176880,0.049087524,-0.000655762,0.001703369,1.003215790
10.176661,0.093910217,-0.025588989,-0.088241577,-0.001388184,-0.000249756,1.002605438
10.177288,0.025245667,-0.178176880,-0.034835815,-0.001998535,-0.000860108,1.005046844
10.177914,0.071022034,0.142257690,-0.072982788,0.000320801,0.002069580,1.004436493
10.178541,-0.142601013,-0.063735962,-0.057723999,0.001663574,0.001581299,1.004802704
10.179167,-0.134971619,-0.170547485,-0.042465210,0.000687012,0.000726806,1.004436493
10.179792,-0.058677673,-0.033218384,0.003311157,0.001297363,0.002557861,1.003948212
10.180417,0.223609924,-0.109512329,-0.027206421,0.000809082,-0.000127686,1.003826141
10.181042,0.040504456,-0.040847778,0.041458130,0.003372558,0.000116455,1.003337860
10.181668,0.071022034,0.020187378,-0.011947632,0.002884277,-0.000127686,1.001262665
10.182293,0.215980530,-0.063735962,0.148269653,0.001419433,-0.001470459,1.002483368
10.182918,-0.104454041,-0.384170532,-0.027206421,0.002518066,-0.000371826,1.002117157
10.183545,0.238868713,-0.124771118,-0.065353394,0.001419433,0.002679931,1.002849579
10.197086,0.132057190,0.157516479,0.178787231,0.001785644,0.002191650,0.997844696
10.197792,-0.020530701,0.172775269,-0.019577026,0.000564941,0.004022705,0.996379852
10.198419,-0.012901306,-0.140029907,0.171157837,0.004959472,0.006219971,0.998455048
10.199044,-0.142601013,0.119369507,0.041458130,0.003006347,0.003534424,0.996746063
10.199670,-0.188377380,0.096481323,-0.095870972,-0.000289551,0.001337158,0.995281219
10.200297,-0.043418884,0.218551636,0.064346313,-0.002364746,-0.001958740,1.001384735
10.200922,-0.043418884,-0.040847778,0.049087524,-0.002364746,0.000116455,1.000774384
10.201548,-0.134971619,0.004928589,-0.050094604,-0.001998535,-0.000982178,1.002361298
10.202173,0.208351135,-0.040847778,-0.004318237,-0.000167481,-0.000249756,1.005413055
10.202799,0.162574768,-0.056106567,0.018569946,-0.001754395,0.001703369,0.999675751
10.203424,0.063392639,0.020187378,0.209304810,0.000320801,0.001337158,1.001750946
10.204049,0.170204163,-0.170547485,-0.027206421,0.000564941,0.003412353,1.002727509
10.204675,0.154945374,-0.063735962,-0.004318237,0.000687012,0.004144775,1.002117157
10.205300,0.132057190,-0.056106567,-0.080612183,0.002395996,0.002313721,1.002727509
10.205925,-0.066307068,0.027816772,-0.050094604,-0.000167481,0.001215088,1.001995087
10.206550,-0.112083435,-0.208694458,-0.011947632,0.000076660,0.000116455,1.000896454
10.207176,0.009986877,-0.193435669,-0.072982788,0.000931152,-0.000127686,1.000041962
10.207803,0.093910217,-0.086624146,-0.088241577,-0.000655762,0.003656494,1.002239227
10.208429,-0.051048279,-0.147659302,-0.019577026,0.002640137,-0.000493897,1.005901337
10.209054,0.002357483,-0.010330200,-0.042465210,-0.001144043,0.000726806,1.005046844
10.209680,0.139686584,-0.178176880,-0.072982788,0.003006347,0.003290283,1.005657196
10.210305,0.109169006,-0.201065063,0.049087524,-0.000533692,0.000970947,1.006511688
10.210930,-0.005271912,-0.048477173,-0.042465210,0.000442871,0.000238525,1.003215790
10.211557,-0.005271912,-0.040847778,0.087234497,-0.000899903,0.001459228,1.006389618
10.212184,-0.043418884,-0.269729614,0.064346313,0.000931152,0.000848877,1.006267548
10.212809,-0.165489197,-0.101882935,-0.111129761,0.002762207,0.002557861,1.004558563
10.213434,0.086280823,-0.109512329,-0.065353394,-0.003097168,-0.000127686,1.007366180
10.214059,-0.066307068,-0.140029907,0.117752075,-0.000533692,-0.000127686,1.006267548
10.214685,0.109169006,-0.201065063,-0.011947632,-0.000167481,0.002435791,1.002971649
10.215311,-0.218894958,0.004928589,-0.057723999,-0.000167481,0.000116455,1.001506805
10.215936,0.124427795,-0.002700806,0.079605103,0.001053222,-0.000371826,1.002483368
10.216563,0.009986877,-0.262100220,-0.034835815,0.002640137,0.003534424,1.003582001
10.217188,0.071022034,-0.109512329,0.041458130,0.003982910,0.000482666,0.999187469
10.217814,-0.127342224,-0.193435669,0.178787231,0.002884277,0.001825439,0.998210907
10.218439,0.132057190,-0.239212036,0.117752075,0.001175293,-0.002447022,1.001995087
10.219065,0.009986877,-0.193435669,0.026199341,0.001419433,0.002313721,0.997722626
10.219691,-0.089195251,0.111740112,0.041458130,0.000687012,0.002069580,0.998699188
10.220316,0.009986877,-0.109512329,-0.118759155,0.002029785,0.000360596,0.998455048
10.220943,-0.035789490,-0.063735962,-0.156906128,-0.000533692,0.001581299,0.996990204
10.221570,0.101539612,-0.010330200,0.194046021,-0.000045410,-0.001470459,0.997722626
10.222195,0.124427795,-0.094253540,0.003311157,0.000687012,0.001337158,1.000530243
10.223911,0.040504456,0.073593140,-0.019577026,0.001053222,0.001215088,0.998699188
10.224536,-0.035789490,-0.132400513,-0.011947632,0.000809082,0.001337158,1.001995087
10.225161,0.093910217,-0.002700806,-0.088241577,0.000564941,0.000238525,1.001995087
10.225786,0.040504456,0.226181030,0.079605103,0.001541504,0.000848877,1.001384735
10.226412,-0.028160095,-0.048477173,0.178787231,0.001541504,0.000482666,1.001140594
10.227039,-0.089195251,-0.094253540,0.071975708,0.000442871,0.003412353,1.004680634
10.245061,0.231239319,-0.124771118,0.186416626,0.000564941,-0.003789795,1.000530243
10.257801,0.009986877,0.020187378,-0.011947632,0.000687012,0.002191650,0.998699188
10.258517,-0.035789490,-0.185806274,0.041458130,0.000931152,-0.000005615,1.000774384
10.259143,-0.234153748,-0.117141724,-0.172164917,0.001663574,0.002435791,0.999919891
10.259770,0.055763245,-0.140029907,0.056716919,0.001297363,0.000848877,1.003948212
10.260395,0.009986877,-0.078994751,-0.004318237,0.001053222,-0.000615967,1.006999969
10.261022,0.017616272,-0.094253540,0.033828735,0.000198730,0.002069580,1.002727509
10.261649,0.009986877,0.142257690,0.064346313,0.001663574,0.002313721,1.004192352
10.262275,0.002357483,-0.056106567,-0.019577026,0.000564941,0.002679931,1.003093719
10.262902,-0.165489197,-0.048477173,-0.126388550,0.002518066,0.001825439,1.001506805
10.263528,0.154945374,0.012557983,-0.088241577,0.003250488,-0.000005615,1.001506805
10.264154,0.238868713,-0.231582642,0.026199341,0.001541504,0.002191650,1.000774384
10.264781,0.025245667,0.195663452,0.125381470,0.000198730,0.000848877,1.001018524
10.265408,-0.241783142,-0.132400513,0.056716919,-0.000899903,-0.001348389,1.000652313
10.266034,-0.081565857,0.096481323,0.102493286,0.001297363,0.002069580,1.005413055
10.266661,-0.218894958,-0.040847778,0.033828735,-0.000655762,0.003046142,1.002849579
10.267286,-0.127342224,0.027816772,0.079605103,0.001907715,0.000482666,1.001140594
10.267912,0.002357483,-0.048477173,0.056716919,0.002518066,0.002313721,1.001995087
10.268537,-0.173118591,-0.002700806,0.087234497,-0.000045410,0.001459228,1.003093719
10.269163,0.009986877,-0.010330200,0.056716919,-0.000045410,0.003290283,1.004070282
10.269788,-0.020530701,0.043075562,0.102493286,0.001297363,0.000604736,1.003826141
10.270414,-0.005271912,0.073593140,-0.103500366,0.000564941,-0.000493897,1.003215790
10.271039,-0.073936462,-0.208694458,-0.011947632,-0.000777832,0.000360596,1.002971649
10.271665,-0.035789490,0.027816772,0.133010864,0.003128418,0.001825439,1.001628876
10.272290,-0.234153748,-0.094253540,-0.134017944,0.000442871,0.001825439,1.001873016
10.272916,0.086280823,-0.071365356,-0.072982788,-0.002120606,0.001825439,1.002239227
10.273542,-0.104454041,-0.048477173,-0.103500366,0.000076660,-0.000371826,1.000652313
10.274167,-0.051048279,0.119369507,-0.278976440,0.001419433,0.002191650,0.999187469
10.274793,0.025245667,0.027816772,0.163528442,0.002029785,0.000848877,1.001750946
10.275419,-0.165489197,0.142257690,-0.004318237,0.001419433,0.002191650,1.001140594
10.276044,-0.089195251,-0.101882935,0.201675415,0.002640137,0.000726806,1.000041962
10.276670,-0.127342224,-0.078994751,-0.034835815,-0.000167481,-0.000493897,0.999797821
10.277295,0.093910217,-0.002700806,-0.042465210,0.000687012,-0.000005615,1.003704071
10.277920,0.162574768,-0.216323853,0.003311157,0.001907715,0.000482666,1.001018524
10.278546,-0.058677673,-0.033218384,-0.034835815,0.002884277,0.001337158,1.002727509
10.279173,-0.104454041,0.096481323,-0.019577026,0.000687012,0.002313721,1.003337860
10.279798,-0.058677673,-0.040847778,-0.088241577,-0.001021973,-0.000615967,1.002117157
10.280423,-0.073936462,0.065963745,-0.225570679,0.002029785,-0.002080811,1.004436493
10.281050,-0.127342224,0.157516479,0.102493286,0.001419433,0.000970947,1.002849579
10.281675,-0.226524353,0.104110718,-0.004318237,-0.000777832,0.000848877,1.002117157
10.282301,-0.043418884,-0.140029907,0.018569946,-0.003097168,0.001581299,1.000896454
10.282926,0.055763245,-0.056106567,-0.118759155,0.000809082,-0.000127686,0.999065399
10.283551,-0.142601013,-0.086624146,0.194046021,0.000931152,0.004266846,1.001262665
10.284178,-0.127342224,-0.017959595,-0.149276733,0.001785644,0.005243408,1.003582001
10.284803,-0.020530701,0.088851929,0.026199341,0.000809082,-0.001470459,0.998943329
10.285429,-0.005271912,-0.208694458,0.026199341,-0.002853028,0.000116455,1.001506805
10.286054,0.002357483,-0.124771118,0.033828735,0.000198730,0.002435791,0.998455048
10.286679,-0.371482849,0.157516479,-0.042465210,0.004349121,-0.001958740,0.997478485
10.287304,-0.279930115,-0.017959595,0.041458130,0.003372558,0.000482666,0.996868134
10.287930,-0.188377380,0.020187378,0.056716919,-0.003585449,0.004633056,0.999187469
10.311502,0.025245667,-0.033218384,0.117752075,0.006790527,0.000238525,0.998455048
10.312212,-0.173118591,0.035446167,-0.019577026,0.000076660,-0.003179444,0.997234344
10.312837,-0.127342224,0.088851929,0.178787231,-0.000167481,-0.004644287,1.003215790
10.313462,-0.058677673,0.149887085,0.026199341,0.000809082,-0.000127686,1.001140594
10.314087,0.193092346,0.210922241,-0.095870972,0.000198730,-0.000860108,0.999797821
10.314714,-0.051048279,-0.101882935,-0.019577026,-0.000045410,-0.001470459,0.998577118
10.315340,0.086280823,-0.155288696,-0.088241577,-0.000411621,0.002679931,0.997722626
10.315965,-0.134971619,-0.101882935,0.125381470,0.002029785,-0.000127686,0.999187469
10.316591,-0.096824646,0.050704956,0.071975708,0.001907715,0.000482666,1.000286102
10.317218,0.063392639,0.050704956,0.071975708,-0.000655762,0.001337158,1.002971649
10.317844,0.032875061,-0.086624146,0.163528442,-0.001021973,-0.003179444,0.999675751
10.318470,-0.127342224,-0.101882935,0.026199341,-0.000289551,0.001215088,1.001140594
10.319096,-0.081565857,0.065963745,-0.019577026,0.002762207,0.001703369,0.999187469
10.319721,0.040504456,-0.117141724,0.300857544,0.000809082,0.002557861,1.002727509
10.320347,-0.020530701,-0.040847778,-0.088241577,0.002029785,0.000726806,1.003093719
10.320973,0.223609924,-0.117141724,0.216934204,0.004593262,-0.008184327,1.000041962
10.321599,0.193092346,0.004928589,0.110122681,0.000931152,0.007806885,1.002971649
10.322224,0.154945374,-0.086624146,0.026199341,0.001053222,-0.000371826,1.002483368
10.323968,0.170204163,-0.010330200,-0.057723999,0.003372558,0.001093017,1.005779266
10.324593,0.177833557,0.172775269,0.178787231,-0.000655762,-0.005987061,1.001628876
10.325220,0.292274475,-0.155288696,-0.080612183,-0.002486817,0.003778564,1.003948212
10.325847,0.345680237,-0.140029907,0.064346313,-0.000167481,0.007562744,1.004192352
10.326473,0.299903870,-0.078994751,-0.034835815,-0.000045410,-0.004033936,1.003215790
10.327098,0.254127502,-0.170547485,0.071975708,-0.000045410,0.003168213,1.001262665
10.327723,0.269386292,-0.185806274,-0.072982788,0.001419433,0.003900635,1.001506805
10.328349,0.154945374,-0.094253540,-0.004318237,0.001053222,-0.002324951,1.004314423
10.328976,0.345680237,-0.078994751,-0.042465210,-0.003341309,0.000482666,1.003215790
10.329647,0.231239319,-0.284988403,-0.149276733,0.001175293,0.002924072,1.000774384
10.330272,0.177833557,-0.109512329,0.071975708,-0.000045410,0.002802002,1.003093719
10.330897,0.254127502,-0.193435669,0.117752075,-0.001021973,0.001581299,1.001140594
10.331522,0.185462952,-0.124771118,0.148269653,0.000198730,0.002679931,1.001750946
10.332148,0.231239319,0.027816772,-0.019577026,0.001419433,-0.002813233,1.000774384
10.332774,0.132057190,-0.330764771,-0.019577026,0.001785644,-0.000127686,0.999431610
10.333399,0.040504456,-0.147659302,0.018569946,-0.000411621,0.001459228,1.002605438
10.334026,-0.028160095,-0.117141724,0.102493286,0.000198730,0.000970947,1.002239227
10.334653,0.147315979,-0.269729614,0.010940552,-0.000899903,0.000970947,1.001628876
10.335280,0.162574768,-0.201065063,0.094863892,0.001663574,0.000970947,1.000896454
10.335905,0.109169006,-0.315505981,-0.233200073,0.000198730,0.003412353,1.003704071
10.336532,-0.142601013,-0.155288696,-0.088241577,0.001785644,0.001093017,1.002605438
10.337157,0.116798401,-0.124771118,0.117752075,0.003006347,-0.000371826,1.003948212
10.337784,-0.012901306,0.058334351,0.003311157,0.000809082,-0.000615967,1.006633759
10.338411,0.078651428,-0.056106567,0.079605103,0.002029785,-0.000005615,1.006267548
10.339038,-0.020530701,-0.193435669,0.102493286,-0.000167481,0.001825439,1.002605438
10.339665,0.147315979,-0.353652954,0.102493286,0.001907715,0.001947510,1.003093719
10.340291,0.246498108,-0.178176880,0.041458130,0.003250488,0.001459228,1.001140594
10.340917,0.002357483,-0.132400513,0.178787231,0.000320801,-0.000127686,1.001262665
10.341542,0.048133850,-0.025588989,-0.210311890,0.003372558,0.000970947,1.001018524
10.342167,0.147315979,-0.140029907,0.018569946,0.002151855,0.001703369,1.001506805
10.342792,0.116798401,0.020187378,-0.004318237,0.001663574,0.002924072,1.002239227
10.355467,0.017616272,-0.368911743,-0.034835815,0.002395996,-0.000982178,0.999797821
10.356169,-0.134971619,-0.193435669,0.003311157,-0.001144043,0.000604736,1.001384735
10.356795,0.055763245,-0.414688110,0.033828735,0.001419433,0.001215088,0.998455048
10.357420,-0.241783142,-0.307876587,0.316116333,0.002640137,0.000238525,1.000164032
10.358046,-0.112083435,-0.353652954,-0.027206421,0.001541504,-0.001348389,0.998455048
10.358671,-0.127342224,-0.384170532,0.270339966,0.000076660,0.000604736,1.000652313
10.359297,-0.051048279,-0.338394165,-0.179794312,0.001785644,0.001825439,0.999553680
10.359924,-0.348594666,-0.262100220,-0.149276733,0.003250488,0.000482666,0.998699188
10.360549,-0.134971619,-0.193435669,0.010940552,-0.001388184,0.000360596,1.000286102
10.361175,-0.119712830,-0.338394165,0.140640259,0.002640137,0.001337158,1.000164032
10.361800,-0.348594666,-0.384170532,-0.118759155,0.004227051,0.001825439,0.995281219
10.362426,-0.241783142,-0.292617798,-0.011947632,0.000442871,-0.000982178,1.000530243
