time,gyro x,gyro y,gyro z,accel x,accel y,accel z
98.480070,-5.221519470,-18.775985718,0.015808105,0.005623779,-0.034510743,-1.106518626
98.480695,-5.313072205,-19.111679077,-0.060485840,0.009774170,-0.033167969,-1.103344798
98.481320,-5.778465271,-19.332931519,0.259948730,0.010506592,-0.032557618,-1.099926829
98.481945,-5.976829529,-19.760177612,0.282836914,0.011605225,-0.034388673,-1.099560618
98.482570,-6.312522888,-20.034835815,0.610900879,0.012703857,-0.036097657,-1.097363353
98.483196,-6.693992615,-20.286605835,0.259948730,0.013070068,-0.036708008,-1.097119212
98.483821,-6.541404724,-20.362899780,0.542236328,0.014534912,-0.035121094,-1.090771556
98.484447,-6.831321716,-20.515487671,0.588012695,0.012581787,-0.039027344,-1.089672923
98.485073,-6.693992615,-20.935104370,0.687194824,0.017586671,-0.041590821,-1.084790111
98.485699,-6.518516541,-21.080062866,0.961853027,0.018563233,-0.041712891,-1.078930736
98.486325,-6.663475037,-21.186874390,1.091552734,0.019783936,-0.043421876,-1.071362376
98.486951,-6.259117126,-21.476791382,0.977111816,0.018074952,-0.045008790,-1.065136790
98.487577,-6.304893494,-21.736190796,1.175476074,0.019539796,-0.045008790,-1.059887767
98.488203,-6.236228943,-21.720932007,1.358581543,0.021614991,-0.045619141,-1.048901439
98.488829,-6.182823181,-21.934555054,1.289916992,0.028450929,-0.043543946,-1.048046947
98.489455,-6.091270447,-21.774337769,1.373840332,0.030648194,-0.044154298,-1.036816478
98.490080,-5.778465271,-21.698043823,1.526428223,0.031624757,-0.044520508,-1.028393626
98.490705,-5.877647400,-21.698043823,1.732421875,0.035286866,-0.043055665,-1.024975657
98.491332,-5.404624939,-21.766708374,1.671386719,0.035286866,-0.041957032,-1.014111400
98.491957,-5.419883728,-21.537826538,1.869750977,0.031624757,-0.041590821,-1.006787181
98.492583,-5.389366150,-21.553085327,1.930786133,0.031868897,-0.040980469,-0.998974681
98.493209,-5.160484314,-21.446273804,2.052856445,0.036385499,-0.042689454,-0.991650462
98.493834,-4.992637634,-21.400497437,2.091003418,0.038094483,-0.038661133,-0.985791087
98.495636,-4.008445740,-20.416305542,2.144409180,0.042366944,-0.035853516,-0.968457103
98.496262,-3.985557556,-20.385787964,2.373291016,0.044564210,-0.032801758,-0.958935618
98.496888,-3.741416931,-20.164535522,2.594543457,0.043587647,-0.031703126,-0.960766673
98.497515,-3.588829041,-19.645736694,2.281738281,0.045174561,-0.031458985,-0.953930736
98.498142,-3.489646912,-19.317672729,2.472473145,0.043221436,-0.030604493,-0.945629954
98.498767,-2.970848083,-18.730209351,2.426696777,0.043953858,-0.026576173,-0.940991282
98.499394,-2.665672302,-18.592880249,2.441955566,0.045540772,-0.027186524,-0.940380931
98.500020,-2.696189880,-18.371627808,2.678466797,0.042855226,-0.021937501,-0.935131907
98.500646,-2.307090759,-17.814682007,2.876831055,0.042977296,-0.023280274,-0.937817454
98.501271,-2.093467712,-17.562911987,2.678466797,0.045052491,-0.017176758,-0.933911204
98.501896,-1.872215271,-17.326400757,2.785278320,0.046639405,-0.014979493,-0.928418040
98.502521,-1.620445251,-16.708419800,2.792907715,0.047005616,-0.010340821,-0.930371165
98.503146,-1.437339783,-16.319320679,2.678466797,0.048348390,-0.008998048,-0.930615306
98.503772,-1.315269470,-15.945480347,2.724243164,0.044442140,-0.007411133,-0.929028392
98.504397,-1.368675232,-15.319869995,2.739501953,0.047615968,-0.001673828,-0.920605540
98.505022,-1.269493103,-15.014694214,2.838684082,0.047249757,-0.001673828,-0.922436595
98.505647,-0.956687927,-14.724777222,2.869201660,0.044930421,0.002232422,-0.920483470
98.519652,-4.847679138,-6.576583862,1.923156738,0.036507569,0.049473632,-0.899487376
98.520428,-5.084190369,-6.279037476,1.701904297,0.031746827,0.048252929,-0.898999095
98.521054,-5.503807068,-5.966232300,1.854492188,0.031380616,0.045811523,-0.899487376
98.521679,-5.870018005,-5.966232300,1.961303711,0.026741944,0.048863281,-0.900952220
98.522305,-6.182823181,-5.554244995,1.656127930,0.024300538,0.045689452,-0.902783275
98.522931,-6.465110779,-5.035446167,1.755310059,0.024056397,0.045079101,-0.901196361
98.523558,-6.625328064,-4.936264038,1.717163086,0.021981202,0.042271484,-0.903271556
98.530809,-7.022056580,-2.700851440,1.167846680,-0.002921143,0.029332031,-0.910961986
98.531435,-6.983909607,-2.708480835,1.228881836,-0.004874268,0.027745117,-0.912670970
98.532062,-6.983909607,-2.426193237,1.274658203,-0.003897705,0.027378906,-0.911206126
98.532689,-6.869468689,-2.380416870,1.213623047,-0.010001221,0.023960937,-0.911816478
98.533315,-6.495628357,-2.281234741,1.015258789,-0.008658447,0.026280273,-0.911328197
98.533940,-6.327781677,-2.052352905,1.106811523,-0.012320557,0.026280273,-0.909863353
98.534566,-6.205711365,-1.853988647,1.083923340,-0.013663330,0.023960937,-0.911084056
98.535191,-6.030235291,-1.693771362,0.862670898,-0.013663330,0.026402343,-0.908520579
98.535817,-5.770835876,-1.701400757,1.167846680,-0.013907471,0.025303710,-0.912548900
98.536443,-5.534324646,-1.701400757,1.099182129,-0.016470946,0.027134765,-0.910107493
98.537068,-5.305442810,-1.480148315,0.824523926,-0.022086181,0.023838867,-0.906933665
98.537694,-5.335960388,-1.335189819,0.938964844,-0.022208251,0.024937499,-0.906689525
98.538321,-5.122337341,-1.205490112,0.954223633,-0.023306884,0.026036132,-0.905102611
98.540131,-4.931602478,-0.640914917,0.885559082,-0.030753173,0.031529296,-0.903515697
98.540756,-4.939231873,-0.526473999,0.908447266,-0.030509032,0.030064452,-0.900341868
98.541382,-4.786643982,-0.366256714,0.885559082,-0.033804931,0.030552734,-0.899853587
98.542008,-4.779014587,-0.457809448,0.786376953,-0.032584228,0.031651367,-0.898388743
98.542635,-4.847679138,-0.160263062,0.778747559,-0.033438720,0.030674804,-0.895581126
98.543261,-5.061302185,0.068618774,0.946594238,-0.034537353,0.031773437,-0.890087962
98.543886,-5.137596130,0.213577271,0.702453613,-0.034537353,0.036412109,-0.893017650
98.544512,-5.274925232,0.228836060,0.763488770,-0.036856689,0.034458984,-0.893628001
98.545137,-5.236778259,0.694229126,0.931335449,-0.036124267,0.035191406,-0.892895579
98.545764,-5.297813416,0.572158813,0.488830566,-0.038077392,0.035191406,-0.892285228
98.546389,-5.473289490,0.701858521,0.771118164,-0.037711181,0.039585937,-0.897168040
98.547015,-5.465660095,0.938369751,0.786376953,-0.038687743,0.036900390,-0.894726634
98.547641,-5.694541931,1.136734009,0.885559082,-0.038565673,0.036290038,-0.895092845
98.548267,-5.740318298,1.281692505,0.824523926,-0.039786376,0.037754882,-0.895703197
98.548893,-5.854759216,1.327468872,0.763488770,-0.040274657,0.036900390,-0.896679759
98.549520,-6.076011658,1.380874634,0.526977539,-0.042349853,0.038975585,-0.897412181
98.550146,-6.098899841,1.808120728,0.649047852,-0.042227782,0.037022460,-0.895947337
98.550771,-6.091270447,1.670791626,0.565124512,-0.044791259,0.036778320,-0.901562572
98.551396,-6.213340759,1.686050415,0.534606934,-0.042105712,0.039830077,-0.901318431
98.552021,-6.068382263,2.098037720,0.420166016,-0.042838134,0.035191406,-0.900830150
98.552646,-6.266746521,1.937820435,0.649047852,-0.046988524,0.038975585,-0.900219798
98.553272,-6.159934998,2.052261353,0.588012695,-0.044669189,0.038365234,-0.900219798
98.553898,-6.266746521,2.113296509,0.526977539,-0.049674071,0.035191406,-0.901196361
98.554523,-6.167564392,2.296401978,0.488830566,-0.048453368,0.041416992,-0.898144603
98.555149,-6.121788025,2.471878052,0.404907227,-0.054068603,0.037022460,-0.902294993
98.555774,-5.892906189,2.326919556,0.221801758,-0.050406493,0.041294921,-0.901806712
98.556401,-5.808982849,2.433731079,0.443054199,-0.052969970,0.039341796,-0.899487376
98.557026,-6.259117126,2.708389282,0.191284180,-0.056510009,0.038121093,-0.901196361
98.571887,-6.442222595,5.607559204,-0.838684082,-0.093497314,0.038609374,-0.878857493
98.572622,-6.526145935,5.783035278,-0.625061035,-0.093985595,0.035435546,-0.877392650
98.573248,-6.701622009,5.882217407,-0.785278320,-0.095816649,0.037999023,-0.881543040
98.573874,-6.930503845,6.126358032,-0.556396484,-0.100455321,0.038121093,-0.880078197
98.574500,-6.892356873,6.355239868,-0.838684082,-0.102286376,0.036167968,-0.884594798
98.575126,-6.808433533,6.286575317,-0.747131348,-0.104727782,0.036412109,-0.878613353
98.575751,-6.899986267,6.576492310,-0.976013184,-0.105216064,0.038975585,-0.880688548
98.576376,-7.006797791,6.874038696,-0.831054688,-0.111929931,0.037754882,-0.879589915
98.577011,-7.373008728,6.935073853,-0.968383789,-0.111075439,0.040562499,-0.877148509
98.577638,-7.037315369,6.980850220,-1.021789551,-0.113760985,0.042271484,-0.877392650
98.578263,-7.258567810,7.263137817,-0.800537109,-0.117178954,0.041050781,-0.881543040
98.578889,-7.136497498,7.377578735,-1.113342285,-0.117789306,0.041416992,-0.875073314
98.579514,-7.510337830,7.476760864,-1.075195312,-0.122427978,0.043003906,-0.878613353
98.580141,-7.579002380,7.774307251,-0.937866211,-0.123648681,0.041294921,-0.878491282
98.580766,-7.754478455,7.698013306,-1.044677734,-0.127066657,0.041905273,-0.875317454
98.581392,-7.678184509,7.934524536,-1.182006836,-0.128775641,0.042149413,-0.878125072
98.582018,-7.838401794,7.949783325,-1.212524414,-0.127677009,0.043125976,-0.876538157
98.582643,-7.746849060,7.911636353,-1.220153809,-0.131705329,0.044346679,-0.877514720
98.583270,-7.823143005,8.285476685,-1.273559570,-0.131583259,0.042759765,-0.873608470
98.583896,-8.044395447,8.537246704,-1.182006836,-0.133536384,0.044590820,-0.873974681
98.584523,-7.983360291,8.438064575,-1.365112305,-0.134268805,0.043858398,-0.872998118
98.585148,-8.135948181,8.506729126,-1.296447754,-0.135367438,0.043980468,-0.875317454
98.585775,-8.113059998,8.750869751,-1.304077148,-0.139517829,0.043003906,-0.872143626
98.586400,-8.357200623,8.796646118,-1.471923828,-0.136710212,0.047154296,-0.869824290
98.587026,-8.097801208,8.789016724,-1.593994141,-0.136099860,0.046543945,-0.871533275
98.587652,-7.960472107,9.078933716,-1.670288086,-0.137808844,0.042881835,-0.873242259
98.588277,-7.800254822,9.216262817,-1.616882324,-0.138907477,0.043980468,-0.872998118
98.588902,-7.968101501,9.307815552,-1.601623535,-0.140494391,0.042271484,-0.872631907
98.589527,-7.601890564,9.315444946,-1.960205078,-0.139884040,0.040074218,-0.873974681
98.590152,-7.487449646,9.345962524,-1.975463867,-0.140494391,0.040318359,-0.872021556
98.591935,-6.602439880,9.773208618,-2.173828125,-0.139884040,0.035923827,-0.871044993
98.592560,-6.518516541,9.788467407,-2.013610840,-0.141226813,0.036778320,-0.867993236
98.593186,-6.053123474,9.818984985,-2.250122070,-0.140006110,0.035801757,-0.868969798
98.593811,-5.740318298,10.086013794,-2.334045410,-0.140250251,0.036778320,-0.867016673
98.594437,-5.526695251,10.284378052,-2.303527832,-0.143424079,0.035069335,-0.869946361
98.595063,-4.931602478,10.314895630,-2.280639648,-0.139029548,0.034825195,-0.868847728
98.595690,-4.672203064,10.650588989,-2.585815430,-0.143179938,0.033482421,-0.866040111
98.596317,-3.955039978,10.711624146,-2.608703613,-0.143179938,0.033848632,-0.868969798
98.596943,-3.756675720,10.559036255,-2.654479980,-0.139395759,0.032017577,-0.865063548
98.597570,-3.359947205,10.795547485,-2.646850586,-0.143057868,0.033360351,-0.864697337
98.598196,-2.711448669,11.001541138,-2.875732422,-0.139639899,0.034458984,-0.865918040
98.598850,-2.139244080,10.986282349,-3.020690918,-0.142203376,0.032872070,-0.863720775
98.599476,-1.788291931,11.260940552,-2.974914551,-0.141348884,0.038243163,-0.864941478
98.600101,-1.277122498,11.497451782,-3.150390625,-0.143424079,0.034336913,-0.866284251
98.600727,-0.605735779,11.230422974,-3.188537598,-0.136588141,0.035313476,-0.864819407
98.601353,-0.231895447,11.413528442,-3.280090332,-0.137198493,0.035069335,-0.864086986
98.601978,0.561561584,11.604263306,-3.379272461,-0.138052985,0.036900390,-0.863598704
98.602603,1.034584045,11.741592407,-3.257202148,-0.137076423,0.033360351,-0.862133861
98.616637,10.220375061,14.846755981,-6.225036621,-0.129385993,0.053501952,-0.881543040
98.617436,10.395851135,14.762832642,-6.484436035,-0.130362555,0.057408202,-0.884961009
98.618062,10.472145081,14.831497192,-6.507324219,-0.131217048,0.054722656,-0.881909251
98.618687,10.487403870,15.052749634,-6.705688477,-0.127677009,0.053868163,-0.886669993
98.619313,10.433998108,15.327407837,-6.797241211,-0.128653571,0.056919921,-0.885205150
98.619940,10.670509338,15.022232056,-6.942199707,-0.128409430,0.059361327,-0.887402415
98.620565,10.685768127,15.228225708,-7.071899414,-0.128653571,0.058628906,-0.891796947
98.621192,10.525550842,15.228225708,-7.293151855,-0.129019782,0.055943359,-0.890820384
98.621817,10.479774475,15.251113892,-7.316040039,-0.129752204,0.058140624,-0.896923900
98.622444,10.388221741,15.426589966,-7.522033691,-0.130240485,0.057896484,-0.892773509
98.623071,10.212745667,15.151931763,-7.781433105,-0.127799079,0.055455077,-0.895947337
98.623697,10.281410217,15.350296021,-7.789062500,-0.126944587,0.058140624,-0.898144603
98.624323,10.250892639,15.289260864,-7.850097656,-0.130118415,0.059849609,-0.900830150
98.624949,10.075416565,14.976455688,-8.063720703,-0.129385993,0.056065429,-0.902050853
98.625574,9.686317444,15.243484497,-8.361267090,-0.129996344,0.056797851,-0.901928782
98.626200,9.754981995,15.174819946,-8.391784668,-0.128043219,0.059117187,-0.905224681
98.626826,9.495582581,15.129043579,-8.483337402,-0.128775641,0.055088867,-0.903149486
98.627451,9.663429260,14.907791138,-8.559631348,-0.133292243,0.053013671,-0.909497142
98.628077,9.251441956,14.648391724,-8.658813477,-0.129385993,0.055821288,-0.912060618
98.628703,9.228553772,14.785720825,-9.002136230,-0.128897712,0.053379882,-0.914379954
98.629329,8.976783752,14.823867798,-9.017395020,-0.128531501,0.051792968,-0.911206126
98.629954,8.763160706,14.625503540,-9.131835938,-0.122916259,0.050938476,-0.916699290
98.630580,8.694496155,14.526321411,-9.269165039,-0.123160399,0.050938476,-0.916333079
98.631206,8.229103088,14.579727173,-9.437011719,-0.124259032,0.045323242,-0.917553782
98.631833,8.045997620,14.396621704,-9.437011719,-0.121451415,0.048374999,-0.918408275
98.632459,7.710304260,14.396621704,-9.719299316,-0.118887939,0.045689452,-0.916699290
98.633084,7.618751526,14.274551392,-9.719299316,-0.118887939,0.045079101,-0.917553782
98.633709,7.275428772,14.190628052,-9.841369629,-0.117667235,0.043125976,-0.922924876
98.634335,7.023658752,14.038040161,-10.009216309,-0.116812743,0.043003906,-0.920483470
98.634961,6.649818420,13.954116821,-10.222839355,-0.116080321,0.045567382,-0.921460032
98.636749,5.749549866,13.633682251,-10.482238770,-0.112052001,0.037266601,-0.924878001
98.637375,5.368080139,13.465835571,-10.260986328,-0.110709228,0.038365234,-0.924389720
98.638010,4.910316467,13.366653442,-10.337280273,-0.108756103,0.037266601,-0.922314525
98.638635,4.757728577,13.236953735,-10.596679688,-0.107535399,0.035923827,-0.924389720
98.639261,4.185523987,13.122512817,-10.482238770,-0.104361571,0.031895507,-0.924755931
98.639887,4.040565491,13.061477661,-10.634826660,-0.104849853,0.032505859,-0.923779368
98.640512,3.582801819,12.893630981,-10.863708496,-0.101798095,0.031529296,-0.924389720
98.641138,3.109779358,12.695266724,-10.833190918,-0.097769774,0.028111327,-0.922192454
98.641763,2.652015686,12.519790649,-11.001037598,-0.096304931,0.027134765,-0.923413157
98.642388,2.484169006,12.474014282,-11.001037598,-0.094840087,0.024937499,-0.923901439
98.643013,1.767005920,12.466384888,-11.252807617,-0.092154540,0.022007812,-0.921948314
98.643639,1.210060120,12.283279419,-11.298583984,-0.092276610,0.022129882,-0.926098704
98.644265,0.935401917,12.046768188,-11.184143066,-0.091055907,0.022496093,-0.921704173
98.644891,0.553932190,12.062026978,-11.054443359,-0.086661376,0.018589843,-0.920361400
98.645516,0.119056702,11.863662720,-11.367248535,-0.086417235,0.018467773,-0.922802806
98.646142,-0.346336365,11.718704224,-11.344360352,-0.084464110,0.014561523,-0.922314525
98.646767,-0.697288513,11.474563599,-11.435913086,-0.082877196,0.008213867,-0.922924876
98.660744,-6.953392029,10.086013794,-11.458801270,-0.025137939,-0.056117188,-0.901684642
98.661490,-7.098350525,10.177566528,-11.527465820,-0.018912353,-0.058924805,-0.899487376
98.662115,-7.350120544,10.246231079,-11.451171875,-0.016837157,-0.060267579,-0.897290111
98.662740,-7.411155701,10.330154419,-11.405395508,-0.017935790,-0.064173825,-0.895947337
98.663367,-7.373008728,10.345413208,-11.428283691,-0.014273682,-0.064417966,-0.898022532
98.663993,-7.540855408,10.528518677,-11.168884277,-0.015738524,-0.068446286,-0.892651439
98.664618,-7.594261169,10.528518677,-11.077331543,-0.013297119,-0.071498044,-0.891064525
98.665244,-7.754478455,10.498001099,-11.016296387,-0.012320557,-0.074427731,-0.890942454
98.665870,-7.746849060,10.841323853,-10.909484863,-0.010733643,-0.079310544,-0.887036204
98.666495,-7.815513611,10.803176880,-10.985778809,-0.008536377,-0.082484372,-0.888134837
98.667121,-7.929954529,11.207534790,-10.581420898,-0.005728760,-0.081019528,-0.884106517
98.667746,-7.937583923,11.337234497,-10.566162109,-0.008536377,-0.083094724,-0.882275462
98.668371,-7.968101501,11.466934204,-10.489868164,-0.001700439,-0.085780270,-0.881787181
98.668996,-8.067283630,11.764480591,-10.299133301,-0.004874268,-0.087123044,-0.880444407
98.669622,-7.899436951,12.084915161,-10.245727539,-0.003165283,-0.090418942,-0.877514720
98.670247,-7.884178162,12.329055786,-10.207580566,-0.003897705,-0.091029294,-0.875439525
98.670873,-8.090171814,12.474014282,-9.856628418,-0.001944580,-0.091395505,-0.874462962
98.671499,-8.013877869,12.557937622,-9.932922363,-0.005606689,-0.092860349,-0.877270579
98.672126,-8.265647888,13.023330688,-9.566711426,-0.006339111,-0.097132809,-0.872143626
98.672751,-8.303794861,13.290359497,-9.375976562,-0.002554932,-0.097376950,-0.875439525
98.673377,-8.349571228,13.618423462,-9.162353516,-0.004508057,-0.099940427,-0.874829173
98.674008,-8.090171814,13.656570435,-9.253906250,-0.006217041,-0.098963864,-0.876171947
98.674633,-8.387718201,14.137222290,-8.811401367,-0.011588135,-0.105189450,-0.881054759
98.675258,-8.357200623,14.572097778,-8.796142578,-0.011954346,-0.106654294,-0.877148509
98.675883,-8.280906677,14.572097778,-8.651184082,-0.012076416,-0.107997067,-0.880810618
98.676508,-8.479270935,14.877273560,-8.452819824,-0.012930908,-0.109339841,-0.885083079
98.677134,-8.326683044,14.900161743,-8.239196777,-0.020010985,-0.112391599,-0.884716868
98.677760,-8.761558533,15.098526001,-8.063720703,-0.020255126,-0.115931638,-0.893994212
98.678385,-8.425865173,15.090896606,-7.949279785,-0.021231689,-0.114222653,-0.895825267
98.679010,-8.357200623,15.342666626,-7.560180664,-0.022452392,-0.117030270,-0.898266673
98.680800,-7.914695740,15.365554810,-7.277893066,-0.029288329,-0.122889645,-0.914746165
98.681426,-7.914695740,15.594436646,-6.911682129,-0.026358642,-0.125941411,-0.920361400
98.682053,-7.617149353,15.624954224,-7.071899414,-0.025504149,-0.127528325,-0.922924876
98.682679,-7.441673279,15.365554810,-6.377624512,-0.028311767,-0.127406254,-0.932202220
98.683305,-6.999168396,15.319778442,-6.164001465,-0.032462157,-0.128138676,-0.936108470
98.683930,-6.800804138,15.350296021,-6.110595703,-0.029044189,-0.131800786,-0.941967845
98.684555,-6.411705017,15.113784790,-5.996154785,-0.031607665,-0.127772465,-0.946728587
98.685180,-6.022605896,15.174819946,-5.652832031,-0.029288329,-0.130091801,-0.949780345
98.685805,-5.381736755,14.930679321,-5.546020508,-0.027945556,-0.131800786,-0.952954173
98.686432,-5.145225525,14.770462036,-5.340026855,-0.030509032,-0.133387700,-0.957714915
98.687057,-4.695091248,14.488174438,-5.301879883,-0.030509032,-0.131190434,-0.960888743
98.687683,-4.283103943,14.625503540,-4.874633789,-0.029044189,-0.132289067,-0.961377025
98.688308,-3.886375427,14.205886841,-4.744934082,-0.027457274,-0.130824223,-0.964306712
98.688934,-3.527793884,14.114334106,-4.416870117,-0.025504149,-0.130702153,-0.967114329
98.689559,-2.917442322,13.999893188,-4.355834961,-0.030631103,-0.132411137,-0.967968822
98.690186,-2.474937439,13.740493774,-3.890441895,-0.027213134,-0.128260747,-0.969433665
98.704211,6.298866272,7.011367798,-0.029968262,-0.040518798,-0.097499020,-1.005200267
98.704986,6.459083557,6.637527466,-0.045227051,-0.038321532,-0.093470700,-1.007397532
98.705612,6.848182678,6.294204712,0.084472656,-0.042105712,-0.085902341,-1.006420970
98.706237,6.871070862,6.095840454,0.420166016,-0.044547118,-0.083094724,-1.005688548
98.706862,6.756629944,5.927993774,0.267578125,-0.044547118,-0.077113278,-1.002392650
98.707487,7.031288147,5.615188599,0.389648438,-0.042838134,-0.076747067,-1.004345775
98.708124,6.993141174,5.531265259,0.641418457,-0.043814696,-0.072474606,-0.997753978
98.708750,6.825294495,5.073501587,0.763488770,-0.046256103,-0.062708981,-0.995800853
98.709375,6.642189026,4.753067017,0.694824219,-0.044302978,-0.062953122,-0.996044993
98.710010,6.413307190,4.539443970,0.626159668,-0.045523681,-0.054896485,-0.996777415
98.710637,6.138648987,4.638626099,0.961853027,-0.050528564,-0.049647462,-0.992382884
98.711263,5.963172913,4.135086060,0.900817871,-0.052481689,-0.049769532,-0.992382884
98.711889,5.230751038,4.051162720,1.068664551,-0.054434814,-0.044032227,-0.992993236
98.712516,5.101051331,3.532363892,0.984741211,-0.057120360,-0.040736329,-0.993847728
98.713141,4.361000061,3.425552368,1.053405762,-0.056387939,-0.036952149,-0.992382884
98.713767,3.979530334,3.021194458,1.259399414,-0.062857665,-0.033290040,-0.991894603
98.714394,3.414955139,3.005935669,1.350952148,-0.060660399,-0.031703126,-0.991284251
98.715020,2.819862366,2.761795044,1.274658203,-0.060904540,-0.027552735,-0.995922923
98.715647,2.339210510,2.181961060,1.350952148,-0.064932860,-0.028163087,-0.996044993
98.716273,1.751747131,2.159072876,1.358581543,-0.064688720,-0.027552735,-0.995922923
98.716898,1.316871643,1.800491333,1.343322754,-0.067008056,-0.026087891,-1.000683665
98.717524,0.775184631,1.205398560,1.480651855,-0.069205321,-0.024134766,-1.005078197
98.718151,0.187721252,1.090957642,1.503540039,-0.070426024,-0.025355469,-1.007519603
98.718777,-0.346336365,0.541641235,1.465393066,-0.073843993,-0.029383790,-1.008740306
98.719402,-0.842247009,0.297500610,1.541687012,-0.078848876,-0.025355469,-1.012524486
98.720027,-1.086387634,-0.038192749,1.572204590,-0.078360595,-0.027308594,-1.013623118
98.720653,-1.383934021,-0.450180054,1.534057617,-0.077872314,-0.022181641,-1.019970775
98.721279,-1.567039490,-0.930831909,1.595092773,-0.080435790,-0.026087891,-1.016919017
98.721906,-1.917991638,-1.380966187,1.709533691,-0.081778564,-0.022914063,-1.020336986
98.722531,-2.322349548,-1.976058960,1.701904297,-0.085318603,-0.027186524,-1.025219798
98.724368,-2.642784119,-3.509567261,1.656127930,-0.088004149,-0.022669923,-1.025586009
98.724993,-2.864036560,-3.776596069,1.640869141,-0.087393798,-0.022791993,-1.026196361
98.725620,-3.008995056,-4.394577026,1.755310059,-0.090567626,-0.026332032,-1.024487376
98.726245,-2.886924744,-4.608200073,1.671386719,-0.092642821,-0.023158204,-1.022778392
98.726872,-3.054771423,-5.271957397,1.686645508,-0.092886962,-0.020838868,-1.020825267
98.727497,-2.970848083,-5.691574097,1.915527344,-0.091422118,-0.021937501,-1.019604564
98.728123,-3.237876892,-6.073043823,1.709533691,-0.094229735,-0.021327149,-1.017407298
98.728750,-3.413352966,-6.790206909,1.595092773,-0.095572509,-0.021815430,-1.011792064
98.729376,-3.276023865,-6.965682983,1.968933105,-0.093131103,-0.020960938,-1.009716868
98.730010,-3.428611755,-7.324264526,2.159667969,-0.095572509,-0.015711915,-1.003979564
98.730635,-3.405723572,-7.545516968,1.747680664,-0.093131103,-0.018763673,-0.998364329
98.731262,-3.611717224,-8.087203979,1.801086426,-0.095572509,-0.016688477,-0.992382884
98.731887,-3.420982361,-8.232162476,1.801086426,-0.094229735,-0.014979493,-0.987500072
98.732513,-3.962669373,-8.659408569,1.923156738,-0.091788329,-0.012049805,-0.979687572
98.733139,-4.038963318,-8.926437378,1.801086426,-0.090201415,-0.012171876,-0.973828197
98.733764,-4.397544861,-9.292648315,1.686645508,-0.088126220,-0.011317383,-0.964184642
98.734390,-4.641685486,-9.536788940,1.846862793,-0.086905517,-0.010584962,-0.957836986
98.735016,-4.985008240,-9.666488647,2.007080078,-0.088858642,-0.016444337,-0.951123118
98.748947,-7.830772400,-10.749862671,1.610351562,-0.072623290,0.001255859,-0.898022532
98.749749,-7.792625427,-10.841415405,1.564575195,-0.071402587,-0.001673828,-0.889355540
98.750375,-7.380638123,-10.711715698,1.381469727,-0.071158446,-0.004481446,-0.888501048
98.751010,-7.632408142,-10.711715698,1.404357910,-0.069449462,-0.006190430,-0.883129954
98.751636,-7.350120544,-10.582015991,1.343322754,-0.067252196,-0.007533203,-0.874218822
98.752261,-7.327232361,-10.437057495,1.335693359,-0.066031493,-0.008143555,-0.871289134
98.752887,-7.273826599,-10.208175659,1.411987305,-0.064566649,-0.009608399,-0.865307689
98.753514,-7.189903259,-10.208175659,1.167846680,-0.065787353,-0.008265626,-0.861523509
98.754139,-7.197532654,-9.834335327,1.221252441,-0.063956298,-0.010951173,-0.856152415
98.754764,-7.006797791,-9.681747437,1.328063965,-0.065543212,-0.009730469,-0.849804759
98.755390,-6.892356873,-9.460494995,1.244140625,-0.068717040,-0.011805665,-0.847973704
98.756015,-6.747398376,-9.262130737,1.221252441,-0.065177001,-0.014369141,-0.843945384
98.756642,-6.724510193,-9.010360718,0.954223633,-0.064444579,-0.013270508,-0.838696361
98.757268,-6.449851990,-8.819625854,1.221252441,-0.071158446,-0.018153321,-0.835156322
98.757894,-6.121788025,-8.270309448,0.847412109,-0.068228759,-0.017787110,-0.832348704
98.758520,-5.885276794,-8.064315796,1.076293945,-0.062003173,-0.016932618,-0.831250072
98.759146,-5.847129822,-7.896469116,0.900817871,-0.067130126,-0.018397462,-0.831128001
98.759772,-5.618247986,-7.133529663,0.893188477,-0.071036376,-0.022547852,-0.828198314
98.760398,-5.389366150,-7.080123901,1.007629395,-0.071402587,-0.021937501,-0.828320384
98.761024,-5.038414001,-6.752059937,1.038146973,-0.073477782,-0.028529298,-0.829174876
98.761649,-4.717979431,-6.347702026,0.740600586,-0.077506103,-0.030238282,-0.828564525
98.762275,-4.214439392,-6.004379272,0.885559082,-0.078726806,-0.032557618,-0.826245189
98.762900,-3.901634216,-5.859420776,1.129699707,-0.082022704,-0.034144532,-0.826245189
98.763525,-3.626976013,-5.279586792,0.946594238,-0.081412353,-0.035365235,-0.828564525
98.764151,-3.100547791,-5.126998901,1.038146973,-0.084708251,-0.038783204,-0.830151439
98.764776,-2.467308044,-4.531906128,1.236511230,-0.083853759,-0.042201173,-0.828564525
98.765402,-1.902732849,-4.264877319,1.190734863,-0.090079345,-0.047328126,-0.830273509
98.766029,-1.444969177,-3.997848511,0.938964844,-0.092520751,-0.044154298,-0.829419017
98.766654,-0.872764587,-3.578231812,1.274658203,-0.095938720,-0.046595704,-0.832714915
98.767280,-0.445518494,-3.433273315,1.556945801,-0.101920165,-0.049647462,-0.839550853
98.769076,1.637306213,-2.723739624,1.305175781,-0.109610595,-0.053797852,-0.844311595
98.769701,2.224769592,-2.868698120,1.358581543,-0.112662353,-0.057704102,-0.845044017
98.770326,2.934303284,-2.502487183,1.457763672,-0.117789306,-0.057826173,-0.851513743
98.770952,3.437843323,-2.731369019,1.473022461,-0.116568603,-0.056361329,-0.856396556
98.771577,4.315223694,-2.601669312,1.442504883,-0.120108642,-0.057459962,-0.858960032
98.772203,5.032386780,-2.578781128,1.686645508,-0.122794189,-0.058070313,-0.862255931
98.772828,5.955543518,-2.517745972,1.679016113,-0.124869384,-0.056483399,-0.865795970
98.773454,6.405677795,-2.548263550,1.785827637,-0.126700446,-0.056971680,-0.868481517
98.774080,7.267799377,-2.685592651,1.663757324,-0.127677009,-0.056483399,-0.871655345
98.781318,14.965858459,-3.227279663,2.388549805,-0.139517829,-0.030360352,-0.872631907
98.781944,15.461769104,-3.257797241,2.655578613,-0.139395759,-0.023402344,-0.867382884
98.782570,15.637245178,-3.097579956,2.449584961,-0.143302009,-0.019374024,-0.864086986
98.783195,15.950050354,-2.967880249,2.441955566,-0.139884040,-0.015101563,-0.858960032
98.783820,16.033973694,-3.265426636,2.548767090,-0.141959235,-0.014247071,-0.858715892
98.784445,16.056861877,-2.800033569,2.518249512,-0.143179938,-0.010951173,-0.854809642
98.785072,16.201820374,-2.479598999,2.663208008,-0.140250251,-0.004725586,-0.850293040
98.785698,16.072120667,-2.624557495,2.724243164,-0.145255134,0.000157226,-0.847363353
98.799772,6.596412659,3.562881470,1.572204590,-0.148184821,0.054112304,-0.843090892
98.800571,5.291786194,3.860427856,1.442504883,-0.148184821,0.050694335,-0.849438548
98.801196,4.834022522,4.013015747,1.289916992,-0.151236579,0.052891601,-0.855053782
98.801822,4.292335510,4.325820923,1.205993652,-0.148673102,0.055455077,-0.855908275
98.802447,3.643836975,4.516555786,1.000000000,-0.148551032,0.056431640,-0.858471751
98.803100,3.216590881,4.737808228,1.053405762,-0.146231696,0.056675781,-0.860180736
98.803726,2.796974182,4.653884888,0.977111816,-0.150137946,0.056309570,-0.862011790
98.804353,1.995887756,4.997207642,0.946594238,-0.147574469,0.052891601,-0.867871165
98.804980,1.683082581,5.081130981,0.755859375,-0.147452399,0.057041992,-0.868237376
98.805605,1.278724670,5.256607056,0.694824219,-0.144766852,0.056919921,-0.872265697
98.806230,0.584449768,5.248977661,0.389648438,-0.145621344,0.056919921,-0.876294017
98.806856,0.225868225,5.561782837,0.374389648,-0.145133063,0.054356445,-0.881543040
98.807482,-0.003013611,5.554153442,0.343872070,-0.143424079,0.052037109,-0.883252025
98.808108,-0.598106384,5.523635864,0.374389648,-0.143179938,0.051182617,-0.882275462
98.808733,-0.971946716,5.676223755,0.145507812,-0.138297126,0.054234374,-0.884716868
98.809358,-1.116905212,5.660964966,-0.312255859,-0.140006110,0.053501952,-0.888745189
98.809983,-1.650962830,5.554153442,-0.091003418,-0.139517829,0.051548827,-0.888989329
98.810609,-1.673851013,5.660964966,-0.197814941,-0.136954352,0.053257812,-0.891064525
98.811234,-2.238426208,5.844070435,-0.457214355,-0.138419196,0.052647460,-0.893994212
98.811860,-2.230796814,5.790664673,-0.388549805,-0.138907477,0.050694335,-0.891308665
98.812485,-2.474937439,5.722000122,-0.556396484,-0.136099860,0.051060546,-0.893994212
98.813110,-2.886924744,5.889846802,-0.693725586,-0.135245368,0.050816406,-0.890332103
98.813736,-3.108177185,5.973770142,-0.853942871,-0.135245368,0.045201171,-0.892407298
98.814363,-3.321800232,5.828811646,-0.853942871,-0.136099860,0.046666015,-0.890210032
98.814990,-3.596458435,6.088211060,-0.930236816,-0.131705329,0.045323242,-0.889599681
98.815616,-3.550682068,6.027175903,-1.006530762,-0.132315680,0.044224609,-0.890942454
98.816241,-3.718528748,6.133987427,-1.342224121,-0.128287360,0.041783202,-0.887646556
98.816867,-3.817710876,5.905105591,-1.517700195,-0.126334235,0.041416992,-0.889965892
98.817494,-3.871116638,6.164505005,-1.304077148,-0.121939696,0.039463867,-0.889477611
98.818120,-4.153404236,6.126358032,-1.548217773,-0.122672118,0.037876952,-0.884594798
98.819905,-4.344139099,6.561233521,-1.990722656,-0.109244384,0.032017577,-0.882397532
98.820531,-4.328880310,6.660415649,-1.975463867,-0.107657470,0.028843749,-0.882031322
98.821157,-4.222068787,6.957962036,-2.089904785,-0.105093993,0.030308593,-0.878369212
98.821782,-4.130516052,6.912185669,-2.341674805,-0.098990478,0.026890624,-0.880200267
98.822408,-4.115257263,7.163955688,-2.440856934,-0.099234618,0.024815429,-0.877636790
98.823034,-3.794822693,7.522537231,-2.341674805,-0.093741454,0.018956054,-0.877026439
98.823659,-3.764305115,7.781936646,-2.494262695,-0.091422118,0.022374023,-0.875805736
98.824285,-3.390464783,8.041336060,-2.562927246,-0.088126220,0.018467773,-0.875317454
98.824910,-3.558311462,7.919265747,-2.822326660,-0.082755126,0.014561523,-0.878247142
98.825535,-3.123435974,8.285476685,-2.639221191,-0.084219970,0.012852538,-0.876294017
98.826161,-3.085289001,8.613540649,-2.967285156,-0.080924071,0.014683593,-0.878125072
98.826788,-2.711448669,9.033157349,-2.654479980,-0.078970946,0.011021484,-0.877270579
98.827415,-2.421531677,9.002639771,-3.043579102,-0.078360595,0.010044921,-0.877514720
98.828041,-2.215538025,9.399368286,-3.081726074,-0.078116454,0.005772461,-0.876294017
98.828668,-1.917991638,9.674026489,-3.173278809,-0.074454345,0.003941406,-0.877392650
98.829293,-1.528892517,10.017349243,-3.226684570,-0.073721923,0.002964844,-0.880566478
98.829919,-1.162681580,9.971572876,-3.478454590,-0.073843993,0.001622070,-0.879467845
98.830544,-0.796470642,10.421707153,-3.409790039,-0.072501220,0.000889648,-0.884594798
98.844498,4.681434631,16.120864868,-5.126403809,-0.034171142,-0.013758790,-0.925244212
98.845248,4.834022522,16.624404907,-5.050109863,-0.035513915,-0.016566407,-0.930249095
98.845874,4.628028870,16.937210083,-5.263732910,-0.033682860,-0.015589844,-0.930127025
98.846500,4.444923401,16.899063110,-5.378173828,-0.030997314,-0.019862305,-0.934277415
98.847125,4.605140686,17.219497681,-5.423950195,-0.032462157,-0.020228516,-0.936230540
98.847751,4.383888245,17.532302856,-5.324768066,-0.030386962,-0.022303712,-0.938061595
98.848378,4.544105530,17.456008911,-5.439208984,-0.030264892,-0.026576173,-0.944409251
98.849008,4.361000061,17.631484985,-5.355285645,-0.029044189,-0.029383790,-0.948437572
98.849634,4.315223694,17.929031372,-5.492614746,-0.023306884,-0.032069337,-0.953686595
98.850260,4.231300354,17.806961060,-5.523132324,-0.024283446,-0.035121094,-0.954296947
98.850885,4.498329163,18.180801392,-5.393432617,-0.022574462,-0.035975587,-0.959301829
98.851512,4.414405823,18.127395630,-5.347656250,-0.021353759,-0.041590821,-0.961987376
98.852139,4.322853088,18.333389282,-5.385803223,-0.019034423,-0.046473633,-0.970532298
98.852765,4.429664612,18.409683228,-5.431579590,-0.020865478,-0.051478516,-0.974316478
98.853390,4.513587952,18.562271118,-5.385803223,-0.016959228,-0.055140626,-0.978588939
98.854015,4.849281311,18.569900513,-5.553649902,-0.016715087,-0.058924805,-0.984814525
98.854641,4.986610413,18.524124146,-5.256103516,-0.018057860,-0.063319333,-0.985058665
98.855267,4.917945862,18.569900513,-5.294250488,-0.015128174,-0.067591794,-0.989697337
98.855894,5.352821350,18.569900513,-4.973815918,-0.016715087,-0.071253903,-0.992749095
98.856521,5.581703186,18.760635376,-5.088256836,-0.016837157,-0.076380856,-1.003369212
98.857147,5.688514709,18.508865356,-5.011962891,-0.018057860,-0.079310544,-1.005078197
98.857772,6.031837463,18.608047485,-4.973815918,-0.017081298,-0.085414059,-1.010449290
98.858397,6.512489319,18.615676880,-4.889892578,-0.018179931,-0.090663083,-1.012402415
98.859023,6.909217834,18.585159302,-4.821228027,-0.017325439,-0.092494138,-1.016919017
98.859650,7.222023010,18.348648071,-4.653381348,-0.020621337,-0.094203122,-1.019970775
98.860275,7.840003967,18.249465942,-4.577087402,-0.019644774,-0.099940427,-1.023999095
98.860900,8.137550354,18.295242310,-4.706787109,-0.017447509,-0.101405270,-1.027539134
98.861526,8.740272522,18.173171997,-4.485534668,-0.017935790,-0.103968747,-1.029980540
98.862151,8.992042542,17.959548950,-4.157470703,-0.015372314,-0.105067380,-1.037793040
98.862776,9.640541077,17.944290161,-4.302429199,-0.014395752,-0.107997067,-1.042065501
98.864604,10.937538147,17.669631958,-3.928588867,-0.015494385,-0.113978513,-1.050122142
98.865231,11.639442444,17.158462524,-3.631042480,-0.011221924,-0.114588864,-1.053295970
98.865856,12.104835510,17.272903442,-3.631042480,-0.010977783,-0.113368161,-1.057202220
98.866481,12.326087952,17.021133423,-3.432678223,-0.010611572,-0.116541989,-1.062573314
98.867107,12.738075256,16.815139771,-3.180908203,-0.007926025,-0.118128903,-1.061230540
98.867734,13.279762268,16.342117310,-3.058837891,-0.005728760,-0.113001950,-1.064648509
98.868360,13.745155334,16.494705200,-3.104614258,-0.006705322,-0.114466794,-1.068432689
98.868986,13.699378967,16.326858521,-2.883361816,-0.005484619,-0.109217770,-1.067700267
98.869613,14.035072327,16.174270630,-2.814697266,-0.001456299,-0.111903317,-1.069287181
98.870239,14.424171448,15.800430298,-2.410339355,-0.000601807,-0.108607419,-1.072094798
98.870864,14.401283264,16.029312134,-2.204345703,-0.000113525,-0.106166013,-1.074780345
98.871489,14.653053284,15.571548462,-2.356933594,-0.000113525,-0.107630856,-1.074902415
98.872115,14.759864807,15.533401489,-2.143310547,0.000740967,-0.106654294,-1.074658275
98.872740,14.515724182,15.304519653,-1.891540527,0.000985107,-0.103968747,-1.078320384
98.873366,14.630165100,15.220596313,-1.799987793,0.002327881,-0.097987302,-1.080029368
98.873991,14.187660217,15.205337524,-1.624511719,0.000008545,-0.097010739,-1.080761790
98.874617,14.462318420,15.136672974,-1.395629883,0.003548584,-0.093836911,-1.079174876
98.888627,0.637855530,12.680007935,1.183105469,-0.022330321,-0.053553712,-1.140698314
98.889449,0.111427307,12.458755493,1.473022461,-0.023184814,-0.057093751,-1.143505931
98.890074,-0.666770935,12.367202759,1.511169434,-0.027945556,-0.052699219,-1.144604564
98.890699,-1.460227966,11.794998169,1.717163086,-0.027701415,-0.053797852,-1.148999095
98.891325,-1.681480408,11.505081177,1.541687012,-0.029654540,-0.055628907,-1.151806712
98.891950,-2.329978943,11.619522095,1.701904297,-0.035269774,-0.054530274,-1.155590892
98.892576,-2.917442322,11.154129028,1.701904297,-0.034415282,-0.052577149,-1.160351634
98.893202,-3.214988708,10.673477173,1.930786133,-0.037711181,-0.053187501,-1.161694407
98.893829,-3.794822693,10.658218384,2.037597656,-0.041129149,-0.055873048,-1.166333079
98.894455,-4.283103943,10.314895630,1.984191895,-0.042349853,-0.053675782,-1.167919993
98.895081,-4.695091248,9.612991333,2.098632812,-0.048941649,-0.054774415,-1.169140697
98.895727,-5.000267029,9.223892212,2.091003418,-0.046988524,-0.055018555,-1.172070384
98.896352,-5.305442810,9.002639771,2.136779785,-0.051138915,-0.056605469,-1.175244212
98.896978,-5.427513123,8.666946411,2.312255859,-0.053336181,-0.056727540,-1.175122142
98.897605,-5.816612244,8.293106079,2.327514648,-0.053580321,-0.055873048,-1.176953197
98.898230,-6.007347107,7.636978149,2.449584961,-0.053946532,-0.054408204,-1.181591868
98.898855,-5.938682556,7.316543579,2.365661621,-0.056632079,-0.056605469,-1.178540111
98.899480,-6.518516541,6.942703247,2.380920410,-0.057486571,-0.055873048,-1.180127025
98.900105,-6.686363220,6.469680786,2.861572266,-0.062857665,-0.056483399,-1.180127025
98.900731,-6.747398376,6.454421997,2.556396484,-0.064444579,-0.053675782,-1.179028392
98.901357,-6.854209900,5.836441040,2.701354980,-0.062125243,-0.056117188,-1.179882884
98.901982,-7.006797791,5.317642212,2.914978027,-0.063223876,-0.054286133,-1.176953197
98.902609,-7.235679626,4.997207642,2.808166504,-0.062735595,-0.052943360,-1.176709056
98.903234,-7.235679626,4.745437622,2.876831055,-0.063223876,-0.054164063,-1.173535228
98.903860,-7.075462341,4.096939087,3.052307129,-0.063712157,-0.052210938,-1.175488353
98.904485,-7.434043884,3.829910278,2.991271973,-0.062857665,-0.054408204,-1.173413157
98.905171,-7.632408142,3.562881470,2.808166504,-0.062003173,-0.050624024,-1.174511790
98.905796,-7.487449646,3.318740845,3.082824707,-0.059195556,-0.046229493,-1.171093822
98.906423,-7.594261169,2.975418091,3.227783203,-0.061148681,-0.048060548,-1.167553782
98.907057,-7.586631775,2.777053833,3.151489258,-0.062613524,-0.047450196,-1.169751048
98.908898,-7.739219666,1.930191040,3.204895020,-0.059927978,-0.044154298,-1.162793040
98.909524,-7.601890564,1.586868286,3.220153809,-0.058341064,-0.045130860,-1.158032298
98.910150,-7.403526306,1.388504028,3.151489258,-0.060660399,-0.041834962,-1.154248118
98.910776,-7.441673279,1.327468872,3.288818359,-0.056265868,-0.041590821,-1.153027415
98.911401,-7.357749939,1.106216431,3.334594727,-0.054312743,-0.039881837,-1.150586009
98.912027,-7.579002380,0.869705200,3.464294434,-0.051749267,-0.036830079,-1.150952220
98.912653,-7.174644470,0.785781860,3.395629883,-0.055289306,-0.038050782,-1.146679759
98.913278,-7.487449646,0.701858521,3.227783203,-0.053946532,-0.030482423,-1.142895579
98.913903,-7.281455994,0.770523071,3.357482910,-0.049429931,-0.033045899,-1.139111400
98.914529,-7.228050232,0.709487915,3.334594727,-0.049918212,-0.029750001,-1.137524486
98.915154,-7.144126892,0.625564575,3.388000488,-0.049307860,-0.026209962,-1.136425853
98.915781,-7.159385681,0.595046997,3.357482910,-0.045645751,-0.029383790,-1.134106517
98.916407,-7.090721130,0.488235474,3.342224121,-0.044302978,-0.028285157,-1.128979564
98.917034,-6.991539001,0.610305786,3.258300781,-0.043570556,-0.024134766,-1.128003001
98.917661,-7.044944763,0.472976685,3.265930176,-0.038931884,-0.018519532,-1.128979564
98.918287,-6.968650818,0.518753052,3.304077148,-0.035635985,-0.018763673,-1.124707103
98.918912,-6.892356873,0.564529419,3.143859863,-0.034781493,-0.018397462,-1.126660228
98.919537,-6.922874451,0.373794556,2.914978027,-0.027701415,-0.016444337,-1.125805736
98.933493,-4.542503357,0.038101196,1.129699707,0.050301515,0.016514648,-1.138134837
98.934253,-4.420433044,0.305130005,1.045776367,0.054818116,0.018833984,-1.137280345
98.934879,-4.496726990,0.381423950,0.526977539,0.054818116,0.022251952,-1.133984447
98.935506,-4.473838806,0.114395142,0.740600586,0.056405030,0.021031249,-1.136914134
98.936131,-4.481468201,0.091506958,0.389648438,0.061898194,0.021885742,-1.132397532
98.936758,-4.305992126,0.381423950,0.282836914,0.062996827,0.023716796,-1.131543040
98.937383,-4.580650330,0.297500610,0.160766602,0.064339601,0.022618163,-1.133618236
98.938008,-4.511985779,0.472976685,-0.228332520,0.064217530,0.025425781,-1.133862376
98.938634,-4.443321228,0.328018188,-0.243591309,0.065926515,0.022618163,-1.132519603
98.939259,-4.809532166,0.328018188,-0.342773438,0.066414796,0.027134765,-1.131787181
98.939885,-4.801902771,0.167800903,-0.358032227,0.067513429,0.021763671,-1.134716868
98.940510,-4.847679138,0.289871216,-0.869201660,0.067513429,0.024571288,-1.136303782
98.941137,-4.893455505,0.541641235,-0.899719238,0.069466554,0.023228515,-1.132885814
98.941762,-5.053672791,0.198318481,-0.838684082,0.069832765,0.021153320,-1.136914134
98.942389,-4.977378845,0.259353638,-1.273559570,0.065316163,0.021641601,-1.138989329
98.943016,-5.061302185,0.213577271,-1.388000488,0.067879640,0.020420898,-1.143750072
98.943642,-5.259666443,0.320388794,-1.517700195,0.067879640,0.019810546,-1.141552806
98.944268,-5.122337341,-0.015304565,-1.525329590,0.066781007,0.019078124,-1.146923900
98.944893,-5.389366150,0.114395142,-1.861022949,0.065072022,0.013584960,-1.145459056
98.945519,-5.160484314,-0.312850952,-2.013610840,0.066658936,0.010899413,-1.149853587
98.946144,-5.305442810,-0.267074585,-1.952575684,0.061409913,0.011631835,-1.153271556
98.946770,-5.427513123,-0.350997925,-2.265380859,0.059212647,0.007237304,-1.156079173
98.947396,-5.259666443,-0.618026733,-2.471374512,0.062142335,0.008213867,-1.156445384
98.948021,-5.191001892,-0.709579468,-2.524780273,0.056282960,0.006382812,-1.163281322
98.948646,-5.313072205,-0.900314331,-2.761291504,0.057259522,0.006749023,-1.165600657
98.949272,-5.259666443,-0.991867065,-2.883361816,0.055062257,0.001744140,-1.167065501
98.949899,-5.114707947,-1.228378296,-3.051208496,0.057869874,-0.001185547,-1.167919993
98.950524,-5.412254333,-1.312301636,-2.997802734,0.055062257,-0.000453125,-1.170849681
98.951332,-5.099449158,-1.747177124,-3.234313965,0.054696046,-0.002650391,-1.173291087
98.951959,-5.175743103,-2.159164429,-3.325866699,0.052987061,-0.006800781,-1.175488353
98.953802,-5.374107361,-2.601669312,-3.676818848,0.047249757,-0.007655274,-1.179882884
98.954429,-5.503807068,-3.128097534,-3.791259766,0.049813233,-0.013148438,-1.177807689
98.955054,-5.473289490,-3.387496948,-3.783630371,0.050301515,-0.011927735,-1.180371165
98.955679,-5.648765564,-3.387496948,-3.882812500,0.049569093,-0.013758790,-1.182324290
98.956306,-5.808982849,-4.066513062,-3.821777344,0.051766358,-0.016566407,-1.180859447
98.956933,-5.969200134,-4.241989136,-3.859924316,0.050057374,-0.015589844,-1.178540111
98.957560,-6.465110779,-4.409835815,-4.241394043,0.050789796,-0.016322266,-1.180981517
98.958185,-6.655845642,-4.745529175,-4.004882812,0.047249757,-0.019618165,-1.180004954
98.958812,-6.793174744,-5.149887085,-4.111694336,0.050057374,-0.021571290,-1.182324290
98.959438,-7.220420837,-5.241439819,-4.279541016,0.046395265,-0.022791993,-1.181958079
98.960065,-7.853660583,-5.668685913,-4.279541016,0.045540772,-0.023280274,-1.180981517
98.960692,-8.029136658,-5.928085327,-4.218505859,0.050667726,-0.022181641,-1.180004954
98.961317,-8.593711853,-6.294296265,-4.279541016,0.046761476,-0.025599610,-1.178906322
98.961943,-9.089622498,-6.446884155,-4.264282227,0.049202882,-0.025965821,-1.175122142
98.962568,-9.417686462,-6.897018433,-4.287170410,0.046395265,-0.029261719,-1.176342845
98.963193,-10.020408630,-7.049606323,-4.302429199,0.045906983,-0.027796876,-1.172924876
98.963818,-10.523948669,-7.408187866,-4.332946777,0.046639405,-0.030238282,-1.173657298
98.977878,-22.555503845,-12.435958862,-3.280090332,0.016610108,-0.063685544,-1.127514720
98.978702,-22.959861755,-12.725875854,-3.417419434,0.016976319,-0.067591794,-1.125927806
98.979327,-23.303184509,-13.084457397,-3.234313965,0.021859132,-0.070643552,-1.119702220
98.979953,-23.768577576,-13.282821655,-3.089355469,0.027352296,-0.074671872,-1.116040111
98.980578,-23.814353943,-13.465927124,-3.226684570,0.027230226,-0.073329099,-1.114453197
98.981205,-23.852500916,-13.557479858,-3.051208496,0.026619874,-0.073939450,-1.107861400
98.981830,-24.348411560,-13.443038940,-2.677368164,0.028695069,-0.076502927,-1.104443431
98.982457,-24.600181580,-13.435409546,-2.608703613,0.028328858,-0.076258786,-1.103711009
98.983084,-24.752769470,-13.328598022,-2.585815430,0.026375733,-0.077479489,-1.098828197
98.983709,-25.004539490,-13.313339233,-2.440856934,0.020516358,-0.078089841,-1.097363353
98.984335,-25.172386169,-13.298080444,-2.486633301,0.013314209,-0.080531247,-1.097363353
98.984961,-25.370750427,-13.374374390,-2.479003906,0.008431396,-0.079676755,-1.092846751
98.985586,-25.530967712,-13.526962280,-2.143310547,0.008553467,-0.084925778,-1.089062572
98.986213,-25.424156189,-13.801620483,-2.295898438,0.005257568,-0.085780270,-1.086987376
98.986850,-25.347862244,-14.076278687,-2.067016602,0.003182373,-0.086512692,-1.083813548
98.987476,-25.378379822,-14.213607788,-2.044128418,0.004647217,-0.084925778,-1.085278392
98.988101,-25.256309509,-14.312789917,-1.830505371,0.008187256,-0.085414059,-1.081250072
98.988726,-25.500450134,-14.190719604,-1.716064453,0.002816162,-0.085780270,-1.080395579
98.989351,-25.515708923,-14.312789917,-1.700805664,0.002694092,-0.088099606,-1.074536204
98.989976,-25.340232849,-14.183090210,-1.906799316,0.004158936,-0.089076169,-1.071728587
98.990602,-25.340232849,-14.083908081,-1.532958984,0.001839600,-0.088709958,-1.071728587
98.991228,-25.042686462,-14.259384155,-1.510070801,-0.001944580,-0.092982419,-1.067578197
98.991855,-25.073204041,-14.251754761,-1.220153809,-0.005362549,-0.094081052,-1.063427806
98.992481,-24.760398865,-13.992355347,-1.182006836,-0.008780518,-0.093958981,-1.064770579
98.993108,-24.523887634,-14.267013550,-1.220153809,-0.012442627,-0.092372067,-1.057202220
98.993733,-24.272117615,-14.236495972,-0.861572266,-0.010611572,-0.092249997,-1.054516673
98.994360,-23.936424255,-14.396713257,-0.884460449,-0.011832275,-0.090174802,-1.052319407
98.994986,-23.654136658,-14.305160522,-0.815795898,-0.011832275,-0.086512692,-1.047192454
98.995612,-23.432884216,-14.083908081,-0.754760742,-0.010611572,-0.082728513,-1.046215892
98.996238,-23.425254822,-14.007614136,-0.663208008,-0.013663330,-0.080531247,-1.043286204
98.998069,-22.837791443,-13.458297729,-0.518249512,-0.011710205,-0.081141599,-1.026928782
98.998694,-22.387657166,-13.465927124,-0.396179199,-0.011343994,-0.080775388,-1.023999095
98.999319,-21.983299255,-13.229415894,-0.258850098,-0.014639893,-0.078578122,-1.020825267
98.999945,-21.884117126,-12.916610718,-0.266479492,-0.014029541,-0.072352536,-1.012768626
99.000571,-21.845970154,-12.764022827,-0.121520996,-0.010977783,-0.071620114,-1.009716868
99.001196,-21.472129822,-12.680099487,-0.373291016,-0.015616455,-0.074793942,-1.004101634
99.001821,-21.449241638,-12.390182495,0.214172363,-0.013175049,-0.073084958,-0.999462962
99.002446,-21.327171326,-12.092636108,-0.136779785,-0.014151611,-0.071131833,-0.995312572
99.003072,-21.067771912,-11.741683960,0.008178711,-0.016226806,-0.071620114,-0.991162181
99.003698,-20.953330994,-11.314437866,0.198913574,-0.018546142,-0.070643552,-0.985913157
99.004325,-20.671043396,-11.161849976,0.069213867,-0.017813720,-0.066126950,-0.982739329
99.004951,-20.884666443,-10.658309937,0.114990234,-0.018179931,-0.064173825,-0.981274486
99.005578,-20.533714294,-10.566757202,0.420166016,-0.020133056,-0.069422849,-0.977856517
99.006204,-20.396385193,-10.093734741,0.389648438,-0.022574462,-0.069789059,-0.976513743
99.006829,-20.220909119,-9.841964722,0.359130859,-0.022086181,-0.068934567,-0.972363353
99.007455,-20.045433044,-9.323165894,0.511718750,-0.024771728,-0.068934567,-0.970898509
99.021580,-5.602989197,-1.647994995,1.099182129,-0.047965087,-0.088832028,-0.960278392
99.022325,-4.473838806,-1.022384644,1.228881836,-0.048209228,-0.090296872,-0.960522532
99.022952,-3.634605408,-0.862167358,1.236511230,-0.048575439,-0.089686520,-0.959545970
99.023578,-2.490196228,-0.648544312,1.213623047,-0.047110595,-0.092372067,-0.959057689
99.024204,-1.589927673,-0.236557007,1.221252441,-0.045523681,-0.089930661,-0.957714915
99.031436,8.610572815,3.280593872,1.480651855,-0.034659423,-0.060511719,-0.960156322
99.032061,9.556617737,3.379776001,1.450134277,-0.034171142,-0.054408204,-0.961987376
99.032686,10.136451721,3.662063599,1.167846680,-0.033194579,-0.051722657,-0.964062572
99.033437,10.418739319,3.997756958,1.419616699,-0.033927001,-0.043543946,-0.967358470
99.034063,10.907020569,4.226638794,1.411987305,-0.028311767,-0.043055665,-0.969799876
99.034688,11.433448792,4.516555786,1.167846680,-0.025870360,-0.039759766,-0.972485423
99.035315,11.532630920,4.531814575,1.244140625,-0.024283446,-0.036097657,-0.977124095
99.035940,11.990394592,4.936172485,1.320434570,-0.025015868,-0.033778321,-0.977612376
99.036566,11.990394592,5.218460083,1.106811523,-0.025992431,-0.028773438,-0.976635814
99.037193,12.295570374,5.325271606,1.091552734,-0.022940673,-0.024623048,-0.977856517
99.037818,12.600746155,5.386306763,1.007629395,-0.023917235,-0.020838868,-0.979077220
99.038443,12.776222229,5.790664673,1.000000000,-0.019156493,-0.017298829,-0.984448314
99.039069,12.982215881,5.966140747,1.007629395,-0.021964110,-0.012782227,-0.988842845
99.039694,12.730445862,5.989028931,0.702453613,-0.017691649,-0.013270508,-0.990673900
99.041575,12.654151917,6.378128052,0.389648438,-0.016715087,-0.006800781,-0.989697337
99.042206,12.448158264,6.645156860,0.427795410,-0.012442627,-0.003871094,-0.991772532
99.042833,12.333717346,6.751968384,0.313354492,-0.014517822,-0.000697266,-0.995556712
99.043460,12.310829163,6.706192017,0.298095703,-0.013785400,0.004063476,-0.998852611
99.044087,12.051429749,6.774856567,0.000549316,-0.005972900,0.004063476,-1.000439525
99.044712,11.486854553,6.927444458,0.114990234,-0.007315674,0.010777343,-1.001660228
99.045339,11.128273010,6.904556274,-0.098632812,-0.004385986,0.012242187,-1.002392650
99.045965,10.723915100,7.316543579,-0.167297363,-0.001944580,0.013462890,-1.003491282
99.046590,10.075416565,7.209732056,-0.281738281,0.001717529,0.014195312,-1.005444407
99.047216,9.915199280,7.499649048,-0.564025879,0.002572021,0.015782226,-1.007275462
99.047843,9.320106506,7.461502075,-0.602172852,0.004036865,0.019932617,-1.006420970
99.048468,8.976783752,7.423355103,-0.686096191,0.006966553,0.016514648,-1.009594798
99.049093,8.427467346,7.781936646,-0.777648926,0.005745850,0.020298827,-1.008252025
99.049718,7.840003967,7.476760864,-0.998901367,0.010018311,0.019200195,-1.009594798
99.050345,7.176246643,7.499649048,-1.120971680,0.014046631,0.018956054,-1.012158275
99.050970,6.710853577,7.598831177,-1.014160156,0.017098390,0.016636718,-1.013623118
99.051597,6.115760803,7.774307251,-1.365112305,0.020516358,0.016758788,-1.011425853
99.052222,5.596961975,7.690383911,-1.418518066,0.024178468,0.016880859,-1.012768626
99.052847,4.933204651,7.842971802,-1.510070801,0.024422608,0.017491210,-1.015942454
99.053472,4.231300354,7.720901489,-1.426147461,0.027718507,0.017124999,-1.014355540
99.054097,3.559913635,8.087112427,-1.708435059,0.027718507,0.020298827,-1.014721751
99.054722,2.919044495,7.942153931,-1.716064453,0.030892335,0.017613281,-1.017041087
99.055348,2.156105042,8.110000610,-1.937316895,0.031258546,0.015171874,-1.015454173
99.055974,1.530494690,8.239700317,-1.853393555,0.029793702,0.016392577,-1.014111400
99.056600,0.920143127,8.247329712,-2.265380859,0.031746827,0.014683593,-1.016674876
99.057226,0.180091858,8.117630005,-2.150939941,0.031258546,0.018711913,-1.018505931
99.057851,-0.476036072,8.377029419,-2.265380859,0.031868897,0.016514648,-1.015942454
99.058476,-1.483116150,8.377029419,-2.517150879,0.029061280,0.013340820,-1.016430736
99.059102,-1.979026794,8.384658813,-2.410339355,0.027474366,0.014439452,-1.014477611
99.073195,-15.132102966,10.375930786,-3.219055176,0.028817140,-0.063319333,-1.004467845
99.074035,-15.406761169,10.597183228,-3.119873047,0.031014405,-0.063685544,-1.003369212
99.074660,-15.681419373,10.490371704,-3.158020020,0.029183351,-0.068202145,-1.006665111
99.075285,-15.597496033,10.543777466,-3.020690918,0.027108155,-0.069056638,-1.005566478
99.075911,-15.460166931,10.803176880,-2.952026367,0.029061280,-0.071986325,-1.004711986
99.076537,-15.635643005,10.696365356,-2.952026367,0.026986085,-0.076014645,-1.003491282
99.077163,-15.719566345,10.795547485,-2.967285156,0.026986085,-0.079676755,-1.004101634
99.077788,-15.704307556,11.245681763,-2.952026367,0.026986085,-0.081996091,-1.004101634
99.078415,-15.544090271,11.169387817,-2.715515137,0.025277101,-0.084803708,-1.002880931
99.079040,-15.422019958,11.192276001,-2.623962402,0.023446046,-0.089198239,-1.000195384
99.079665,-15.322837830,11.398269653,-2.662109375,0.023568116,-0.087855466,-1.001538157
99.080292,-15.025291443,11.398269653,-2.417968750,0.020638429,-0.091883786,-0.999096751
99.080917,-15.093955994,11.497451782,-2.349304199,0.019906007,-0.094691403,-0.994702220
99.081543,-14.674339294,11.520339966,-2.410339355,0.022591554,-0.095057614,-0.994213939
99.082168,-14.285240173,11.848403931,-2.143310547,0.021248780,-0.096522458,-0.992016673
99.082794,-14.102134705,12.184097290,-2.082275391,0.020028077,-0.102625974,-0.991650462
99.083420,-13.911399841,12.145950317,-1.937316895,0.019661866,-0.100672849,-0.990673900
99.084047,-13.819847107,12.176467896,-1.868652344,0.018929444,-0.103846677,-0.991650462
99.084673,-13.369712830,12.504531860,-1.792358398,0.020516358,-0.106898434,-0.987500072
99.085298,-13.049278259,12.527420044,-1.799987793,0.020028077,-0.109339841,-0.984814525
99.085923,-12.683067322,12.763931274,-1.471923828,0.016610108,-0.112025388,-0.985058665
99.086549,-12.110862732,12.992813110,-1.120971680,0.017952882,-0.110316403,-0.982861400
99.087174,-11.996421814,13.030960083,-1.159118652,0.018197022,-0.115443356,-0.982495189
99.087801,-11.416587830,13.183547974,-1.082824707,0.015389404,-0.113734372,-0.980419993
99.088426,-10.745201111,13.305618286,-0.846313477,0.017098390,-0.119959958,-0.977002025
99.089053,-10.180625916,13.519241333,-1.082824707,0.016976319,-0.119227536,-0.975415111
99.089680,-9.860191345,13.854934692,-0.663208008,0.014412842,-0.118128903,-0.978711009
99.090306,-9.349021912,14.091445923,-0.655578613,0.017464601,-0.118739255,-0.978711009
99.090931,-8.731040955,14.007522583,-0.579284668,0.015633546,-0.126551762,-0.974560618
99.091556,-8.258018494,14.472915649,-0.342773438,0.014534912,-0.121913083,-0.972607493
99.093422,-6.816062927,15.090896606,-0.235961914,0.015755616,-0.120692380,-0.976147532
99.094047,-6.060752869,15.357925415,0.122619629,0.016365968,-0.119715817,-0.975293040
99.094674,-5.435142517,15.739395142,0.336242676,0.017342530,-0.121546872,-0.974194407
99.095299,-4.847679138,15.808059692,0.534606934,0.015267334,-0.124598630,-0.973095775
99.095925,-4.145774841,16.082717896,0.633789062,0.011483154,-0.120570309,-0.975048900
99.096550,-3.596458435,16.448928833,0.649047852,0.012581787,-0.119593747,-0.976757884
99.097176,-3.276023865,16.715957642,0.656677246,0.011849365,-0.117762692,-0.973950267
99.097801,-2.597007751,16.868545532,1.038146973,0.010140381,-0.113124020,-0.974682689
99.098427,-1.895103455,17.364456177,1.099182129,0.010628662,-0.113368161,-0.973217845
99.099052,-1.391563416,17.555191040,1.160217285,0.007821045,-0.113856442,-0.972973704
99.099677,-0.872764587,18.035842896,1.205993652,0.006844482,-0.109706052,-0.972973704
99.100302,-0.575218201,18.402053833,1.389099121,0.002205811,-0.103480466,-0.973706126
99.100929,-0.086936951,18.547012329,1.587463379,0.004036865,-0.106654294,-0.973217845
99.101556,0.279273987,19.096328735,1.625610352,0.005257568,-0.103968747,-0.970654368
99.102181,0.843849182,19.348098755,1.617980957,-0.001090088,-0.103114255,-0.968823314
99.102806,1.263465881,19.714309692,1.915527344,-0.001334229,-0.098353513,-0.970898509
99.103431,1.385536194,20.027114868,1.785827637,0.002205811,-0.097254880,-0.967724681
99.117368,2.072181702,28.144790649,2.770019531,-0.006094971,-0.043543946,-1.015820384
99.118131,1.995887756,28.114273071,2.968383789,-0.007437744,-0.046595704,-1.014355540
99.118757,1.988258362,28.091384888,2.922607422,-0.006705322,-0.045375001,-1.012768626
99.119383,2.034034729,28.289749146,2.846313477,-0.000968018,-0.043543946,-1.017285228
99.120010,2.117958069,28.465225220,2.922607422,0.009774170,-0.044398438,-1.022045970
99.120636,2.087440491,28.549148560,3.014160156,0.013680420,-0.047572266,-1.023632884
99.121261,2.102699280,28.877212524,2.930236816,0.014901123,-0.044398438,-1.024975657
99.121887,2.354469299,29.228164673,3.021789551,0.014534912,-0.044520508,-1.029248118
99.122514,2.232398987,29.525711060,3.105712891,0.009285889,-0.044276368,-1.036816478
99.123139,2.255287170,29.800369263,3.227783203,0.003060303,-0.047694337,-1.040112376
99.123765,2.224769592,30.044509888,3.021789551,-0.002677002,-0.050990235,-1.047192454
99.124391,2.430763245,29.991104126,2.953125000,-0.006217041,-0.049037110,-1.052197337
99.125016,2.629127502,29.937698364,3.082824707,-0.007803955,-0.051722657,-1.055493236
99.125643,3.193702698,29.815628052,2.945495605,-0.008780518,-0.050135743,-1.061230540
99.126270,3.437843323,29.739334106,2.892089844,-0.009390869,-0.047572266,-1.066601634
99.126897,3.712501526,29.396011353,2.762390137,-0.007315674,-0.049403321,-1.071484447
99.127522,4.032936096,29.602005005,2.716613770,-0.005484619,-0.046595704,-1.072583079
99.128148,4.551734924,29.441787720,2.823425293,-0.004385986,-0.046229493,-1.081005931
99.128773,4.803504944,29.563858032,2.922607422,-0.006461182,-0.046473633,-1.087597728
99.129400,5.207862854,29.670669556,2.647949219,-0.008902588,-0.046351563,-1.096020579
99.130025,5.635108948,29.449417114,2.663208008,-0.010489502,-0.046229493,-1.097607493
99.130652,6.100502014,29.724075317,2.670837402,-0.014273682,-0.048670899,-1.102368236
99.131277,6.489601135,29.220535278,2.670837402,-0.019766845,-0.050379883,-1.107128978
99.131902,6.787147522,29.258682251,2.602172852,-0.022330321,-0.051356446,-1.105786204
99.132529,7.664527893,28.892471313,2.655578613,-0.021842040,-0.047450196,-1.110546947
99.133155,7.885780334,28.877212524,2.800537109,-0.022696532,-0.047206055,-1.114575267
99.133782,8.244361877,28.549148560,2.533508301,-0.024893798,-0.040614258,-1.117993236
99.134407,8.587684631,28.320266724,2.434326172,-0.021475829,-0.037806641,-1.120922923
99.135032,9.228553772,28.335525513,2.327514648,-0.025626220,-0.034022462,-1.119458079
99.135657,9.419288635,28.160049438,2.266479492,-0.023184814,-0.031458985,-1.124829173
99.137490,9.854164124,27.671768188,1.999450684,-0.031729735,-0.027186524,-1.128979564
99.138115,10.067787170,27.572586060,1.991821289,-0.034781493,-0.021327149,-1.129345775
99.138742,9.915199280,27.145339966,2.014709473,-0.036490478,-0.024012696,-1.130810618
99.139369,10.090675354,26.763870239,1.854492188,-0.039176024,-0.018397462,-1.132519603
99.139996,10.060157776,26.695205688,1.885009766,-0.038077392,-0.016566407,-1.134961009
99.140622,9.579505920,26.489212036,1.793457031,-0.040640868,-0.015223633,-1.139599681
99.141247,9.640541077,25.802566528,1.686645508,-0.040396728,-0.014491212,-1.139477611
99.141873,9.396400452,25.894119263,1.595092773,-0.042227782,-0.013148438,-1.142041087
99.142498,9.007301331,25.627090454,1.541687012,-0.041007079,-0.009364258,-1.143750072
99.143124,9.053077698,24.986221313,1.427246094,-0.037467040,-0.006434571,-1.145703197
99.143751,8.526649475,24.848892212,1.511169434,-0.032828368,-0.002406250,-1.148877025
99.144376,8.602943420,24.620010376,1.473022461,-0.037833251,-0.006434571,-1.151318431
99.145010,8.396949768,24.322463989,1.381469727,-0.038321532,-0.009730469,-1.154492259
99.145635,7.946815491,24.368240356,1.190734863,-0.041983642,-0.004481446,-1.157299876
99.146260,7.687416077,24.002029419,1.167846680,-0.046622314,-0.004115235,-1.158276439
99.146885,7.298316956,23.780776978,1.358581543,-0.047354735,-0.002894531,-1.158886790
99.147510,7.191505432,23.452713013,1.076293945,-0.050162353,-0.003993164,-1.162182689
99.148135,6.703224182,23.384048462,0.992370605,-0.052725829,-0.001673828,-1.164502025
99.162135,0.637855530,15.876724243,-1.433776855,-0.051871337,0.004063476,-1.186718822
99.162959,0.088539124,14.961196899,-1.510070801,-0.051505126,0.008824218,-1.188183665
99.163585,0.065650940,14.556838989,-1.731323242,-0.049307860,0.008580077,-1.185986400
99.164210,-0.544700623,14.373733521,-1.746582031,-0.044425048,0.006626953,-1.184521556
99.164835,-0.628623962,14.228775024,-1.899169922,-0.049796142,0.006016601,-1.187939525
99.165461,-0.720176697,13.725234985,-2.051757812,-0.047843017,0.003331054,-1.184887767
99.166090,-0.994834900,13.435317993,-1.861022949,-0.050162353,0.003453125,-1.186962962
99.166716,-1.521263123,13.099624634,-2.280639648,-0.048453368,0.001866211,-1.185864329
99.167342,-1.414451599,12.779190063,-2.494262695,-0.046378173,0.003086914,-1.186108470
99.167968,-1.689109802,12.405349731,-2.509521484,-0.047965087,0.003697265,-1.185620189
99.168594,-1.963768005,11.970474243,-2.578186035,-0.047476806,0.000279297,-1.182934642
99.169219,-2.253684998,11.764480591,-2.822326660,-0.045157470,-0.003138672,-1.189038157
99.169845,-2.383384705,11.192276001,-2.684997559,-0.046500243,0.000279297,-1.184765697
99.170472,-2.574119568,10.726882935,-2.715515137,-0.046866454,-0.002894531,-1.186962962
99.171098,-2.749595642,10.543777466,-2.929138184,-0.046011962,-0.001307617,-1.185620189
99.171724,-3.031883240,10.169937134,-2.799438477,-0.043692626,-0.005213867,-1.187085032
99.172350,-3.062400818,9.757949829,-3.142761230,-0.040152587,-0.002772461,-1.182080150
99.172975,-3.352317810,9.483291626,-3.135131836,-0.043692626,-0.004237305,-1.184521556
99.173602,-3.466758728,9.307815552,-3.409790039,-0.043082274,-0.005824219,-1.185009837
99.174227,-3.520164490,8.842422485,-3.264831543,-0.041983642,-0.009120118,-1.182446361
99.174853,-3.871116638,8.567764282,-3.661560059,-0.041861571,-0.010951173,-1.182324290
99.175478,-3.634605408,8.270217896,-3.608154297,-0.045157470,-0.011195313,-1.181225657
99.176103,-3.916893005,7.690383911,-3.524230957,-0.041251220,-0.010584962,-1.181713939
99.176730,-4.031333923,7.446243286,-3.737854004,-0.042838134,-0.010584962,-1.178784251
99.177355,-4.122886658,7.171585083,-3.646301270,-0.040274657,-0.013636719,-1.178540111
99.177981,-4.168663025,6.843521118,-3.798889160,-0.040396728,-0.013636719,-1.173535228
99.178606,-4.298362732,6.256057739,-4.119323730,-0.037100829,-0.015956055,-1.175854564
99.179233,-4.283103943,5.950881958,-4.134582520,-0.034537353,-0.014247071,-1.173413157
99.179858,-4.206809998,5.790664673,-4.203247070,-0.034659423,-0.019007813,-1.172558665
99.180484,-4.199180603,5.340530396,-4.149841309,-0.033438720,-0.019374024,-1.167431712
99.182332,-4.374656677,4.417373657,-4.653381348,-0.032462157,-0.026332032,-1.166211009
99.182959,-4.389915466,3.967239380,-4.355834961,-0.028555907,-0.028285157,-1.166577220
99.183584,-4.084739685,3.883316040,-4.645751953,-0.022696532,-0.028895508,-1.162182689
99.184210,-4.275474548,3.623916626,-4.668640137,-0.023306884,-0.028773438,-1.162182689
99.184835,-4.077110291,3.128005981,-4.874633789,-0.020743407,-0.032679688,-1.160351634
99.185461,-4.000816345,2.738906860,-4.798339844,-0.019766845,-0.037440430,-1.156811595
99.186088,-3.726158142,2.883865356,-4.844116211,-0.018668212,-0.037440430,-1.155957103
99.186715,-3.672752380,2.548171997,-4.737304688,-0.016348876,-0.040370118,-1.155590892
99.187340,-3.626976013,2.136184692,-4.973815918,-0.017569579,-0.041590821,-1.150708079
99.187965,-3.214988708,1.991226196,-5.042480469,-0.014761963,-0.043788087,-1.146313548
99.188590,-3.153953552,1.945449829,-4.867004395,-0.015738524,-0.045130860,-1.146435618
99.189216,-2.925071716,1.335098267,-4.966186523,-0.012564697,-0.046717774,-1.147045970
99.189842,-2.650413513,1.335098267,-5.027221680,-0.012442627,-0.049159180,-1.141674876
99.190467,-2.352867126,1.182510376,-5.065368652,-0.011099854,-0.050013673,-1.140698314
99.191092,-2.246055603,0.984146118,-5.050109863,-0.009635010,-0.051722657,-1.139355540
99.191718,-2.162132263,0.907852173,-5.088256836,-0.011221924,-0.054286133,-1.134838939
99.192343,-2.200279236,0.648452759,-4.966186523,-0.010489502,-0.050624024,-1.136914134
99.206309,2.621498108,-2.563522339,-4.851745605,-0.012442627,-0.073573239,-1.120922923
99.207094,2.896156311,-2.624557495,-4.851745605,-0.010367432,-0.076258786,-1.121167064
99.207720,2.796974182,-2.861068726,-4.867004395,-0.010245361,-0.073695309,-1.118481517
99.208347,3.025856018,-2.944992065,-4.622863770,-0.008048096,-0.076991208,-1.120678782
99.208973,3.231849670,-3.074691772,-4.691528320,-0.007803955,-0.073817380,-1.119946361
99.209599,3.239479065,-3.219650269,-4.599975586,-0.011588135,-0.078089841,-1.117260814
99.210225,3.392066956,-3.242538452,-4.546569824,-0.011832275,-0.078456052,-1.117382884
99.210850,3.247108459,-3.440902710,-4.500793457,-0.015372314,-0.079554684,-1.118115306
99.211476,3.567543030,-3.768966675,-4.485534668,-0.014517822,-0.079310544,-1.118725657
99.212101,3.331031799,-3.906295776,-4.462646484,-0.018302001,-0.080897458,-1.117260814
99.212727,3.681983948,-3.929183960,-4.264282227,-0.019644774,-0.081385739,-1.117504954
99.213380,3.445472717,-4.524276733,-4.249023438,-0.017081298,-0.080531247,-1.116894603
99.214020,3.384437561,-4.615829468,-4.378723145,-0.017203368,-0.082484372,-1.118847728
99.214646,3.491249084,-4.913375854,-4.302429199,-0.019766845,-0.079798825,-1.118481517
99.215272,3.445472717,-5.203292847,-4.096435547,-0.019644774,-0.080287106,-1.120556712
99.215899,3.277626038,-5.149887085,-4.035400391,-0.020621337,-0.081507809,-1.119946361
99.216524,3.392066956,-5.371139526,-4.020141602,-0.021353759,-0.083094724,-1.119580150
99.217149,3.117408752,-5.744979858,-4.073547363,-0.022574462,-0.085780270,-1.120800853
99.217774,3.117408752,-6.050155640,-3.814147949,-0.027213134,-0.087611325,-1.121899486
99.218401,3.269996643,-6.126449585,-3.661560059,-0.027457274,-0.085414059,-1.117138743
99.219026,3.132667542,-6.507919312,-3.676818848,-0.027457274,-0.087489255,-1.119580150
99.219652,2.934303284,-6.507919312,-3.669189453,-0.031729735,-0.088832028,-1.123852611
99.220277,2.865638733,-6.843612671,-3.493713379,-0.032340087,-0.088587888,-1.120190501
99.220902,2.804603577,-7.194564819,-3.562377930,-0.033682860,-0.088709958,-1.118847728
99.221528,2.720680237,-7.309005737,-3.302978516,-0.036124267,-0.087733395,-1.124585032
99.222153,2.590980530,-7.484481812,-3.356384277,-0.034781493,-0.090174802,-1.124096751
99.222779,2.400245667,-8.079574585,-3.035949707,-0.036734618,-0.090663083,-1.123120189
99.223405,2.415504456,-8.140609741,-3.096984863,-0.036368407,-0.090663083,-1.122265697
99.224030,2.301063538,-8.583114624,-3.058837891,-0.039664306,-0.092372067,-1.124218822
99.224656,2.339210510,-8.903549194,-2.921508789,-0.039176024,-0.093592770,-1.122876048
99.226495,2.026405334,-10.047958374,-2.692626953,-0.038077392,-0.093104489,-1.121167064
99.227122,2.079811096,-10.124252319,-2.547668457,-0.038687743,-0.093592770,-1.120678782
99.227747,1.873817444,-10.414169312,-2.448486328,-0.037711181,-0.092860349,-1.122998118
99.228374,1.828041077,-10.940597534,-2.372192383,-0.038199462,-0.096522458,-1.123486400
99.228999,1.705970764,-11.207626343,-2.364562988,-0.036978759,-0.095545895,-1.120922923
99.229625,1.683082581,-11.436508179,-2.311157227,-0.039176024,-0.099452145,-1.119091868
99.230250,1.683082581,-11.879013062,-1.830505371,-0.040518798,-0.097376950,-1.119336009
99.230876,1.461830139,-12.313888550,-2.036499023,-0.042349853,-0.098963864,-1.114941478
99.231502,1.591529846,-12.565658569,-1.861022949,-0.043204345,-0.097743161,-1.114331126
99.232127,1.667823792,-12.771652222,-1.723693848,-0.044547118,-0.096888669,-1.117871165
99.232753,1.385536194,-13.031051636,-1.487182617,-0.043204345,-0.097254880,-1.114819407
99.233380,1.782264709,-13.641403198,-1.380371094,-0.043814696,-0.102992184,-1.111035228
99.234008,1.644935608,-13.877914429,-1.357482910,-0.043570556,-0.101161130,-1.108837962
99.234634,1.683082581,-14.045761108,-1.365112305,-0.043204345,-0.099452145,-1.107739329
99.235260,1.751747131,-14.457748413,-0.914978027,-0.044913329,-0.099330075,-1.104931712
99.235887,1.667823792,-14.793441772,-1.059936523,-0.044425048,-0.099085934,-1.106030345
99.236513,1.576271057,-15.060470581,-0.861572266,-0.046134032,-0.098597653,-1.100781322
99.250546,3.308143616,-21.049545288,1.213623047,-0.031973876,-0.069178708,-1.053784251
99.251383,3.720130920,-21.553085327,1.091552734,-0.030875243,-0.068690427,-1.052929759
99.252010,3.674354553,-21.690414429,1.251770020,-0.028189696,-0.067835934,-1.053540111
99.252636,3.491249084,-21.965072632,1.297546387,-0.033194579,-0.065394528,-1.049145579
99.253262,3.735389709,-22.026107788,1.404357910,-0.029776610,-0.060755860,-1.046093822
99.253887,3.506507874,-22.476242065,1.465393066,-0.029532470,-0.060389649,-1.041333079
99.254513,3.491249084,-22.506759644,1.503540039,-0.031851806,-0.056971680,-1.039746165
99.255139,3.506507874,-22.697494507,1.602722168,-0.033560790,-0.053187501,-1.036206126
99.255765,3.498878479,-22.926376343,1.564575195,-0.029898681,-0.050624024,-1.032421947
99.256390,3.155555725,-23.071334839,1.610351562,-0.029410399,-0.044398438,-1.034619212
99.257040,2.919044495,-23.536727905,1.671386719,-0.032095946,-0.043788087,-1.028881907
99.257666,2.858009338,-23.521469116,1.648498535,-0.032584228,-0.040248048,-1.021801829
99.258292,2.499427795,-23.757980347,1.747680664,-0.028555907,-0.038416993,-1.019970775
99.258918,2.568092346,-23.925827026,1.648498535,-0.033804931,-0.035853516,-1.018505931
99.259543,2.339210510,-23.971603394,1.686645508,-0.032095946,-0.036341798,-1.015942454
99.260169,2.255287170,-24.322555542,1.679016113,-0.033194579,-0.032923829,-1.014477611
99.260794,1.843299866,-24.513290405,1.511169434,-0.030142821,-0.031458985,-1.010571361
99.261419,1.843299866,-24.505661011,1.740051270,-0.032950439,-0.033900391,-1.007519603
99.262045,1.507606506,-24.627731323,1.740051270,-0.035513915,-0.029994141,-1.005322337
99.262672,1.179542542,-24.795578003,1.350952148,-0.035880126,-0.025111329,-1.004101634
99.263297,1.087989807,-24.917648315,1.740051270,-0.036490478,-0.025477540,-0.999951243
99.263923,0.767555237,-24.932907104,1.541687012,-0.033927001,-0.023646485,-0.996899486
99.264549,0.553932190,-25.253341675,1.633239746,-0.035758056,-0.019496094,-0.994946361
99.265176,-0.010643005,-25.367782593,1.541687012,-0.033438720,-0.022059571,-0.990063548
99.265802,-0.109825134,-25.383041382,1.556945801,-0.036490478,-0.016566407,-0.990551829
99.266429,-0.300559998,-25.489852905,1.495910645,-0.034903564,-0.018031251,-0.987255931
99.267055,-0.247154236,-25.695846558,1.617980957,-0.037100829,-0.016932618,-0.983715892
99.267681,-0.758323669,-25.611923218,1.411987305,-0.036978759,-0.015223633,-0.980786204
99.268306,-1.101646423,-25.680587769,1.366210938,-0.035025634,-0.014125001,-0.974072337
99.268931,-1.246604919,-25.657699585,1.213623047,-0.034659423,-0.012660157,-0.969921947
99.270746,-1.879844666,-25.909469604,1.160217285,-0.030997314,-0.006800781,-0.957470775
99.271372,-2.352867126,-25.810287476,1.137329102,-0.030020751,-0.007777344,-0.954907298
99.271997,-2.574119568,-25.932357788,1.167846680,-0.032095946,-0.008631837,-0.951733470
99.272623,-2.810630798,-25.909469604,1.007629395,-0.033927001,-0.008509766,-0.946606517
99.273250,-3.008995056,-25.749252319,0.771118164,-0.029654540,-0.009486329,-0.942822337
99.273876,-3.230247498,-25.810287476,0.992370605,-0.032218017,-0.007411133,-0.936230540
99.274503,-3.451499939,-25.688217163,1.000000000,-0.030997314,-0.008265626,-0.936718822
99.281740,-5.175743103,-24.215744019,0.328613281,-0.030875243,-0.016078126,-0.901318431
99.282366,-5.213890076,-24.124191284,0.229431152,-0.032584228,-0.017420899,-0.899121165
99.282991,-5.305442810,-24.124191284,0.023437500,-0.032706298,-0.017542969,-0.900952220
99.283616,-5.046043396,-23.811386108,0.473571777,-0.032828368,-0.020106446,-0.896191478
99.284243,-5.335960388,-23.742721558,-0.060485840,-0.029654540,-0.021327149,-0.896679759
99.284868,-5.046043396,-23.635910034,0.099731445,-0.031241454,-0.021083008,-0.892895579
99.285495,-5.107078552,-23.490951538,0.008178711,-0.036490478,-0.022181641,-0.894604564
99.286122,-5.084190369,-23.391769409,0.038696289,-0.035758056,-0.025965821,-0.891430736
99.286749,-4.717979431,-23.124740601,-0.007080078,-0.038809814,-0.027186524,-0.892529368
99.287374,-4.458580017,-23.056076050,0.099731445,-0.034415282,-0.027186524,-0.887158275
99.301353,0.943031311,-21.087692261,-0.602172852,-0.046866454,-0.033045899,-0.870556712
99.302118,1.019325256,-21.240280151,-0.617431641,-0.046622314,-0.032801758,-0.867016673
99.302743,1.042213440,-20.988510132,-0.792907715,-0.045523681,-0.033167969,-0.867138743
99.303368,1.156654358,-21.034286499,-0.556396484,-0.049429931,-0.031458985,-0.867871165
99.303995,1.004066467,-20.927474976,-0.640319824,-0.049796142,-0.028895508,-0.867138743
99.304621,1.126136780,-20.935104370,-0.571655273,-0.048941649,-0.026698243,-0.862378001
99.305246,1.362648010,-20.889328003,-0.815795898,-0.048331298,-0.029261719,-0.863354564
99.305873,1.393165588,-20.828292847,-0.480102539,-0.047965087,-0.027186524,-0.864209056
99.306500,1.438941956,-20.607040405,-0.640319824,-0.053214110,-0.029139649,-0.862744212
99.307125,1.446571350,-20.851181030,-0.716613770,-0.053214110,-0.030482423,-0.859936595
99.307752,1.309242249,-20.652816772,-0.670837402,-0.054434814,-0.027552735,-0.855175853
99.308377,1.103248596,-20.568893433,-0.678466797,-0.051138915,-0.024623048,-0.855664134
99.309009,1.370277405,-20.584152222,-0.869201660,-0.053458251,-0.026820313,-0.854565501
99.309634,1.103248596,-20.538375854,-0.655578613,-0.051749267,-0.026087891,-0.852246165
99.310259,1.042213440,-20.401046753,-0.594543457,-0.054190673,-0.025111329,-0.854321361
99.310885,1.164283752,-20.401046753,-0.594543457,-0.053946532,-0.023768555,-0.848461986
99.311510,0.912513733,-20.309494019,-0.625061035,-0.056265868,-0.026332032,-0.846630931
99.312135,0.973548889,-20.187423706,-0.670837402,-0.058585204,-0.024500977,-0.846508861
99.312762,0.851478577,-19.996688843,-0.609802246,-0.060050048,-0.025355469,-0.845288157
99.313387,0.904884338,-20.072982788,-0.800537109,-0.058096923,-0.026087891,-0.844921947
99.314012,0.691261292,-20.027206421,-0.571655273,-0.060904540,-0.023524415,-0.840039134
99.314639,0.561561584,-19.798324585,-0.907348633,-0.060416259,-0.026087891,-0.840771556
99.315279,0.523414612,-19.821212769,-0.663208008,-0.059683837,-0.026942383,-0.840161204
99.315906,0.431861877,-19.699142456,-0.693725586,-0.060050048,-0.025599610,-0.840527415
99.316533,0.164833069,-19.653366089,-1.067565918,-0.054801024,-0.023402344,-0.839184642
99.317159,0.050392151,-19.348190308,-0.708984375,-0.059805907,-0.025355469,-0.834545970
99.317785,0.111427307,-19.424484253,-0.731872559,-0.057974853,-0.019984376,-0.835888743
99.318412,-0.003013611,-19.134567261,-0.792907715,-0.057364501,-0.025111329,-0.833203197
99.319039,0.050392151,-19.226119995,-0.808166504,-0.059561767,-0.022425782,-0.829663157
99.319665,-0.163230896,-19.073532104,-0.541137695,-0.056021728,-0.024256837,-0.829174876
99.321462,-0.506553650,-18.692062378,-0.869201660,-0.055167235,-0.024256837,-0.824536204
99.322087,-0.643882751,-18.684432983,-0.831054688,-0.055167235,-0.023280274,-0.822461009
99.322713,-0.605735779,-18.379257202,-0.853942871,-0.056632079,-0.024745118,-0.820874095
99.323338,-0.956687927,-17.906234741,-0.541137695,-0.057120360,-0.025965821,-0.823315501
99.323964,-0.903282166,-18.043563843,-0.602172852,-0.057486571,-0.022669923,-0.820385814
99.324590,-1.055870056,-17.906234741,-0.808166504,-0.059195556,-0.022181641,-0.819043040
99.325215,-1.300010681,-17.730758667,-0.701354980,-0.058951415,-0.023036133,-0.814038157
99.325840,-1.551780701,-17.547653198,-0.617431641,-0.060538329,-0.021571290,-0.814770579
99.326466,-1.635704041,-17.448471069,-0.792907715,-0.060538329,-0.025599610,-0.811840892
99.327091,-1.704368591,-17.295883179,-0.625061035,-0.061881103,-0.020350587,-0.809155345
99.327717,-1.864585876,-17.150924683,-0.564025879,-0.062125243,-0.021327149,-0.809765697
99.328343,-1.902732849,-16.845748901,-0.670837402,-0.060660399,-0.022914063,-0.808178782
99.328970,-1.994285583,-16.960189819,-0.541137695,-0.064566649,-0.018641602,-0.805981517
99.329596,-2.146873474,-16.639755249,-0.701354980,-0.063590087,-0.020350587,-0.804638743
99.330221,-2.307090759,-16.403244019,-0.678466797,-0.067374267,-0.018641602,-0.800122142
99.330846,-2.627525330,-16.243026733,-0.670837402,-0.066031493,-0.017542969,-0.802197337
99.344832,-3.901634216,-11.673019409,-1.059936523,-0.081412353,-0.003993164,-0.777050853
99.345629,-3.764305115,-11.177108765,-0.991271973,-0.083853759,-0.002894531,-0.779248118
99.346254,-3.718528748,-11.001632690,-0.907348633,-0.084952392,-0.002162110,-0.777294993
99.346881,-3.894004822,-10.528610229,-0.899719238,-0.086661376,-0.001063477,-0.774853587
99.347506,-4.023704529,-10.482833862,-1.197265625,-0.088492431,-0.002162110,-0.771801829
99.348131,-4.176292419,-10.231063843,-1.037048340,-0.090079345,-0.000941406,-0.773999095
99.348758,-4.046592712,-9.994552612,-0.968383789,-0.091544189,-0.000453125,-0.771191478
99.349384,-4.077110291,-9.796188354,-1.151489258,-0.093863524,0.003331054,-0.770214915
99.350009,-4.229698181,-9.635971069,-1.227783203,-0.093497314,-0.000331055,-0.769604564
99.350634,-4.176292419,-9.437606812,-1.090454102,-0.094840087,0.002598633,-0.768872142
99.351260,-4.183921814,-9.193466187,-1.265930176,-0.095694579,0.003208984,-0.770825267
99.351885,-4.336509705,-8.926437378,-1.456665039,-0.095816649,0.001011719,-0.771557689
99.352510,-4.252586365,-8.331344604,-1.166748047,-0.097037353,0.002110351,-0.768139720
99.353137,-4.298362732,-8.247421265,-1.525329590,-0.096427001,0.004917969,-0.767407298
99.353764,-4.138145447,-8.087203979,-1.647399902,-0.101553954,0.004307617,-0.763745189
99.354391,-4.290733337,-7.659957886,-1.639770508,-0.097647704,0.008702148,-0.762280345
99.355017,-4.550132751,-7.354782104,-1.418518066,-0.097403564,0.002598633,-0.762158275
99.355642,-4.458580017,-7.385299683,-1.723693848,-0.096915282,0.007603515,-0.762280345
99.356267,-4.214439392,-6.904647827,-1.624511719,-0.095694579,0.006749023,-0.761792064
99.356893,-4.252586365,-6.668136597,-1.807617188,-0.094718017,0.004673828,-0.761669993
99.357519,-4.031333923,-6.362960815,-2.013610840,-0.097281493,0.006260742,-0.760205150
99.358144,-4.038963318,-5.935714722,-1.738952637,-0.096304931,0.006749023,-0.757031322
99.358769,-4.038963318,-5.683944702,-1.975463867,-0.096549071,0.006138672,-0.757641673
99.359395,-4.115257263,-5.394027710,-2.089904785,-0.094718017,0.003331054,-0.758618236
99.360022,-3.771934509,-5.081222534,-2.250122070,-0.097525634,0.005772461,-0.756176829
99.360648,-3.749046326,-4.615829468,-2.112792969,-0.095206298,0.006871094,-0.756420970
99.361275,-3.276023865,-4.371688843,-2.356933594,-0.092642821,0.005772461,-0.757153392
99.361900,-3.489646912,-4.173324585,-2.379821777,-0.091544189,0.004551758,-0.753979564
99.362525,-3.161582947,-3.685043335,-2.471374512,-0.092886962,0.003208984,-0.753979564
99.363151,-3.230247498,-3.242538452,-2.448486328,-0.092886962,0.004673828,-0.750927806
99.364935,-2.467308044,-2.128646851,-2.845214844,-0.093375243,0.005040039,-0.754101634
99.365560,-2.337608337,-1.831100464,-2.875732422,-0.091055907,0.005406250,-0.750561595
99.366187,-2.329978943,-1.205490112,-2.730773926,-0.091300048,0.004063476,-0.751416087
99.366812,-1.765403748,-0.968978882,-3.081726074,-0.093009032,0.004795898,-0.751171947
99.367439,-1.795921326,-0.610397339,-3.180908203,-0.093985595,0.001744140,-0.754101634
99.368065,-1.353416443,-0.366256714,-3.074096680,-0.092886962,-0.000453125,-0.754223704
99.368690,-1.483116150,-0.068710327,-3.341125488,-0.091910399,0.001866211,-0.754956126
99.369317,-1.002464294,0.495864868,-3.287719727,-0.093741454,-0.002040039,-0.757641673
99.369942,-0.712547302,0.366165161,-3.432678223,-0.092154540,0.000401367,-0.758496165
99.370567,-0.323448181,1.083328247,-3.585266113,-0.097159423,-0.000697266,-0.759594798
99.371192,-0.003013611,1.602127075,-3.470825195,-0.095816649,-0.000819336,-0.760937572
99.371817,0.103797913,1.716567993,-3.608154297,-0.097159423,0.000279297,-0.766308665
99.372444,0.340309143,1.869155884,-3.898071289,-0.098380126,-0.001185547,-0.765454173
99.373070,0.607337952,2.250625610,-3.928588867,-0.098013915,0.001011719,-0.767041087
99.373696,1.126136780,2.464248657,-3.829406738,-0.095938720,-0.002406250,-0.770214915
99.374321,1.278724670,2.601577759,-4.043029785,-0.098746337,-0.001185547,-0.773388743
99.374946,1.713600159,2.876235962,-4.317687988,-0.096182860,0.003453125,-0.775952220
99.388876,4.887428284,8.003189087,-6.232666016,-0.093375243,-0.003626953,-0.802319407
99.389612,4.757728577,8.369400024,-6.240295410,-0.093497314,-0.002528321,-0.802563548
99.390238,4.689064026,8.636428833,-6.354736328,-0.094473876,-0.005580078,-0.805004954
99.390863,4.505958557,8.888198853,-6.354736328,-0.094107665,-0.004603516,-0.809765697
99.391490,4.582252502,9.094192505,-6.591247559,-0.093985595,-0.005213867,-0.809765697
99.392115,4.658546448,9.185745239,-6.423400879,-0.091055907,-0.008143555,-0.809033275
99.392741,4.566993713,9.422256470,-6.583618164,-0.091422118,-0.009974610,-0.812207103
99.393368,4.315223694,9.864761353,-6.705688477,-0.089957274,-0.009364258,-0.815869212
99.393995,4.399147034,10.047866821,-6.659912109,-0.091544189,-0.010462891,-0.819897532
99.394622,4.399147034,10.467483521,-6.629394531,-0.091544189,-0.014613282,-0.822827220
99.395248,4.322853088,10.436965942,-6.888793945,-0.091177978,-0.014979493,-0.828076243
99.395874,4.414405823,10.810806274,-6.972717285,-0.094718017,-0.014857423,-0.827587962
99.396500,4.467811584,10.879470825,-6.965087891,-0.091910399,-0.020106446,-0.832104564
99.397125,4.536476135,11.199905396,-7.140563965,-0.092886962,-0.022791993,-0.833203197
99.397751,4.467811584,11.390640259,-7.010864258,-0.094351806,-0.024989258,-0.838452220
99.398376,4.559364319,11.459304810,-7.300781250,-0.094840087,-0.022791993,-0.838818431
99.399009,4.597511292,11.657669067,-7.071899414,-0.094840087,-0.025355469,-0.845166087
99.399634,4.673805237,11.810256958,-7.193969727,-0.095938720,-0.028163087,-0.848095775
99.400259,4.772987366,12.199356079,-7.300781250,-0.095084228,-0.028895508,-0.848217845
99.400886,4.849281311,12.138320923,-7.453369141,-0.093741454,-0.026576173,-0.852368236
99.401513,4.971351624,12.435867310,-7.522033691,-0.092520751,-0.032557618,-0.850537181
99.402140,5.177345276,12.451126099,-7.148193359,-0.093375243,-0.034022462,-0.857739329
99.402767,5.139198303,12.680007935,-7.483886719,-0.093253173,-0.031825196,-0.858471751
99.403392,5.093421936,12.756301880,-7.399963379,-0.095084228,-0.036585938,-0.858349681
99.404018,5.322303772,12.878372192,-7.514404297,-0.093131103,-0.033656251,-0.860669017
99.404645,5.200233459,13.000442505,-7.460998535,-0.094351806,-0.035365235,-0.863598704
99.405272,5.360450745,13.114883423,-7.499145508,-0.097037353,-0.033412110,-0.868481517
99.405899,5.169715881,13.381912231,-7.636474609,-0.094351806,-0.037196290,-0.870190501
99.406525,5.207862854,13.343765259,-7.628845215,-0.093497314,-0.037196290,-0.870922923
99.407150,5.177345276,13.580276489,-7.499145508,-0.097281493,-0.034144532,-0.875683665
99.408943,4.864540100,13.709976196,-7.560180664,-0.101065673,-0.034754883,-0.884472728
99.409568,4.917945862,13.732864380,-7.514404297,-0.097281493,-0.034266602,-0.887158275
99.410193,4.704322815,13.877822876,-7.728027344,-0.096304931,-0.035487305,-0.887646556
99.410820,4.574623108,13.793899536,-7.659362793,-0.102042235,-0.035731446,-0.891430736
99.411445,4.368629456,13.694717407,-7.934020996,-0.098624267,-0.036585938,-0.893994212
99.412071,4.330482483,13.946487427,-7.689880371,-0.097403564,-0.031092774,-0.896191478
99.412697,4.132118225,13.778640747,-7.811950684,-0.095694579,-0.029994141,-0.904492259
99.413324,3.758277893,13.877822876,-7.728027344,-0.095328368,-0.034632813,-0.904614329
99.413951,3.651466370,13.557388306,-7.659362793,-0.094962157,-0.033900391,-0.910473704
99.414576,3.002967834,13.771011353,-8.101867676,-0.095206298,-0.031336915,-0.913647532
99.415201,2.865638733,13.580276489,-7.934020996,-0.094595946,-0.027674805,-0.913159251
99.415827,2.735939026,13.351394653,-8.002685547,-0.094962157,-0.029994141,-0.918286204
99.416454,2.201881409,13.572647095,-8.033203125,-0.094107665,-0.030482423,-0.923779368
99.417107,1.805152893,13.221694946,-7.972167969,-0.091666259,-0.026209962,-0.928051829
99.417733,1.568641663,13.122512817,-8.056091309,-0.093131103,-0.028285157,-0.927807689
99.418358,1.057472229,13.130142212,-7.888244629,-0.091666259,-0.024745118,-0.932812572
99.418983,0.767555237,13.008071899,-7.911132812,-0.089835204,-0.025355469,-0.934887767
99.433068,-11.187705994,9.536697388,-8.216308594,-0.069205321,-0.042567383,-0.942944407
99.433874,-11.660728455,9.429885864,-8.338378906,-0.066031493,-0.044886719,-0.939038157
99.434501,-11.645469666,9.323074341,-8.269714355,-0.062857665,-0.046717774,-0.940747142
99.435128,-11.874351501,9.399368286,-8.315490723,-0.062979735,-0.050624024,-0.938794017
99.435754,-12.240562439,9.269668579,-8.292602539,-0.056754149,-0.053675782,-0.935009837
99.436379,-12.370262146,9.414627075,-8.445190430,-0.054923095,-0.054896485,-0.935498118
99.437010,-12.515220642,9.162857056,-8.300231934,-0.052603759,-0.053797852,-0.931225657
99.437637,-12.362632751,9.246780396,-8.185791016,-0.049429931,-0.061366212,-0.928540111
99.438262,-12.484703064,9.262039185,-8.338378906,-0.047232665,-0.063807614,-0.927441478
99.438889,-12.698326111,9.597732544,-8.376525879,-0.046134032,-0.068568356,-0.922192454
99.439515,-12.622032166,9.445144653,-8.368896484,-0.040762939,-0.069178708,-0.918408275
99.440141,-12.240562439,9.818984985,-8.239196777,-0.036002196,-0.070521481,-0.918408275
99.440767,-12.118492126,9.872390747,-8.284973145,-0.034659423,-0.074549802,-0.914868236
99.441392,-12.034568787,10.017349243,-8.277343750,-0.034781493,-0.073817380,-0.909741282
99.442017,-11.950645447,10.391189575,-8.262084961,-0.031119384,-0.079310544,-0.911816478
99.442643,-11.622581482,10.528518677,-8.262084961,-0.030509032,-0.081507809,-0.908032298
99.443268,-11.523399353,10.765029907,-8.208679199,-0.025748290,-0.083827145,-0.908642650
99.443893,-11.073265076,10.940505981,-8.201049805,-0.026114501,-0.084559567,-0.909130931
99.444520,-10.707054138,11.108352661,-8.010314941,-0.025382079,-0.088221677,-0.904248118
99.445145,-10.272178650,11.367752075,-8.216308594,-0.026236571,-0.090663083,-0.906811595
99.445772,-10.066184998,11.611892700,-8.124755859,-0.019766845,-0.094691403,-0.905835032
99.446398,-9.585533142,11.665298462,-8.101867676,-0.023306884,-0.094447263,-0.903637767
99.447024,-8.822593689,12.245132446,-8.086608887,-0.020499267,-0.099330075,-0.907299876
99.447650,-8.326683044,12.153579712,-8.384155273,-0.016959228,-0.098841794,-0.906201243
99.448276,-7.937583923,12.580825806,-7.926391602,-0.015372314,-0.103236325,-0.907544017
99.448903,-7.388267517,12.931777954,-7.834838867,-0.016348876,-0.107874997,-0.907544017
99.449528,-6.693992615,13.130142212,-8.170532227,-0.015982665,-0.106288083,-0.909130931
99.450155,-6.243858337,13.572647095,-7.888244629,-0.015372314,-0.109217770,-0.912793040
99.450780,-5.557212830,13.587905884,-7.827209473,-0.015860595,-0.106410153,-0.913769603
99.451405,-5.183372498,13.839675903,-7.796691895,-0.016348876,-0.105921872,-0.916333079
99.453189,-3.344688416,14.572097778,-7.766174316,-0.014884033,-0.111415036,-0.923169017
99.453814,-2.612266541,14.869644165,-7.689880371,-0.010855713,-0.115199216,-0.925488353
99.454440,-2.055320740,15.205337524,-7.651733398,-0.011710205,-0.116541989,-0.929028392
99.455066,-1.460227966,15.167190552,-7.598327637,-0.012442627,-0.116419919,-0.930615306
99.455692,-0.826988220,15.563919067,-7.628845215,-0.011588135,-0.116664059,-0.932934642
99.456318,-0.033531189,15.747024536,-7.232116699,-0.013907471,-0.117762692,-0.934033275
99.456944,0.538673401,16.082717896,-7.522033691,-0.015006104,-0.118006833,-0.936352611
99.457569,1.324501038,16.143753052,-7.087158203,-0.014151611,-0.120692380,-0.938916087
99.458195,1.698341370,16.532852173,-7.064270020,-0.014761963,-0.119715817,-0.946606517
99.458820,2.186622620,16.738845825,-7.346557617,-0.015616455,-0.119715817,-0.944165111
99.459445,2.819862366,16.845657349,-7.079528809,-0.017447509,-0.120570309,-0.945996165
99.460070,3.155555725,17.013504028,-6.949829102,-0.018302001,-0.124964841,-0.949047923
99.460696,3.987159729,17.021133423,-6.942199707,-0.019644774,-0.124964841,-0.953198314
99.461322,4.330482483,17.250015259,-6.827758789,-0.017569579,-0.123866208,-0.956494212
99.461948,5.017127991,17.028762817,-6.575988770,-0.019156493,-0.125819340,-0.961987376
99.462575,5.535926819,17.463638306,-6.698059082,-0.020010985,-0.124720700,-0.968579173
99.463200,5.955543518,17.333938599,-6.522583008,-0.024039306,-0.125697270,-0.972973704
99.477090,18.902626038,13.481094360,-4.409240723,-0.062735595,-0.105555661,-1.068920970
99.477839,19.535865784,13.000442505,-4.226135254,-0.061881103,-0.102259763,-1.069165111
99.478466,20.138587952,12.466384888,-4.294799805,-0.063223876,-0.095790036,-1.067089915
99.479093,20.237770081,12.214614868,-4.226135254,-0.064688720,-0.093104489,-1.070996165
99.479719,20.626869202,12.046768188,-4.218505859,-0.061514892,-0.090174802,-1.070019603
99.480345,20.573463440,11.726333618,-4.409240723,-0.059805907,-0.087245114,-1.070996165
99.480972,20.832862854,11.512710571,-4.271911621,-0.058341064,-0.083949216,-1.073681712
99.481597,20.756568909,11.207534790,-3.928588867,-0.058829345,-0.080775388,-1.073437572
99.482222,20.573463440,10.841323853,-3.966735840,-0.057364501,-0.079676755,-1.074780345
99.482847,20.909156799,10.665847778,-4.073547363,-0.056510009,-0.074671872,-1.076611400
99.483473,20.741310120,10.543777466,-3.997253418,-0.058585204,-0.071253903,-1.075634837
99.484099,20.832862854,10.047866821,-4.111694336,-0.058829345,-0.070277341,-1.077587962
99.484725,20.474281311,10.040237427,-4.012512207,-0.059195556,-0.069911130,-1.079174876
99.485350,20.314064026,9.628250122,-4.043029785,-0.058218993,-0.067713864,-1.080273509
99.485975,20.092811584,9.452774048,-3.898071289,-0.058218993,-0.062220704,-1.079785228
99.486601,19.924964905,9.345962524,-3.859924316,-0.056754149,-0.058802735,-1.080883861
99.487228,19.490089417,8.674575806,-4.126953125,-0.058951415,-0.057704102,-1.081250072
99.487853,19.261207581,8.689834595,-3.814147949,-0.057852782,-0.056483399,-1.083813548
99.488478,19.154396057,8.315994263,-3.936218262,-0.057364501,-0.054774415,-1.084423900
99.489104,18.521156311,8.201553345,-3.882812500,-0.062247314,-0.055506837,-1.084790111
99.489729,18.277015686,7.995559692,-3.753112793,-0.059683837,-0.052577149,-1.086499095
99.490356,17.887916565,7.713272095,-3.707336426,-0.062369384,-0.050013673,-1.089550853
99.490983,17.521705627,7.240249634,-4.096435547,-0.064200439,-0.046717774,-1.091870189
99.491608,17.010536194,7.171585083,-3.859924316,-0.061514892,-0.047083985,-1.093945384
99.492234,16.735877991,6.866409302,-3.692077637,-0.064200439,-0.046961915,-1.092236400
99.492861,16.171302795,6.523086548,-4.043029785,-0.063468017,-0.044520508,-1.092480540
99.493486,15.835609436,6.454421997,-3.920959473,-0.064444579,-0.040980469,-1.098339915
99.494111,15.347328186,6.103469849,-4.012512207,-0.065665282,-0.043299805,-1.099316478
99.494738,14.851417542,5.729629517,-3.905700684,-0.067008056,-0.040858399,-1.100048900
99.495363,14.508094788,5.409194946,-3.829406738,-0.067008056,-0.043421876,-1.102734447
99.497188,13.378944397,4.608108521,-4.149841309,-0.064566649,-0.035487305,-1.100293040
99.497813,12.844886780,4.508926392,-4.325317383,-0.066031493,-0.036830079,-1.103711009
99.498439,12.097206116,4.272415161,-4.096435547,-0.064444579,-0.035487305,-1.105053782
99.499066,12.043800354,3.807022095,-4.210876465,-0.062735595,-0.034632813,-1.100415111
99.499691,11.349525452,3.807022095,-4.012512207,-0.064200439,-0.033412110,-1.102856517
99.500317,10.792579651,3.425552368,-3.981994629,-0.063223876,-0.030116212,-1.103344798
99.500942,10.441627502,3.120376587,-4.317687988,-0.062857665,-0.030726563,-1.100903392
99.501568,9.922828674,2.807571411,-4.378723145,-0.062735595,-0.032557618,-1.101391673
99.502193,9.495582581,2.708389282,-4.393981934,-0.064810790,-0.034754883,-1.101513743
99.502818,8.877601624,2.181961060,-4.210876465,-0.060050048,-0.031336915,-1.097973704
99.503443,8.534278870,2.113296509,-4.172729492,-0.058585204,-0.033778321,-1.098584056
99.504068,8.007850647,1.853897095,-4.340576172,-0.057486571,-0.030604493,-1.098950267
99.504694,7.496681213,1.533462524,-4.241394043,-0.056754149,-0.030238282,-1.096508861
99.505319,6.863441467,1.396133423,-4.462646484,-0.057852782,-0.027308594,-1.096142650
99.505944,6.520118713,0.869705200,-4.325317383,-0.058585204,-0.028407227,-1.098461986
99.506570,5.741920471,0.869705200,-4.371093750,-0.055655517,-0.026698243,-1.097851634
99.507195,5.535926819,0.755264282,-4.592346191,-0.054068603,-0.028407227,-1.096630931
99.521289,-1.559410095,-3.562973022,-5.317138672,-0.034781493,-0.038905274,-1.070996165
99.522143,-1.917991638,-3.936813354,-5.324768066,-0.034903564,-0.038539063,-1.067089915
99.522769,-1.750144958,-3.929183960,-5.431579590,-0.030997314,-0.040248048,-1.062329173
99.523396,-2.047691345,-3.715560913,-5.362915039,-0.029776610,-0.040370118,-1.061840892
99.524021,-1.849327087,-4.112289429,-5.446838379,-0.027701415,-0.042689454,-1.056713939
99.524648,-1.818809509,-3.921554565,-5.416320801,-0.032950439,-0.046229493,-1.057080150
99.531913,-1.277122498,-3.830001831,-6.041931152,-0.020133056,-0.047206055,-1.031567454
99.532538,-1.124534607,-3.738449097,-5.965637207,-0.020133056,-0.043177735,-1.034375072
99.533164,-1.055870056,-3.532455444,-5.919860840,-0.018668212,-0.046229493,-1.032055736
99.533790,-1.124534607,-3.631637573,-6.148742676,-0.018546142,-0.044520508,-1.032299876
99.534416,-1.002464294,-3.555343628,-6.003784180,-0.015860595,-0.046107423,-1.031567454
99.535042,-0.964317322,-3.448532104,-5.988525391,-0.012686768,-0.043543946,-1.031567454
99.535669,-0.903282166,-3.334091187,-6.118225098,-0.013297119,-0.045375001,-1.031933665
99.536296,-0.933799744,-3.173873901,-6.209777832,-0.011099854,-0.045497071,-1.029736400
99.536922,-0.872764587,-3.356979370,-6.209777832,-0.010855713,-0.044398438,-1.029858470
99.537547,-0.933799744,-3.135726929,-6.408142090,-0.008536377,-0.045252930,-1.030590892
99.538172,-0.819358826,-3.028915405,-6.438659668,-0.005606689,-0.039759766,-1.031445384
99.538798,-1.002464294,-3.105209351,-6.408142090,-0.005118408,-0.042811524,-1.030835032
99.539423,-0.987205505,-2.922103882,-6.469177246,-0.006583252,-0.039149415,-1.028515697
99.541268,-1.025352478,-2.822921753,-6.507324219,0.000252686,-0.040736329,-1.032421947
99.541894,-1.216087341,-2.632186890,-6.637023926,0.002449951,-0.035853516,-1.033032298
99.542519,-1.345787048,-2.601669312,-6.652282715,0.005379639,-0.037074219,-1.034619212
99.543145,-1.399192810,-2.548263550,-6.598876953,0.005501709,-0.034022462,-1.033642650
99.543770,-1.399192810,-2.426193237,-6.652282715,0.010140381,-0.034876954,-1.034253001
99.544395,-1.887474060,-2.525375366,-6.850646973,0.007821045,-0.031092774,-1.034497142
99.545020,-2.162132263,-2.456710815,-6.766723633,0.013070068,-0.030482423,-1.034863353
99.545645,-2.276573181,-2.349899292,-6.980346680,0.013436279,-0.029383790,-1.032421947
99.546272,-2.612266541,-2.273605347,-6.820129395,0.011116943,-0.030238282,-1.034741282
99.546899,-2.932701111,-2.357528687,-6.774353027,0.012825928,-0.025965821,-1.032666087
99.547526,-3.199729919,-2.029464722,-6.980346680,0.014290771,-0.026942383,-1.032177806
99.548151,-3.558311462,-2.044723511,-6.965087891,0.016732179,-0.021205079,-1.032544017
99.548776,-3.810081482,-2.082870483,-7.010864258,0.018807374,-0.025965821,-1.033032298
99.549401,-4.359397888,-1.983688354,-7.079528809,0.018563233,-0.024500977,-1.029858470
99.550028,-4.878196716,-1.655624390,-7.148193359,0.019906007,-0.022547852,-1.030468822
99.550653,-5.320701599,-1.724288940,-7.247375488,0.023446046,-0.023158204,-1.027294993
99.551279,-5.747947693,-1.754806519,-7.117675781,0.023568116,-0.021449219,-1.028881907
99.551905,-6.404075623,-1.541183472,-7.438110352,0.025032960,-0.020350587,-1.024853587
99.552532,-7.052574158,-1.182601929,-7.308410645,0.023690186,-0.023768555,-1.025097728
99.553158,-7.533226013,-1.358078003,-7.277893066,0.026253663,-0.021327149,-1.024243236
99.553784,-7.998619080,-1.327560425,-7.277893066,0.026497804,-0.021083008,-1.024487376
99.554409,-8.937034607,-0.877426147,-7.407592773,0.027840577,-0.020716798,-1.023388743
99.555034,-9.333763123,-0.679061890,-7.628845215,0.027230226,-0.024256837,-1.022045970
99.555660,-10.081443787,-0.778244019,-7.659362793,0.030037843,-0.022914063,-1.019970775
99.556286,-10.707054138,-0.625656128,-7.468627930,0.031502686,-0.024623048,-1.020581126
99.556911,-11.386070251,-0.373886108,-7.659362793,0.030892335,-0.024623048,-1.018383861
99.557536,-11.859092712,-0.404403687,-7.644104004,0.028817140,-0.025355469,-1.020214915
99.558161,-12.576255798,-0.259445190,-7.590698242,0.028939210,-0.030604493,-1.018017650
99.572184,-18.450889587,1.396133423,-6.675170898,-0.013175049,-0.102870114,-1.059765697
99.572966,-18.214378357,1.335098267,-6.469177246,-0.021231689,-0.105921872,-1.062939525
99.573592,-17.947349548,1.274063110,-6.476806641,-0.021231689,-0.109950192,-1.066723704
99.574218,-17.710838318,1.045181274,-6.492065430,-0.024649657,-0.112147458,-1.068798900
99.574843,-17.214927673,0.900222778,-6.102966309,-0.028433837,-0.117030270,-1.075390697
99.575469,-16.665611267,0.823928833,-5.996154785,-0.028677978,-0.120082028,-1.075512767
99.576095,-16.307029724,0.373794556,-6.080078125,-0.030753173,-0.121058591,-1.076733470
99.576720,-15.719566345,-0.122116089,-5.668090820,-0.030875243,-0.123866208,-1.080517650
99.577346,-15.193138123,-0.145004272,-5.591796875,-0.031607665,-0.120692380,-1.080273509
99.577972,-14.819297791,-0.465438843,-5.507873535,-0.033194579,-0.123499997,-1.083569407
99.578599,-14.086875916,-0.793502808,-5.347656250,-0.034049071,-0.125086918,-1.086132884
99.579225,-13.522300720,-1.106307983,-5.233215332,-0.036978759,-0.124964841,-1.086499095
99.579852,-12.683067322,-1.701400757,-4.912780762,-0.036246337,-0.126917973,-1.090649486
99.580477,-12.171897888,-1.922653198,-5.210327148,-0.038931884,-0.126307622,-1.089917064
99.581104,-11.271629333,-2.388046265,-4.859375000,-0.039664306,-0.129237309,-1.092480540
99.581730,-10.569725037,-2.845809937,-4.508422852,-0.043570556,-0.128749028,-1.091992259
99.582356,-9.463462830,-3.265426636,-4.523681641,-0.044913329,-0.126917973,-1.092602611
99.582982,-8.937034607,-3.616378784,-4.241394043,-0.043692626,-0.128016606,-1.092480540
99.583608,-8.151206970,-4.257247925,-4.233764648,-0.046011962,-0.127040043,-1.093945384
99.584234,-7.220420837,-4.623458862,-3.981994629,-0.045523681,-0.129725590,-1.091015697
99.584861,-6.442222595,-5.188034058,-3.951477051,-0.041861571,-0.127650395,-1.092724681
99.585488,-5.442771912,-5.371139526,-3.669189453,-0.041739501,-0.126063481,-1.086865306
99.586114,-4.588279724,-5.897567749,-3.646301270,-0.043326415,-0.124842770,-1.086987376
99.586739,-3.718528748,-6.393478394,-3.592895508,-0.041983642,-0.123377927,-1.086987376
99.587366,-2.856407166,-6.729171753,-3.173278809,-0.042105712,-0.118739255,-1.082348704
99.587993,-1.757774353,-7.011459351,-3.249572754,-0.038931884,-0.120570309,-1.077099681
99.588618,-0.826988220,-7.629440308,-2.990173340,-0.040762939,-0.119593747,-1.075512767
99.589245,0.309791565,-7.774398804,-2.799438477,-0.041251220,-0.114588864,-1.073193431
99.589872,1.156654358,-8.010910034,-2.906250000,-0.039908446,-0.111537106,-1.065869212
99.590497,1.934852600,-8.331344604,-2.669738770,-0.037955321,-0.109583981,-1.064038157
99.592341,4.948463440,-9.117172241,-2.379821777,-0.034049071,-0.098963864,-1.049267650
99.592968,5.612220764,-9.178207397,-2.295898438,-0.033560790,-0.098353513,-1.040966868
99.593633,6.474342346,-9.460494995,-2.219604492,-0.031607665,-0.094081052,-1.036572337
99.594258,7.191505432,-9.521530151,-2.211975098,-0.030020751,-0.096278317,-1.032055736
99.594883,8.107032776,-9.674118042,-1.906799316,-0.029288329,-0.086146481,-1.025952220
99.595508,9.083595276,-9.941146851,-1.914428711,-0.027457274,-0.081629880,-1.023632884
99.596134,9.495582581,-10.139511108,-1.838134766,-0.027213134,-0.081751950,-1.017895579
99.596761,10.510292053,-10.231063843,-1.685546875,-0.026846923,-0.073573239,-1.015942454
99.597386,10.922279358,-10.231063843,-1.899169922,-0.023917235,-0.069789059,-1.014843822
99.598013,11.532630920,-10.185287476,-1.738952637,-0.020377196,-0.064051755,-1.010815501
99.598638,12.257423401,-10.398910522,-1.601623535,-0.019400634,-0.059657227,-1.008496165
99.599263,12.875404358,-10.292098999,-1.571105957,-0.021353759,-0.054896485,-1.006298900
99.599888,13.638343811,-10.406539917,-1.769470215,-0.016837157,-0.048182618,-1.004711986
99.600513,14.035072327,-10.292098999,-1.571105957,-0.015250244,-0.043421876,-0.998486400
99.601138,14.492835999,-10.337875366,-1.677917480,-0.014395752,-0.041590821,-0.998486400
99.601764,15.194740295,-10.292098999,-1.716064453,-0.010855713,-0.036097657,-0.998608470
99.615789,13.356056213,-6.691024780,-4.561828613,-0.000601807,0.076939456,-0.930004954
99.616592,12.890663147,-6.561325073,-4.676269531,0.000374756,0.079625003,-0.929638743
99.617217,12.211647034,-6.279037476,-4.805969238,0.002572021,0.082188480,-0.927197337
99.617842,11.639442444,-6.027267456,-5.179809570,0.000863037,0.087925784,-0.924145579
99.618469,10.792579651,-5.714462280,-5.301879883,-0.003287354,0.089756839,-0.921826243
99.619094,10.548439026,-5.508468628,-5.622314453,-0.004019775,0.086094730,-0.922070384
99.619720,9.831275940,-5.012557983,-5.645202637,-0.002799072,0.086216800,-0.922680736
99.620346,9.365882874,-4.753158569,-5.828308105,-0.004508057,0.087925784,-0.918896556
99.620973,8.755531311,-4.737899780,-6.194519043,-0.005606689,0.085606448,-0.915478587
99.621600,8.137550354,-4.043624878,-6.431030273,-0.001212158,0.084874026,-0.918774486
99.622227,7.862892151,-3.875778198,-6.324218750,-0.004630127,0.083897464,-0.915844798
99.622852,7.298316956,-3.524826050,-6.797241211,-0.005728760,0.086094730,-0.912793040
99.623477,6.977882385,-3.318832397,-7.110046387,-0.001944580,0.082188480,-0.910473704
99.624102,6.283607483,-2.944992065,-7.201599121,-0.004019775,0.084629886,-0.910473704
99.624729,5.932655334,-2.616928101,-7.560180664,-0.003165283,0.081211917,-0.910107493
99.625355,5.345191956,-2.029464722,-7.834838867,-0.004141846,0.079747073,-0.906567454
99.625982,5.001869202,-1.976058960,-7.842468262,-0.005362549,0.079258792,-0.905957103
99.626608,4.742469788,-1.548812866,-7.995056152,-0.004630127,0.076817386,-0.904614329
99.627234,4.475440979,-1.228378296,-8.284973145,-0.003775635,0.076329105,-0.903637767
99.627860,3.887977600,-0.709579468,-8.567260742,-0.003897705,0.074498050,-0.902172923
99.628486,3.674354553,-0.511215210,-8.635925293,-0.004019775,0.076329105,-0.902417064
99.629111,3.422584534,-0.007675171,-9.055541992,-0.005362549,0.074498050,-0.902050853
99.629737,2.934303284,0.305130005,-9.192871094,-0.002799072,0.072789066,-0.900586009
99.630363,2.804603577,0.656082153,-9.391235352,-0.000113525,0.076084964,-0.898022532
99.630988,2.384986877,0.770523071,-9.574340820,0.000618896,0.072789066,-0.899121165
99.631613,2.178993225,1.296951294,-9.681152344,0.000130615,0.070591800,-0.895947337
99.632238,1.934852600,1.655532837,-10.032104492,-0.001822510,0.072056644,-0.896679759
99.632864,1.622047424,2.006484985,-10.116027832,0.002572021,0.071690433,-0.893261790
99.633491,1.316871643,2.159072876,-10.428833008,0.001717529,0.066563480,-0.893383861
99.634116,1.072731018,2.830459595,-10.779785156,0.002816162,0.066807620,-0.890332103
99.635908,0.134315491,4.096939087,-11.107849121,0.004036865,0.063633792,-0.889111400
99.636533,-0.201377869,4.142715454,-11.245178223,0.008065186,0.063755862,-0.890576243
99.637159,-0.689659119,4.737808228,-11.573242188,0.010018311,0.062046874,-0.886303782
99.637797,-1.147422791,4.974319458,-11.718200684,0.008797607,0.060826171,-0.885937572
99.638423,-1.795921326,5.096389771,-11.916564941,0.006722412,0.060948242,-0.887158275
99.639049,-2.185020447,6.004287720,-12.206481934,0.006844482,0.060582031,-0.880566478
99.639675,-2.589378357,6.301834106,-12.175964355,0.005623779,0.056675781,-0.885083079
99.640300,-2.848777771,6.446792603,-12.381958008,0.008309326,0.058750976,-0.885815501
99.640926,-3.626976013,7.163955688,-12.603210449,0.002083740,0.054234374,-0.885449290
99.641551,-4.313621521,7.522537231,-12.755798340,0.005745850,0.056187499,-0.886425853
99.642176,-4.565391541,7.949783325,-12.969421387,0.002205811,0.050816406,-0.884106517
99.642801,-5.267295837,8.499099731,-13.030456543,0.005135498,0.050938476,-0.884350657
99.643427,-5.717430115,8.941604614,-13.091491699,0.003304443,0.048985351,-0.882275462
99.644054,-6.411705017,9.117080688,-13.076232910,0.002816162,0.049107421,-0.885571361
99.644679,-7.144126892,9.834243774,-13.602661133,0.005379639,0.042881835,-0.885083079
99.645304,-7.739219666,10.024978638,-13.366149902,-0.001456299,0.041172851,-0.885937572
99.645930,-8.532676697,10.597183228,-13.335632324,-0.003897705,0.036412109,-0.884838939
99.646555,-8.914146423,10.948135376,-13.701843262,-0.001456299,0.033848632,-0.891064525
99.660499,-9.326133728,14.541580200,-13.663696289,-0.023795165,-0.085536130,-0.956738353
99.661249,-8.982810974,14.526321411,-13.312744141,-0.022940673,-0.088587888,-0.959790111
99.661874,-7.815513611,14.411880493,-13.434814453,-0.019888915,-0.093714841,-0.959179759
99.662564,-6.922874451,14.465286255,-13.358520508,-0.023795165,-0.096278317,-0.959423900
99.663191,-6.213340759,14.366104126,-13.198303223,-0.025260009,-0.100428708,-0.957836986
99.663816,-5.358848572,14.503433228,-12.908386230,-0.027457274,-0.102503903,-0.957592845
99.664442,-4.496726990,14.114334106,-12.916015625,-0.025382079,-0.101771481,-0.956982493
99.665068,-3.573570251,14.038040161,-12.908386230,-0.025626220,-0.103968747,-0.955029368
99.665693,-2.581748962,13.977005005,-12.526916504,-0.022818603,-0.108119138,-0.956494212
99.666320,-1.841697693,13.816787720,-12.473510742,-0.021842040,-0.105189450,-0.956372142
99.666945,-1.147422791,13.778640747,-12.381958008,-0.017691649,-0.107142575,-0.957592845
99.667570,-0.270042419,13.641311646,-12.168334961,-0.014029541,-0.107508786,-0.959545970
99.668196,0.370826721,13.771011353,-12.023376465,-0.017325439,-0.107874997,-0.959790111
99.668821,1.080360413,13.702346802,-11.893676758,-0.016959228,-0.106166013,-0.961132884
99.669447,1.820411682,13.687088013,-11.458801270,-0.015616455,-0.106776364,-0.959179759
99.670072,2.407875061,13.664199829,-11.687683105,-0.019888915,-0.108973630,-0.957714915
99.670697,3.308143616,13.488723755,-11.290954590,-0.018790282,-0.107508786,-0.961010814
99.671322,4.048194885,13.404800415,-11.306213379,-0.022574462,-0.109339841,-0.960278392
99.671948,4.574623108,13.343765259,-10.978149414,-0.022818603,-0.107997067,-0.957714915
99.672573,5.314674377,13.206436157,-11.062072754,-0.021231689,-0.107874997,-0.956616282
99.673200,5.863990784,13.206436157,-11.062072754,-0.021231689,-0.106166013,-0.958081126
99.673826,6.520118713,13.145401001,-10.550903320,-0.018302001,-0.105433591,-0.959057689
99.674453,7.290687561,13.191177368,-10.299133301,-0.015006104,-0.104457028,-0.956494212
99.675080,7.901039124,13.038589478,-10.398315430,-0.013907471,-0.103358395,-0.954419017
99.675706,8.412208557,13.000442505,-10.032104492,-0.011710205,-0.100428708,-0.953320384
99.676332,8.999671936,12.969924927,-10.009216309,-0.011710205,-0.096522458,-0.956005931
99.676957,9.388771057,12.985183716,-9.696411133,-0.009024658,-0.095301755,-0.956128001
99.677584,9.632911682,12.924148560,-9.406494141,-0.006217041,-0.093104489,-0.952221751
99.678210,10.113563538,13.130142212,-9.437011719,-0.010489502,-0.092005856,-0.953442454
99.678835,10.495033264,12.977554321,-9.482788086,-0.005972900,-0.091029294,-0.951733470
99.680638,11.517372131,13.015701294,-9.055541992,-0.005606689,-0.081385739,-0.949047923
99.681263,11.868324280,13.099624634,-8.719848633,-0.001944580,-0.076869138,-0.950512767
99.681889,11.998023987,13.015701294,-8.704589844,0.003548584,-0.078089841,-0.946484447
99.682514,12.707557678,12.870742798,-8.567260742,0.002327881,-0.074427731,-0.946240306
99.683140,12.608375549,12.908889771,-8.353637695,0.004525146,-0.072474606,-0.944287181
99.683765,13.043251038,13.053848267,-8.422302246,0.011116943,-0.072474606,-0.942334056
99.684390,13.432350159,13.153030396,-8.368896484,0.010262451,-0.068812497,-0.942456126
99.685016,13.333168030,13.221694946,-8.078979492,0.012947998,-0.071131833,-0.941113353
99.685641,13.722267151,13.328506470,-7.895874023,0.015633546,-0.070033200,-0.939892650
99.686268,14.035072327,13.290359497,-7.819580078,0.020150147,-0.068568356,-0.937085032
99.686895,14.370765686,13.725234985,-7.987426758,0.018441163,-0.067591794,-0.934521556
99.687520,14.454689026,13.526870728,-7.804321289,0.020638429,-0.068568356,-0.934521556
99.688145,14.798011780,13.641311646,-7.430480957,0.023079835,-0.062586911,-0.931347728
99.688771,15.171852112,14.083816528,-7.567810059,0.023446046,-0.061854493,-0.927807689
99.689397,15.248146057,14.007522583,-7.338928223,0.025521241,-0.055628907,-0.927319407
99.690022,15.408363342,14.266921997,-7.285522461,0.025032960,-0.056727540,-0.926464915
99.704019,17.048683167,20.545913696,-6.690429688,0.086800538,-0.005335938,-0.895336986
99.704855,16.468849182,21.392776489,-6.942199707,0.094002686,0.000645508,-0.891919017
99.705482,16.423072815,21.789505005,-6.850646973,0.098275147,-0.000819336,-0.894848704
99.706108,16.194190979,22.438003540,-6.949829102,0.098397218,0.003086914,-0.893505931
99.706735,16.018714905,22.895767212,-7.262634277,0.101571046,0.001500000,-0.897045970
99.707362,15.759315491,23.612930298,-7.079528809,0.101571046,0.005772461,-0.892895579
99.707989,15.515174866,23.872329712,-7.193969727,0.104012452,0.005772461,-0.891796947
99.708616,15.393104553,24.307205200,-7.476257324,0.102669679,0.007603515,-0.894848704
99.709241,14.973487854,24.734451294,-7.422851562,0.106087647,0.002476562,-0.891796947
99.709867,15.019264221,25.100662231,-7.415222168,0.108406983,0.002354492,-0.894970775
99.710494,14.798011780,25.489761353,-7.529663086,0.110115968,0.002842773,-0.896801829
99.711120,14.508094788,26.222183228,-7.369445801,0.110726319,0.005528320,-0.899243236
99.711746,14.065589905,26.359512329,-7.506774902,0.112679444,0.003941406,-0.899243236
99.712372,13.913002014,26.885940552,-7.750915527,0.113289796,-0.000086914,-0.897656322
99.712998,13.890113831,27.160598755,-7.865356445,0.118905030,-0.000331055,-0.901196361
99.713623,13.539161682,27.748062134,-7.987426758,0.112923585,0.002110351,-0.909619212
99.714248,13.409461975,28.114273071,-7.697509766,0.114876710,0.002964844,-0.912426829
99.714873,13.005104065,28.312637329,-7.979797363,0.119881593,0.003453125,-0.913037181
99.715499,12.860145569,28.793289185,-7.911132812,0.122567140,0.000035156,-0.916699290
99.716126,12.509193420,29.121353149,-8.033203125,0.121468507,0.000645508,-0.921826243
99.716752,12.448158264,29.693557739,-8.384155273,0.120125733,0.001744140,-0.922802806
99.717378,12.028541565,29.907180786,-7.934020996,0.123421632,-0.001917969,-0.931103587
99.718009,11.998023987,30.380203247,-8.323120117,0.123299561,-0.003993164,-0.934521556
99.718635,11.990394592,30.738784790,-8.239196777,0.121956788,-0.004969727,-0.939038157
99.719261,11.631813049,30.990554810,-8.368896484,0.118172608,-0.002528321,-0.943310618
99.719887,11.486854553,31.234695435,-8.124755859,0.121590577,-0.006556641,-0.943798900
99.720513,11.395301819,31.501724243,-8.460449219,0.117684327,-0.011317383,-0.950390697
99.721140,11.074867249,31.883193970,-8.521484375,0.118905030,-0.010951173,-0.956372142
99.721765,10.983314514,32.218887329,-8.323120117,0.115975343,-0.013880860,-0.961621165
99.722392,10.975685120,32.600357056,-8.582519531,0.114876710,-0.016322266,-0.964306712
99.724214,9.762611389,32.791091919,-8.498596191,0.112435304,-0.022791993,-0.972119212
99.724915,9.701576233,32.760574341,-8.346008301,0.109505616,-0.021693360,-0.978833079
99.725541,9.472694397,33.218338013,-8.712219238,0.111092530,-0.022547852,-0.985424876
99.726167,8.793678284,33.142044067,-8.437561035,0.108406983,-0.021815430,-0.987133861
99.726792,8.396949768,33.332778931,-8.567260742,0.107430421,-0.024623048,-0.991162181
99.727417,8.030738831,33.416702271,-8.513854980,0.105477296,-0.028163087,-0.997387767
99.728042,7.702674866,33.576919556,-8.658813477,0.103646241,-0.031703126,-0.999462962
99.728684,7.237281799,33.309890747,-8.361267090,0.101448976,-0.029994141,-1.005200267
99.729310,6.733741760,33.447219849,-8.315490723,0.099617921,-0.034876954,-1.010327220
99.729936,6.474342346,33.592178345,-8.300231934,0.101815186,-0.036585938,-1.013745189
99.730562,6.207313538,33.264114380,-8.185791016,0.096810304,-0.037806641,-1.019604564
99.731187,5.650367737,33.248855591,-8.292602539,0.095467530,-0.039515626,-1.026074290
99.731814,5.192604065,32.913162231,-8.002685547,0.094124757,-0.044642579,-1.028881907
99.732439,4.727210999,33.103897095,-7.918762207,0.094002686,-0.046107423,-1.035839915
99.733065,4.589881897,32.714797974,-8.094238281,0.090950929,-0.052699219,-1.042065501
99.733690,4.322853088,32.684280396,-7.895874023,0.088997804,-0.052699219,-1.046826243
99.734315,3.964271545,32.478286743,-7.766174316,0.092049561,-0.052699219,-1.050854564
99.734940,3.659095764,32.218887329,-7.766174316,0.086190186,-0.058924805,-1.056836009
99.748920,2.362098694,24.024917603,-5.057739258,0.082039796,-0.085780270,-1.096630931
99.749703,2.590980530,23.529006958,-4.836486816,0.080941163,-0.086024411,-1.091870189
99.750329,2.827491760,23.193313599,-4.729675293,0.082406007,-0.085291989,-1.093579173
99.750954,2.598609924,22.979690552,-4.325317383,0.081185304,-0.086634763,-1.090527415
99.751580,2.796974182,22.491409302,-4.485534668,0.081429444,-0.087855466,-1.089550853
99.752207,2.682533264,22.323562622,-4.348205566,0.082039796,-0.084315427,-1.087353587
99.752834,2.545204163,22.155715942,-4.027770996,0.085457765,-0.085780270,-1.083447337
99.753460,2.598609924,21.850540161,-3.753112793,0.084725343,-0.085536130,-1.085522532
99.754086,2.667274475,21.621658325,-3.737854004,0.080574952,-0.084437497,-1.083081126
99.754711,2.652015686,21.537734985,-3.722595215,0.080330811,-0.083949216,-1.082714915
99.755338,2.690162659,21.064712524,-3.463195801,0.081673585,-0.082850583,-1.077832103
99.755964,2.568092346,20.980789185,-3.417419434,0.082161866,-0.079310544,-1.080761790
99.756589,2.545204163,20.736648560,-3.318237305,0.081063233,-0.077967770,-1.078930736
99.757216,2.613868713,20.393325806,-2.974914551,0.083138429,-0.078089841,-1.075756907
99.757842,2.407875061,20.126296997,-2.784179688,0.082528077,-0.074671872,-1.075634837
99.758484,2.529945374,20.362808228,-2.707885742,0.079476319,-0.074305661,-1.073437572
99.759109,2.545204163,19.882156372,-2.494262695,0.080086671,-0.073939450,-1.071972728
99.759735,2.568092346,19.798233032,-2.425598145,0.082039796,-0.073329099,-1.069897532
99.760360,2.713050842,19.576980591,-2.196716309,0.080819093,-0.069056638,-1.070263743
99.760986,2.629127502,19.538833618,-2.280639648,0.079598390,-0.066615231,-1.071850657
99.761612,2.697792053,19.515945435,-2.036499023,0.079110108,-0.065394528,-1.071850657
99.762237,2.613868713,19.386245728,-1.914428711,0.078255616,-0.065272458,-1.071240306
99.762863,2.636756897,19.279434204,-1.922058105,0.078988038,-0.063685544,-1.069165111
99.763489,2.690162659,19.195510864,-1.815246582,0.077523194,-0.060755860,-1.070629954
99.764116,2.575721741,19.241287231,-1.639770508,0.077767335,-0.058680665,-1.067700267
99.764742,2.522315979,19.073440552,-1.677917480,0.078255616,-0.055628907,-1.068188548
99.765369,2.529945374,19.004776001,-1.571105957,0.076180421,-0.052088868,-1.063794017
99.765994,2.560462952,18.791152954,-1.540588379,0.073616944,-0.050990235,-1.067334056
99.766620,2.377357483,18.661453247,-1.426147461,0.073372804,-0.049281251,-1.066479564
99.767246,2.491798401,18.867446899,-1.326965332,0.072152101,-0.044764649,-1.066357493
99.769079,2.232398987,18.440200806,-1.464294434,0.074227296,-0.037440430,-1.068554759
99.769704,2.125587463,18.020584106,-1.204895020,0.072762452,-0.039515626,-1.064526439
99.770330,2.110328674,18.043472290,-1.319335938,0.071053468,-0.036708008,-1.066723704
99.770955,2.117958069,17.944290161,-1.212524414,0.072274171,-0.035975587,-1.065258861
99.771581,2.079811096,17.654373169,-1.037048340,0.072030030,-0.034388673,-1.065136790
99.772208,2.026405334,17.738296509,-1.288818359,0.075447999,-0.031336915,-1.067211986
99.772834,1.721229553,17.639114380,-0.998901367,0.072152101,-0.030482423,-1.069043040
99.773460,1.850929260,17.524673462,-1.174377441,0.072396241,-0.029627930,-1.066357493
99.774085,1.927223206,17.166091919,-0.914978027,0.074715577,-0.028529298,-1.067089915
99.774711,1.927223206,17.402603149,-0.884460449,0.072396241,-0.024867188,-1.066357493
99.781974,2.629127502,16.006423950,-1.159118652,0.074105226,-0.019984376,-1.051220775
99.782600,2.842750549,16.197158813,-1.326965332,0.073616944,-0.019007813,-1.054516673
99.783225,2.873268127,16.319229126,-1.250671387,0.074959718,-0.016932618,-1.048046947
99.783850,3.094520569,16.220046997,-1.227783203,0.073372804,-0.016810548,-1.046582103
99.784475,3.033485413,16.136123657,-1.365112305,0.075203858,-0.020594727,-1.044140697
99.785100,3.346290588,16.021682739,-1.250671387,0.076424561,-0.017542969,-1.041088939
99.785727,3.659095764,16.212417603,-1.349853516,0.072884522,-0.019251954,-1.038891673
99.799861,11.311378479,18.981887817,-2.898620605,0.044320069,-0.025355469,-1.037060618
99.800689,11.639442444,19.126846313,-2.921508789,0.044075929,-0.031336915,-1.039746165
99.801315,12.036170959,19.096328735,-2.959655762,0.042611085,-0.029383790,-1.043652415
99.801941,12.371864319,19.386245728,-2.829956055,0.036995851,-0.026942383,-1.049267650
99.802568,12.692298889,19.401504517,-3.051208496,0.036263429,-0.026209962,-1.051953197
99.803194,13.104286194,19.363357544,-3.234313965,0.030037843,-0.028529298,-1.057446361
99.803819,13.310279846,19.218399048,-3.089355469,0.026375733,-0.029994141,-1.060620189
99.804444,13.340797424,19.439651489,-3.219055176,0.026253663,-0.025965821,-1.064770579
99.805070,13.645973206,19.294692993,-3.241943359,0.021737061,-0.030238282,-1.068554759
99.805695,13.859596252,19.149734497,-3.272460938,0.018807374,-0.025355469,-1.070263743
99.806345,14.019813538,19.233657837,-3.257202148,0.021248780,-0.026454102,-1.076001048
99.806970,14.408912659,18.958999634,-3.386901855,0.014656982,-0.027674805,-1.083325267
99.807596,14.630165100,18.699600220,-3.394531250,0.017220460,-0.025721680,-1.085644603
99.808222,14.729347229,18.707229614,-3.478454590,0.014046631,-0.025599610,-1.086987376
99.808849,15.080299377,18.539382935,-3.554748535,0.012215576,-0.025965821,-1.093335032
99.809475,15.080299377,18.402053833,-3.714965820,0.009774170,-0.026942383,-1.094433665
99.810102,15.278663635,18.089248657,-3.646301270,0.005989990,-0.022669923,-1.098339915
99.810727,15.461769104,17.822219849,-3.707336426,0.002572021,-0.023890626,-1.103222728
99.811353,15.438880920,17.600967407,-3.516601562,0.002572021,-0.024012696,-1.105542064
99.811978,15.393104553,17.539932251,-3.890441895,-0.001822510,-0.022425782,-1.106518626
