time,gyro x,gyro y,gyro z,accel x,accel y,accel z
64.966846,0.080726624,-2.736076355,3.697803497,0.093970276,0.081770018,1.009241104
64.981093,1.362464905,-2.690299988,1.592090607,0.099585511,0.094221190,1.007776260
64.996386,2.918861389,-4.307731628,1.355579376,0.082007386,0.071516111,0.989953995
65.034664,-2.826072693,0.117317200,2.622058868,0.092139222,0.081525877,0.987024307
65.072956,3.468177795,2.795234680,-1.429149628,0.085425355,0.125959471,0.987268448
65.087192,4.208229065,0.475898743,-1.535961151,0.048071839,0.114729002,0.944543839
65.102510,-1.338340759,-3.872856140,6.192615509,0.055518128,0.081647947,0.934289932
65.140819,-1.918174744,-1.271232605,3.056934357,0.099585511,0.082624510,0.993249893
65.179132,-0.155784607,3.321662903,0.699451447,0.054175355,0.084333494,0.942956924
65.210492,-4.023887634,2.963081360,1.866748810,0.091040589,0.091657713,0.963708878
65.224827,-0.926353455,0.460639954,2.088001251,0.086035706,0.085187986,0.980920792
65.263015,-4.374839783,-4.826530457,3.598621368,0.070776917,0.098493651,0.954065323
65.301319,-0.285484314,-5.673393250,2.118518829,0.090552308,0.108625486,1.009363174
65.315572,1.949928284,-5.459770203,1.134326935,0.084204651,0.123518065,0.994470596
65.330867,3.376625061,-5.887016296,1.462390900,0.064063050,0.114606932,0.968469620
65.369161,-1.284934998,-8.458122253,5.368640900,0.100073792,0.077131346,0.965539932
65.407463,1.309059143,-1.393302917,-2.260753632,0.103247620,0.089704588,0.942590714
65.421701,-4.947044373,1.826301575,2.973011017,0.077124573,0.067121580,0.941370010
65.437014,-6.648399353,3.062263489,2.164295197,0.104468323,0.092268065,0.966638565
65.475308,-1.857139587,5.442634583,-0.742504120,0.130713433,0.058576658,0.999231339
65.513657,-5.145408630,4.313484192,-0.109264374,0.103857972,0.067731932,0.998620987
65.527911,-2.429344177,2.871528625,-1.864025116,0.101904847,0.073957518,1.005456924
65.543223,1.858375549,-0.889762878,0.157764435,0.086279847,0.023908691,0.983972549
65.581510,-5.313255310,-0.180229187,0.211170197,0.070044495,0.022565918,0.940149307
65.619837,-4.443504333,8.669868469,-3.641674042,0.099951722,0.065900877,1.010095596
65.634083,-1.887657166,9.837165833,-4.015514374,0.089575745,0.073713377,0.991662979
65.649378,-2.292015076,8.265510559,-1.490184784,0.058814026,0.050642088,0.938074112
65.687671,-6.839134216,4.549995422,-2.489635468,0.122778870,0.085065916,0.988977432
65.725986,-1.727439880,1.940742493,-4.107067108,0.065527894,0.079572752,0.951257706
65.740216,-7.396080017,1.513496399,-0.895092010,0.088232972,0.080061033,0.977380753
65.755527,-7.510520935,0.903144836,-1.558849335,0.098486878,0.103742674,1.005090714
65.756295,-7.510520935,0.903144836,-1.558849335,0.098486878,0.103742674,1.005090714
65.810628,-5.244590759,0.514045715,-2.543041229,0.071143128,0.070173338,0.971155167
65.860564,0.958106995,5.251899719,-5.373546600,0.107031800,0.095563963,1.060022354
65.874885,2.712867737,6.869331360,-7.593700409,0.090064026,0.089460447,1.022058487
65.890212,-0.010826111,6.937995911,-5.022594452,0.046362855,0.044172361,0.972131729
65.928515,0.385902405,-2.575859070,-3.710338593,0.046118714,0.085554197,0.995935440
65.966848,-0.399925232,-3.788932800,-3.832408905,0.030615784,0.081281736,0.935266495
65.981083,-6.183006287,-3.132804871,-1.787731171,0.045630433,0.067365721,0.995203018
66.008174,1.164100647,2.245918274,-4.480907440,0.051367737,0.076032713,1.049158096
66.046648,3.277442932,4.588142395,-1.482555389,0.012427308,-0.011735840,0.961633682
66.085011,2.613685608,-2.675041199,-2.283641815,0.016943909,0.037702635,1.030359268
66.099260,4.673622131,-5.162223816,-0.048229218,0.010596253,0.061750486,0.968103409
66.114580,2.140663147,-6.733879089,0.424793243,-0.015160583,0.046125486,0.946496964
66.152870,2.972267151,-9.343132019,3.606250763,0.049658753,0.031354979,1.050256729
66.191207,-3.993370056,-0.966056824,6.513050079,0.039282776,-0.051530764,1.015832901
66.205442,-4.710533142,1.803413391,7.115772247,0.056372620,-0.027482910,1.062585831
66.220785,3.574989319,6.732002258,3.484180450,0.081519105,-0.036638185,1.066370010
66.259098,-2.597190857,4.237190247,6.390979767,0.020606019,-0.030656738,0.966150284
66.297434,-3.589012146,-0.203117371,8.801868439,0.077368714,-0.007829590,1.008996964
66.311675,-1.345970154,0.849739075,6.795337677,0.082739808,0.000837402,1.004724503
66.327008,-0.995018005,3.153816223,2.957752228,0.047339417,-0.047502443,0.934900284
66.327777,-0.995018005,3.153816223,2.957752228,0.047339417,-0.047502443,0.934900284
66.328372,-0.995018005,3.153816223,2.957752228,0.047339417,-0.047502443,0.934900284
66.328993,-0.995018005,3.153816223,2.957752228,0.047339417,-0.047502443,0.934900284
66.329593,-0.995018005,3.153816223,2.957752228,0.047339417,-0.047502443,0.934900284
66.330221,-0.995018005,3.153816223,2.957752228,0.047339417,-0.047502443,0.934900284
66.330821,-0.995018005,3.153816223,2.957752228,0.047339417,-0.047502443,0.934900284
66.331441,-0.995018005,3.153816223,2.957752228,0.047339417,-0.047502443,0.934900284
66.332045,-0.995018005,3.153816223,2.957752228,0.047339417,-0.047502443,0.934900284
66.332665,-0.995018005,3.153816223,2.957752228,0.047339417,-0.047502443,0.934900284
66.333268,-0.995018005,3.153816223,2.957752228,0.047339417,-0.047502443,0.934900284
66.333893,-0.995018005,3.153816223,2.957752228,0.047339417,-0.047502443,0.934900284
66.371996,-5.717613220,-0.355705261,4.819324493,0.053809144,0.023664551,0.995935440
66.410313,-4.168846130,3.314033508,1.447132111,0.047461487,0.045637205,0.973840714
66.424569,-3.169395447,1.482978821,1.828601837,0.021582581,0.050153807,0.968957901
66.451914,-1.010276794,-4.811271667,5.940845490,0.045996644,0.032819822,0.983118057
66.490350,1.476905823,-4.292472839,4.697254181,0.050269105,0.017194824,0.935876846
66.528676,-2.787925720,-7.084831238,7.268360138,0.035132386,0.037702635,0.942834854
66.542904,-3.611900330,-5.093559265,7.550647736,0.049292542,0.033186033,0.958703995
66.558193,-3.291465759,1.246467590,5.361011505,0.046973206,0.039777830,0.971643448
66.596484,-3.131248474,6.144538879,6.940296173,0.054541565,0.017927246,0.953454971
66.634835,-1.605369568,12.888923645,3.590991974,0.067236878,0.023542481,0.956018448
66.649079,-2.246238708,13.484016418,3.903797150,0.053442933,0.026472168,0.940393448
66.664402,-4.794456482,10.905281067,6.307056427,0.071509339,0.035017088,0.971521378
66.702718,-1.658775330,6.106391907,6.390979767,0.094702698,0.002180176,0.991174698
66.741062,-5.008079529,-0.554069519,6.207874298,0.100562073,-0.001237793,1.014856339
66.755311,-2.124168396,-3.987297058,2.751758575,0.106177308,0.041120604,1.043298721
66.770600,-1.155235291,-5.467399597,2.438953400,0.086523987,0.044904783,1.036584854
66.808896,5.955360413,-4.719718933,1.035144806,0.053809144,0.043562010,1.041223526
66.847236,4.284523010,-12.562736511,5.368640900,0.086401917,-0.096574709,0.975793839
66.874883,0.393531799,-8.221611023,2.271106720,0.114844300,-0.041398928,0.957605362
66.889198,-3.627159119,-4.681571960,0.585010529,0.085913636,-0.053117678,0.966638565
66.927391,1.309059143,8.296028137,-0.551769257,0.066504456,-0.051774904,1.023157120
66.965701,0.645301819,20.945564270,-5.091259003,0.119482972,-0.098894045,1.025232315
66.979972,0.881813049,21.845832825,-5.076000214,0.109351136,-0.118181154,1.004480362
66.995319,-0.338890076,19.511238098,-8.089611053,0.092383362,-0.050554201,0.974451065
67.033646,-6.976463318,10.310188293,-4.046031952,0.107520081,-0.069230959,0.948083878
67.085465,-4.138328552,-2.079948425,-4.877635956,0.048193909,-0.084611818,0.997156143
67.099811,-5.702354431,-4.475578308,-2.176830292,0.036841370,-0.090104982,0.997400284
67.115164,-7.602073669,-6.550773621,2.179553986,0.072119690,-0.070329592,1.038660049
67.153455,-3.054954529,-4.498466492,0.737598419,0.087988831,-0.072770998,1.072229385
67.191769,-1.162864685,-2.232536316,3.850391388,0.088477112,-0.075212404,1.048913956
67.205994,-0.666954041,-1.278862000,1.393726349,0.115454651,-0.054948732,1.055017471
67.221322,1.774452209,-3.453239441,0.615528107,0.067725159,-0.065446779,1.051965714
67.259634,6.252906799,-8.992179871,0.592639923,0.051123597,-0.052873537,1.011560440
67.297935,3.239295959,-11.136039734,3.011157990,0.091406800,-0.046403810,1.023645401
67.312175,5.367897034,-12.761100769,2.965381622,0.089331605,-0.054704592,1.001550674
67.327525,4.948280334,-13.325675964,1.744678497,0.078101136,-0.038469240,0.982141495
67.365846,4.139564514,-9.854301453,3.148487091,0.106421448,-0.002092285,0.991785049
67.404157,1.988075256,-2.644523621,-3.397533417,0.099463440,0.022932129,0.930261612
67.418394,0.172279358,-2.797111511,-3.733226776,0.064917542,0.036726072,0.921350479
67.433728,-2.047874451,-4.773124695,1.157215118,0.083350159,0.062482908,0.940637589
67.472050,-3.337242126,4.275337219,-2.085277557,0.098853089,0.039899901,0.940637589
67.510350,-7.190086365,11.065498352,-3.046581268,0.092261292,0.102277830,0.965417862
67.524594,-4.390098572,10.966316223,-4.831859589,0.098120667,0.100935057,0.976282120
67.539944,0.286720276,10.905281067,-4.770824432,0.096167542,0.017927246,0.953210831
67.578236,-5.915977478,4.229560852,-3.786632538,0.074683167,0.019025879,0.989221573
67.616536,-0.407554626,2.764717102,-5.091259003,0.083960511,-0.026018066,1.014368057
67.630782,0.813148499,3.069892883,-6.403514862,0.054175355,-0.039323732,0.984704971
67.646095,0.515602112,-0.210746765,-4.793712616,0.034766175,-0.040666506,0.967126846
67.646845,0.515602112,-0.210746765,-4.793712616,0.034766175,-0.040666506,0.967126846
67.647416,0.515602112,-0.210746765,-4.793712616,0.034766175,-0.040666506,0.967126846
67.648042,-0.087120056,-5.299552917,-2.390453339,0.033301331,-0.032243654,0.964441299
67.648615,-0.087120056,-5.299552917,-2.390453339,0.033301331,-0.032243654,0.964441299
67.649236,-0.087120056,-5.299552917,-2.390453339,0.033301331,-0.032243654,0.964441299
67.649821,-0.087120056,-5.299552917,-2.390453339,0.033301331,-0.032243654,0.964441299
67.650437,-0.087120056,-5.299552917,-2.390453339,0.033301331,-0.032243654,0.964441299
67.651032,-0.087120056,-5.299552917,-2.390453339,0.033301331,-0.032243654,0.964441299
67.651649,-0.087120056,-5.299552917,-2.390453339,0.033301331,-0.032243654,0.964441299
67.652236,-0.087120056,-5.299552917,-2.390453339,0.033301331,-0.032243654,0.964441299
67.652860,-0.087120056,-5.299552917,-2.390453339,0.033301331,-0.032243654,0.964441299
67.653440,-0.087120056,-5.299552917,-2.390453339,0.033301331,-0.032243654,0.964441299
67.654071,-0.087120056,-5.299552917,-2.390453339,0.033301331,-0.032243654,0.964441299
67.705926,0.843666077,-16.209587097,-1.696178436,0.046118714,0.017438965,0.952722549
67.744369,3.689430237,-17.979606628,4.620960236,0.013037659,0.005720215,1.002649307
67.758609,4.261634827,-13.112052917,5.124500275,0.051367737,-0.068132326,0.972986221
67.773950,2.545021057,-8.465751648,2.835681915,0.068335511,-0.061052248,0.948450089
67.812251,-5.435325623,6.800666809,-2.375194550,0.035498597,0.012556152,0.970422745
67.865864,-6.266929626,17.436042786,-0.895092010,0.029273011,-0.075944826,0.988000870
67.880207,-9.982444763,14.239326477,3.308704376,-0.005517028,-0.125993654,1.003747940
67.895565,-10.646202087,11.981025696,6.329944611,0.034399964,-0.116350099,1.040857315
67.933893,-4.428245544,11.302009583,-0.032970428,0.061621644,-0.123308107,1.067712784
67.972231,3.445289612,-3.827079773,5.765369415,0.038306214,-0.105485842,1.058191299
67.986483,3.750465393,-9.083732605,6.680896759,0.048804261,-0.134538576,1.036951065
68.001797,3.590248108,-8.572563171,4.849842072,0.075781800,-0.102312014,1.030237198
68.040101,3.109596252,-6.558403015,2.561023712,0.006690003,-0.052751467,0.975427628
68.078426,0.759742737,-6.291374207,5.002429962,0.029028870,-0.035539553,0.975915909
68.092672,1.301429749,-4.940971375,3.873279572,0.022803284,-0.031511232,0.972253799
68.107998,-2.307273865,-1.278862000,5.093982697,0.020239808,-0.037980959,0.954065323
68.146281,-1.292564392,9.226814270,1.759937286,0.052588440,-0.052263185,1.006433487
68.184610,-1.811363220,11.149421692,4.834583282,0.065405823,-0.027727051,1.015344620
68.198880,-1.834251404,12.644783020,4.674365997,0.087256409,-0.047502443,1.017663956
68.214226,-2.528526306,14.872566223,2.828052521,0.108740784,-0.057390139,1.020837784
68.252530,-2.925254822,16.764656067,-4.030773163,0.049292542,-0.005144043,0.999475479
68.290852,-2.337791443,8.387580872,1.744678497,0.098975159,0.010114746,1.030969620
68.323800,-2.108909607,5.122200012,-0.490734100,0.072485901,0.003034668,1.026086807
68.338147,0.187538147,0.475898743,-0.231334686,0.071997620,0.031721190,1.022912979
68.376315,3.643653870,-2.476676941,1.737049103,0.107153870,-0.016862793,1.010705948
68.414648,3.658912659,-7.458671570,-1.436779022,0.054663636,0.028425293,0.983362198
68.428893,1.972816467,-9.381278992,1.202991486,0.057227112,0.016828613,0.987024307
68.444174,1.133583069,-8.687004089,1.561573029,0.090430237,0.009870606,1.022058487
68.482471,1.652381897,-1.873954773,-2.085277557,0.098242737,0.026350098,1.052087784
68.520806,8.602760315,-0.828727722,-1.291820526,0.078711487,-0.058000490,1.023279190
68.535044,10.716102600,-3.529533386,-3.504344940,0.109717347,-0.132707521,1.001672745
68.550347,10.876319885,-5.948051453,-4.725048065,0.083960511,-0.153947756,0.987634659
68.551110,10.876319885,-5.948051453,-4.725048065,0.083960511,-0.153947756,0.987634659
68.551694,10.876319885,-5.948051453,-4.725048065,0.083960511,-0.153947756,0.987634659
68.552331,10.876319885,-5.948051453,-4.725048065,0.083960511,-0.153947756,0.987634659
68.552913,10.609291077,-9.686454773,-3.489086151,0.070532776,-0.168596193,0.959070206
68.553542,10.609291077,-9.686454773,-3.489086151,0.070532776,-0.168596193,0.959070206
68.554140,10.609291077,-9.686454773,-3.489086151,0.070532776,-0.168596193,0.959070206
68.554783,10.609291077,-9.686454773,-3.489086151,0.070532776,-0.168596193,0.959070206
68.555371,10.609291077,-9.686454773,-3.489086151,0.070532776,-0.168596193,0.959070206
68.555998,10.609291077,-9.686454773,-3.489086151,0.070532776,-0.168596193,0.959070206
68.556593,10.609291077,-9.686454773,-3.489086151,0.070532776,-0.168596193,0.959070206
68.557231,10.609291077,-9.686454773,-3.489086151,0.070532776,-0.168596193,0.959070206
68.557823,10.609291077,-9.686454773,-3.489086151,0.070532776,-0.168596193,0.959070206
68.558453,10.609291077,-9.686454773,-3.489086151,0.070532776,-0.168596193,0.959070206
68.559052,10.609291077,-9.686454773,-3.489086151,0.070532776,-0.168596193,0.959070206
68.559685,10.609291077,-9.686454773,-3.489086151,0.070532776,-0.168596193,0.959070206
68.560284,10.609291077,-9.686454773,-3.489086151,0.070532776,-0.168596193,0.959070206
68.560916,10.609291077,-9.686454773,-3.489086151,0.070532776,-0.168596193,0.959070206
68.598988,2.766273499,-23.251518250,-0.467845917,0.092383362,-0.036149904,0.948938370
68.637304,1.408241272,-11.776908875,-3.458568573,0.057471253,-0.018693848,0.928674698
68.651567,1.179359436,-7.725700378,-3.099987030,0.053442933,-0.023088379,0.928552628
68.666854,-0.071861267,0.956550598,-1.757213593,0.076636292,-0.070695803,0.928186417
68.720656,-5.442955017,31.329170227,-11.080333710,0.106909730,-0.156755373,0.880701065
68.759087,-3.192283630,24.127021790,-9.089061737,0.069556214,-0.116350099,0.921594620
68.773363,-5.694725037,12.805000305,-7.433483124,0.061987855,-0.128557131,0.902551651
68.788716,-6.427146912,6.091133118,-6.533214569,0.048926331,-0.113298342,0.920007706
68.827045,-3.505088806,-19.581779480,-1.383373260,0.049048401,-0.083146974,0.982263565
68.865349,-4.351951599,-22.984489441,0.180652618,0.028662659,-0.102434084,0.952356339
68.879602,-6.778099060,-21.397575378,2.866199493,0.048315980,-0.100358889,0.998010635
68.894949,-1.498558044,-14.164909363,0.585010529,0.086768128,-0.041276857,1.041589737
68.933242,-2.292015076,1.376167297,0.173023224,0.058447815,-0.066545412,0.989709854
68.993676,2.094886780,9.516731262,-3.901073456,0.087500550,-0.043352053,1.045007706
69.008022,2.766273499,7.685676575,-3.466197968,0.061377503,-0.052629396,1.015710831
69.023387,-0.094749451,1.467720032,1.660755157,0.062598206,-0.063493654,1.009973526
69.061689,4.017494202,-7.176383972,0.821521759,0.103003480,-0.031022949,1.082605362
69.100029,2.148292542,-4.261955261,2.225330353,0.042944886,-0.041520998,1.012781143
69.114259,1.438758850,-2.278312683,2.873828888,0.082007386,-0.006486816,1.040979385
69.129562,4.963539124,1.666084290,-0.155040741,0.084570862,-0.052141115,1.052698135
69.130314,4.963539124,1.666084290,-0.155040741,0.084570862,-0.052141115,1.052698135
69.130899,4.963539124,1.666084290,-0.155040741,0.084570862,-0.052141115,1.052698135
69.131510,4.963539124,1.666084290,-0.155040741,0.084570862,-0.052141115,1.052698135
69.132095,4.963539124,1.666084290,-0.155040741,0.084570862,-0.052141115,1.052698135
69.132702,4.963539124,1.666084290,-0.155040741,0.084570862,-0.052141115,1.052698135
69.133287,4.963539124,1.666084290,-0.155040741,0.084570862,-0.052141115,1.052698135
69.133884,4.963539124,1.666084290,-0.155040741,0.084570862,-0.052141115,1.052698135
69.134469,4.963539124,1.666084290,-0.155040741,0.084570862,-0.052141115,1.052698135
69.135090,4.963539124,1.666084290,-0.155040741,0.084570862,-0.052141115,1.052698135
69.135679,4.963539124,1.666084290,-0.155040741,0.084570862,-0.052141115,1.052698135
69.136297,4.963539124,1.666084290,-0.155040741,0.084570862,-0.052141115,1.052698135
69.136884,4.963539124,1.666084290,-0.155040741,0.084570862,-0.052141115,1.052698135
69.137498,4.963539124,1.666084290,-0.155040741,0.084570862,-0.052141115,1.052698135
69.138089,4.963539124,1.666084290,-0.155040741,0.084570862,-0.052141115,1.052698135
69.138708,4.963539124,1.666084290,-0.155040741,0.084570862,-0.052141115,1.052698135
69.176785,6.710670471,10.462776184,-1.108715057,0.038794495,-0.015520019,0.987146378
69.215107,5.489967346,10.195747375,-3.405162811,0.087744690,0.001936035,1.017786026
69.229364,8.389137268,6.098762512,-1.459667206,0.056128480,0.018903809,0.982263565
69.244698,7.244728088,4.580513000,-1.520702362,0.073096253,0.010114746,0.974084854
69.283039,7.443092346,-2.995475769,1.515796661,0.050879456,0.036726072,0.972253799
69.321329,10.540626526,-8.160575867,2.499988556,0.028906800,0.084089354,0.938318253
69.335572,11.608741760,-7.161125183,0.920703888,0.038916565,0.076154783,0.890222549
69.350889,2.636573792,-6.810173035,0.768115997,-0.010277770,0.019880371,0.888757706
69.389189,8.007667542,-1.507743835,2.202442169,-0.001976989,0.006452637,0.958703995
69.427474,2.186439514,8.173957825,3.499439240,0.039404847,-0.074235842,0.896692276
69.441698,0.698707581,8.952156067,3.774097443,0.026099183,-0.060563967,0.893884659
69.457007,-0.964500427,9.226814270,5.536487579,0.022925355,-0.074846193,0.908655167
69.457755,-2.040245056,9.524360657,7.420948029,0.038550355,-0.076066896,0.926599503
69.458346,-2.040245056,9.524360657,7.420948029,0.038550355,-0.076066896,0.926599503
69.458959,-2.040245056,9.524360657,7.420948029,0.038550355,-0.076066896,0.926599503
69.459534,-2.040245056,9.524360657,7.420948029,0.038550355,-0.076066896,0.926599503
69.460151,-2.040245056,9.524360657,7.420948029,0.038550355,-0.076066896,0.926599503
69.460725,-2.040245056,9.524360657,7.420948029,0.038550355,-0.076066896,0.926599503
69.514871,-3.909446716,12.187019348,7.436206818,0.045752503,-0.014665527,0.984216690
69.553291,1.019142151,-2.713188171,11.517932892,0.042822815,-0.015764160,1.014245987
69.567569,-0.285484314,-6.215080261,12.082508087,0.066260315,-0.064958498,1.017786026
69.582945,-1.567222595,-5.658134460,10.335376740,0.081885315,-0.041887209,1.032068253
69.637325,1.263282776,-11.441215515,7.634571075,0.070776917,-0.028825684,1.051355362
69.675758,-2.665855408,-3.033622742,8.016040802,0.093848206,-0.041887209,1.046716690
69.689985,-0.827171326,3.466621399,4.086902618,0.089453675,-0.033830568,1.057092667
69.705299,-0.384666443,5.389228821,3.514698029,0.095190980,-0.042741701,1.041955948
69.743626,-3.276206970,7.342353821,4.247119904,0.098120667,-0.032731935,1.077722549
69.781940,-2.627708435,10.264411926,0.394275665,0.091040589,-0.047868654,1.056970596
69.796191,3.147743225,9.425178528,-4.435131073,0.090918519,-0.015642090,1.036218643
69.811526,3.460548401,7.494941711,-4.076549530,0.059790589,-0.056901857,0.994470596
69.849850,0.301979065,0.376716614,-4.305431366,0.036597230,-0.034318849,0.976037979
69.888153,2.483985901,-2.545341492,-3.733226776,0.031470276,-0.005266113,0.964807510
69.902398,2.110145569,-3.293022156,-2.306529999,0.023291565,-0.003190918,0.941370010
69.917720,0.607154846,-3.666862488,-1.848766327,0.048926331,0.006330566,0.939783096
69.956034,0.805519104,-3.376945496,-3.969738007,0.039160706,0.013166504,0.937097549
69.994340,-4.657127380,-7.130607605,-0.475475311,0.043921448,-0.009904785,0.923181534
70.008589,-5.320884705,-6.779655457,-1.833507538,0.047827698,-0.003923340,0.943323135
70.023913,-5.229331970,-6.291374207,-2.321788788,0.045508362,-0.004655762,0.956506729
70.062231,-4.199363708,-7.321342468,-0.895092010,-0.010033630,0.031110840,0.921472549
70.100523,-5.145408630,-4.246696472,-2.504894257,0.041480042,0.028425293,0.973718643
70.114783,-4.672386169,-1.744255066,-3.161022186,0.024390198,0.031965330,0.954797745
70.130106,-5.595542908,-1.133903503,-2.146312714,0.008643128,0.032819822,0.946252823
70.168418,-6.434776306,1.040473938,-2.726146698,0.052344300,0.019758301,0.973840714
70.206712,-6.587364197,-0.782951355,-3.519603729,0.039038636,-0.002824707,0.941125870
70.220968,-9.425498962,-1.713737488,-0.299999237,0.056372620,0.003156738,0.965051651
70.236287,-8.899070740,-0.645622253,-3.458568573,0.090308167,0.024519043,1.019372940
70.286110,-3.505088806,7.304206848,-11.232921600,0.040381409,-0.010393066,0.984949112
70.324549,-1.941062927,6.571784973,-10.500499725,0.095557190,-0.035905764,1.041345596
70.338807,0.355384827,5.435005188,-10.721752167,0.096533753,-0.079362795,1.037561417
70.354131,3.292701721,-1.851066589,-13.208934784,0.059790589,-0.080339357,0.961145401
70.392450,-2.498008728,-19.772514343,-8.059093475,0.093604065,-0.035905764,0.959070206
70.430758,-5.122520447,-17.857536316,-12.240001678,0.051123597,0.001813965,0.916955948
70.445009,-9.227134705,-16.079887390,-7.517406464,0.025122620,-0.029191894,0.936975479
70.460347,-10.073997498,-13.417228699,-5.968639374,0.050635315,-0.031999514,0.967248917
70.498643,-5.549766541,5.473152161,-10.111400604,0.070044495,-0.161760256,0.957361221
70.536964,-7.533409119,6.777778625,-5.526134491,0.075781800,-0.139909670,0.952356339
70.551202,-8.326866150,6.701484680,-5.541393280,0.107031800,-0.156511232,0.960779190
70.566538,-8.662559509,6.884590149,-7.502147675,0.103735901,-0.125139162,0.947839737
70.604858,-15.780784607,7.693305969,-4.313060760,0.099097230,-0.113176271,0.985681534
70.643197,-10.905601501,15.261665344,-8.081981659,0.133521050,-0.165544435,1.028039932
70.657450,-10.890342712,16.482368469,-9.981700897,0.123755433,-0.138322756,1.023523331
70.672792,-12.851097107,14.285102844,-8.966991425,0.086890198,-0.154191896,1.055017471
70.711116,-4.298545837,3.367439270,-9.996959686,0.109473206,-0.115861818,1.115564346
70.749447,-2.002098083,-8.946403503,-7.021495819,0.028540589,-0.174333498,0.983118057
70.763679,-9.051658630,-11.853202820,-3.420421600,0.092383362,-0.085222170,1.074670792
70.779007,-5.893089294,-10.838493347,-6.945201874,0.104834534,-0.064470217,1.108484268
70.829122,-5.977012634,-8.343681335,-3.634044647,0.023535706,-0.119523928,1.021692276
70.867520,-3.543235779,-2.255424500,-2.855846405,0.038184144,-0.123552248,1.082483292
70.896116,-0.300743103,0.239387512,-3.450939178,0.007422425,-0.148820803,1.024499893
70.910439,-4.077293396,-0.760063171,1.889636993,0.090308167,-0.103654787,1.073328018
70.948633,1.461647034,2.490058899,-2.718517303,0.052954651,-0.147966310,1.046838760
70.986942,0.378273010,3.047004700,2.049854279,0.059668519,-0.105241701,1.020837784
71.001173,3.132484436,-0.424369812,-1.726696014,0.059180237,-0.095598146,1.020471573
71.016469,4.391334534,-2.926811218,0.821521759,0.042334534,-0.106828615,1.007043839
71.054793,-0.003196716,-2.217277527,2.454212189,0.030859925,-0.114885256,0.977869034
71.093110,2.133033752,0.994697571,2.026966095,0.023901917,-0.160417482,0.959558487
71.107366,1.484535217,2.291694641,5.063465118,0.052954651,-0.159440920,0.969812393
71.122658,3.086708069,10.096565247,0.554492950,0.087378480,-0.171647951,0.953943253
71.160973,-0.071861267,16.428962708,-1.909801483,0.038916565,-0.128190920,0.887292862
71.199284,0.866554260,6.678596497,1.874378204,0.018164612,-0.054094240,0.840784073
71.213533,-1.101829529,4.305854797,2.553394318,-0.000634216,-0.077287599,0.808191299
71.228833,-8.410789490,-4.597648621,7.138660431,0.010596253,-0.030656738,0.854333878
71.267120,-8.906700134,-9.373649597,9.419849396,0.078223206,-0.019548340,0.927576065
71.305442,-14.857627869,3.298774719,7.756641388,0.066504456,-0.042253420,1.015100479
71.319688,-10.089256287,9.638801575,4.575183868,0.041357972,-0.046403810,1.081506729
71.335004,-6.068565369,10.294929504,8.077075958,0.049414612,-0.065568849,1.085779190
71.373305,-2.681114197,11.599555969,3.545215607,0.083350159,-0.074602053,1.049158096
71.411642,-5.267478943,-1.881584167,6.085803986,0.108130433,-0.118425295,1.100671768
71.425894,-1.780845642,-4.658683777,4.300525665,0.133887261,-0.100725099,1.129968643
71.441192,-0.186302185,-4.261955261,-0.628063202,0.140479058,-0.221208498,1.055749893
71.441943,-0.186302185,-4.261955261,-0.628063202,0.140479058,-0.221208498,1.055749893
71.442499,-0.186302185,-4.261955261,-0.628063202,0.140479058,-0.221208498,1.055749893
71.443127,-0.186302185,-4.261955261,-0.628063202,0.140479058,-0.221208498,1.055749893
71.443694,-0.186302185,-4.261955261,-0.628063202,0.140479058,-0.221208498,1.055749893
71.444313,-0.186302185,-4.261955261,-0.628063202,0.140479058,-0.221208498,1.055749893
71.444880,-0.186302185,-4.261955261,-0.628063202,0.140479058,-0.221208498,1.055749893
71.445501,-0.186302185,-4.261955261,-0.628063202,0.140479058,-0.221208498,1.055749893
71.446083,-5.603172302,-2.766593933,-1.192638397,0.100928284,-0.198991701,1.064661026
71.446706,-5.603172302,-2.766593933,-1.192638397,0.100928284,-0.198991701,1.064661026
71.447284,-5.603172302,-2.766593933,-1.192638397,0.100928284,-0.198991701,1.064661026
71.447907,-5.603172302,-2.766593933,-1.192638397,0.100928284,-0.198991701,1.064661026
71.448482,-5.603172302,-2.766593933,-1.192638397,0.100928284,-0.198991701,1.064661026
71.486623,-4.298545837,2.207771301,-3.664562225,0.105933167,-0.165178224,1.102502823
71.537140,-3.154136658,7.334724426,-8.493968964,0.094458558,-0.167741701,1.145837784
71.551479,-4.573204041,8.181587219,-7.914134979,0.080786683,-0.202653810,1.136438370
71.566848,-4.573204041,8.738533020,-6.632396698,0.097266175,-0.135759279,1.188196182
71.605151,2.781532288,4.801765442,-11.393138885,0.061499573,-0.126237795,1.127893448
71.643462,3.452919006,-3.705009460,-4.145214081,0.047339417,-0.153459474,1.074426651
71.657699,3.483436584,-7.748588562,-8.074352264,0.063330628,-0.097062990,1.067956924
71.673000,4.551551819,-11.425956726,-6.937572479,0.030127503,-0.079606935,1.051233292
71.711299,-5.038597107,-18.246635437,-0.994274139,0.027564026,-0.070207521,1.055261612
71.749630,2.796791077,-7.313713074,-3.771373749,0.042456605,-0.085222170,0.973474503
71.763874,-1.353599548,-5.909904480,-2.665111542,0.016821839,-0.087907717,0.949060440
71.779170,-6.747581482,-8.000358582,2.606800079,0.032324769,-0.092668459,0.983606339
71.830957,-2.177574158,6.091133118,-3.321239471,0.030615784,-0.093645021,0.987268448
71.869346,-11.752464294,0.002876282,2.255847931,0.078955628,-0.033098146,1.089441299
71.883599,-5.977012634,3.222480774,-0.200817108,0.047827698,-0.193620607,1.033411026
71.898942,-8.601524353,4.664436340,1.302173615,0.038794495,-0.153947756,1.030725479
71.937235,-7.251121521,-6.131156921,8.740833282,0.019263245,-0.156022951,1.051355362
71.975531,-0.552513123,-7.603630066,0.333240509,0.010840394,-0.194475099,1.067834854
71.989794,-1.025535583,-8.679374695,3.453662872,0.009863831,-0.164567873,1.061365128
72.005127,-1.033164978,-12.494071960,2.599170685,0.017920472,-0.153581545,1.080041885
72.043451,1.316688538,-16.797050476,5.620410919,0.064917542,-0.208024904,1.077966690
72.081778,2.194068909,-4.834159851,7.062366486,0.062964417,-0.180681154,1.087854385
72.096020,1.301429749,6.022468567,3.476551056,0.070166565,-0.182390139,1.139368057
72.111331,4.940650940,10.363594055,2.248218536,0.089331605,-0.159074709,1.129358292
72.163393,4.826210022,30.558601379,-0.330516815,0.083472230,-0.113664553,1.104455948
72.201875,9.327552795,27.743354797,0.134876251,0.053931214,-0.103898928,0.977014542
72.216136,6.893775940,25.729194641,-0.185558319,0.053198792,-0.121965334,0.945398331
72.231441,2.071998596,22.440925598,0.119617462,0.041724183,-0.085222170,0.948328018
72.269749,-0.293113708,18.023506165,0.546863556,0.060278870,-0.079484865,0.996301651
72.308077,-3.405906677,21.777168274,-1.085826874,0.010596253,-0.090959474,0.927698135
72.322320,-6.839134216,22.845283508,0.310352325,0.026831605,-0.118425295,1.026208878
72.337624,-4.710533142,24.004951477,1.187732697,0.049902894,-0.068620607,1.068078995
72.375925,2.560279846,30.337348938,-6.220409393,0.032690980,-0.118181154,0.924890518
72.414252,5.268714905,8.296028137,-1.963207245,0.030981995,-0.062272951,1.108484268
72.428480,9.045265198,5.038276672,-2.848217010,0.012549378,-0.103898928,1.070276260
72.443776,11.013648987,0.720039368,-2.604076385,0.004736878,-0.098649904,1.029504776
72.482073,14.706275940,-31.628593445,5.391529083,-0.023705505,-0.056657717,1.081872940
72.520399,26.753089905,-39.853080750,3.865650177,0.009253480,-0.116838381,0.968469620
72.534648,22.350929260,-38.357719421,0.729969025,0.013281800,-0.167375490,0.948694229
72.549971,19.116065979,-36.587699890,1.019886017,-0.029076599,-0.064714357,1.037317276
72.588258,29.278419495,-34.314140320,2.820423126,-0.014306091,-0.070451662,0.967370987
72.626594,17.368934631,-18.116935730,4.407337189,-0.002953552,-0.144548342,0.884485245
72.640840,16.026161194,-1.072868347,-0.986644745,0.091895081,-0.064104006,0.971643448
72.656137,18.368385315,8.105293274,-7.174083710,0.060156800,-0.070207521,0.948572159
72.694436,13.767860413,31.977668762,-10.172435760,-0.020043395,-0.002458496,0.800622940
72.732753,1.934669495,30.596748352,-8.951732635,0.008521058,0.023176270,0.894250870
72.746991,4.444740295,27.544990540,-7.517406464,-0.045311950,0.045881346,0.870203018
72.776262,7.046363831,12.782112122,0.905445099,-0.026268981,-0.034562990,0.816247940
72.814703,6.329200745,-6.749137878,-0.940868378,0.014014222,-0.009416504,0.898767471
72.853037,3.460548401,-35.664543152,8.359363556,-0.041405700,-0.019670410,0.850061417
72.867275,1.507423401,-38.273796082,10.289600372,-0.029320739,-0.054826662,0.870569229
72.882611,-0.094749451,-34.680351257,7.443836212,0.042456605,-0.068254396,0.906213760
72.920907,0.660560608,-29.705986023,8.550098419,-0.039940856,-0.011003418,0.884729385
72.959223,-6.518699646,-9.594902039,6.383350372,0.062354065,-0.029558105,0.977014542
72.973455,-4.710533142,-2.819999695,2.698352814,0.050635315,-0.014909668,0.965173721
72.988786,-3.665306091,4.015937805,4.132678986,0.029517151,-0.068742678,0.958703995
73.027091,-7.693626404,19.473091125,3.606250763,0.085913636,-0.097307131,0.989221573
73.065436,-4.741050720,30.764595032,-0.315258026,0.051978089,-0.092912599,1.014245987
73.079685,-0.132896423,31.786933899,-3.794261932,0.054785706,-0.069475099,1.003259659
73.095044,1.179359436,30.375495911,-3.870555878,0.024268128,-0.088762209,0.970300674
73.147513,2.957008362,16.901985168,-0.963756561,0.041846253,-0.087785646,0.990076065
73.185910,3.414772034,1.154914856,-1.177379608,-0.017846130,-0.081437990,0.898523331
73.200168,2.117774963,-3.216728210,2.080371857,-0.020287536,-0.037980959,0.928674698
73.215483,4.307411194,-6.123527527,3.232410431,0.006323792,-0.008806152,0.946741104
73.253793,4.254005432,-15.164360046,3.156116486,0.044165589,-0.025163574,0.947351456
73.292106,4.353187561,-20.955070496,7.810047150,-0.002587341,-0.041032717,0.932336807
73.306364,1.873634338,-11.982902527,5.963733673,0.072852112,-0.039567873,0.983240128
73.321722,3.239295959,-4.948600769,0.844409943,0.082739808,-0.033220217,0.985803604
73.360027,-1.796104431,4.511848450,-5.060741425,0.000220276,-0.027360840,0.941858292
73.413778,-2.299644470,12.637153625,-3.435680389,0.013525940,0.020734863,0.891931534
73.428110,-7.388450623,12.316719055,-4.190990448,0.007422425,-0.044938967,0.893274307
73.443467,-10.806419373,11.233345032,-2.329418182,0.021582581,-0.055803224,0.938074112
73.481816,-5.580284119,20.625129700,-8.944103241,0.010596253,-0.030290527,0.929895401
73.520143,-9.608604431,12.309089661,-7.753917694,-0.059716247,0.018171387,0.948083878
73.534385,-6.434776306,7.304206848,-7.593700409,0.033179261,0.012434082,0.971277237
73.549713,-5.771018982,6.861701965,-12.362071991,-0.015404724,-0.006853027,0.938074112
73.588042,-9.623863220,-8.847221375,-7.998058319,-0.082543395,0.043806151,0.954919815
73.626347,-5.351402283,-27.043327332,3.552845001,0.006079651,-0.029802246,0.998376846
73.640584,-4.275657654,-23.449882507,-1.085826874,0.013770081,-0.033220217,0.982629776
73.655935,-10.348655701,-19.658073425,-3.382274628,-0.059472106,-0.105363771,0.954187393
73.694233,-2.261497498,-9.404167175,-0.322887421,0.037695862,-0.137224123,1.071008682
73.732536,-2.681114197,14.895454407,-7.273265839,0.071875550,-0.049943849,1.047204971
73.746789,-4.107810974,16.276374817,-8.844921112,-0.045434020,-0.040056154,1.001550674
73.762123,-4.779197693,14.369026184,-0.299999237,-0.028100036,-0.050920412,1.038415909
73.800436,-1.155235291,19.801155090,-3.191539764,0.076514222,-0.096574709,1.029260635
73.838749,-1.574851990,16.436592102,-2.756664276,-0.025414489,-0.019060059,1.008508682
73.852992,0.691078186,10.066047668,5.155017853,0.069190003,-0.029191894,1.050622940
73.868323,4.032752991,10.043159485,0.066211700,0.092017151,-0.023088379,1.033411026
73.906639,0.683448792,10.401741028,0.157764435,0.081641175,-0.038225099,1.027429581
73.944962,6.458900452,-1.660331726,-2.268383026,0.041480042,-0.024797363,1.000085831
73.959192,6.985328674,-5.085929871,-3.550121307,0.022681214,-0.028825684,0.980676651
73.974504,3.826759338,-11.227592468,0.371387482,-0.008202575,-0.046281740,0.967004776
74.028554,6.062171936,-10.296806335,-4.114696503,0.038428284,-0.074113771,0.988367081
74.067022,1.377723694,-11.227592468,-1.284191132,-0.012963317,-0.077897951,0.974817276
74.081271,1.972816467,-15.881523132,2.622058868,0.040503480,0.001691895,1.037439346
74.096573,5.825660706,-15.858634949,0.241687775,0.040015198,-0.004167480,1.030481339
74.134856,2.468727112,-15.156730652,0.859668732,-0.017846130,-0.012834473,0.971765518
74.173179,10.960243225,-20.123466492,2.866199493,0.003149964,-0.029069824,1.013147354
74.187422,10.540626526,-19.131645203,4.651477814,0.009375550,-0.005876465,0.987390518
74.202754,9.739540100,-18.338188171,1.912525177,0.006445862,0.008283691,0.947107315
74.241060,5.726478577,-16.392692566,8.397510529,0.080786683,-0.063737795,1.007410049
74.279363,5.604408264,5.396858215,1.439502716,0.049536683,-0.042985842,0.950891495
74.293602,0.721595764,11.424079895,1.355579376,0.014502503,-0.024187012,0.966272354
74.308946,1.713417053,11.050239563,2.347400665,0.018530823,-0.003435059,0.994104385
74.347233,5.062721252,6.075874329,0.722339630,0.026099183,-0.068986818,0.972497940
74.385526,2.590797424,-7.191642761,5.284717560,0.049414612,-0.027604980,0.993249893
74.399785,6.054542542,-10.312065125,7.001331329,0.040259339,-0.063005373,0.994226456
74.415111,4.696510315,-8.946403503,5.841663361,0.067847230,-0.089372560,0.974451065
74.469362,4.658363342,-6.459220886,4.384449005,0.055518128,0.001203613,1.047937393
74.507755,2.735755920,5.976692200,-0.200817108,0.061865784,-0.024675293,0.972253799
74.522002,-0.918724060,8.082405090,-0.414440155,0.050024964,0.007185059,0.989221573
74.537320,0.378273010,6.182685852,-1.360485077,0.051245667,0.025129395,1.009851456
74.575620,5.131385803,-7.176383972,-1.963207245,0.066626526,-0.107683107,0.946619034
74.613919,-1.399375916,-20.901664734,1.645496368,0.017554261,-0.019792480,0.995325089
74.645517,0.126502991,-26.379570007,6.329944611,0.005347230,-0.045793459,0.998132706
74.659862,-0.239707947,-19.841178894,5.353382111,0.059790589,-0.050187990,0.991296768
74.698092,-4.138328552,6.854072571,2.629688263,0.074805237,-0.021867676,1.069665909
74.736429,0.668190002,27.178779602,-1.856395721,0.077246644,-0.061296389,1.036462784
74.750671,-1.109458923,32.458320618,-3.855297089,0.042334534,-0.066667482,0.998865128
74.766002,-2.314903259,32.954231262,-1.429149628,0.042822815,-0.092180178,1.019006729
74.804309,1.087806702,25.820747375,-0.681468964,0.051611878,-0.120988771,1.032922745
74.842643,0.813148499,7.639900208,-3.183910370,0.011328675,-0.048112795,0.982873917
74.856890,2.415321350,-6.886466980,6.139209747,0.041846253,-0.122575685,1.011072159
74.872179,2.033851624,-10.037406921,5.978992462,0.090918519,-0.136735842,1.031946182
74.910464,1.186988831,2.734199524,-5.205699921,0.092505433,-0.090104982,1.027795792
74.948751,7.519386292,-13.394340515,3.758838654,-0.014184020,0.003156738,0.987512589
74.962999,6.146095276,-15.339836121,6.680896759,0.041968323,-0.035051271,0.970911026
74.978323,0.958106995,-6.817802429,3.697803497,0.119727112,-0.086564943,0.999597549
75.016634,-4.229881287,20.693794250,-8.814403534,0.071631409,-0.037370607,1.037317276
75.054937,0.248573303,22.578254700,-7.319042206,0.062354065,0.004011231,1.039392471
75.069177,-2.070762634,22.700325012,-7.898876190,0.080176331,0.020856934,1.015710831
75.084471,-2.154685974,21.403327942,-10.660717010,0.071875550,0.055646971,1.016077042
75.122796,-1.612998962,-3.872856140,-2.802440643,0.044775940,0.003278809,1.023889542
75.161102,-2.124168396,-7.473930359,-6.807872772,0.033789612,0.061872557,1.066614151
75.175366,-1.231529236,-10.258659363,-5.716869354,0.004248597,0.030988770,1.049768448
75.190657,-2.055503845,-12.265190125,-3.237316132,0.006812073,0.023420410,1.065759659
75.228957,7.191322327,-4.879936218,-6.701061249,0.045264222,0.003278809,1.061975479
75.278690,5.085609436,-16.842826843,-0.246593475,0.050757386,-0.048845217,1.045373917
75.293047,5.581520081,-14.286979675,-3.099987030,0.067236878,-0.043596193,1.034753799
75.308427,5.459449768,-6.863578796,-7.372447968,0.039282776,-0.058732912,0.994104385
75.346728,-1.132347107,-13.470634460,-1.764842987,-0.008934997,0.008039551,0.966394424
75.385054,-2.292015076,1.650825500,-6.418773651,0.016089417,0.012434082,0.927331924
75.399291,-4.458763123,4.817024231,-6.983348846,-0.007592224,0.001203613,0.929895401
75.414579,-5.519248962,1.597419739,-6.319591522,-0.037377380,0.024641113,0.970056534
75.452874,-0.613548279,-0.645622253,-0.200817108,0.001196839,-0.027482910,0.982385635
75.491155,-1.864768982,1.025215149,-0.147411346,-0.032250427,-0.028337402,0.982629776
75.505398,0.485084534,-8.107170105,2.881458282,-0.038109802,0.012434082,1.036706924
75.520721,4.978797913,-11.799797058,5.536487579,-0.023339294,0.029523926,1.034265518
75.559045,7.862709045,-8.183464050,6.375720978,0.006201722,-0.057023928,0.966882706
75.597335,1.560829163,0.514045715,8.664539337,-0.002709411,-0.005998535,0.989953995
75.611578,2.522132874,3.123298645,7.733753204,0.003516175,0.011701660,0.977991104
75.626882,1.927040100,11.279121399,8.923938751,-0.002831481,0.026228027,0.954065323
75.665191,2.110145569,20.327583313,9.663990021,0.017065980,0.006818848,0.945764542
75.703501,-0.125267029,20.785346985,8.466175079,0.031836487,0.038312986,0.949548721
75.717772,1.621864319,19.686714172,7.169178009,0.028174378,0.033186033,0.945642471
75.733096,-0.460960388,15.269294739,9.107044220,0.034644105,-0.088029787,0.948938370
75.783139,3.140113831,5.297676086,8.817127228,0.047827698,-0.019792480,0.976892471
75.821516,2.155921936,6.442085266,4.857471466,0.060767151,-0.082170412,0.956262589
75.835782,1.934669495,4.748359680,3.316333771,0.048438050,-0.042985842,0.964319229
75.851131,5.047462463,-2.659782410,4.224231720,-0.003563903,-0.001237793,0.940149307
75.901342,0.126502991,-8.534416199,9.290149689,-0.023949645,0.011579590,0.947229385
75.951847,-1.605369568,5.961433411,6.604602814,0.002661683,0.040998533,0.983240128
75.967393,-0.979759216,6.518379211,7.825305939,0.009741761,0.020124512,0.979578018
75.981641,-2.566673279,9.287849426,6.307056427,0.045508362,-0.011613769,0.992639542
76.019820,-4.222251892,21.662727356,2.538135529,0.036108948,-0.025285644,1.009973526
76.058153,-2.810813904,16.612068176,6.246021271,0.005591370,-0.050798342,1.013513565
76.072409,0.530860901,13.880744934,2.881458282,0.052466370,-0.038469240,0.995813370
76.087756,-1.918174744,12.644783020,1.424243927,0.034522034,-0.077897951,0.977991104
76.126090,-2.490379333,-6.779655457,6.612232208,-0.034935974,0.057966307,1.009607315
76.164424,-0.361778259,-9.533866882,1.271656036,-0.027123474,-0.008806152,0.967004776
76.178671,-3.383018494,-11.059745789,4.132678986,-0.030785583,0.009626465,0.971887589
76.193999,-4.649497986,-17.506584167,2.278736115,-0.004174255,0.078229979,0.998498917
76.232304,-3.718711853,-8.168205261,-1.741954803,0.028540589,0.014143066,0.992151260
76.270643,-4.222251892,-12.532218933,3.987720490,-0.003930114,0.024885254,1.060266495
76.284901,-1.757957458,-13.249382019,4.590442657,0.020117737,-0.020524902,1.061243057
76.300237,-2.848960876,-3.361686707,4.681995392,0.064063050,-0.109636232,1.049036026
76.338533,-9.990074158,17.924324036,-3.031322479,0.023169495,-0.054338381,1.106409073
76.376858,-3.535606384,19.297615051,-6.022045135,0.019263245,-0.037614748,1.101404190
76.391106,0.759742737,17.153755188,-9.668895721,0.021826722,-0.007219238,1.077234268
76.406446,1.057289124,13.018623352,-12.278148651,-0.012108825,-0.002458496,1.041223526
76.444777,6.222389221,-26.524528503,-0.177928925,-0.094140075,0.056501463,1.043542862
76.483113,9.358070374,-42.141899109,3.163745880,-0.037987731,-0.050310060,0.971033096
76.497376,3.559730530,-44.766410828,7.169178009,-0.075707458,-0.064348146,0.989953995
76.512735,3.826759338,-43.690666199,10.945728302,-0.036522888,-0.057756349,1.032678604
76.564489,-0.750877380,-11.975273132,3.201892853,0.008643128,-0.023576660,1.019250870
76.602933,6.443641663,14.094367981,1.904895782,0.050513245,-0.045061037,1.026208878
76.617189,3.025672913,24.760261536,-4.267284393,0.032690980,-0.080217287,0.978235245
76.632523,0.622413635,27.544990540,-4.786083221,0.016455628,-0.062272951,0.981531143
76.670862,1.881263733,24.516120911,4.849842072,0.003272034,0.017194824,0.992761612
76.709204,0.576637268,42.559638977,-2.436229706,0.052710511,-0.047380373,0.925745010
76.723445,-3.932334900,43.765083313,-5.259105682,0.032568909,-0.048845217,0.938806534
76.738790,-3.169395447,41.239753723,-5.716869354,0.011939026,0.030012207,0.974206924
76.777118,1.995704651,19.228950500,-5.068370819,-0.039208435,0.008894043,0.924890518
76.815451,1.705787659,-18.383964539,1.065662384,-0.047143005,0.013898926,0.968347549
76.829699,3.140113831,-25.715812683,5.177906036,-0.047753356,0.000715332,0.974328995
76.845029,2.148292542,-28.927787781,8.099964142,0.042334534,-0.062761232,0.983484268
76.883342,-1.468040466,-14.210685730,-1.291820526,0.060523011,-0.134904787,1.046228409
76.921671,2.659461975,8.082405090,-4.976818085,0.101538636,-0.059953615,1.035120010
76.935914,-0.941612244,14.483467102,-9.790966034,0.034277894,0.012800293,1.033777237
76.951234,-0.224449158,15.841499329,-6.548473358,0.029150940,0.029157715,1.050256729
76.989531,4.269264221,13.880744934,-5.892345428,0.000952698,0.091535643,1.044763565
77.027856,8.022926331,9.478584290,-6.418773651,-0.006249450,0.000227051,0.945642471
77.042100,6.664894104,5.763069153,-4.908153534,0.001929261,0.011823731,0.937463760
77.057414,3.986976624,-2.743705750,-4.633495331,0.007544495,0.006696777,0.931726456
77.109490,-1.086570740,-6.016716003,-0.689098358,0.021094300,0.016340332,0.950403214
77.147891,-4.390098572,-9.488090515,0.539234161,0.009131409,-0.031877443,0.970422745
77.177329,-4.206993103,-3.773674011,-1.894542694,0.003882386,-0.000627441,0.956018448
77.191640,-5.259849548,-1.347526550,-1.329967499,0.000952698,0.003645020,0.947473526
77.229833,-7.205345154,4.733100891,-1.650402069,-0.001244567,0.055158690,0.974084854
77.268164,-3.665306091,4.923835754,-1.352855682,0.031104065,0.021955566,1.003137589
77.282394,-3.100730896,3.565803528,-2.611705780,0.009741761,0.015241699,1.003870010
77.297711,-2.848960876,-2.301200867,1.614978790,0.017065980,-0.030534668,1.012414932
77.298475,-2.848960876,-2.301200867,1.614978790,0.017065980,-0.030534668,1.012414932
77.299080,-2.848960876,-2.301200867,1.614978790,0.017065980,-0.030534668,1.012414932
77.299698,-2.848960876,-2.301200867,1.614978790,0.017065980,-0.030534668,1.012414932
77.300285,-2.848960876,-2.301200867,1.614978790,0.017065980,-0.030534668,1.012414932
77.300889,-2.848960876,-2.301200867,1.614978790,0.017065980,-0.030534668,1.012414932
77.301477,-2.848960876,-2.301200867,1.614978790,0.017065980,-0.030534668,1.012414932
77.302098,-2.848960876,-2.301200867,1.614978790,0.017065980,-0.030534668,1.012414932
77.302687,-2.795555115,-4.864677429,-0.055858612,0.040381409,-0.003068848,1.020471573
77.303303,-2.795555115,-4.864677429,-0.055858612,0.040381409,-0.003068848,1.020471573
77.303886,-2.795555115,-4.864677429,-0.055858612,0.040381409,-0.003068848,1.020471573
77.304502,-2.795555115,-4.864677429,-0.055858612,0.040381409,-0.003068848,1.020471573
77.342582,-0.415184021,-12.547477722,-0.650951385,0.011572815,0.026716309,0.997644424
77.380900,-2.681114197,-15.149101257,1.622608185,-0.003319763,0.029401856,1.008508682
77.395155,-1.933433533,-17.621025085,1.775196075,-0.012963317,0.062238768,1.045495987
77.410470,-0.323631287,-18.200859070,2.568653107,-0.011010192,0.076643065,1.040124893
77.448812,1.888893127,-16.766532898,4.590442657,-0.028710388,0.037214354,1.004236221
77.487131,2.529762268,-1.934989929,3.346851349,0.034155823,-0.064104006,1.012659073
77.501384,1.194618225,10.745063782,-0.040599823,0.062842347,-0.037736818,0.997034073
77.516703,0.401161194,14.407173157,-4.778453827,0.033057190,-0.027482910,0.984216690
77.555045,-0.575401306,5.160346985,1.523426056,0.001807190,-0.039079592,0.985681534
77.593350,2.033851624,-4.399284363,2.416065216,-0.025170349,-0.026750488,0.968469620
77.607597,2.178810120,-8.107170105,4.216602325,-0.040429138,-0.004655762,0.963708878
77.622912,1.339576721,-13.432487488,10.732105255,-0.007470153,-0.063371584,0.970422745
77.661233,1.553199768,-3.430351257,8.107593536,0.002905823,-0.022600098,0.989709854
77.699539,-0.636436462,1.109138489,11.739185333,-0.007592224,-0.084245607,0.989343643
77.713800,1.354835510,3.504768372,8.458545685,0.028418519,-0.052873537,0.999719620
77.729102,1.454017639,4.946723938,8.260181427,0.018042542,-0.071550295,0.990320206
77.767425,-0.369407654,1.582160950,6.581714630,-0.013207458,-0.043840334,0.962121964
77.819879,-1.880027771,-11.601432800,9.396961212,-0.013085388,0.002424316,0.953577042
77.834211,-3.558494568,-11.410697937,9.908130646,-0.013329528,0.017683106,0.964441299
77.849601,-1.399375916,-9.610160828,11.365345001,-0.009911560,-0.007829590,0.980432510
77.887917,-3.589012146,1.322761536,10.541370392,0.015601136,-0.056535646,0.947717667
77.926248,-9.723045349,10.485664368,2.355030060,-0.014061950,0.051008299,0.905603409
77.940492,-12.774803162,3.626838684,7.375171661,0.000708558,0.098127440,0.924036026
77.955840,-12.172080994,-0.309928894,5.383899689,0.004981019,0.121564940,0.926477432
77.956605,-12.172080994,-0.309928894,5.383899689,0.004981019,0.121564940,0.926477432
77.957196,-12.172080994,-0.309928894,5.383899689,0.004981019,0.121564940,0.926477432
77.957826,-12.172080994,-0.309928894,5.383899689,0.004981019,0.121564940,0.926477432
77.958401,-12.172080994,-0.309928894,5.383899689,0.004981019,0.121564940,0.926477432
77.959026,-10.997154236,-5.200370789,4.125049591,-0.014061950,0.114851072,0.912439346
78.012647,-16.459800720,-24.830802917,20.772388458,-0.005761169,0.088239744,1.034753799
78.051081,-15.010215759,3.039375305,7.504871368,0.074072815,-0.073869631,1.053918839
78.065344,-16.276695251,8.669868469,5.551746368,0.047583558,0.002790527,1.099573135
78.080690,-9.227134705,15.345588684,4.323413849,0.045020081,0.001813965,1.138269424
78.119041,-3.817893982,24.889961243,-0.208446503,0.051611878,-0.030900879,1.119714737
78.157356,2.018592834,15.254035950,-1.017162323,-0.009789489,-0.062639162,1.115442276
78.171604,2.743385315,10.859504700,0.691822052,0.022315003,-0.027971191,1.123987198
78.186964,5.535743713,6.114021301,-1.787731171,0.024634339,-0.006853027,1.128137589
78.225255,6.550453186,-13.684257507,1.706531525,-0.017724060,-0.031755373,1.107995987
78.263594,10.235450745,-26.700004578,8.923938751,0.016333558,-0.073137209,1.084802628
78.277857,10.883949280,-19.406303406,3.171375275,0.019385315,-0.032121584,1.078088760
78.293218,11.440895081,-15.362724304,3.537586212,-0.004174255,-0.040300295,1.062463760
78.293985,11.440895081,-15.362724304,3.537586212,-0.004174255,-0.040300295,1.062463760
78.294578,11.440895081,-15.362724304,3.537586212,-0.004174255,-0.040300295,1.062463760
78.332733,11.906288147,4.084602356,-1.749584198,0.083350159,-0.063249514,1.068811417
78.371065,4.727027893,16.505256653,-5.869457245,0.053931214,-0.039812014,1.042810440
78.385319,5.482337952,16.238227844,-6.624767303,0.010352112,-0.033220217,1.041955948
78.400679,9.174964905,15.727058411,0.440052032,0.043189026,-0.031633303,1.046716690
78.454778,8.099220276,19.465461731,-6.647655487,0.017920472,-0.055070803,0.977136612
78.493256,9.197853088,2.650276184,-1.879283905,0.011328675,-0.061784670,0.956872940
78.507503,8.686683655,-4.231437683,-2.832958221,-0.002221130,-0.107927248,0.946496964
78.522806,7.221839905,-6.459220886,-1.345226288,0.001929261,-0.118913576,0.949304581
78.561120,7.000587463,-7.801994324,0.737598419,-0.004906677,-0.080705568,0.984582901
78.599447,4.070899963,9.966865540,-3.611156464,0.082983948,-0.132219240,0.936731339
78.613689,0.332496643,13.758674622,-6.540843964,0.078955628,-0.098771974,0.947961807
78.629010,-0.590660095,16.612068176,-7.578441620,0.042944886,-0.002092285,0.982751846
78.667321,0.324867249,12.003913879,-8.013317108,0.040259339,0.138410643,0.956506729
78.705657,3.849647522,-2.690299988,-2.298900604,0.058081605,0.036359861,0.961267471
78.719904,2.216957092,-4.002555847,-6.540843964,0.062476136,0.044538572,0.958581924
78.735213,1.499794006,-2.041801453,-3.603527069,0.050879456,0.047102049,0.957971573
78.773521,-1.742698669,1.521125793,-8.860179901,0.028296448,0.048078611,0.942468643
78.811852,-1.628257751,4.641548157,-9.653636932,0.076025940,0.070295408,0.989953995
78.826091,-2.154685974,10.554328918,-11.866161346,0.019263245,0.059553221,0.962732315
78.841418,-2.650596619,9.470954895,-11.026927948,0.009985901,0.066389158,0.956262589
78.879735,-2.833702087,-9.625419617,-5.236217499,0.044653870,0.099470213,0.981531143
78.918069,-6.404258728,-20.474418640,-8.379528046,-0.019188903,0.061140135,0.900232315
78.932318,-10.073997498,-27.806266785,-3.725597382,-0.059838317,0.065534666,0.934778214
78.947637,-9.646751404,-32.025321960,6.749561310,0.046362855,0.082380369,1.005578995
78.948397,-9.646751404,-32.025321960,6.749561310,0.046362855,0.082380369,1.005578995
78.948996,-9.646751404,-32.025321960,6.749561310,0.046362855,0.082380369,1.005578995
78.949624,-9.646751404,-32.025321960,6.749561310,0.046362855,0.082380369,1.005578995
78.950216,-9.646751404,-32.025321960,6.749561310,0.046362855,0.082380369,1.005578995
78.950836,-9.646751404,-32.025321960,6.749561310,0.046362855,0.082380369,1.005578995
78.951435,-9.646751404,-32.025321960,6.749561310,0.046362855,0.082380369,1.005578995
78.952076,-9.646751404,-32.025321960,6.749561310,0.046362855,0.082380369,1.005578995
78.952677,-9.646751404,-32.025321960,6.749561310,0.046362855,0.082380369,1.005578995
78.953314,-8.258201599,-27.874931335,2.446582794,0.068091370,0.095441893,1.012903214
78.953918,-8.258201599,-27.874931335,2.446582794,0.068091370,0.095441893,1.012903214
79.008085,-12.561180115,4.206672668,-3.542491913,0.040259339,0.014509277,1.051477432
79.046511,-2.452232361,13.262763977,-2.985546112,0.047705628,0.046247557,1.071008682
79.060787,-1.063682556,14.658943176,-3.542491913,0.055029847,0.044660643,1.055261612
79.076137,-1.124717712,15.299812317,-4.999706268,0.044043519,-0.001237793,1.051111221
79.130719,5.177162170,-1.255973816,-2.947399139,0.040015198,-0.032854006,1.030847549
79.169176,6.405494690,-15.301689148,1.180103302,0.020239808,0.022077637,1.010828018
79.183412,5.917213440,-16.423210144,1.256397247,0.017676331,0.006086426,1.003015518
79.198741,5.489967346,-14.775260925,1.904895782,0.023779847,-0.004777832,1.002283096
79.237069,3.933570862,-2.430900574,-1.993724823,0.027930237,0.005231934,1.008996964
79.275406,9.579322815,-6.466850281,0.142505646,0.037207581,0.034284666,0.982385635
79.289651,10.319374084,-7.336601257,-1.749584198,0.020728089,0.002180176,0.953210831
79.304972,3.758094788,-10.220512390,1.576831818,0.024023987,-0.046403810,0.951990128
79.343265,5.573890686,-12.783988953,5.956104279,0.019385315,-0.012712402,0.971887589
79.381616,3.117225647,-0.332817078,1.080921173,-0.017846130,0.026838379,0.951623917
79.395867,3.460548401,0.224128723,3.201892853,-0.014550231,0.000471191,0.960290909
79.411159,4.498146057,-0.714286804,4.002979279,0.003272034,-0.017717285,0.955652237
79.449454,2.483985901,2.276435852,4.933765411,0.054175355,-0.074968264,0.956262589
79.487788,-0.323631287,-1.469596863,6.452014923,-0.004052185,-0.027238769,0.987878799
79.502032,2.873085022,-6.146415710,6.528308868,0.004492737,-0.008806152,1.000940323
79.517335,3.719947815,-6.680473328,8.763721466,0.004248597,-0.028337402,0.992395401
79.555640,2.438209534,1.704231262,6.833484650,-0.018578552,0.025373535,0.966272354
79.593963,5.390785217,0.552192688,8.817127228,0.007666565,-0.058732912,0.965662003
79.608199,5.100868225,0.887886047,9.534290314,0.024634339,-0.063737795,0.945886612
79.623522,2.583168030,0.773445129,6.978443146,0.012427308,-0.050187990,0.910242081
79.661849,-2.192832947,-3.483757019,7.749011993,0.047217347,-0.093645021,0.906335831
79.711754,-4.840232849,-10.632499695,9.450366974,-0.025902770,0.025007324,0.909509659
79.726106,-6.427146912,-11.036857605,12.349536896,-0.016625427,0.007307129,0.918054581
79.741483,-8.906700134,-6.039604187,12.433460236,0.029883362,-0.014665527,0.952966690
79.779831,-7.106163025,7.044807434,10.831287384,-0.014061950,0.014143066,0.971277237
79.818168,-7.602073669,12.110725403,10.503223419,0.005591370,0.006574707,0.979333878
79.832410,-6.976463318,11.797920227,10.709217072,0.024146058,0.025617676,0.982141495
79.847732,-6.800987244,9.013191223,9.320667267,0.013892151,0.030134277,0.973596573
79.886055,-6.778099060,-0.767692566,12.967517853,0.014136292,0.043439940,0.958093643
79.924393,-12.271263123,-11.174186707,13.814380646,0.017676331,0.038068846,0.987512589
79.938652,-11.279441833,-11.082633972,17.842700958,0.008154847,0.058576658,1.004846573
79.954003,-11.042930603,-7.214530945,18.971851349,0.048315980,0.028059082,1.020471573
79.992321,-11.088706970,23.036018372,11.144092560,0.120825745,0.047346190,1.099695206
80.030661,-13.255455017,39.271369934,6.917407990,0.091406800,-0.014909668,1.098108292
80.044920,-13.499595642,40.476814270,3.789356232,0.107153870,0.041730955,1.138757706
80.060253,-6.312705994,40.774360657,1.637866974,0.103613831,0.064558104,1.199182510
80.098573,7.809303284,14.948860168,0.264575958,0.009985901,0.036848143,1.122888565
80.136898,12.081764221,-20.283683777,3.743579865,0.106543519,-0.053605959,1.147302628
80.151170,15.194557190,-21.977409363,-0.803539276,0.083960511,-0.052873537,1.112146378
80.166486,10.800025940,-27.173027039,-2.596446991,0.003638245,-0.056169435,1.065393448
80.204850,15.492103577,-34.184440613,-0.216075897,0.058691956,-0.035905764,1.098718643
80.243170,12.707374573,-15.606864929,-5.220958710,0.068701722,0.015974121,1.057336807
80.257405,11.555335999,-7.367118835,-8.730480194,0.018897034,0.053693846,1.052331924
80.272736,12.341163635,-7.306083679,-6.556102753,0.014136292,0.057233885,1.069543839
80.273506,12.341163635,-7.306083679,-6.556102753,0.014136292,0.057233885,1.069543839
80.335318,11.524818420,9.928718567,-6.479808807,0.014990784,0.036726072,0.976892471
80.373749,8.427284241,12.797370911,-5.129405975,0.072974183,-0.009660644,0.954919815
80.387984,5.444190979,16.581550598,-7.334300995,0.047583558,0.023054199,0.973474503
80.403326,6.176612854,17.542854309,-7.967540741,0.055518128,0.037824705,0.971521378
80.441639,6.138465881,9.669319153,-6.807872772,0.045142151,0.021345215,0.991785049
80.479955,7.382057190,0.910774231,-9.394237518,0.029883362,0.012312012,0.977869034
80.494190,6.825111389,-3.018363953,-8.341381073,0.045874573,0.015852051,0.980676651
80.509532,7.122657776,-4.940971375,-9.615489960,0.045386292,0.053449705,0.991418839
80.547851,10.128639221,-10.746940613,-8.333751678,0.013159730,0.061384276,0.955286026
80.586194,7.900856018,-14.874443054,-10.355541229,-0.002465270,0.088483885,0.969446182
80.600434,10.151527405,-16.583427429,-5.442211151,0.000098206,0.093610838,0.961267471
80.615788,10.975502014,-11.784538269,-7.021495819,0.058447815,0.046735838,0.925867081
80.654114,2.712867737,4.275337219,-9.707042694,0.048315980,0.103376463,0.924036026
80.692449,0.897071838,4.389778137,-4.854747772,0.014258362,0.093366697,0.905603409
80.706679,0.538490295,7.494941711,-7.196971893,0.001318909,0.117414549,0.910486221
80.722013,1.568458557,9.005561829,-5.930492401,-0.001488708,0.098371580,0.893396378
80.760320,-2.734519958,5.137458801,-4.335948944,0.026099183,0.056989744,0.926599503
80.798649,-1.262046814,-4.239067078,-1.238414764,0.017432190,0.088972166,0.923547745
80.812886,-1.178123474,-6.802543640,-2.199718475,-0.008690856,0.078596190,0.888025284
80.828217,-4.107810974,-8.931144714,2.232959747,-0.014916442,0.056257322,0.910852432
80.866512,-2.040245056,-5.124076843,1.462390900,0.007544495,0.117902830,0.937952042
80.917031,-6.633140564,-8.999809265,7.886341095,0.026343323,0.135358885,0.965906143
80.931377,-5.862571716,-10.052665710,5.940845490,0.051367737,0.168928221,0.976648331
80.946743,-3.169395447,-6.169303894,7.420948029,0.026099183,0.121320799,0.980798721
80.985051,-8.326866150,6.091133118,2.400806427,0.047949769,0.095930174,1.010705948
81.023360,-2.292015076,3.031745911,6.070545197,0.086646058,0.156354979,1.025110245
81.037596,-0.590660095,3.756538391,3.964832306,0.107642151,0.131452635,1.005945206
81.052889,-6.343223572,3.436103821,0.935962677,0.064917542,0.077497557,1.002771378
81.091199,-2.963401794,1.688972473,4.544666290,0.083594300,0.144392088,1.107507706
81.129505,0.858924866,18.282905579,-4.602977753,0.133643121,0.113874510,1.084436417
81.143774,1.804969788,13.049140930,-6.884166718,0.011939026,0.099958494,1.068933487
81.159087,2.636573792,6.190315247,0.890186310,0.031470276,0.080061033,1.091028214
81.197392,9.319923401,-10.945304871,-1.291820526,0.045508362,0.063581541,1.074060440
81.235685,9.373329163,-28.408988953,3.384998322,0.036353089,0.028303223,1.073205948
81.249927,12.974403381,-25.273307800,1.088550568,0.099951722,0.032697752,1.080530167
81.265242,14.385841370,-19.375785828,-2.672740936,0.083472230,0.048933104,1.041223526
81.303518,8.717201233,-6.474479675,0.089099884,0.033057190,0.064924315,1.017419815
81.341836,8.991859436,0.369087219,0.516345978,0.018774964,0.095686033,0.975305557
81.356067,8.679054260,2.917304993,0.173023224,0.035986878,0.101667479,0.964319229
81.371349,8.221290588,3.527656555,-0.162670135,0.029273011,0.081403807,0.948816299
81.409633,7.687232971,3.886238098,2.011707306,0.089941956,0.055891111,0.962854385
81.447916,0.980995178,14.826789856,-4.923412323,0.067358948,0.086896971,0.950525284
81.462163,0.309608459,10.058418274,-2.184459686,0.009497620,0.128156736,0.951990128
81.477466,1.591346741,6.388679504,0.844409943,0.030127503,0.154279783,0.955286026
81.515779,0.919960022,7.868782043,0.562122345,0.072730042,0.102399901,0.966028214
81.567568,3.857276917,-0.645622253,3.514698029,0.049902894,0.082990721,0.960535049
81.581910,2.514503479,-1.500114441,-0.299999237,0.058691956,0.075178221,0.951013565
81.597263,1.148841858,0.048652649,-0.765392303,0.043555237,0.077497557,0.940271378
81.649299,-1.498558044,-3.453239441,2.980640411,0.071753480,0.091169432,0.956506729
81.687682,-3.596641541,10.363594055,-5.327770233,0.026831605,0.115705565,0.959070206
81.701949,-3.733970642,7.823005676,-1.986095428,0.015845276,0.119489744,0.983362198
81.717287,-0.933982849,2.093330383,-1.421520233,0.056372620,0.153547361,0.988977432
81.755583,0.149391174,-2.240165710,-1.650402069,0.055884339,0.103254393,0.977624893
81.793881,0.248573303,-10.884269714,1.119068146,0.053809144,0.109602049,0.990564346
81.808110,1.431129456,-11.219963074,-1.917430878,0.035498597,0.082258299,0.984216690
81.823443,1.263282776,-8.740409851,-0.856945038,0.041602112,0.076398924,0.976892471
81.861704,-1.719810486,-1.996025085,-2.039501190,0.013770081,0.083479002,0.961389542
81.900030,-1.361228943,0.018135071,-2.680370331,0.012915589,0.111921385,0.961023331
81.914257,-3.138877869,0.956550598,-2.901622772,0.006201722,0.121198729,0.959436417
81.929579,-2.704002380,-1.759513855,-0.734874725,-0.022362731,0.140852049,0.969202042
81.967843,-2.398826599,-5.574211121,2.469470978,0.006812073,0.105451658,0.987146378
82.006135,-3.108360291,1.002326965,2.904346466,0.037695862,0.067976072,0.999109268
82.020370,-3.512718201,1.444831848,2.667835236,0.033789612,0.082746580,1.003015518
82.035686,-1.681663513,2.825752258,2.522876740,0.061621644,0.112409666,1.013391495
82.073981,-2.414085388,4.443183899,-0.383922577,0.042334534,0.069929197,0.993005753
82.112277,-0.140525818,-1.301750183,0.089099884,0.046240784,0.139265135,1.024133682
82.126502,2.819679260,-3.010734558,-0.437328339,0.076148011,0.141706541,0.998743057
82.155758,-4.512168884,-7.710441589,0.905445099,0.025855042,0.085432127,0.981653214
82.194184,-1.918174744,-7.184013367,1.225879669,0.028540589,0.154890135,1.010583878
82.232486,-5.175926208,-2.438529968,-0.536510468,0.049048401,0.082014158,0.977746964
82.246710,-9.616233826,2.055183411,1.744678497,0.072974183,0.114973143,1.036340714
82.261992,-8.067466736,6.167427063,-0.055858612,0.079565980,0.118879393,1.031824112
82.300288,-10.936119080,20.937934875,-5.884716034,0.062964417,0.119367674,1.016809464
82.338613,-8.181907654,7.449165344,-4.015514374,0.040381409,0.114118651,1.017419815
82.352859,-8.685447693,5.572334290,-2.626964569,0.029150940,0.079572752,1.001184464
82.368151,-14.697410583,2.573982239,-1.955577850,0.049292542,0.045270994,1.033166885
82.406446,-7.457115173,-10.251029968,-2.100536346,0.061865784,0.070295408,1.074914932
82.444708,-15.498497009,-2.285942078,-4.915782928,0.035132386,0.024152832,1.077600479
82.458963,-16.108848572,-0.020011902,-2.848217010,0.036353089,0.051862791,1.119470596
82.474270,-11.676170349,5.900398254,-3.183910370,0.048315980,0.069807127,1.118005753
82.512583,-17.405845642,23.692146301,-3.580638885,0.030371644,0.027814941,1.152429581
82.550888,-10.844566345,18.412605286,-3.107616425,0.023657776,0.098249510,1.211389542
82.565152,-5.465843201,13.430610657,-0.498363495,0.071387269,0.043195799,1.212732315
82.580466,-4.313804626,13.430610657,-2.893993378,0.059912659,0.037214354,1.175256729
82.581239,-4.313804626,13.430610657,-2.893993378,0.059912659,0.037214354,1.175256729
82.581828,-4.313804626,13.430610657,-2.893993378,0.059912659,0.037214354,1.175256729
82.582461,-4.519798279,14.170661926,-3.786632538,0.041235901,0.020002441,1.156579971
82.583065,-4.519798279,14.170661926,-3.786632538,0.041235901,0.020002441,1.156579971
82.583702,-4.519798279,14.170661926,-3.786632538,0.041235901,0.020002441,1.156579971
82.584308,-4.519798279,14.170661926,-3.786632538,0.041235901,0.020002441,1.156579971
82.622442,-4.359580994,2.398506165,-0.032970428,0.056860901,-0.015642090,1.116907120
82.660735,-6.877281189,-0.615104675,-3.237316132,0.033423401,0.034162596,1.106897354
82.674974,-7.197715759,1.002326965,-2.207347870,-0.015526794,0.078718260,1.095911026
82.690275,-4.847862244,1.246467590,-0.757762909,-0.035424255,0.076520994,1.077600479
82.728577,-4.367210388,18.969551086,2.950122833,0.085547425,-0.024309082,1.076868057
82.766877,-10.981895447,36.189094543,-4.862377167,-0.000512145,0.108991697,1.054773331
82.796581,-0.033714294,33.976570129,-4.778453827,0.057715394,-0.003068848,1.077234268
82.827552,-6.388999939,24.210945129,-7.654735565,-0.029686950,0.030988770,1.092004776
82.865855,10.761878967,-20.497306824,4.292896271,-0.037133239,0.078596190,1.091394424
82.904218,11.532447815,-25.433525085,2.187183380,-0.000023864,-0.070207521,1.034265518
82.918468,10.159156799,-21.389945984,1.904895782,0.015234925,-0.035905764,1.033166885
82.933822,9.564064026,-16.507133484,-5.617687225,0.006079651,0.029890137,1.060022354
82.972124,15.736244202,-10.624870300,-9.310314178,-0.021264099,0.024030762,1.020837784
83.010450,15.736244202,-1.736625671,-5.938121796,-0.016259216,0.060163572,0.977258682
83.024701,16.850135803,0.071540833,-5.915233612,-0.025902770,0.012922363,0.961999893
83.040049,13.615272522,4.824653625,-5.220958710,0.001318909,-0.044450685,0.949548721
83.078335,10.044715881,13.690010071,-4.755565643,-0.042870544,0.007917481,0.909265518
83.116656,13.058326721,9.371772766,-9.325572968,-0.094262145,0.049543455,0.813562393
83.130923,8.801124573,-6.199821472,1.393726349,-0.103295349,-0.021257324,0.811487198
83.146252,5.428932190,-10.533317566,4.506519318,-0.059594177,-0.010148926,0.842370987
83.184539,8.068702698,-16.278251648,4.498889923,-0.053368591,0.018537598,0.841028214
83.222837,-2.093650818,-22.335990906,11.449268341,-0.075219177,0.025861816,0.820520401
83.237099,-2.276756287,-18.773063660,10.632923126,-0.031029724,0.046735838,0.835901260
83.252438,0.111244202,-8.130058289,5.727222443,-0.037987731,0.018781738,0.810754776
83.290713,-15.368797302,14.262214661,4.002979279,-0.035180114,0.038068846,0.858850479
83.329051,-8.349754333,30.985847473,-2.085277557,-0.011376403,0.001691895,0.960779190
83.343319,-9.051658630,32.580390930,-1.215526581,-0.002953552,-0.005632324,0.969324112
83.358654,-12.988426208,29.749885559,-6.495067596,-0.036767028,0.055646971,0.967370987
83.396993,-3.703453064,18.404975891,1.805713654,0.002295472,0.086042479,1.048303604
83.451038,11.128089905,1.551643372,-5.976268768,-0.045556091,0.037824705,0.971887589
83.465380,8.900306702,-4.757865906,-4.396984100,-0.064476989,-0.018815918,0.940881729
83.480727,2.438209534,-15.110954285,0.050952911,-0.067162536,0.023542481,0.951623917
83.519045,7.061622620,-23.579582214,-0.979015350,-0.050438903,0.038557127,0.946252823
83.557339,5.032203674,-33.390983582,4.010608673,-0.029809020,-0.039445803,0.933679581
83.571579,1.301429749,-30.484184265,5.299976349,-0.034325622,-0.003068848,0.916345596
83.586894,-1.475669861,-16.560539246,4.407337189,0.012061097,0.037458494,0.916955948
83.625204,-3.093101501,6.991401672,-4.915782928,0.006934144,0.038557127,0.949914932
83.663512,-9.196617126,17.817512512,-5.724498749,0.009619690,0.040754393,0.969079971
83.677776,-4.191734314,20.335212708,-5.602428436,0.002173401,0.057233885,0.989221573
83.693081,-3.047325134,21.189704895,-7.860729218,0.005713440,0.059797361,0.969934464
83.731413,-0.567771912,11.057868958,-5.487987518,-0.032738708,0.101789549,1.008386612
83.769733,7.008216858,7.220283508,-5.732128143,-0.009179138,0.034650877,0.924768448
83.783973,5.650184631,7.281318665,-6.945201874,0.002783753,0.034772947,0.917200089
83.799267,-1.048423767,3.848091125,-8.585521698,-0.031151794,0.069562986,0.906702042
83.837582,0.485084534,2.459541321,-5.190441132,-0.047509216,0.174299315,0.960168839
83.875865,7.275245667,0.300422668,-10.729381561,-0.035058044,0.062116697,0.937829971
83.890105,5.329750061,-4.536613464,-9.310314178,-0.057152770,0.042097166,0.923425674
83.905414,-0.727989197,-12.097343445,-0.017711639,-0.057274841,0.035505369,0.932947159
83.943714,-0.140525818,-2.957328796,-0.383922577,-0.005639099,0.037092283,0.943567276
83.982032,-7.342674255,17.649665833,-10.019847870,0.008887269,0.012434082,0.951745987
83.996279,-9.120323181,18.130317688,-13.102123260,-0.023095153,0.070173338,0.967859268
84.011585,-8.632041931,15.666023254,-13.025829315,-0.032982849,0.110212401,0.969202042
84.065756,-7.457115173,-16.186698914,-8.318492889,-0.078881286,0.133527830,0.970300674
84.104242,2.598426819,-25.128349304,-2.390453339,-0.032006286,0.091413572,0.973962784
84.118469,3.712318420,-23.503288269,-5.861827850,-0.033959411,0.028913574,0.958826065
84.149994,-8.777000427,-19.154533386,-0.773021698,-0.044091247,-0.017351074,0.975671768
84.188407,-7.258750916,-4.315361023,-2.718517303,-0.048485778,0.113020018,1.025476456
84.226722,-4.374839783,1.956001282,-0.025341034,-0.051049255,0.115583494,1.029993057
84.240970,-3.436424255,3.169075012,-0.803539276,-0.049950622,0.140119627,1.033777237
84.256273,-0.354148865,7.830635071,2.286365509,-0.031029724,0.127668455,1.020349503
84.294587,2.171180725,7.411018372,-3.588268280,-0.042626403,0.090925291,0.978113174
84.332891,3.658912659,-4.574760437,-1.741954803,-0.042870544,0.064436033,0.981042862
84.347125,2.506874084,-7.801994324,-0.055858612,-0.046044372,0.048933104,0.972009659
84.362445,-1.040794373,-10.952934265,3.056934357,-0.056176208,0.085187986,0.985193253
84.400737,1.736305237,-1.927360535,0.508716583,-0.013207458,0.072248533,0.990930557
84.439055,-1.757957458,3.779426575,-0.925609589,-0.034691833,0.002424316,1.000940323
84.453287,-0.995018005,3.787055969,0.913074493,0.006201722,0.030256348,1.019983292
84.468604,-1.643516541,3.252998352,-1.139232635,-0.014672302,0.020856934,1.024866104
84.506901,-9.036399841,1.551643372,0.363758087,-0.015282653,0.008649902,1.084436417
84.545218,-6.984092712,1.902595520,3.987720490,-0.094262145,0.268293470,1.146326065
84.559463,2.194068909,1.727119446,6.543567657,-0.056908630,0.255109876,1.154626846
84.574785,16.155860901,0.872627258,3.735950470,-0.032250427,0.068830565,1.095056534
84.613107,-1.506187439,4.504219055,5.101612091,-0.003197692,-0.111101076,1.021448135
84.651438,-3.070213318,8.242622375,0.661304474,-0.020653747,0.020856934,1.063074112
84.665678,-1.292564392,7.502571106,-0.361034393,-0.014306091,0.021833496,1.072473526
84.681005,0.507972717,1.833930969,-1.490184784,-0.059472106,0.038679197,1.061487198
84.730827,12.936256409,-11.227592468,0.287464142,-0.041893981,0.010847168,1.039636612
84.769267,8.587501526,-13.943656921,0.661304474,-0.070702575,0.033918455,0.992395401
84.783505,12.447975159,-18.902763367,2.156665802,-0.037743591,0.020612793,0.968469620
84.798831,11.280677795,-20.009025574,1.294544220,-0.041771911,-0.026872559,0.939294815
84.837139,2.270362854,-19.917472839,3.316333771,-0.031273864,-0.051408693,0.940881729
84.875442,-2.864219666,-0.393852234,6.436756134,-0.028954528,0.085187986,0.955530167
84.889676,-0.361778259,11.752143860,2.164295197,-0.022973083,0.062360838,0.972009659
84.904991,0.675819397,14.620796204,0.890186310,-0.030297302,0.050153807,0.978601456
84.943288,-1.780845642,10.798469543,3.362110138,-0.033349060,0.079450682,0.988122940
84.981620,3.796241760,1.208320618,4.498889923,-0.037865661,0.081647947,0.978357315
84.995866,3.040931702,-1.423820496,5.185535431,-0.035302185,0.074812010,0.974573135
85.011173,1.461647034,-4.528984070,6.108692169,-0.042504333,0.093244627,0.989831924
85.049462,2.918861389,5.267158508,1.859119415,-0.026513122,0.043195799,1.001672745
85.087793,2.316139221,6.365791321,1.630237579,-0.032372497,0.077619627,1.012903214
85.102033,3.040931702,4.733100891,3.903797150,-0.029686950,0.087141111,1.024011612
85.117339,4.826210022,4.481330872,5.055835724,0.001196839,0.104475096,1.021936417
85.155634,5.169532776,11.477485657,0.714710236,0.014624573,0.077863768,0.992639542
85.193923,4.093788147,13.194099426,-2.390453339,0.004370667,-0.010393066,1.037927628
85.208169,-2.009727478,13.880744934,-5.709239960,0.024146058,0.106184080,1.025720596
85.223501,-5.969383240,13.422981262,-8.791515350,-0.028344177,0.192243651,1.014245987
85.224270,-5.969383240,13.422981262,-8.791515350,-0.028344177,0.192243651,1.014245987
85.224868,-5.969383240,13.422981262,-8.791515350,-0.028344177,0.192243651,1.014245987
85.263028,12.158058167,-5.215629578,-6.174633026,-0.037499450,0.175642088,0.999719620
85.301338,-7.022239685,-16.880973816,3.453662872,-0.020409606,-0.188859865,0.966638565
85.315593,-10.127403259,-14.058097839,4.353931427,-0.013939880,-0.051408693,1.000207901
85.330945,-8.647300720,-10.891899109,0.890186310,-0.046044372,0.084455565,1.018884659
85.381019,0.248573303,5.595222473,3.163745880,-0.017724060,0.036604002,0.995325089
85.431308,3.986976624,14.315620422,0.981739044,-0.033959411,0.083723143,0.951745987
85.445576,4.475257874,10.249153137,4.117420197,-0.023095153,0.053205565,0.927453995
85.460944,3.666542053,9.478584290,3.751209259,-0.003930114,0.038190916,0.907922745
85.499240,-3.222801208,7.205024719,0.424793243,-0.006371520,0.039777830,0.889245987
85.537535,-4.947044373,4.275337219,1.683643341,0.016943909,0.030134277,0.903772354
85.551806,-6.419517517,5.213752747,-0.811168671,0.009253480,0.025129395,0.899499893
85.567131,-8.784629822,4.488960266,-1.131603241,-0.006493591,0.044782713,0.907922745
85.605420,-10.623313904,-4.139884949,-0.979015350,-0.016503356,0.124372557,0.947595596
85.643719,-4.931785583,-6.367668152,-2.672740936,0.001318909,0.049909666,0.950769424
85.657972,-11.142112732,-4.521354675,-4.442760468,-0.036522888,0.049665526,0.960046768
85.673281,-11.302330017,-4.620536804,-2.085277557,-0.045556091,0.091413572,0.983850479
85.711585,-7.739402771,-2.964958191,-2.626964569,-0.043969177,0.092390135,1.019983292
85.749880,-2.269126892,-1.858695984,-2.817699432,-0.056786560,0.097639158,1.031579971
85.764116,-1.178123474,-4.574760437,0.852039337,-0.046410583,0.093854979,1.027673721
85.779432,0.424049377,-6.840690613,1.614978790,-0.030785583,0.080793455,1.031335831
85.829817,0.866554260,-13.180717468,2.568653107,0.009009339,0.014997559,1.005212784
85.868269,1.553199768,-1.072868347,5.788257599,0.002173401,0.076154783,1.040491104
85.882505,4.025123596,4.191413879,3.507068634,0.013037659,0.051252440,1.020105362
85.897819,-0.552513123,13.346687317,1.477649689,0.011816956,0.004987793,1.010950089
85.936112,-3.527976990,13.117805481,1.355579376,-0.009423278,0.017316895,1.039148331
85.974443,-8.616783142,11.965766907,-3.473827362,-0.042992614,0.058698729,1.070398331
85.988688,-8.166648865,9.249702454,-2.695629120,-0.054711364,0.111311033,1.079431534
86.004025,-1.910545349,-1.927360535,-1.017162323,-0.074730895,0.141462401,1.091516495
86.042313,5.268714905,-18.742546082,4.941394806,-0.036767028,0.006086426,1.058069229
86.094050,-1.956321716,-19.436820984,3.568103790,-0.015038513,-0.097062990,1.014490128
86.108388,-4.618980408,-18.300041199,2.927234650,-0.024926208,-0.079606935,1.026941299
86.123773,-6.999351501,-13.058647156,5.490711212,-0.023095153,-0.008806152,1.064538956
86.162064,-0.209190369,2.062812805,1.134326935,-0.028344177,0.025129395,1.078210831
86.200390,7.389686584,3.779426575,-0.811168671,-0.046776794,0.056013182,1.038415909
86.214620,8.221290588,1.559272766,1.042774200,-0.038353942,0.038435057,1.006189346
86.229953,9.480140686,0.803962708,0.050952911,-0.025170349,0.018171387,0.996789932
86.268237,7.122657776,-4.094108582,-2.016613007,-0.026513122,-0.122819826,0.935388565
86.306524,-4.809715271,-3.651603699,-0.971385956,-0.045189880,-0.040422365,0.922815323
86.320775,-3.840782166,-1.645072937,0.661304474,-0.044945739,0.033674315,0.933313370
86.336081,-3.047325134,-0.355705261,0.234058380,-0.040673278,0.012067871,0.929040909
86.374360,-8.143760681,5.473152161,0.340869904,-0.027123474,-0.016374512,0.985437393
86.412666,-4.489280701,0.117317200,2.454212189,-0.018456481,0.028181152,1.018640518
86.426900,-3.901817322,-2.079948425,0.554492950,-0.016015075,0.001813965,1.021081924
86.442219,-5.709983826,-5.887016296,1.622608185,-0.024926208,0.019636231,1.040369034
86.480497,-0.796653748,-9.732231140,2.538135529,-0.031395935,0.080427244,1.056238174
86.518834,2.827308655,-9.480461121,2.103260040,-0.013695739,0.002424316,1.027429581
86.533063,2.857826233,-12.227043152,2.728870392,-0.034447692,0.033063963,1.028894424
86.548379,4.238746643,-13.287528992,3.735950470,-0.008812927,0.034040526,1.023401260
86.586658,1.156471252,-3.735527039,3.339221954,-0.010766052,0.031965330,1.017297745
86.624962,2.407691956,14.903083801,0.287464142,0.002539612,0.015485840,1.028650284
86.639198,3.735206604,20.312324524,-1.040050507,0.027197815,-0.011003418,1.022546768
86.654531,2.056739807,22.730842590,-2.771923065,0.030737855,-0.016374512,1.018640518
86.692844,-4.611351013,18.145576477,-3.313610077,0.008032776,0.073713377,1.055627823
86.758690,9.388587952,-9.839042664,1.378467560,-0.011376403,-0.040422365,0.992517471
86.773037,7.328651428,-10.807975769,2.667835236,0.002295472,-0.099260256,0.992639542
86.788406,-0.453330994,-6.268486023,2.881458282,0.025488831,-0.142839357,0.982507706
86.826680,1.125953674,4.923835754,-0.849315643,0.025000550,-0.064836428,0.973596573
86.865014,-4.046775818,2.696052551,-0.063488007,-0.000268005,-0.010270996,0.992029190
86.879251,-3.566123962,-0.027641296,-0.361034393,-0.000634216,0.034406736,1.010828018
86.894561,-2.246238708,0.384346008,0.623157501,0.000708558,0.040632322,1.015954971
86.932851,0.164649963,-1.835807800,-0.940868378,-0.009179138,0.060529783,1.011194229
86.971164,4.513404846,-6.314262390,1.035144806,0.050024964,-0.012712402,0.980798721
86.985388,3.544471741,-2.964958191,-0.376293182,0.043311097,-0.051774904,0.971399307
87.000719,-1.445152283,5.862251282,-1.787731171,0.041968323,-0.058977053,0.980066299
87.039023,-2.276756287,21.807685852,-6.212779999,0.010352112,0.046979979,0.993127823
87.077346,3.597877502,13.957038879,-8.776256561,-0.000268005,0.060163572,0.960290909
87.091598,4.376075745,9.264961243,-8.966991425,-0.008934997,0.039655760,0.949914932
87.106948,2.842567444,-2.095207214,-6.037303925,-0.019921325,0.005598145,0.938806534
87.145228,0.706336975,-19.276603699,-1.429149628,-0.036034606,0.052473143,0.976037979
87.183516,-2.002098083,-24.716362000,-1.574108124,-0.031273864,0.028303223,0.951623917
87.197779,-1.567222595,-23.045524597,-0.025341034,-0.022240661,0.067121580,0.978723526
87.213108,-0.216819763,-21.939262390,0.073841095,-0.027123474,0.065046385,0.979578018
87.251400,0.614784241,-8.542045593,0.821521759,-0.014306091,0.049787596,0.971277237
87.289684,-0.583030701,2.184883118,1.500537872,-0.011986755,0.059309080,0.954797745
87.303914,-2.147056580,3.603950500,1.515796661,-0.011254333,0.026960449,0.962121964
87.319225,-3.283836365,6.007209778,1.454761505,0.000586487,0.009260254,0.984460831
87.357494,-6.251670837,10.104194641,1.859119415,-0.012719177,0.029645996,1.035974503
87.409911,0.561378479,11.889472961,3.827503204,-0.025902770,0.077741697,1.046960831
87.424251,2.522132874,5.702033997,3.278186798,-0.015648864,0.056013182,1.051477432
87.439597,3.094337463,2.123847961,4.971912384,-0.024559997,0.044050291,1.049890518
87.477888,1.904151917,1.513496399,5.109241486,-0.027245544,0.069318846,1.040369034
87.516185,7.420204163,-5.108818054,10.571887970,-0.060204528,0.174421385,0.970056534
87.530410,9.907386780,-7.458671570,11.495044708,-0.019433044,0.126081541,0.951990128
87.545722,10.281227112,-9.663566589,9.816577911,-0.005272888,-0.014543457,0.916833878
87.584028,-8.136131287,-9.221061707,7.504871368,0.021948792,-0.151140139,0.902429581
87.622327,-10.142662048,-9.633049011,8.099964142,-0.023095153,-0.000871582,0.951868057
87.636570,-11.599876404,-13.226493835,8.305957794,-0.048974060,0.052839354,0.989953995
87.651894,-9.150840759,-14.149650574,10.373523712,-0.037499450,0.059675291,1.004968643
87.690199,-5.328514099,-2.919181824,7.413318634,0.014258362,-0.059099123,1.052087784
87.728501,-2.948143005,12.339607239,2.454212189,0.013159730,0.003767090,1.081018448
87.742742,0.019691467,12.927070618,1.752307892,-0.011620544,0.038312986,1.051721573
87.758067,2.216957092,12.232795715,2.324512482,-0.009789489,0.035017088,1.047815323
87.796383,4.353187561,6.007209778,3.476551056,-0.012352966,-0.019914551,0.977136612
87.834692,-1.025535583,4.755989075,3.362110138,0.044287659,-0.109025881,0.978723526
87.848932,-3.573753357,7.609382629,0.775745392,0.043066956,-0.057268068,0.988122940
87.864232,-6.854393005,11.668220520,-1.001903534,-0.005517028,0.048688963,0.997766495
87.864993,-6.854393005,11.668220520,-1.001903534,-0.005517028,0.048688963,0.997766495
87.903044,3.208778381,5.000129700,-1.001903534,-0.008934997,0.004255371,1.003747940
87.941342,-5.397178650,0.239387512,-2.123424530,0.004858948,-0.026018066,0.990686417
87.955585,-6.610252380,-0.828727722,-2.184459686,-0.012963317,0.031965330,0.998254776
87.970887,-5.442955017,-2.301200867,-1.131603241,-0.020775817,0.058332518,1.021936417
88.009168,-1.185752869,-5.688652039,0.363758087,-0.017724060,0.004255371,1.012048721
88.087494,3.201148987,-0.615104675,-1.894542694,0.006323792,-0.029558105,1.006433487
88.101817,1.812599182,-0.111564636,-2.512523651,0.027564026,-0.043596193,1.000818253
88.117155,0.637672424,0.864997864,-3.519603729,0.021216370,-0.034318849,1.003503799
88.155429,3.315589905,2.078071594,-5.861827850,0.029883362,-0.038835451,1.019495010
88.193731,2.567909241,3.642097473,-7.608959198,0.035132386,-0.003923340,1.054285049
88.207969,3.399513245,4.420295715,-7.082530975,0.039526917,-0.018693848,1.055994034
88.223269,2.873085022,7.739082336,-9.020397186,0.058325745,-0.018083496,1.056360245
88.261562,3.155372620,5.724922180,-11.171886444,0.008521058,0.165388182,1.037073135
88.299860,7.580421448,2.779975891,-15.055248260,0.054907776,-0.208879396,0.965906143
88.314113,0.515602112,1.292243958,-14.551708221,0.018652894,-0.185319826,0.977991104
88.329435,-0.972129822,-0.287040710,-16.764232635,0.012793519,-0.084367678,0.999231339
88.367711,0.034950256,-7.901176453,-13.346263885,-0.032738708,0.018659668,0.957361221
88.406041,-1.056053162,-21.969779968,-7.532665253,-0.049218200,0.007429199,0.949914932
88.420288,-3.398277283,-23.640617371,-4.770824432,-0.037133239,0.041242674,0.976648331
88.435597,-1.986839294,-23.709281921,-5.076000214,-0.036400817,0.049665526,0.989953995
88.436364,-1.986839294,-23.709281921,-5.076000214,-0.036400817,0.049665526,0.989953995
88.436957,-1.986839294,-23.709281921,-5.076000214,-0.036400817,0.049665526,0.989953995
88.437600,-1.986839294,-23.709281921,-5.076000214,-0.036400817,0.049665526,0.989953995
88.438190,-1.986839294,-23.709281921,-5.076000214,-0.036400817,0.049665526,0.989953995
88.438826,-0.110008240,-24.189933777,-4.847118378,-0.045311950,0.052229002,0.992273331
88.439421,-0.110008240,-24.189933777,-4.847118378,-0.045311950,0.052229002,0.992273331
88.440061,-0.110008240,-24.189933777,-4.847118378,-0.045311950,0.052229002,0.992273331
88.440659,-0.110008240,-24.189933777,-4.847118378,-0.045311950,0.052229002,0.992273331
88.441298,-0.110008240,-24.189933777,-4.847118378,-0.045311950,0.052229002,0.992273331
88.441886,-0.110008240,-24.189933777,-4.847118378,-0.045311950,0.052229002,0.992273331
88.442530,-0.110008240,-24.189933777,-4.847118378,-0.045311950,0.052229002,0.992273331
88.480587,-0.979759216,-18.803581238,-0.940868378,-0.019677185,0.007062988,0.980920792
88.518882,-2.536155701,-1.416191101,-3.748485565,-0.013451599,-0.017106934,0.994470596
88.533128,-1.872398376,1.391426086,-2.260753632,-0.010155700,-0.009660644,0.996545792
88.548431,-1.033164978,5.610481262,-1.581737518,0.013403870,-0.006120605,0.991174698
88.586719,-1.376487732,11.248603821,-3.122875214,0.005347230,0.010847168,0.983118057
88.625060,-0.727989197,8.791938782,-2.764293671,-0.016137145,-0.073869631,0.980188370
88.639306,-3.039695740,5.923286438,-0.742504120,0.001563050,-0.010393066,0.995569229
88.654600,-1.979209900,5.747810364,-1.169750214,-0.003319763,0.002668457,1.003381729
88.692890,0.301979065,-0.111564636,0.943592072,-0.007592224,-0.029191894,0.990198135
88.747028,-2.620079041,5.084053040,1.622608185,0.005103089,0.002546387,0.983362198
88.761362,-1.376487732,6.266609192,1.630237579,0.004614808,-0.010393066,0.989343643
88.776743,-2.253868103,5.473152161,-1.497814178,0.020728089,-0.071672365,0.976160049
88.815031,-4.092552185,-3.483757019,1.271656036,-0.021996520,-0.005754394,1.024621964
88.853328,-1.666404724,-7.184013367,1.943042755,-0.013817810,0.012556152,1.004358292
88.867562,-0.148155212,-10.395988464,2.515247345,-0.042748474,0.013288574,0.995691299
88.882871,1.080177307,-13.340934753,5.330493927,-0.039086364,-0.009538574,0.987512589
88.921166,-0.041343689,-7.138237000,6.688526154,-0.001976989,-0.077043459,0.969568253
88.959447,-4.573204041,2.863899231,5.628040314,-0.001244567,-0.068620607,0.976892471
88.973673,-5.221702576,4.534736633,5.132129669,0.002173401,-0.053728029,0.973108292
88.988980,-8.403160095,9.913459778,6.764820099,-0.015648864,0.002668457,0.998743057
89.027236,-3.978111267,14.513984680,4.659107208,-0.017724060,0.026472168,0.998620987
89.081698,-2.688743591,8.463874817,3.072193146,0.011206605,-0.043718264,0.972253799
89.096024,-2.391197205,4.687324524,1.996448517,0.005591370,0.000837402,0.978845596
89.111344,-2.002098083,2.078071594,2.149036407,-0.004418395,0.008039551,0.963586807
89.149623,-5.549766541,-5.070671082,4.399707794,0.024268128,-0.064592287,0.975183487
89.187905,-7.617332458,3.237739563,1.660755157,0.009131409,-0.008439941,1.033288956
89.202165,-6.053306580,4.672065735,0.432422638,0.006567933,-0.028337402,1.034753799
89.217470,-4.809715271,4.031196594,-0.269481659,0.012061097,-0.037248537,1.049280167
89.255738,-3.306724548,-3.537162781,0.058582306,-0.022118591,0.043562010,1.050867081
89.294053,1.888893127,-9.098991394,2.744129181,-0.005272888,-0.059953615,1.036340714
89.308286,0.523231506,-9.304985046,2.385547638,-0.002465270,-0.076555178,1.026575089
89.323604,-2.116539001,-6.253227234,2.492359161,-0.001000427,-0.051286623,1.032434464
89.361860,0.759742737,0.887886047,0.760486603,-0.004540466,-0.024553223,1.026208878
89.411640,-0.727989197,0.224128723,0.409534454,-0.015893005,-0.045915529,1.016809464
89.425982,-0.407554626,2.001777649,2.911975861,-0.009545349,-0.000993652,1.027063370
89.441329,0.599525452,3.085151672,1.340320587,-0.012841247,0.009138184,1.022668839
89.479619,2.232215881,-0.226005554,3.507068634,0.004126526,-0.072526857,0.991785049
89.517915,-1.826622009,3.085151672,3.835132599,0.002905823,-0.018571777,1.001672745
89.532151,-0.804283142,5.808845520,4.010608673,-0.002343200,-0.035051271,0.991540909
89.547446,-0.697471619,5.473152161,3.377368927,0.004614808,-0.045427248,0.991296768
89.585729,-4.527427673,1.254096985,4.048755646,0.027075745,-0.062395021,1.007043839
89.624051,-3.138877869,0.575080872,4.628589630,0.013525940,-0.025529785,1.032678604
89.638280,-3.009178162,1.856819153,4.056385040,0.018286683,-0.035661623,1.038415909
89.653568,-3.047325134,4.450813293,2.782276154,0.015234925,-0.025651855,1.039636612
89.691854,-0.247337341,9.249702454,2.469470978,0.017065980,0.047834471,1.063806534
89.730163,5.261085510,10.073677063,0.996997833,0.035254456,-0.022600098,1.034265518
89.744399,2.972267151,7.609382629,-0.704357147,0.020728089,-0.050310060,1.019128799
89.759716,2.377174377,5.587593079,-0.948497772,0.020483948,-0.019182129,1.021448135
89.760478,2.377174377,5.587593079,-0.948497772,0.020483948,-0.019182129,1.021448135
89.761065,3.338478088,3.047004700,-0.948497772,0.009253480,0.001447754,1.024499893
89.761688,3.338478088,3.047004700,-0.948497772,0.009253480,0.001447754,1.024499893
89.762260,3.338478088,3.047004700,-0.948497772,0.009253480,0.001447754,1.024499893
89.800400,7.206581116,-3.308280945,-0.055858612,0.019019105,-0.046647951,0.990198135
89.838694,5.047462463,-9.289726257,-0.109264374,0.001196839,-0.017961426,0.980310440
89.852915,1.766822815,-7.542594910,0.043323517,0.003394105,-0.011003418,0.972497940
89.868232,1.461647034,-5.803092957,-0.567028046,0.005225159,-0.005021973,0.978479385
89.906492,0.477455139,-0.882133484,-3.244945526,0.012671448,-0.058122560,0.973962784
89.944824,-0.529624939,-2.491935730,-3.809520721,0.003272034,-0.007585449,1.005456924
89.959056,-0.010826111,-2.591117859,-4.694530487,-0.007103942,0.000715332,1.007654190
89.974348,1.446388245,-6.855949402,-2.680370331,-0.027611755,0.004987793,1.006921768
90.012620,0.050209045,-9.037956238,1.126697540,-0.019310974,-0.014177246,1.000696182
90.050907,1.690528870,0.102058411,0.028064728,-0.012230895,0.012067871,1.000329971
90.078053,2.621315002,1.887336731,0.417163849,-0.013329528,-0.021135254,0.993494034
90.092375,0.546119690,2.345100403,0.867298126,-0.006737731,-0.022355957,0.987756729
90.130593,1.064918518,4.122749329,0.012805939,-0.018212341,0.005354004,0.995935440
90.168905,2.087257385,-1.233085632,1.790454865,-0.004540466,-0.008073730,0.986291885
90.183157,1.972816467,-0.470146179,1.683643341,0.002539612,-0.014909668,0.985559464
90.198457,1.255653381,0.224128723,-0.071117401,0.002783753,-0.028215332,0.981287003
90.236738,-0.064231873,-2.430900574,1.279285431,-0.005272888,0.002058106,0.990564346
90.275061,0.492713928,2.795234680,1.233509064,-0.011742614,-0.000627441,0.988977432
90.302522,0.538490295,4.313484192,0.256946564,-0.009911560,-0.012468262,0.985803604
90.316845,0.363014221,3.489509583,0.592639923,-0.004296325,-0.016740723,0.987024307
90.355025,0.279090881,-3.064140320,1.645496368,-0.016625427,-0.003068848,0.992273331
90.393324,-0.499107361,-5.063041687,3.316333771,-0.013451599,0.025129395,1.005701065
90.407567,0.446937561,-1.072868347,3.423145294,0.000342347,0.001569824,1.007410049
90.422884,0.126502991,1.475349426,2.446582794,0.005835511,-0.004533691,1.004602432
90.461171,1.248023987,1.559272766,4.537036896,0.002295472,0.014631348,1.003870010
