time,gyro x,gyro y,gyro z,accel x,accel y,accel z
106.249515,2.968238831,1.162818909,0.701519012,-0.040642884,-0.077566952,0.920022964
106.288327,5.577491760,9.364418030,3.333660126,-0.058343079,-0.044607971,0.902322769
106.302563,5.699562073,13.324073792,2.929302216,-0.033318665,-0.094900936,0.989969254
106.318224,5.470680237,12.057594299,0.945659637,-0.000970032,-0.101004452,1.028299332
106.356724,0.748085022,3.802589417,-2.479938507,-0.042107727,-0.098074764,1.098855972
106.395198,0.114845276,-11.532493591,-4.265216827,-0.039300110,-0.062918514,1.083353043
106.409432,-1.533103943,-25.784202576,-7.294086456,0.060065124,-0.089407772,1.081277847
106.424919,-2.059532166,-32.299705505,-7.751850128,0.082892276,-0.088187069,1.069559097
106.463488,-4.432273865,-29.782005310,-4.501728058,0.050543640,-0.064017147,0.982156754
106.501988,0.946449280,6.266883850,-1.549152374,-0.041131165,-0.091971248,0.952005386
106.516358,1.053260803,15.719703674,-0.282672882,-0.034783509,-0.087210506,0.960672379
106.531763,0.564979553,26.355079651,1.205059052,0.041876648,-0.098074764,0.981302261
106.570316,0.076698303,3.718666077,0.297161102,0.111212589,-0.142630428,1.036233902
106.608806,-1.548362732,-5.520530701,0.388713837,-0.017327454,-0.113089412,1.025247574
106.623032,-2.219749451,-4.803367615,1.792522430,-0.019890931,-0.112723202,1.020242691
106.638470,-1.357627869,-7.931419373,0.144573212,-0.007439758,-0.130545467,1.019388199
106.677020,-3.196311951,-12.516685486,-2.121356964,-0.006829407,-0.164481014,1.046854019
106.715490,-6.393028259,5.542091370,2.120586395,0.007819030,-0.162283748,0.985818863
106.729872,-3.837181091,1.811317444,0.396343231,0.050909851,-0.129690975,0.968851089
106.745277,-2.608848572,-2.308555603,-0.336078644,0.050543640,-0.165701717,0.973123550
106.783819,-2.631736755,-4.505821228,-0.404743195,0.019049499,-0.202811092,0.961526871
106.784602,-2.631736755,-4.505821228,-0.404743195,0.019049499,-0.202811092,0.961526871
106.785305,-2.631736755,-4.505821228,-0.404743195,0.019049499,-0.202811092,0.961526871
106.786033,-2.631736755,-4.505821228,-0.404743195,0.019049499,-0.202811092,0.961526871
106.786743,-3.020835876,-2.178855896,0.808330536,0.019659851,-0.201102108,0.949075699
106.787470,-3.020835876,-2.178855896,0.808330536,0.019659851,-0.201102108,0.949075699
106.788168,-3.020835876,-2.178855896,0.808330536,0.019659851,-0.201102108,0.949075699
106.788893,-3.020835876,-2.178855896,0.808330536,0.019659851,-0.201102108,0.949075699
106.789599,-3.020835876,-2.178855896,0.808330536,0.019659851,-0.201102108,0.949075699
106.790327,-3.020835876,-2.178855896,0.808330536,0.019659851,-0.201102108,0.949075699
106.791036,-3.020835876,-2.178855896,0.808330536,0.019659851,-0.201102108,0.949075699
106.791764,-3.020835876,-2.178855896,0.808330536,0.019659851,-0.201102108,0.949075699
106.830124,0.076698303,3.093055725,1.624675751,0.012701843,-0.145315975,0.947122574
106.844350,0.145362854,5.542091370,2.471538544,-0.004876282,-0.172171444,0.959085464
106.859939,-1.456809998,12.439064026,3.226848602,-0.020867493,-0.224661678,0.970315933
106.898447,-2.967430115,4.435829163,-0.236896515,0.043707702,-0.193167537,0.984354019
106.952334,-3.486228943,-11.486717224,-0.152973175,0.067511417,-0.175833553,0.990701675
106.966619,-7.094932556,-23.998924255,-2.029804230,0.081183292,-0.233206600,0.997293472
106.982234,-7.873130798,-29.553123474,-2.647785187,0.066046573,-0.195608944,0.984842300
107.020611,-7.545066833,-18.139549255,-1.610187531,-0.022332337,-0.160696834,0.944681168
107.059137,-3.432823181,1.559547424,-0.610736847,0.030768249,-0.180594295,0.955301285
107.073513,-3.295494080,3.932289124,-0.610736847,0.020026062,-0.161917537,0.958475113
107.088934,-1.769615173,14.613441467,-1.518634796,-0.023553040,-0.175223202,0.958108902
107.127493,-2.906394958,30.497840881,0.838848114,0.074591495,-0.217459530,0.973978043
107.165967,-4.729820251,0.003150940,-5.546955109,0.065802433,-0.204520077,0.973733902
107.180190,-5.622459412,-4.009910583,-6.828693390,0.041388366,-0.211356014,0.965066910
107.195825,-4.539085388,-9.754844666,-7.103351593,0.066290714,-0.178519100,0.961526871
107.234315,-5.706382751,-33.993431091,-11.879352570,0.041266296,-0.191580623,0.954446793
107.288531,-0.022483826,7.289222717,-8.926776886,-0.029778626,-0.192068905,0.918191910
107.302789,0.259803772,15.666297913,-8.247760773,0.000983093,-0.239432186,0.929910660
107.318417,-0.236106873,24.302772522,-8.278278351,0.032477234,-0.207571834,0.941141129
107.356766,4.326271057,33.572486877,-7.988361359,0.056647155,-0.173880428,0.954813004
107.395271,0.404762268,8.227638245,-6.287006378,0.124640323,-0.192557186,1.006937027
107.409659,0.496315002,-0.584312439,-7.820514679,0.100958683,-0.194510311,1.004861832
107.425060,-1.235557556,-10.723777771,-9.895709991,0.047369812,-0.210257381,0.998147964
107.425914,-1.235557556,-10.723777771,-9.895709991,0.047369812,-0.210257381,0.998147964
107.426674,-1.235557556,-10.723777771,-9.895709991,0.047369812,-0.210257381,0.998147964
107.427420,-1.235557556,-10.723777771,-9.895709991,0.047369812,-0.210257381,0.998147964
107.428149,-1.235557556,-10.723777771,-9.895709991,0.047369812,-0.210257381,0.998147964
107.428883,-1.235557556,-10.723777771,-9.895709991,0.047369812,-0.210257381,0.998147964
107.429619,-1.235557556,-10.723777771,-9.895709991,0.047369812,-0.210257381,0.998147964
107.430355,-1.235557556,-10.723777771,-9.895709991,0.047369812,-0.210257381,0.998147964
107.431086,-1.235557556,-10.723777771,-9.895709991,0.047369812,-0.210257381,0.998147964
107.431819,-1.235557556,-10.723777771,-9.895709991,0.047369812,-0.210257381,0.998147964
107.432555,-1.563621521,-10.693260193,-10.124591827,0.025397155,-0.165823787,0.996194839
107.433298,-1.563621521,-10.693260193,-10.124591827,0.025397155,-0.165823787,0.996194839
107.434037,-1.563621521,-10.693260193,-10.124591827,0.025397155,-0.165823787,0.996194839
107.434777,-1.563621521,-10.693260193,-10.124591827,0.025397155,-0.165823787,0.996194839
107.435516,-1.563621521,-10.693260193,-10.124591827,0.025397155,-0.165823787,0.996194839
107.436258,-1.563621521,-10.693260193,-10.124591827,0.025397155,-0.165823787,0.996194839
107.437002,-1.563621521,-10.693260193,-10.124591827,0.025397155,-0.165823787,0.996194839
107.475448,-3.409934998,-12.005516052,-8.903888702,0.059088562,-0.169363827,1.008768082
107.513978,-2.135826111,-0.698753357,-8.392719269,-0.002068664,-0.107596248,0.975564957
107.528202,-0.411582947,6.236366272,-7.309345245,-0.005730774,-0.105521053,0.978860855
107.543807,1.053260803,15.338233948,-5.516437531,0.048956726,-0.142630428,1.002786636
107.582310,3.113197327,7.891944885,-7.538227081,0.069708683,-0.138113827,1.047220230
107.620787,5.722450256,15.292457581,-6.409076691,0.031988952,-0.144095272,1.063577652
107.652191,0.275062561,11.912635803,-2.106098175,0.131964535,-0.160696834,1.106546402
107.666689,0.374244690,6.930641174,-1.915363312,0.120978214,-0.108939022,1.099588394
107.705142,2.029823303,9.547523499,3.577800751,0.038336609,-0.079031795,1.072488785
107.743616,-7.300926208,3.016761780,3.478618622,0.037848327,-0.245657772,1.078104019
107.757845,-7.964683533,-0.134178162,3.120037079,0.031744812,-0.190604061,1.060525894
107.773289,-8.636070251,-4.475303650,1.670452118,0.006110047,-0.173880428,1.034158707
107.811828,-9.803367615,-15.400596619,2.280803680,0.023688171,-0.146536678,1.001565933
107.850292,-9.193016052,-6.611534119,4.447551727,-0.043816712,-0.082327694,0.951883316
107.864528,-7.903648376,0.102333069,5.775066376,-0.045037415,-0.061331604,0.945047379
107.880128,-6.316734314,10.432533264,8.605571747,-0.034905579,-0.130667537,0.952981949
107.918636,-7.918907166,14.262489319,6.423564911,-0.039910462,-0.136526912,0.954080582
107.957106,-9.231163025,11.996559143,4.767986298,-0.005974914,-0.174490780,0.950174332
107.971331,-9.513450623,-2.293296814,5.149456024,0.038214538,-0.185477108,0.958841324
107.986799,-9.940696716,-12.310691833,1.769634247,0.038580749,-0.199393123,0.960184097
108.025378,-6.141258240,-20.970054626,-2.617267609,-0.081170224,-0.200125545,0.927469254
108.026149,-6.141258240,-20.970054626,-2.617267609,-0.081170224,-0.200125545,0.927469254
108.026844,-6.141258240,-20.970054626,-2.617267609,-0.081170224,-0.200125545,0.927469254
108.027565,-6.141258240,-20.970054626,-2.617267609,-0.081170224,-0.200125545,0.927469254
108.082131,-3.249717712,20.633033752,0.922771454,-0.093499325,-0.204642147,0.989480972
108.096389,-2.616477966,26.561073303,0.678630829,-0.089348935,-0.175589412,0.994119644
108.111838,-2.875877380,36.464027405,3.623577118,-0.029168274,-0.154959530,1.025369644
108.150401,-4.287315369,10.104469299,6.026836395,0.064093448,-0.104422420,1.050638199
108.188864,-3.501487732,-19.924827576,1.838298798,-0.055169251,-0.145682186,1.026346207
108.203097,-4.645896912,-18.765159607,3.600688934,-0.062981747,-0.164236873,1.015237808
108.218730,-3.776145935,-15.019126892,5.965801239,-0.062981747,-0.160086483,0.981668472
108.257237,4.120277405,-7.420249939,2.395244598,-0.082024716,-0.189505428,0.948709488
108.295683,7.500099182,9.448341370,2.204509735,-0.090203427,-0.174734920,0.952737808
108.309932,6.309913635,16.787818909,1.418682098,-0.051629212,-0.129324764,0.962015152
108.325392,7.873939514,16.871742249,0.724407196,-0.029290345,-0.090506405,0.968118668
108.375687,6.302284241,2.177528381,-0.114826202,0.029791687,-0.121268123,0.962747574
108.414031,3.349708557,-18.933006287,-3.761676788,0.005255554,-0.175223202,0.941385269
108.428444,2.746986389,-18.650718689,-1.999286652,-0.012932923,-0.186453670,0.930154800
108.443874,2.434181213,-16.178794861,-0.313190460,-0.025506165,-0.176565975,0.928812027
108.482417,3.891395569,1.941017151,-1.602558136,-0.042718079,-0.164969295,0.948953629
108.520882,0.275062561,22.456459045,2.441020966,0.008795593,-0.172903866,0.957620621
108.535117,-0.808311462,24.310401917,3.844829559,0.026129577,-0.175101131,0.960062027
108.550716,-1.723838806,21.579078674,4.668804169,0.061529968,-0.177664608,0.960428238
108.589198,-3.158164978,-0.889488220,4.302593231,0.072394229,-0.177542537,0.947366714
108.627664,-2.280784607,-11.952110291,1.746746063,-0.035515931,-0.206839412,0.949197769
108.641912,-0.808311462,-9.327598572,1.838298798,-0.047967102,-0.171072811,0.956033707
108.657376,0.481056213,-1.095481873,1.510234833,-0.065301083,-0.209402889,0.996438980
108.695905,-2.799583435,13.507179260,0.777812958,-0.048699524,-0.161429256,1.019144058
108.734360,-1.205039978,10.958961487,-0.282672882,0.007208679,-0.141531795,1.023050308
108.748586,-1.006675720,7.106117249,0.007244110,0.021490905,-0.146170467,1.023904800
108.764208,0.519203186,-3.765769958,1.350017548,0.034674499,-0.121634334,1.021341324
108.802679,2.922462463,-21.092124939,0.777812958,-0.014763977,-0.142630428,1.033914566
108.841170,0.923561096,-27.409263611,-3.174213409,-0.063836239,-0.124441952,1.048074722
108.855405,-0.358177185,-22.946067810,-2.663043976,-0.074944638,-0.113211483,1.027933121
108.870890,-1.029563904,-19.024559021,-2.579120636,-0.081292294,-0.144339412,1.011575699
108.909455,-0.411582947,-4.528709412,-1.404193878,-0.030511048,-0.127859920,0.948221207
108.947946,2.487586975,-9.503074646,-0.786212921,-0.006707336,-0.081351131,0.910989761
108.962170,4.669593811,-8.938499451,-0.671772003,-0.021721985,-0.074881405,0.901590347
108.977784,7.149147034,-3.613182068,1.884075165,-0.032097962,-0.111868709,0.908914566
109.016275,7.080482483,-3.178306580,-1.297382355,-0.046136048,-0.230643123,0.949563980
109.017039,7.080482483,-3.178306580,-1.297382355,-0.046136048,-0.230643123,0.949563980
109.017723,7.080482483,-3.178306580,-1.297382355,-0.046136048,-0.230643123,0.949563980
109.018438,7.080482483,-3.178306580,-1.297382355,-0.046136048,-0.230643123,0.949563980
109.019125,7.080482483,-3.178306580,-1.297382355,-0.046136048,-0.230643123,0.949563980
109.019827,7.080482483,-3.178306580,-1.297382355,-0.046136048,-0.230643123,0.949563980
109.020518,7.080482483,-3.178306580,-1.297382355,-0.046136048,-0.230643123,0.949563980
109.021232,7.080482483,-3.178306580,-1.297382355,-0.046136048,-0.230643123,0.949563980
109.059563,3.662513733,3.680519104,-5.531696320,-0.055535462,-0.145193905,0.949197769
109.073790,1.160072327,4.733375549,-4.173664093,0.009161804,-0.189627498,0.980569839
109.089270,-1.044822693,1.941017151,-3.250507355,0.034064148,-0.177542537,0.982278824
109.090112,-1.044822693,1.941017151,-3.250507355,0.034064148,-0.177542537,0.982278824
109.152363,0.938819885,-8.778282166,-4.265216827,0.021246765,-0.128470272,0.957254410
109.190877,2.151893616,3.085426331,0.312419891,0.023688171,-0.199759334,0.995462418
109.205128,0.931190491,7.319740295,0.327678680,0.051031921,-0.201468319,1.019021988
109.220723,-0.480247498,7.426551819,0.770183563,0.069586612,-0.207571834,1.026590347
109.259062,1.930641174,-0.027366638,3.844829559,0.127692074,-0.145315975,1.072244644
109.259888,1.930641174,-0.027366638,3.844829559,0.127692074,-0.145315975,1.072244644
109.260746,1.930641174,-0.027366638,3.844829559,0.127692074,-0.145315975,1.072244644
109.261420,0.938819885,-4.070945740,6.080242157,0.132941097,-0.176810116,1.079690933
109.262102,0.938819885,-4.070945740,6.080242157,0.132941097,-0.176810116,1.079690933
109.262808,0.938819885,-4.070945740,6.080242157,0.132941097,-0.176810116,1.079690933
109.263498,0.938819885,-4.070945740,6.080242157,0.132941097,-0.176810116,1.079690933
109.264221,0.938819885,-4.070945740,6.080242157,0.132941097,-0.176810116,1.079690933
109.264918,0.938819885,-4.070945740,6.080242157,0.132941097,-0.176810116,1.079690933
109.265634,0.938819885,-4.070945740,6.080242157,0.132941097,-0.176810116,1.079690933
109.266337,0.938819885,-4.070945740,6.080242157,0.132941097,-0.176810116,1.079690933
109.267063,0.938819885,-4.070945740,6.080242157,0.132941097,-0.176810116,1.079690933
109.267757,0.938819885,-4.070945740,6.080242157,0.132941097,-0.176810116,1.079690933
109.268485,0.938819885,-4.070945740,6.080242157,0.132941097,-0.176810116,1.079690933
109.269187,0.938819885,-4.070945740,6.080242157,0.132941097,-0.176810116,1.079690933
109.307573,-2.769065857,-12.600608826,4.302593231,0.061652038,-0.156180233,1.034891129
109.321797,2.418922424,-8.099266052,5.668254852,0.087042667,0.022164490,1.001688004
109.337248,5.562232971,-6.268211365,7.773967743,0.098028995,0.007271912,1.004617691
109.375768,11.642860413,-4.948326111,8.826824188,0.023077819,-0.063650936,1.012552261
109.414251,10.734962463,12.049964905,3.837200165,0.012213562,-0.041556213,1.046365738
109.428513,10.345863342,17.260841370,4.264446259,0.041144226,-0.019705627,1.045022964
109.444118,8.095191956,23.639015198,8.040996552,0.083746769,-0.053763244,1.022195816
109.482597,9.918617249,6.243995667,8.277507782,0.132941097,-0.103323787,0.988138199
109.521088,6.767677307,-16.918846130,8.681865692,0.069220401,-0.100394100,0.957254410
109.535329,5.707191467,-18.116661072,11.008831024,0.054571960,-0.105398983,0.950052261
109.550791,6.790565491,-17.979331970,9.711833954,0.006842468,-0.075003475,0.947610855
109.589320,2.464698792,2.291969299,9.788127899,-0.034539368,-0.113943905,0.940164566
109.590082,2.464698792,2.291969299,9.788127899,-0.034539368,-0.113943905,0.940164566
109.590776,2.464698792,2.291969299,9.788127899,-0.034539368,-0.113943905,0.940164566
109.591496,2.464698792,2.291969299,9.788127899,-0.034539368,-0.113943905,0.940164566
109.592206,2.464698792,2.291969299,9.788127899,-0.034539368,-0.113943905,0.940164566
109.592921,2.464698792,2.291969299,9.788127899,-0.034539368,-0.113943905,0.940164566
109.593616,2.464698792,2.291969299,9.788127899,-0.034539368,-0.113943905,0.940164566
109.594355,2.464698792,2.291969299,9.788127899,-0.034539368,-0.113943905,0.940164566
109.595060,2.464698792,2.291969299,9.788127899,-0.034539368,-0.113943905,0.940164566
109.595773,2.464698792,2.291969299,9.788127899,-0.034539368,-0.113943905,0.940164566
109.596484,2.464698792,2.291969299,9.788127899,-0.034539368,-0.113943905,0.940164566
109.597203,2.464698792,2.291969299,9.788127899,-0.034539368,-0.113943905,0.940164566
109.597904,2.464698792,2.291969299,9.788127899,-0.034539368,-0.113943905,0.940164566
109.598772,2.609657288,7.045082092,9.635540009,-0.014641907,-0.107474178,0.943704605
109.599434,2.609657288,7.045082092,9.635540009,-0.014641907,-0.107474178,0.943704605
109.600125,2.609657288,7.045082092,9.635540009,-0.014641907,-0.107474178,0.943704605
109.638402,1.076148987,9.478858948,10.062786102,0.021246765,-0.124564022,0.965799332
109.652820,-1.823020935,7.205299377,9.467693329,0.014654968,-0.132376522,0.972024918
109.680538,1.327919006,4.107765198,10.581584930,0.017828796,-0.124319881,0.972513199
109.719188,0.587867737,-7.549949646,4.935832977,-0.066033505,-0.081229061,0.986917496
109.757681,0.259803772,2.185157776,3.562541962,-0.045403626,-0.089163631,1.026102066
109.772082,2.037452698,4.214576721,3.913494110,-0.038445618,-0.150320858,1.068338394
109.787502,-0.930381775,2.360633850,-0.008014679,-0.044427063,-0.173514217,1.073465347
109.839668,-0.693870544,11.065773010,-3.425983429,-0.034661438,-0.116629452,1.083475113
109.878234,-1.357627869,3.192237854,-5.333332062,0.007452820,-0.032400940,1.062723160
109.892460,0.069068909,2.223304749,-3.319171906,0.001959656,0.023018982,1.044534683
109.908060,3.433631897,2.101234436,-2.449420929,-0.012932923,-0.009085510,1.030862808
109.946582,4.944252014,0.415138245,0.365825653,-0.028679993,-0.050833557,1.017923355
109.985082,4.013465881,1.475624084,-2.136615753,-0.052727845,-0.011648986,0.990701675
109.999319,4.921363831,7.594398499,0.220867157,-0.038933899,-0.029349182,0.979471207
110.014782,4.600929260,9.341529846,0.999065399,-0.022820618,-0.024832580,0.977396011
110.053375,1.984046936,1.216224670,1.494976044,0.023688171,-0.069022030,0.972024918
110.091870,1.068519592,-9.274192810,-1.831439972,0.003912781,-0.100149959,0.922586441
110.106259,0.656532288,-10.044761658,-1.388935089,0.013434265,-0.090872616,0.916971207
110.121690,0.511573792,-8.457847595,0.213237762,0.002570007,-0.072439998,0.919168472
110.160220,0.183509827,-1.339622498,0.144573212,-0.010979798,-0.053397033,0.918436050
110.198695,-1.128746033,1.841835022,-0.023273468,0.015387390,-0.097220272,0.945535660
110.212935,-1.464439392,4.092506409,1.121135712,0.016241882,-0.097098202,0.944192886
110.228402,-1.136375427,7.991127014,4.432292938,0.026129577,-0.042898986,0.944192886
110.266972,-0.579429626,0.010780334,2.837749481,0.023199890,-0.149710506,1.016580582
110.305484,-0.571800232,0.804237366,5.828472137,-0.008416321,0.060982849,1.002054214
110.319863,2.670692444,2.490333557,5.431743622,-0.011223938,0.006539490,1.016946793
110.335265,2.365516663,2.681068420,4.958721161,0.019049499,-0.098685116,1.067972183
110.336083,2.365516663,2.681068420,4.958721161,0.019049499,-0.098685116,1.067972183
110.336817,2.365516663,2.681068420,4.958721161,0.019049499,-0.098685116,1.067972183
110.337541,2.365516663,2.681068420,4.958721161,0.019049499,-0.098685116,1.067972183
110.338251,2.365516663,2.681068420,4.958721161,0.019049499,-0.098685116,1.067972183
110.338971,2.365516663,2.681068420,4.958721161,0.019049499,-0.098685116,1.067972183
110.377347,-3.104759216,-9.327598572,3.181072235,0.016852234,-0.025809143,1.042459488
110.429680,5.127357483,4.023841858,7.682415009,0.018072937,-0.016775940,1.058572769
110.444103,3.982948303,1.559547424,6.766887665,0.005011414,-0.051443908,1.056497574
110.459498,4.959510803,1.750282288,6.789775848,-0.018426087,-0.025809143,1.057840347
110.498034,1.213478088,9.318641663,6.377788544,0.000128601,0.022286560,1.060647964
110.536531,7.049964905,2.696327209,5.660625458,-0.013299134,-0.005911682,1.046976089
110.550761,5.386756897,1.170448303,4.142375946,-0.021233704,-0.087698787,1.056009293
110.566220,-0.037742615,1.391700745,3.715129852,-0.028802063,-0.099051327,1.032205582
110.604773,4.997657776,8.967689514,6.782146454,-0.051385071,-0.054983947,0.984720230
110.643250,-3.684593201,6.678871155,4.256816864,-0.029290345,-0.118582577,0.981546402
110.657615,-3.875328064,4.504493713,3.493877411,-0.029900696,-0.108084530,0.961038589
110.673020,-1.975608826,2.360633850,5.103679657,-0.054680970,-0.075613827,0.948343277
110.711562,-5.340171814,-2.209373474,-0.381855011,-0.060662415,-0.144339412,0.960550308
110.750050,-5.202842712,-5.055137634,-0.473407745,-0.063958310,-0.041800354,0.906839371
110.764263,-1.769615173,-0.927635193,-1.015094757,-0.081048153,-0.133231014,0.934671402
110.779713,-3.158164978,0.773719788,-1.587299347,-0.073479794,-0.152884334,0.951639175
110.818287,-4.264427185,-1.423545837,-2.449420929,-0.037224915,-0.117117733,0.968973160
110.856767,-2.059532166,6.137184143,-5.241779327,-0.058465149,-0.094656795,1.038553238
110.886479,-5.431724548,5.755714417,-3.929523468,0.013678405,-0.067557186,1.031106949
110.900747,-1.823020935,0.483802795,-3.059772491,-0.008416321,0.016793396,1.009866714
110.939182,-1.678062439,-0.065513611,-4.806903839,-0.037957337,-0.184744686,1.059183121
110.977680,0.923561096,-7.076927185,-4.768756866,-0.026604798,0.024483826,0.972879410
110.991924,9.857582092,-4.460044861,-1.984027863,-0.065423153,0.017037537,1.009622574
111.007543,9.361671448,-2.941795349,-3.502277374,-0.067498349,-0.070486873,1.037332535
111.046048,4.120277405,-5.314537048,-2.952960968,0.002936218,-0.071585506,1.047952652
111.098755,3.708290100,-3.742881775,-3.090290070,-0.047722962,-0.019705627,1.045022964
111.113035,1.755165100,0.903419495,-2.304462433,-0.012078431,-0.059500549,1.034524918
111.128646,-0.197959900,1.651100159,-1.106647491,0.002570007,-0.036673401,1.018533707
111.167191,-1.525474548,-1.049705505,-0.519184113,-0.007195618,-0.140799373,1.019998550
111.205676,-8.781028748,-8.930870056,-0.389484406,0.009039734,-0.108694881,0.948709488
111.219926,-5.233360291,-7.504173279,-1.114276886,-0.029778626,-0.078055233,0.926370621
111.235377,-5.820823669,-4.818626404,-0.297931671,-0.031365540,-0.123343319,0.929910660
111.273932,-9.810997009,-0.637718201,-2.052692413,-0.000603821,-0.107230037,0.897806168
111.312432,-1.540733337,3.146461487,2.235027313,-0.021477845,-0.110770077,0.886819839
111.326651,-2.044273376,2.612403870,1.227947235,-0.020745423,-0.170584530,0.900491714
111.342247,-4.729820251,-1.293846130,1.090618134,-0.008294251,-0.169730037,0.901346207
111.380778,3.769325256,-12.211509705,2.112957001,-0.034905579,-0.104544491,0.902933121
111.419266,-1.288963318,-5.772300720,1.105876923,-0.030633118,-0.121390194,0.957132339
111.433514,-0.838829041,-5.253501892,-0.206378937,-0.009514954,-0.090384334,0.942972183
111.448980,4.372047424,-3.018089294,2.486797333,-0.018426087,0.060616639,0.937479019
111.487522,6.866859436,6.381324768,0.403972626,0.000250672,-0.181448787,1.048685074
111.488297,6.866859436,6.381324768,0.403972626,0.000250672,-0.181448787,1.048685074
111.488992,6.866859436,6.381324768,0.403972626,0.000250672,-0.181448787,1.048685074
111.489715,6.866859436,6.381324768,0.403972626,0.000250672,-0.181448787,1.048685074
111.490419,6.866859436,6.381324768,0.403972626,0.000250672,-0.181448787,1.048685074
111.491137,6.866859436,6.381324768,0.403972626,0.000250672,-0.181448787,1.048685074
111.491823,6.866859436,6.381324768,0.403972626,0.000250672,-0.181448787,1.048685074
111.492556,6.866859436,6.381324768,0.403972626,0.000250672,-0.181448787,1.048685074
111.493251,6.866859436,6.381324768,0.403972626,0.000250672,-0.181448787,1.048685074
111.493975,6.866859436,6.381324768,0.403972626,0.000250672,-0.181448787,1.048685074
111.494678,6.866859436,6.381324768,0.403972626,0.000250672,-0.181448787,1.048685074
111.495413,6.866859436,6.381324768,0.403972626,0.000250672,-0.181448787,1.048685074
111.496097,6.866859436,6.381324768,0.403972626,0.000250672,-0.181448787,1.048685074
111.496825,2.937721252,6.823829651,0.960918427,0.018317077,-0.166678280,1.044168472
111.497520,2.937721252,6.823829651,0.960918427,0.018317077,-0.166678280,1.044168472
111.498248,2.937721252,6.823829651,0.960918427,0.018317077,-0.166678280,1.044168472
111.498954,2.937721252,6.823829651,0.960918427,0.018317077,-0.166678280,1.044168472
111.537386,13.405250549,2.742103577,3.966899872,0.023932312,0.041695740,1.000223160
111.551751,14.656471252,2.276710510,2.914043427,0.017950866,-0.042166565,1.031106949
111.567199,11.169837952,0.514320374,1.350017548,0.032355163,-0.047293518,1.070291519
111.605753,10.582374573,0.239662170,4.005046844,0.032233093,0.027901795,1.049905777
111.644254,7.767127991,3.978065491,1.884075165,0.017706726,-0.032278869,1.102396011
111.658507,4.257606506,5.534461975,3.264995575,0.042486999,0.021309998,1.069314957
111.674141,4.517005920,4.756263733,4.035564423,0.049933288,0.036080506,1.044656754
111.712617,5.699562073,-1.675315857,4.172893524,-0.000115539,-0.117606014,1.050516129
111.769941,-0.510765076,2.406410217,5.378337860,-0.019524720,-0.034842346,0.982278824
111.801432,-2.212120056,4.863075256,2.425762177,-0.025017884,-0.084158748,0.983499527
111.815656,-3.791404724,5.252174377,1.952739716,-0.009881165,-0.071829647,0.962625504
111.854087,-2.761436462,4.542640686,1.105876923,0.003424500,-0.072562069,0.937723160
111.892575,-2.570701599,3.451637268,2.318950653,0.011359069,-0.140799373,0.970804214
111.906791,-3.463340759,-2.812095642,1.517864227,0.013678405,-0.115286678,0.965555191
111.922399,-3.226829529,-5.833335876,1.113506317,0.006598328,-0.113943905,0.960184097
111.960726,-0.648094177,-6.306358337,-2.113727570,-0.066277646,-0.151419491,1.024271011
111.999227,-6.141258240,5.580238342,-5.234149933,-0.027093079,-0.029227111,1.036233902
112.013599,-1.891685486,14.392189026,-2.563861847,-0.005974914,0.054757264,1.040994644
112.029028,-0.968528748,16.978553772,-2.258686066,0.014654968,-0.036185119,1.060525894
112.067576,-7.239891052,1.178077698,-3.433612823,0.095953800,-0.083670467,1.053689957
112.068344,-7.239891052,1.178077698,-3.433612823,0.095953800,-0.083670467,1.053689957
112.069047,-7.239891052,1.178077698,-3.433612823,0.095953800,-0.083670467,1.053689957
112.069760,-7.239891052,1.178077698,-3.433612823,0.095953800,-0.083670467,1.053689957
112.070462,-7.239891052,1.178077698,-3.433612823,0.095953800,-0.083670467,1.053689957
112.071168,-7.239891052,1.178077698,-3.433612823,0.095953800,-0.083670467,1.053689957
112.071859,-7.239891052,1.178077698,-3.433612823,0.095953800,-0.083670467,1.053689957
112.072571,-7.239891052,1.178077698,-3.433612823,0.095953800,-0.083670467,1.053689957
112.073270,-6.431175232,-5.001731873,-2.380756378,0.098028995,0.005318787,1.025979996
112.073978,-6.431175232,-5.001731873,-2.380756378,0.098028995,0.005318787,1.025979996
112.074672,-6.431175232,-5.001731873,-2.380756378,0.098028995,0.005318787,1.025979996
112.075385,-6.431175232,-5.001731873,-2.380756378,0.098028995,0.005318787,1.025979996
112.076077,-6.431175232,-5.001731873,-2.380756378,0.098028995,0.005318787,1.025979996
112.114472,1.945899963,-12.020774841,-0.557331085,0.039191101,-0.048025940,1.045877457
112.128707,0.915931702,-10.334678650,0.907512665,0.036749694,-0.038748596,1.048807144
112.144348,0.267433167,-6.588645935,3.196331024,0.048224304,-0.051443908,1.030984879
112.182839,2.266334534,-13.592430115,7.499309540,0.033453796,-0.053030822,1.019998550
112.221282,0.152992249,-15.690513611,3.699871063,-0.030755188,-0.004446838,0.994974136
112.235521,2.983497620,-7.023521423,6.187053680,-0.047112610,0.028390076,0.970804214
112.250984,4.555152893,-1.141258240,7.400127411,-0.055657532,0.024605896,0.971658707
112.289514,1.923011780,8.525184631,7.857891083,-0.042229798,-0.115652889,1.017313004
112.327981,-3.173423767,-4.429527283,4.523845673,-0.064080380,-0.094290584,0.976663589
112.342203,-2.906394958,-6.199546814,3.150554657,-0.106682919,-0.074637264,0.969461441
112.357797,-3.760887146,-5.024620056,0.976177216,-0.119988583,-0.103445858,0.967508316
112.396295,-6.545616150,5.786231995,-1.556781769,-0.093499325,-0.059256408,0.928812027
112.397070,-6.545616150,5.786231995,-1.556781769,-0.093499325,-0.059256408,0.928812027
112.397782,-6.545616150,5.786231995,-1.556781769,-0.093499325,-0.059256408,0.928812027
112.398511,-6.545616150,5.786231995,-1.556781769,-0.093499325,-0.059256408,0.928812027
112.399220,-6.545616150,5.786231995,-1.556781769,-0.093499325,-0.059256408,0.928812027
112.399951,-6.545616150,5.786231995,-1.556781769,-0.093499325,-0.059256408,0.928812027
112.400648,-6.545616150,5.786231995,-1.556781769,-0.093499325,-0.059256408,0.928812027
112.401385,-6.118370056,7.579139709,-2.121356964,-0.077874325,-0.041190002,0.922586441
112.402085,-6.118370056,7.579139709,-2.121356964,-0.077874325,-0.041190002,0.922586441
112.402810,-6.118370056,7.579139709,-2.121356964,-0.077874325,-0.041190002,0.922586441
112.403523,-6.118370056,7.579139709,-2.121356964,-0.077874325,-0.041190002,0.922586441
112.404255,-6.118370056,7.579139709,-2.121356964,-0.077874325,-0.041190002,0.922586441
112.404960,-6.118370056,7.579139709,-2.121356964,-0.077874325,-0.041190002,0.922586441
112.459448,-3.722740173,4.809669495,-3.776935577,-0.002068664,-0.105276912,0.920389175
112.473870,-3.837181091,1.628211975,-2.266315460,0.011847351,-0.093558162,0.921121597
112.489230,-2.952171326,0.804237366,-0.511554718,0.005011414,-0.092215389,0.928567886
112.544024,-6.095481873,0.727943420,0.602336884,-0.003899719,-0.187430233,0.993143082
112.582537,-3.249717712,0.468544006,0.213237762,-0.018914368,-0.081839412,0.969217300
112.596742,-3.043724060,0.949195862,-0.908283234,-0.011956360,-0.066214412,0.975198746
112.612348,-1.029563904,3.276161194,1.639934540,0.009283874,-0.046561096,0.983865738
112.650823,3.471778870,-1.965232849,2.372356415,0.003058289,-0.110770077,1.003396988
112.651602,3.471778870,-1.965232849,2.372356415,0.003058289,-0.110770077,1.003396988
112.652307,3.471778870,-1.965232849,2.372356415,0.003058289,-0.110770077,1.003396988
112.653036,3.471778870,-1.965232849,2.372356415,0.003058289,-0.110770077,1.003396988
112.653732,3.471778870,-1.965232849,2.372356415,0.003058289,-0.110770077,1.003396988
112.654463,3.471778870,-1.965232849,2.372356415,0.003058289,-0.110770077,1.003396988
112.692801,7.812904358,-5.200096130,-0.755695343,-0.002923157,0.037667420,0.978738785
112.707026,10.315345764,-2.217002869,0.548931122,-0.004388000,0.044137146,0.983011246
112.722491,12.787269592,3.695777893,2.418132782,0.000372742,-0.038016174,1.024271011
112.761039,8.301185608,1.750282288,0.510784149,0.020880554,-0.064505428,1.055765152
112.811070,5.310462952,2.543739319,1.456829071,0.013312194,0.016549256,1.062479019
112.826621,3.899024963,1.910499573,2.189250946,0.012579773,0.008736756,1.049905777
112.840908,2.632545471,-0.942893982,2.036663055,0.003424500,-0.013235901,1.010232925
112.879387,2.838539124,-1.789756775,3.463359833,-0.057854798,-0.085257381,0.987283707
112.917835,0.542091370,0.346473694,-0.793842316,-0.084588192,-0.030081604,0.951761246
112.932053,1.945899963,2.772621155,-1.091388702,-0.087517880,-0.013480041,0.951150894
112.947643,1.694129944,8.197120667,-2.327350616,-0.077019833,-0.113943905,0.967020035
112.986117,-3.089500427,11.737159729,-2.869037628,-0.027947571,-0.112967342,0.951883316
113.024580,0.656532288,5.542091370,-2.808002472,-0.001458313,-0.084158748,0.950662613
113.038792,-1.105857849,0.460914612,-4.295734406,0.005011414,-0.100149959,0.970315933
113.054250,-2.151084900,-1.682945251,-4.539875031,0.010016296,-0.087454647,0.968118668
113.092796,2.014564514,-5.840965271,-2.754596710,-0.020257141,-0.103201717,0.972024918
113.131244,-2.692771912,-7.549949646,-8.484272003,-0.022698548,-0.152518123,1.026224136
113.145468,-3.684593201,-6.016441345,-9.384540558,-0.012688782,-0.108328670,1.017068863
113.161058,-0.808311462,0.445655823,-7.248310089,-0.002801086,0.011666443,1.009378433
113.199575,0.564979553,6.762794495,-4.440692902,0.055426452,-0.072806209,1.067605972
113.238042,-0.854087830,-1.415916443,-2.159503937,0.061774109,0.000191834,1.060159683
113.265351,0.587867737,-6.428428650,-3.456501007,0.048590515,0.032662537,1.050882339
113.279850,2.365516663,-8.679100037,-1.900104523,0.028693054,0.042550232,1.043558121
113.318309,6.576942444,-3.964134216,-0.290302277,-0.015252259,-0.027273986,1.062967300
113.356623,0.061439514,2.818397522,-0.717548370,-0.004143860,0.005562928,1.057962418
113.371045,0.763343811,4.245094299,-0.503925323,0.004156922,0.032052185,1.041482925
113.386475,3.166603088,5.954078674,2.212139130,0.009650085,0.043404724,1.034524918
113.425042,-1.823020935,-1.499839783,2.448650360,0.019903991,-0.049246643,1.043680191
113.463521,-3.425193787,-7.313438416,3.051372528,-0.006585266,-0.028250549,0.994363785
113.477749,-2.967430115,-4.269309998,3.936382294,-0.042473938,-0.040335510,0.980203629
113.493342,-3.669334412,-1.980491638,4.111858368,-0.047967102,-0.066092342,0.978006363
113.531833,-7.445884705,0.125221252,1.693340302,-0.039178040,-0.087454647,0.951517105
113.570303,-7.667137146,9.295753479,1.197429657,-0.027337220,-0.035574768,0.934061050
113.584533,-8.071495056,12.103370667,4.851909637,0.008429382,-0.035940979,0.919900894
113.600007,-7.781578064,9.799293518,4.493328094,0.019415710,-0.036307190,0.910135269
113.650692,-3.974510193,-4.826255798,4.241558075,-0.027215149,-0.085623592,0.901956558
113.689209,-0.274253845,-3.834434509,4.745098114,-0.068963192,-0.090994686,0.902688980
113.703597,1.480506897,-1.057334900,5.050273895,-0.089471005,-0.137747616,0.932229996
113.718981,0.763343811,0.483802795,4.546733856,-0.092888974,-0.154837459,0.949197769
113.757531,-0.358177185,2.200416565,2.730937958,-0.074578427,-0.046683166,0.967874527
113.796020,0.961708069,0.056556702,-0.175861359,-0.067254208,-0.055594299,1.000345230
113.810246,1.381324768,0.308326721,-0.305561066,-0.061394837,-0.050711486,1.000223160
113.825849,2.159523010,1.284889221,-0.175861359,-0.045525696,-0.005667541,0.985818863
113.864182,9.170936584,-3.109642029,-2.052692413,-0.031365540,-0.004446838,0.991800308
113.902666,12.375282288,0.254920959,-0.755695343,-0.019036438,0.020577576,1.010721207
113.917057,13.359474182,3.176979065,0.960918427,-0.018304016,0.012520935,1.020730972
113.944728,12.825416565,2.154640198,-1.556781769,0.013922546,-0.045706604,1.067728043
113.983415,8.217262268,0.949195862,-0.473407745,0.042853210,0.057320740,1.058084488
114.021910,4.761146545,-0.988670349,3.661724091,0.042364929,-0.042288635,1.044168472
114.036277,3.479408264,-3.597923279,3.593059540,0.033209655,-0.026175354,1.029520035
114.051716,4.814552307,-7.267662048,4.035564423,-0.002434875,0.036202576,1.008523941
114.090288,4.997657776,-3.079124451,4.272075653,-0.057976868,-0.015066955,1.016336441
114.128777,2.411293030,0.483802795,2.822490692,-0.075310849,-0.057425354,1.011575699
114.143027,1.602577209,2.764991760,0.442119598,-0.088128231,-0.080252498,1.009744644
114.158531,0.542091370,4.267982483,-0.160602570,-0.086419247,-0.093802303,1.010721207
114.197095,-3.341270447,6.724647522,-3.815082550,-0.053216126,-0.060477111,0.991189957
114.235601,-2.769065857,1.994422913,-3.052143097,-0.026238587,-0.077566952,0.988626480
114.249977,-3.470970154,-5.482383728,-5.615619659,-0.030999329,-0.092703670,0.994241714
114.265385,-4.218650818,-7.778831482,-6.210712433,-0.037102845,-0.104422420,0.991312027
114.303964,-3.020835876,-2.163597107,-6.775287628,-0.076409481,-0.101736873,0.989358902
114.304753,-3.020835876,-2.163597107,-6.775287628,-0.076409481,-0.101736873,0.989358902
114.305454,-3.020835876,-2.163597107,-6.775287628,-0.076409481,-0.101736873,0.989358902
114.306164,-3.020835876,-2.163597107,-6.775287628,-0.076409481,-0.101736873,0.989358902
114.344554,-5.271507263,6.633094788,-10.872272491,0.008185241,-0.080984920,1.038309097
114.358812,-6.469322205,7.647804260,-9.125141144,0.050055359,-0.024588440,1.033060074
114.374438,-5.500389099,7.670692444,-7.347492218,0.059943054,-0.014578674,1.033182144
114.412774,-5.630088806,0.880531311,-6.981281281,0.094855167,-0.067801327,1.029275894
114.451284,-1.807762146,-4.872032166,-2.243427277,0.084601261,0.024117615,0.990945816
114.465672,-0.060630798,-5.848594666,-1.884845734,0.076422550,0.018746521,0.987405777
114.481109,1.076148987,-6.993003845,-0.519184113,0.067145206,0.052926209,0.974832535
114.481975,1.076148987,-6.993003845,-0.519184113,0.067145206,0.052926209,0.974832535
114.482720,1.076148987,-6.993003845,-0.519184113,0.067145206,0.052926209,0.974832535
114.483476,1.076148987,-6.993003845,-0.519184113,0.067145206,0.052926209,0.974832535
114.484206,1.076148987,-6.993003845,-0.519184113,0.067145206,0.052926209,0.974832535
114.484966,1.076148987,-6.993003845,-0.519184113,0.067145206,0.052926209,0.974832535
114.523371,9.582923889,-7.420249939,4.821392059,0.035284851,-0.054739807,0.981546402
114.575446,6.737159729,-8.793540955,5.790325165,-0.047234681,-0.054373596,0.996561050
114.589875,5.913185120,-6.344505310,6.118389130,-0.079339169,-0.018240783,0.996561050
114.605296,5.516456604,-5.039878845,5.714031219,-0.092156552,0.001046326,0.995828629
114.643838,3.609107971,-1.888938904,3.501506805,-0.108758114,0.013741639,0.982400894
114.682316,2.808021545,-3.185935974,-2.418903351,-0.129510075,-0.024710510,0.956399918
114.696539,2.457069397,-0.706382751,-4.684833527,-0.129265934,0.002144959,0.943948746
114.712159,3.021644592,1.292518616,-5.073932648,-0.124383114,-0.002981994,0.940164566
114.764508,2.037452698,6.404212952,-9.758380890,-0.047478821,-0.049734924,0.954935074
114.803044,1.999305725,5.854896545,-8.598712921,0.016852234,-0.009207580,0.944681168
114.817270,1.762794495,3.474525452,-6.660846710,0.040045593,-0.069144100,0.957132339
114.832738,1.106666565,1.353553772,-6.904987335,0.048224304,-0.077444881,0.959573746
114.871298,2.396034241,-2.468772888,-2.029804230,0.074469425,-0.012991760,0.968240738
114.909792,0.931190491,-10.861106873,-0.046161652,0.039191101,-0.105032772,1.030862808
114.924146,-0.587059021,-11.631675720,-0.893024445,0.024786804,-0.086356014,1.030740738
114.939578,-0.358177185,-6.207176208,0.632854462,0.005499695,0.003731873,1.020242691
114.978125,-0.442100525,6.045631409,4.592510223,0.015631530,-0.020193908,1.057596207
115.016609,1.144813538,-2.400108337,5.675884247,0.002814148,-0.052298401,1.051980972
115.030834,1.015113831,-4.879661560,4.668804169,-0.012322571,-0.066214412,1.056253433
115.046309,-0.289512634,-7.420249939,2.387615204,-0.035760071,-0.029105041,1.045999527
115.084847,5.707191467,4.634193420,0.457378387,-0.060784485,0.044625428,1.024881363
115.123366,5.104469299,16.085914612,-1.610187531,-0.017571595,0.026070740,1.039896011
115.137724,5.638526917,19.709877014,0.396343231,0.029059265,0.033517029,1.036722183
115.153121,5.806373596,19.496253967,2.120586395,0.046271179,0.034249451,1.038309097
115.205698,4.524635315,-5.505271912,0.136943817,0.084357120,0.081490666,1.038064957
115.244239,2.540992737,-10.334678650,2.776714325,0.057623718,0.013863709,1.005350113
115.258457,2.716468811,-9.213157654,3.654094696,0.046027038,0.007149842,0.996194839
115.288226,2.495216370,-4.513450623,6.423564911,0.026617859,-0.038138244,0.984598160
115.326862,0.671791077,-0.401206970,7.629009247,0.011603210,-0.058035705,0.978982925
115.365399,-3.135276794,-1.385398865,8.514019012,-0.004265930,-0.093802303,0.987649918
115.379650,-4.401756287,-3.620811462,7.575603485,-0.010003235,-0.086844295,0.983743668
115.395230,-5.836082458,-5.955406189,5.157085419,-0.034173157,-0.053397033,0.965066910
115.396012,-5.836082458,-5.955406189,5.157085419,-0.034173157,-0.053397033,0.965066910
115.396743,-5.836082458,-5.955406189,5.157085419,-0.034173157,-0.053397033,0.965066910
115.397468,-5.836082458,-5.955406189,5.157085419,-0.034173157,-0.053397033,0.965066910
115.435855,-5.668235779,1.780799866,4.783245087,-0.056023743,-0.030203674,0.942850113
115.474379,-3.409934998,3.085426331,3.287883759,-0.047234681,-0.036063049,0.953714371
115.488615,-2.891136169,3.062538147,2.128215790,-0.051385071,-0.059744690,0.959573746
115.504078,-2.891136169,3.405860901,0.617595673,-0.044304993,-0.069266170,0.972513199
115.542612,-2.700401306,0.499061584,-0.969318390,-0.029168274,-0.095267147,1.000955582
115.543383,-2.700401306,0.499061584,-0.969318390,-0.029168274,-0.095267147,1.000955582
115.544084,-2.700401306,0.499061584,-0.969318390,-0.029168274,-0.095267147,1.000955582
115.582513,-3.051353455,1.628211975,-3.975299835,-0.048089173,-0.061331604,1.033670425
115.596886,-3.387046814,4.870704651,-4.051593781,-0.047722962,-0.049734924,1.033426285
115.612313,-1.914573669,10.897926331,-3.036884308,-0.026726868,-0.026419494,1.035257339
115.650846,-0.785423279,5.778602600,-4.501728058,0.002081726,-0.033743713,1.078348160
115.689326,-0.823570251,0.590614319,-4.860309601,0.009405944,0.066231877,1.040750504
115.703562,3.822731018,2.551368713,-0.809101105,0.016363952,0.128976017,1.030374527
115.719032,5.882667542,2.414039612,0.144573212,0.023199890,0.107979923,1.040140152
115.719857,5.882667542,2.414039612,0.144573212,0.023199890,0.107979923,1.040140152
115.720593,6.905006409,0.376991272,0.518413544,0.030890319,0.064644963,1.054300308
115.721339,6.905006409,0.376991272,0.518413544,0.030890319,0.064644963,1.054300308
115.722163,6.905006409,0.376991272,0.518413544,0.030890319,0.064644963,1.054300308
115.722867,6.905006409,0.376991272,0.518413544,0.030890319,0.064644963,1.054300308
115.723584,6.905006409,0.376991272,0.518413544,0.030890319,0.064644963,1.054300308
115.724329,6.905006409,0.376991272,0.518413544,0.030890319,0.064644963,1.054300308
115.778321,3.403114319,-15.255638123,-1.686481476,-0.018914368,0.010567810,1.061868668
115.816839,1.068519592,-6.069847107,-0.717548370,-0.040398743,0.011056092,1.043924332
115.831075,-0.075889587,-1.942344666,-0.374225616,-0.038323548,0.028756287,1.022439957
115.846525,0.076698303,-0.050254822,0.602336884,-0.038079407,0.037545349,1.014383316
115.900922,-4.066062927,-2.415367126,-0.496295929,-0.023675110,-0.026175354,0.978494644
115.939476,-3.951622009,0.788978577,-2.716449738,-0.055657532,-0.061453674,0.942605972
115.953723,-4.157615662,3.459266663,-1.724628448,-0.048577454,-0.045340393,0.940042496
115.969184,-4.806114197,7.785133362,-0.984577179,-0.036126282,-0.053519104,0.931253433
116.007711,-2.563072205,7.571510315,-1.259235382,-0.020135071,-0.035940979,0.923685074
116.046200,-2.692771912,-4.101463318,-2.235797882,0.012701843,-0.063284725,0.938211441
116.060432,-2.669883728,-9.533592224,-2.266315460,-0.005486633,-0.034598205,0.930276871
116.076041,-1.861167908,-10.189720154,-2.426532745,-0.015984681,-0.053397033,0.928323746
116.114522,-1.449180603,-6.092735291,-1.137165070,-0.013787415,-0.070242733,0.940530777
116.115299,-1.449180603,-6.092735291,-1.137165070,-0.013787415,-0.070242733,0.940530777
116.115978,-1.449180603,-6.092735291,-1.137165070,-0.013787415,-0.070242733,0.940530777
116.116683,-1.449180603,-6.092735291,-1.137165070,-0.013787415,-0.070242733,0.940530777
116.117366,-1.449180603,-6.092735291,-1.137165070,-0.013787415,-0.070242733,0.940530777
116.118068,-0.609947205,-5.230613708,-0.465778351,-0.008050110,-0.061575744,0.946512222
116.118745,-0.609947205,-5.230613708,-0.465778351,-0.008050110,-0.061575744,0.946512222
116.119468,-0.609947205,-5.230613708,-0.465778351,-0.008050110,-0.061575744,0.946512222
116.120143,-0.609947205,-5.230613708,-0.465778351,-0.008050110,-0.061575744,0.946512222
116.120849,-0.609947205,-5.230613708,-0.465778351,-0.008050110,-0.061575744,0.946512222
116.121535,-0.609947205,-5.230613708,-0.465778351,-0.008050110,-0.061575744,0.946512222
116.122248,-0.609947205,-5.230613708,-0.465778351,-0.008050110,-0.061575744,0.946512222
116.160598,-1.044822693,-11.074729919,-2.220539093,0.012701843,-0.055716369,0.996316910
116.174826,-2.105308533,-11.639305115,-1.434711456,0.017584655,-0.042532776,0.998636246
116.190468,-1.548362732,-9.831138611,0.053020477,0.003546570,0.076607853,0.993021011
116.228820,-0.373435974,-0.248619080,0.983806610,0.007696961,-0.051321838,1.051858902
116.267358,-0.098777771,-1.751609802,1.174541473,0.036505554,0.052804139,1.009866714
116.281711,2.075599670,-2.232261658,0.693889618,0.037237976,0.041207459,1.009256363
116.297130,4.669593811,-2.621360779,0.693889618,0.039801452,0.038277771,1.021097183
116.335673,6.019996643,-0.782676697,1.990886688,0.032355163,0.029488709,1.027688980
116.374192,6.607460022,2.482704163,0.625225067,0.011969421,-0.025320861,1.049295425
116.388418,2.930091858,3.909400940,-0.549701691,0.032599304,0.043160584,1.040506363
116.404037,2.548622131,4.603675842,-0.435260773,0.042853210,0.091378361,1.023172379
116.442522,6.584571838,3.550819397,0.259014130,0.052618835,0.008736756,1.001077652
116.443279,6.584571838,3.550819397,0.259014130,0.052618835,0.008736756,1.001077652
116.443971,6.584571838,3.550819397,0.259014130,0.052618835,0.008736756,1.001077652
116.444682,6.584571838,3.550819397,0.259014130,0.052618835,0.008736756,1.001077652
116.445375,6.584571838,3.550819397,0.259014130,0.052618835,0.008736756,1.001077652
116.446089,5.531715393,1.612953186,0.136943817,0.051642273,-0.038748596,1.002298355
116.446775,5.531715393,1.612953186,0.136943817,0.051642273,-0.038748596,1.002298355
116.447507,5.531715393,1.612953186,0.136943817,0.051642273,-0.038748596,1.002298355
116.448201,5.531715393,1.612953186,0.136943817,0.051642273,-0.038748596,1.002298355
116.448924,5.531715393,1.612953186,0.136943817,0.051642273,-0.038748596,1.002298355
116.449617,5.531715393,1.612953186,0.136943817,0.051642273,-0.038748596,1.002298355
116.450341,5.531715393,1.612953186,0.136943817,0.051642273,-0.038748596,1.002298355
116.504789,5.569862366,-1.103111267,0.991436005,0.009528015,-0.001883361,0.970560074
116.536689,2.510475159,4.252723694,-0.336078644,0.018683288,-0.026419494,0.978982925
116.550954,1.976417542,5.839637756,0.205608368,0.026373718,-0.030691955,0.975076675
116.589405,0.702308655,5.984596252,0.876995087,0.046027038,-0.075003475,0.990823746
116.627912,-2.387596130,1.414588928,1.357646942,0.049200866,-0.014944885,0.973001480
116.642143,-1.815391541,0.972084045,2.036663055,0.044073913,-0.015189026,0.976785660
116.657720,-2.189231873,0.132850647,1.594158173,0.031866882,-0.050589416,0.995462418
116.696197,-5.385948181,0.254920959,1.014324188,0.034186218,-0.054129455,0.986673355
116.696981,-5.385948181,0.254920959,1.014324188,0.034186218,-0.054129455,0.986673355
116.697662,-5.385948181,0.254920959,1.014324188,0.034186218,-0.054129455,0.986673355
116.698384,-5.385948181,0.254920959,1.014324188,0.034186218,-0.054129455,0.986673355
116.699072,-5.385948181,0.254920959,1.014324188,0.034186218,-0.054129455,0.986673355
116.699788,-5.385948181,0.254920959,1.014324188,0.034186218,-0.054129455,0.986673355
116.738139,-4.249168396,1.986793518,1.159282684,0.017584655,-0.116751522,1.030252457
116.752372,-6.568504333,1.612953186,0.793071747,0.022101257,-0.105276912,1.041971207
116.767833,-8.063865662,-0.569053650,0.030132294,0.027472351,-0.022269104,1.027078629
116.806374,-3.684593201,4.977516174,1.548381805,-0.009759095,-0.043997619,1.047830582
116.844842,-8.208824158,3.375343323,-2.380756378,0.010626648,-0.046439026,1.046365738
116.859072,-7.651878357,3.596595764,-1.419452667,0.005133484,0.016060974,1.028787613
116.874692,-3.448081970,7.205299377,-0.999835968,-0.023308899,0.043160584,1.018167496
116.913195,-3.081871033,10.127357483,-1.297382355,0.027960632,0.016671326,1.010721207
116.951682,1.907752991,4.275611877,1.998516083,0.032111023,0.021432068,0.989969254
116.965923,1.587318420,-2.339073181,1.060100555,0.026251648,-0.065726131,1.007181168
116.981384,-0.114036560,-6.382652283,0.205608368,0.022101257,-0.052908752,1.003641129
117.019933,4.707740784,-8.022972107,1.334758759,-0.025139954,0.139718205,0.943338394
117.020717,4.707740784,-8.022972107,1.334758759,-0.025139954,0.139718205,0.943338394
117.021403,4.707740784,-8.022972107,1.334758759,-0.025139954,0.139718205,0.943338394
117.022105,6.653236389,-5.474754333,2.173992157,-0.026116516,0.080025822,0.953836441
117.022789,6.653236389,-5.474754333,2.173992157,-0.026116516,0.080025822,0.953836441
117.023498,6.653236389,-5.474754333,2.173992157,-0.026116516,0.080025822,0.953836441
117.024181,6.653236389,-5.474754333,2.173992157,-0.026116516,0.080025822,0.953836441
117.024888,6.653236389,-5.474754333,2.173992157,-0.026116516,0.080025822,0.953836441
117.025572,6.653236389,-5.474754333,2.173992157,-0.026116516,0.080025822,0.953836441
117.026279,6.653236389,-5.474754333,2.173992157,-0.026116516,0.080025822,0.953836441
117.026963,6.653236389,-5.474754333,2.173992157,-0.026116516,0.080025822,0.953836441
117.027666,6.653236389,-5.474754333,2.173992157,-0.026116516,0.080025822,0.953836441
117.028353,6.653236389,-5.474754333,2.173992157,-0.026116516,0.080025822,0.953836441
117.029065,6.653236389,-5.474754333,2.173992157,-0.026116516,0.080025822,0.953836441
117.029747,6.653236389,-5.474754333,2.173992157,-0.026116516,0.080025822,0.953836441
117.068146,4.478858948,-7.069297791,3.173442841,-0.016717102,-0.016775940,0.969461441
117.082493,3.906654358,-10.601707458,2.151103973,-0.041009095,-0.036673401,0.956155777
117.097910,4.051612854,-11.456199646,1.601787567,-0.054803040,-0.028616760,0.950784683
117.136451,3.921913147,-5.650230408,-1.533893585,-0.093255185,-0.028006408,0.957010269
117.186645,2.121376038,3.619483948,-2.426532745,-0.048699524,-0.049979065,0.982278824
117.200940,-0.007225037,1.979164124,-3.517536163,-0.021233704,-0.036551330,0.990335464
117.216507,-0.922752380,-0.302024841,-4.150775909,-0.011223938,-0.051077697,0.987039566
117.255006,0.282691956,-4.582115173,-3.387836456,-0.024651673,-0.076834530,0.983133316
117.293501,-4.203392029,3.215126038,-3.349689484,-0.022088196,-0.143118709,0.996072769
117.320840,-3.165794373,10.234169006,0.335308075,0.004889343,-0.093924373,0.995340347
117.335358,-2.181602478,11.019996643,1.617046356,0.009650085,-0.099051327,1.011087418
117.373812,-6.393028259,0.766090393,0.236125946,0.032599304,-0.062796444,1.054666519
117.412136,-4.600120544,1.643470764,2.730937958,-0.009148743,0.046334412,1.042215347
117.426553,-5.050254822,4.481605530,3.310771942,-0.012322571,0.012520935,1.049661636
117.442014,-5.660606384,6.732276917,4.165264130,-0.001458313,0.011056092,1.060159683
117.480581,-6.705833435,-0.134178162,2.914043427,-0.013665345,0.026803162,1.003641129
117.519081,0.275062561,-2.079673767,0.762554169,-0.029168274,0.011056092,0.997415543
117.533319,0.984596252,-1.843162537,1.113506317,-0.029046204,0.009469178,0.999368668
117.548928,2.746986389,-0.546165466,1.533123016,-0.046013977,0.011788514,1.002054214
117.549698,2.746986389,-0.546165466,1.533123016,-0.046013977,0.011788514,1.002054214
117.550434,2.746986389,-0.546165466,1.533123016,-0.046013977,0.011788514,1.002054214
117.551142,2.746986389,-0.546165466,1.533123016,-0.046013977,0.011788514,1.002054214
117.551862,2.746986389,-0.546165466,1.533123016,-0.046013977,0.011788514,1.002054214
117.552574,2.746986389,-0.546165466,1.533123016,-0.046013977,0.011788514,1.002054214
117.553299,2.746986389,-0.546165466,1.533123016,-0.046013977,0.011788514,1.002054214
117.591719,2.273963928,4.321388245,-4.570392609,-0.047845032,-0.022391174,1.052225113
117.630224,3.494667053,10.661415100,-2.586750031,0.038092468,0.193062931,0.986429214
117.644461,5.730079651,9.166053772,-1.655963898,0.051153991,0.148385197,0.985452652
117.659943,6.287025452,0.743202209,-3.113178253,0.059576843,0.012765076,0.989603043
117.698492,5.615638733,-9.739585876,-2.655414581,0.028693054,-0.012991760,0.950052261
117.736971,7.843421936,-1.782127380,0.701519012,0.011603210,-0.062552303,0.969217300
117.751351,5.836891174,2.536109924,1.777263641,0.021979187,-0.094900936,0.986307144
117.766780,4.738258362,3.329566956,2.601238251,0.028326843,-0.101614803,0.990945816
117.805373,1.030372620,2.520851135,5.126567841,0.026984069,-0.067190975,0.990457535
117.855950,-2.593589783,-1.202293396,4.478069305,-0.004143860,-0.076590389,0.998392105
117.870234,-4.394126892,-1.370140076,5.347820282,-0.012566712,-0.048270080,0.993387222
117.885854,-4.737449646,-1.667686462,5.355449677,-0.022454407,-0.060721252,0.992654800
117.924388,-4.676414490,-3.216453552,2.067180634,-0.040887024,-0.079031795,0.997415543
117.962872,-5.157066345,-9.304710388,-0.336078644,-0.043694641,-0.106009334,1.018655777
117.977123,-4.333091736,-9.861656189,-3.113178253,-0.064568661,-0.102347225,1.042215347
117.992582,-5.332542419,-8.389183044,-4.646686554,-0.065911435,-0.111136287,1.054300308
118.031131,-5.767417908,4.115394592,-4.005817413,-0.017327454,0.062691838,1.022317886
118.069606,-0.869346619,3.451637268,-4.082111359,0.024664734,-0.084402889,1.089212418
118.083841,-3.478599548,0.331214905,-5.768207550,0.031500671,-0.101370662,1.096292496
118.099470,-7.125450134,-2.918907166,-5.478290558,0.033697937,-0.008719299,1.057229996
118.137988,0.252174377,4.802040100,-0.099567413,0.013556335,-0.015677307,1.025003433
118.176485,-0.197959900,-2.957054138,-0.328449249,0.031012390,-0.031058166,1.022684097
118.190729,-0.304771423,-5.718894958,0.037761688,0.026129577,-0.038382385,1.017923355
118.206201,-0.564170837,-9.808250427,0.754924774,-0.002434875,-0.035452697,1.011941910
118.207028,-0.564170837,-9.808250427,0.754924774,-0.002434875,-0.035452697,1.011941910
118.207759,-0.564170837,-9.808250427,0.754924774,-0.002434875,-0.035452697,1.011941910
118.208506,-0.564170837,-9.808250427,0.754924774,-0.002434875,-0.035452697,1.011941910
118.209213,-0.564170837,-9.808250427,0.754924774,-0.002434875,-0.035452697,1.011941910
118.209960,-0.564170837,-9.808250427,0.754924774,-0.002434875,-0.035452697,1.011941910
118.210661,-0.564170837,-9.808250427,0.754924774,-0.002434875,-0.035452697,1.011941910
118.211418,-0.564170837,-9.808250427,0.754924774,-0.002434875,-0.035452697,1.011941910
118.212141,-0.564170837,-9.808250427,0.754924774,-0.002434875,-0.035452697,1.011941910
118.262897,-0.464988708,-4.635520935,-3.303913116,-0.058465149,0.053902771,0.955423355
118.301446,1.381324768,8.952430725,-0.481037140,-0.013054993,0.007638123,0.951395035
118.315656,0.664161682,6.083778381,-0.267414093,0.011603210,-0.052298401,0.947366714
118.331104,0.038551331,2.398780823,-0.908283234,0.015875671,-0.067923397,0.942605972
118.369640,-1.266075134,-7.435508728,-3.288654327,-0.017571595,-0.088919491,0.920511246
118.408142,-4.790855408,5.870155334,-2.464679718,0.005133484,-0.076834530,0.893899918
118.422353,-4.607749939,9.005836487,-1.297382355,0.023077819,-0.033133361,0.882181168
118.437949,-0.899864197,11.241249084,1.746746063,0.046515319,-0.011160705,0.887186050
118.490005,-1.678062439,-3.658958435,0.175090790,0.053595398,-0.055838440,0.908304214
118.528551,1.121925354,-4.566856384,4.638286591,-0.000847961,-0.081717342,0.918313980
118.542762,1.511024475,-3.811546326,3.440471649,-0.020867493,-0.080862850,0.937723160
118.558351,2.197669983,-3.521629333,2.914043427,-0.021844056,-0.089285702,0.947000504
118.596825,0.954078674,0.590614319,3.944011688,-0.025017884,-0.080984920,1.009866714
118.597600,0.954078674,0.590614319,3.944011688,-0.025017884,-0.080984920,1.009866714
118.635816,1.778053284,7.441810608,2.181621552,-0.007439758,0.013009217,1.019266129
118.650243,2.830909729,8.403114319,3.112407684,0.009894226,-0.019095276,1.028177261
118.665679,3.403114319,5.130104065,4.630657196,0.037115905,-0.082571834,1.048929214
118.704242,2.609657288,-9.968467712,2.296062469,0.019537780,-0.028860901,1.052225113
118.742703,8.995460510,-7.130332947,4.401775360,-0.030633118,0.058175232,1.040506363
118.756930,9.880470276,-5.100914001,3.593059540,-0.042962220,0.040841248,1.047342300
118.772559,10.704444885,-1.217552185,2.486797333,-0.054925110,-0.004690979,1.058572769
118.811064,7.393287659,1.841835022,-1.274494171,-0.021721985,-0.010672424,1.069314957
118.849363,5.447792053,2.681068420,-2.220539093,0.005011414,0.091988713,1.039163589
118.863762,6.103919983,3.871253967,-2.266315460,0.030402038,0.070504338,1.027933121
118.879240,6.134437561,3.444007874,-1.129535675,0.043585632,0.056222107,1.025247574
118.880097,5.920814514,2.024940491,-0.229267120,0.050055359,0.028512146,1.024393082
118.918509,4.768775940,-6.390281677,0.396343231,0.027472351,-0.033743713,1.017557144
118.919301,4.768775940,-6.390281677,0.396343231,0.027472351,-0.033743713,1.017557144
118.920012,4.249977112,-8.846946716,0.030132294,0.013068054,-0.032400940,1.014139175
118.920724,4.249977112,-8.846946716,0.030132294,0.013068054,-0.032400940,1.014139175
118.921434,4.249977112,-8.846946716,0.030132294,0.013068054,-0.032400940,1.014139175
118.922142,4.249977112,-8.846946716,0.030132294,0.013068054,-0.032400940,1.014139175
118.922838,4.249977112,-8.846946716,0.030132294,0.013068054,-0.032400940,1.014139175
118.923561,4.249977112,-8.846946716,0.030132294,0.013068054,-0.032400940,1.014139175
118.924263,4.249977112,-8.846946716,0.030132294,0.013068054,-0.032400940,1.014139175
118.924976,4.249977112,-8.846946716,0.030132294,0.013068054,-0.032400940,1.014139175
118.925678,4.249977112,-8.846946716,0.030132294,0.013068054,-0.032400940,1.014139175
118.926393,4.249977112,-8.846946716,0.030132294,0.013068054,-0.032400940,1.014139175
118.927092,4.249977112,-8.846946716,0.030132294,0.013068054,-0.032400940,1.014139175
118.927812,4.249977112,-8.846946716,0.030132294,0.013068054,-0.032400940,1.014139175
118.966147,2.251075745,-4.597373962,0.060649872,-0.028679993,-0.039236877,1.006204605
118.980552,0.984596252,1.033119202,0.854106903,-0.024529602,-0.051321838,1.013650894
118.995989,-0.022483826,2.269081116,0.236125946,-0.020013001,-0.070242733,1.020608902
119.034560,-7.445884705,2.558998108,-2.869037628,-0.003533508,-0.047903869,0.990335464
119.073019,-6.721092224,1.773170471,-1.793292999,0.020514343,-0.025198791,0.964822769
119.087255,-6.866050720,-0.378318787,-1.503376007,0.019537780,-0.041556213,0.962869644
119.102716,-7.201744080,-6.237693787,-2.823261261,0.001471375,-0.063162655,0.950174332
119.141292,-3.943992615,-3.246971130,-5.600360870,-0.039788391,-0.092703670,0.969827652
119.193659,-5.866600037,1.788429260,-9.796527863,-0.003045227,-0.038870666,1.020120621
119.237203,-4.226280212,10.829261780,-9.582904816,0.048224304,0.008370545,1.044900894
119.253036,-4.432273865,11.485389709,-5.669025421,0.098151065,-0.041678283,1.052225113
119.291535,-2.982688904,-4.978843689,-7.507709503,0.116095401,-0.027396057,1.035867691
119.329989,2.357887268,-5.741783142,-3.487018585,0.081061222,0.017769959,1.032327652
119.344224,2.899574280,-2.606101990,-1.503376007,0.077765323,0.025338318,1.035135269
119.359707,4.112648010,1.834205627,2.349468231,0.076544620,0.039498474,1.039773941
119.398313,2.037452698,-5.627342224,1.044841766,0.056280944,-0.049856994,1.073343277
119.436617,0.519203186,-4.048057556,2.753826141,0.014288757,0.085030705,1.019876480
119.451041,1.343177795,-2.430625916,3.676982880,0.006476257,0.055855896,1.019388199
119.466470,-0.014854431,-2.476402283,1.639934540,-0.000603821,-0.027151916,1.023782730
119.505070,-4.073692322,-2.110191345,-0.519184113,-0.007561828,-0.068777889,1.000345230
119.543549,-8.094383240,-0.912376404,-1.312641144,0.014044616,-0.064627498,0.954324722
119.557760,-7.430625916,-4.765220642,-2.304462433,0.029303405,-0.030814026,0.934549332
119.573353,-7.331443787,-6.275840759,-2.884296417,0.026007507,-0.053641174,0.930154800
119.611686,-9.101463318,2.093605042,-0.809101105,0.015387390,-0.025442932,0.873025894
119.650180,-4.020286560,9.608558655,0.960918427,0.049567077,-0.099173397,0.886331558
119.664555,-3.982139587,7.388404846,0.518413544,0.063971378,-0.103079647,0.893411636
119.679985,-3.646446228,1.620582581,1.220317841,0.080206729,-0.106009334,0.900369644
119.718556,-1.258445740,-2.583213806,4.851909637,0.031744812,-0.097708553,0.914285660
119.756848,-0.785423279,2.291969299,6.621929169,0.009161804,-0.131644100,0.967996597
119.771275,-1.403404236,2.856544495,6.751628876,0.009405944,-0.084036678,0.978616714
119.786874,0.030921936,3.688148499,6.713481903,-0.001336243,-0.056570861,1.006082535
119.787656,0.030921936,3.688148499,6.713481903,-0.001336243,-0.056570861,1.006082535
119.788361,0.030921936,3.688148499,6.713481903,-0.001336243,-0.056570861,1.006082535
119.789083,0.030921936,3.688148499,6.713481903,-0.001336243,-0.056570861,1.006082535
119.789777,0.030921936,3.688148499,6.713481903,-0.001336243,-0.056570861,1.006082535
119.790502,0.030921936,3.688148499,6.713481903,-0.001336243,-0.056570861,1.006082535
119.791197,0.030921936,3.688148499,6.713481903,-0.001336243,-0.056570861,1.006082535
119.791926,0.030921936,3.688148499,6.713481903,-0.001336243,-0.056570861,1.006082535
119.830261,-0.800682068,5.923561096,5.790325165,0.009772155,-0.034476135,1.038309097
119.831046,-0.800682068,5.923561096,5.790325165,0.009772155,-0.034476135,1.038309097
119.831738,-0.800682068,5.923561096,5.790325165,0.009772155,-0.034476135,1.038309097
119.832472,-0.800682068,5.923561096,5.790325165,0.009772155,-0.034476135,1.038309097
119.833153,-0.800682068,5.923561096,5.790325165,0.009772155,-0.034476135,1.038309097
119.833870,-0.800682068,5.923561096,5.790325165,0.009772155,-0.034476135,1.038309097
119.834553,0.069068909,4.840187073,6.126018524,0.018561218,-0.054861877,1.041482925
119.872770,0.778602600,-2.369590759,4.264446259,0.016241882,-0.063773006,1.071756363
119.887066,-0.518394470,-5.787559509,1.655193329,0.004156922,0.010323670,1.065286636
119.902716,0.275062561,-4.910179138,0.564189911,-0.000847961,0.038766053,1.050027847
119.941212,8.202003479,9.913734436,7.705303192,0.013434265,0.056954529,1.052347183
119.979644,2.243446350,3.245643616,1.266094208,0.033209655,-0.051077697,1.091653824
120.010851,4.799293518,6.991676331,4.813762665,0.043219421,0.143868595,1.035013199
120.025138,6.668495178,8.448890686,6.225200653,0.059210632,0.002022889,1.055032730
120.063567,0.122474670,-8.610435486,5.591960907,0.044195984,-0.086966366,1.026956558
120.102008,2.586769104,-10.449119568,6.309123993,-0.041863587,-0.072928280,0.999124527
120.116234,-1.273704529,-5.108543396,5.439373016,-0.063470028,-0.109061092,1.007669449
120.131846,-3.432823181,-1.522727966,4.882427216,-0.064690731,-0.078909725,0.995462418
120.186161,-3.753257751,14.071754456,4.760356903,-0.024895813,-0.093069881,0.976053238
120.224652,-6.797386169,0.697425842,1.868816376,-0.018914368,-0.084647030,0.965066910
120.238866,-6.881309509,-2.087303162,1.266094208,-0.032220032,-0.072073787,0.963113785
120.254464,-7.163597107,-2.537437439,0.327678680,-0.063958310,-0.070975155,0.957864761
120.293030,-7.178855896,5.709938049,-2.151874542,-0.046258118,-0.122366756,0.970438004
120.331493,-8.796287537,2.108863831,-3.624347687,-0.030511048,-0.109915584,1.010477066
120.345730,-9.650779724,0.445655823,-6.088642120,-0.035027649,-0.078909725,1.013406754
120.361195,-10.055137634,2.314857483,-8.530048370,-0.034295227,-0.022147033,1.004739761
120.362015,-10.055137634,2.314857483,-8.530048370,-0.034295227,-0.022147033,1.004739761
120.362768,-10.055137634,2.314857483,-8.530048370,-0.034295227,-0.022147033,1.004739761
120.363510,-10.055137634,2.314857483,-8.530048370,-0.034295227,-0.022147033,1.004739761
120.364241,-10.055137634,2.314857483,-8.530048370,-0.034295227,-0.022147033,1.004739761
120.364980,-10.055137634,2.314857483,-8.530048370,-0.034295227,-0.022147033,1.004739761
120.365719,-10.055137634,2.314857483,-8.530048370,-0.034295227,-0.022147033,1.004739761
120.366471,-10.055137634,2.314857483,-8.530048370,-0.034295227,-0.022147033,1.004739761
120.367206,-10.055137634,2.314857483,-8.530048370,-0.034295227,-0.022147033,1.004739761
120.367948,-10.055137634,2.314857483,-8.530048370,-0.034295227,-0.022147033,1.004739761
120.368676,-10.055137634,2.314857483,-8.530048370,-0.034295227,-0.022147033,1.004739761
120.369418,-10.055137634,2.314857483,-8.530048370,-0.034295227,-0.022147033,1.004739761
120.370144,-10.055137634,2.314857483,-8.530048370,-0.034295227,-0.022147033,1.004739761
120.370877,-9.963584900,5.999855042,-7.812885284,-0.023064759,-0.014090393,0.995096207
120.371603,-9.963584900,5.999855042,-7.812885284,-0.023064759,-0.014090393,0.995096207
120.372332,-9.963584900,5.999855042,-7.812885284,-0.023064759,-0.014090393,0.995096207
120.373168,-9.963584900,5.999855042,-7.812885284,-0.023064759,-0.014090393,0.995096207
120.411607,-4.966331482,15.574745178,-5.333332062,0.014044616,-0.022635315,1.004983902
120.449936,-3.890586853,3.382972717,-5.264667511,0.057135437,-0.023611877,0.990457535
120.464328,-1.761985779,-6.947227478,-5.348590851,0.058966491,0.001168396,0.954202652
120.479780,1.205848694,-10.517784119,-4.097370148,0.040411804,0.053780701,0.942361832
120.518340,11.368202209,-9.457298279,-3.929523468,-0.015130188,-0.019095276,0.982278824
120.556814,10.475563049,2.200416565,2.463909149,-0.010247376,-0.032523010,0.988382339
120.571039,11.314796448,3.741554260,2.669902802,-0.013421204,-0.117728084,1.017190933
120.586621,9.148048401,1.544288635,2.173992157,-0.000603821,-0.081839412,1.029397964
120.625117,8.140968323,-9.022422791,4.211040497,-0.038445618,0.053902771,0.999856949
120.663427,1.915382385,-6.809898376,0.289531708,-0.084099911,-0.073538631,1.019510269
120.677840,0.191139221,-4.276939392,0.091167450,-0.085930966,-0.068655819,1.000711441
120.693290,0.267433167,2.009681702,1.044841766,-0.091179989,-0.039358947,0.976175308
120.694124,0.267433167,2.009681702,1.044841766,-0.091179989,-0.039358947,0.976175308
120.694881,0.267433167,2.009681702,1.044841766,-0.091179989,-0.039358947,0.976175308
120.695635,0.267433167,2.009681702,1.044841766,-0.091179989,-0.039358947,0.976175308
120.696365,0.267433167,2.009681702,1.044841766,-0.091179989,-0.039358947,0.976175308
120.697112,0.267433167,2.009681702,1.044841766,-0.091179989,-0.039358947,0.976175308
120.697840,0.267433167,2.009681702,1.044841766,-0.091179989,-0.039358947,0.976175308
120.698591,0.267433167,2.009681702,1.044841766,-0.091179989,-0.039358947,0.976175308
120.699323,0.877784729,4.702857971,1.250835419,-0.090813778,-0.068655819,0.981180191
120.700076,0.877784729,4.702857971,1.250835419,-0.090813778,-0.068655819,0.981180191
120.700799,0.877784729,4.702857971,1.250835419,-0.090813778,-0.068655819,0.981180191
120.701552,0.877784729,4.702857971,1.250835419,-0.090813778,-0.068655819,0.981180191
120.756116,-4.882408142,1.307777405,-3.410724640,-0.043938782,-0.063040584,0.947122574
120.810810,-4.005027771,-1.843162537,-4.791645050,-0.038933899,-0.109549373,0.950906754
120.825072,-3.928733826,-1.576133728,-4.677204132,-0.029534485,-0.101248592,0.941873550
120.840666,-2.555442810,-0.759788513,-3.532794952,-0.019402649,-0.070120662,0.930643082
120.879197,-0.793052673,-0.439353943,-1.938251495,-0.015496399,-0.142264217,0.993997574
120.917520,-4.981590271,-1.797386169,-2.067951202,-0.011834290,-0.073782772,1.005838394
120.931949,-3.409934998,0.926307678,-0.763324738,-0.020623352,-0.016165588,1.009256363
120.947415,-3.333641052,7.632545471,1.128765106,-0.006951477,-0.017752502,1.021341324
120.948270,-3.333641052,7.632545471,1.128765106,-0.006951477,-0.017752502,1.021341324
120.949007,-3.333641052,7.632545471,1.128765106,-0.006951477,-0.017752502,1.021341324
120.949760,-3.333641052,7.632545471,1.128765106,-0.006951477,-0.017752502,1.021341324
120.950484,-3.333641052,7.632545471,1.128765106,-0.006951477,-0.017752502,1.021341324
120.951231,-3.333641052,7.632545471,1.128765106,-0.006951477,-0.017752502,1.021341324
120.951961,-3.333641052,7.632545471,1.128765106,-0.006951477,-0.017752502,1.021341324
120.952712,-3.333641052,7.632545471,1.128765106,-0.006951477,-0.017752502,1.021341324
120.953433,-3.333641052,7.632545471,1.128765106,-0.006951477,-0.017752502,1.021341324
120.991895,-1.098228455,-0.729270935,4.561992645,0.032233093,-0.049734924,1.032083511
121.030370,-1.266075134,-18.643089294,-2.525714874,-0.037346985,-0.045340393,1.021585464
121.044739,0.763343811,-16.697593689,-3.090290070,-0.043694641,0.015206482,1.003641129
121.060195,5.936073303,-8.351036072,-1.480487823,-0.027581360,0.015328553,0.995584488
121.098752,9.712623596,3.535560608,-1.312641144,0.000861023,-0.042776916,1.044900894
121.137238,4.318641663,8.609107971,1.899333954,0.068732120,-0.079520077,1.063577652
121.151474,3.082679749,6.930641174,1.090618134,0.077399112,-0.023001526,1.050760269
121.166993,5.546974182,2.940467834,-0.587848663,0.087530948,0.070138127,1.036600113
121.205581,5.043434143,1.338294983,3.417583466,0.108893253,-0.003226135,1.005594254
121.244069,4.974769592,-2.598472595,8.155437469,0.084723331,-0.068899959,0.980447769
121.258457,4.120277405,-5.795188904,10.093303680,0.050665710,-0.105032772,0.978372574
121.273881,3.380226135,-6.565757751,10.741802216,0.027106140,-0.100272030,0.979227066
121.274745,3.380226135,-6.565757751,10.741802216,0.027106140,-0.100272030,0.979227066
121.275493,2.487586975,-6.481834412,11.046977997,0.005255554,-0.098685116,0.978494644
121.276229,2.487586975,-6.481834412,11.046977997,0.005255554,-0.098685116,0.978494644
121.276962,2.487586975,-6.481834412,11.046977997,0.005255554,-0.098685116,0.978494644
121.277693,2.487586975,-6.481834412,11.046977997,0.005255554,-0.098685116,0.978494644
121.278424,2.487586975,-6.481834412,11.046977997,0.005255554,-0.098685116,0.978494644
121.279154,2.487586975,-6.481834412,11.046977997,0.005255554,-0.098685116,0.978494644
121.279874,2.487586975,-6.481834412,11.046977997,0.005255554,-0.098685116,0.978494644
121.280609,2.487586975,-6.481834412,11.046977997,0.005255554,-0.098685116,0.978494644
121.281337,2.487586975,-6.481834412,11.046977997,0.005255554,-0.098685116,0.978494644
121.282069,2.487586975,-6.481834412,11.046977997,0.005255554,-0.098685116,0.978494644
121.282792,2.487586975,-6.481834412,11.046977997,0.005255554,-0.098685116,0.978494644
121.283529,2.487586975,-6.481834412,11.046977997,0.005255554,-0.098685116,0.978494644
121.284253,2.487586975,-6.481834412,11.046977997,0.005255554,-0.098685116,0.978494644
121.284990,1.289772034,-5.497642517,11.077495575,-0.012078431,-0.093069881,0.973489761
121.323386,-0.327659607,0.262550354,12.183757782,-0.054803040,-0.060965393,0.964090347
121.361866,-4.981590271,7.319740295,8.964153290,-0.095818661,-0.095633358,0.964456558
121.376115,-5.279136658,9.417823792,6.110759735,-0.093865536,-0.054129455,0.943826675
121.391746,-4.874778748,10.752967834,6.080242157,-0.093011044,-0.026907776,0.939554214
121.430245,-4.020286560,4.779151917,2.334209442,-0.080559872,-0.102835506,0.975687027
121.492086,-2.502037048,-0.996299744,-2.495197296,-0.111077450,-0.088797420,0.994729996
121.506351,-3.287864685,1.475624084,-6.325153351,-0.105706356,-0.075369686,1.025491714
121.521964,-3.760887146,3.840736389,-7.522968292,-0.093987606,-0.098196834,1.037576675
121.560483,-4.981590271,14.582923889,-6.546405792,-0.028435852,-0.089651912,1.050271988
121.599009,-8.361412048,8.273414612,-5.867389679,0.042242859,-0.110037655,1.057962418
121.613236,-6.774497986,-2.018638611,-6.134418488,0.049933288,0.016671326,0.995584488
121.628708,-2.181602478,-6.123252869,-4.982379913,0.035406921,0.071480900,0.978128433
121.667254,6.058143616,-9.800621033,-4.951862335,-0.030999329,0.087105900,0.971292496
121.705792,13.298439026,-1.721092224,0.480266571,-0.031975891,-0.075003475,1.030496597
121.720024,12.413429260,-2.209373474,0.091167450,-0.041009095,-0.111746639,1.048196793
121.735619,10.071205139,-3.521629333,-5.112079620,-0.057854798,-0.116141170,1.061502457
121.774108,6.637977600,10.279945374,-0.091938019,-0.010125306,-0.017142151,1.063455582
121.812605,0.313209534,0.262550354,-0.519184113,0.027472351,-0.036185119,1.066263199
121.826826,-1.166893005,-3.910728455,0.182720184,0.024176452,-0.013113830,1.053201675
121.842312,-2.181602478,-9.983726501,0.777812958,-0.007195618,-0.017142151,1.023660660
121.880831,-5.324913025,-10.327049255,-0.656513214,-0.066277646,-0.131888241,1.005228043
121.919326,-6.965232849,5.671791077,0.083538055,-0.061516907,-0.053519104,0.953958511
121.933696,-6.064964294,10.798744202,1.876445770,-0.033929016,-0.076102108,0.962747574
121.949136,-6.621910095,9.608558655,1.746746063,-0.019036438,-0.088309139,0.968606949
121.987668,-7.827354431,-8.206077576,-1.167682648,-0.018304016,-0.079642147,0.943948746
122.026198,-4.043174744,-6.588645935,0.449748993,-0.087517880,-0.120413631,0.951639175
122.040427,-4.539085388,-1.728721619,-1.320270538,-0.084710263,-0.140921444,0.975564957
122.055912,-5.096031189,0.415138245,-0.519184113,-0.072503231,-0.143729061,0.984231949
122.106597,-8.361412048,-7.031150818,-4.173664093,-0.053338196,-0.065359920,1.024271011
122.145155,-4.912925720,-3.857322693,-2.304462433,-0.042718079,0.035103943,1.012552261
122.159380,-2.898765564,-3.742881775,-1.449970245,-0.024773743,-0.067190975,1.031473160
122.174816,-3.539634705,-5.436607361,-2.670673370,-0.021355774,-0.094534725,1.038064957
122.213376,-0.564170837,-3.719993591,-2.075580597,-0.017327454,0.000924256,0.997659683
122.251869,3.128456116,6.266883850,-2.884296417,0.013922546,-0.064871639,1.043191910
122.266104,2.724098206,7.594398499,-2.045063019,0.028326843,-0.073294491,1.049417496
122.281710,1.671241760,9.524635315,-1.518634796,0.055670593,-0.087576717,1.049783707
122.320184,-1.548362732,10.211280823,-0.816730499,0.092169620,-0.015677307,1.026224136
122.358681,0.481056213,6.434730530,2.395244598,0.129034847,0.016671326,0.977151871
122.372925,1.076148987,3.939918518,4.401775360,0.131720394,-0.029105041,0.971414566
122.388371,0.175880432,-4.101463318,5.805583954,0.103278019,-0.128104061,0.960916519
122.426916,-0.770164490,-12.448020935,6.179424286,0.036993835,-0.112967342,0.924905777
122.465413,1.137184143,-4.284568787,7.926555634,-0.036126282,-0.082327694,0.920022964
122.479646,-0.030113220,4.550270081,7.926555634,-0.055535462,-0.098440975,0.928934097
122.495232,-0.060630798,8.746437073,7.285686493,-0.056145813,-0.106253475,0.931863785
122.533701,-0.632835388,15.681556702,7.438274384,-0.023308899,-0.102957577,0.952493668
122.572217,-3.448081970,2.093605042,3.982158661,-0.012932923,-0.108084530,0.966287613
122.586439,-3.219200134,-1.614280701,3.951641083,-0.020623352,-0.104788631,0.962259293
122.601880,-2.166343689,-5.734153748,3.898235321,-0.054314759,-0.091727108,0.968240738
122.602689,-2.166343689,-5.734153748,3.898235321,-0.054314759,-0.091727108,0.968240738
122.603425,-2.166343689,-5.734153748,3.898235321,-0.054314759,-0.091727108,0.968240738
122.604142,-2.166343689,-5.734153748,3.898235321,-0.054314759,-0.091727108,0.968240738
122.604854,-2.166343689,-5.734153748,3.898235321,-0.054314759,-0.091727108,0.968240738
122.655608,-5.866600037,-4.635520935,-1.358417511,-0.089104794,-0.178274959,1.015970230
122.694149,-6.789756775,4.779151917,-4.104999542,-0.080804013,-0.053030822,1.028055191
122.708360,-7.148338318,9.974769592,-6.630329132,-0.041619446,-0.011282776,1.025003433
122.737573,-5.393577576,11.645606995,-4.280475616,0.027472351,-0.074637264,1.018167496
122.775959,-2.425743103,-0.118919373,-4.631427765,0.065314151,-0.010550354,0.983621597
122.814499,1.121925354,-6.405540466,-1.488117218,0.049933288,-0.083182186,0.975198746
122.828890,4.257606506,-7.069297791,0.136943817,0.036139343,0.013497498,0.944559097
122.844301,8.736061096,-5.726524353,2.296062469,0.028448913,0.018258240,0.946878433
122.882825,8.896278381,-7.343955994,4.455181122,0.004889343,-0.101614803,1.014139175
122.883595,8.896278381,-7.343955994,4.455181122,0.004889343,-0.101614803,1.014139175
122.884276,8.896278381,-7.343955994,4.455181122,0.004889343,-0.101614803,1.014139175
122.884985,8.507179260,-8.381553650,3.951641083,-0.011956360,-0.082083553,1.010477066
122.885660,8.507179260,-8.381553650,3.951641083,-0.011956360,-0.082083553,1.010477066
122.886368,8.507179260,-8.381553650,3.951641083,-0.011956360,-0.082083553,1.010477066
122.887039,8.507179260,-8.381553650,3.951641083,-0.011956360,-0.082083553,1.010477066
122.887748,8.507179260,-8.381553650,3.951641083,-0.011956360,-0.082083553,1.010477066
122.888431,8.507179260,-8.381553650,3.951641083,-0.011956360,-0.082083553,1.010477066
122.889128,8.507179260,-8.381553650,3.951641083,-0.011956360,-0.082083553,1.010477066
122.889804,8.507179260,-8.381553650,3.951641083,-0.011956360,-0.082083553,1.010477066
122.928212,9.354042053,2.513221741,5.935283661,-0.065423153,-0.059134338,1.029764175
122.942441,8.140968323,5.152992249,6.171794891,-0.060662415,-0.077078670,1.037454605
122.958064,4.707740784,5.107215881,5.401226044,-0.043328431,-0.074759334,1.034646988
122.996588,2.594398499,-3.758140564,4.005046844,-0.069451474,-0.108572811,1.035379410
123.035089,-5.202842712,-7.000633240,0.297161102,-0.116570614,-0.084158748,0.988992691
123.049322,-5.363059998,-5.596824646,-0.481037140,-0.123406552,-0.064627498,0.973978043
123.064796,-5.454612732,-1.057334900,-2.197650909,-0.126214176,-0.049856994,0.957254410
123.103383,-6.515098572,6.335548401,-4.501728058,-0.075554989,-0.091849178,0.935770035
123.141870,-6.331993103,2.497962952,-4.722980499,-0.030755188,-0.078299373,0.918436050
123.156112,-5.187583923,-2.857872009,-6.676105499,-0.021477845,-0.111258358,0.917215347
123.171730,-4.882408142,-4.574485779,-6.981281281,-0.018181946,-0.105154842,0.917947769
123.210224,-2.746177673,-1.850791931,-3.425983429,-0.001336243,-0.128714412,0.945413589
123.210994,-2.746177673,-1.850791931,-3.425983429,-0.001336243,-0.128714412,0.945413589
123.211684,-2.746177673,-1.850791931,-3.425983429,-0.001336243,-0.128714412,0.945413589
123.212392,-2.746177673,-1.850791931,-3.425983429,-0.001336243,-0.128714412,0.945413589
123.213087,-2.296043396,-1.171775818,-2.594379425,0.003790711,-0.141165584,0.959451675
123.213788,-2.296043396,-1.171775818,-2.594379425,0.003790711,-0.141165584,0.959451675
123.214480,-2.296043396,-1.171775818,-2.594379425,0.003790711,-0.141165584,0.959451675
123.215193,-2.296043396,-1.171775818,-2.594379425,0.003790711,-0.141165584,0.959451675
123.215880,-2.296043396,-1.171775818,-2.594379425,0.003790711,-0.141165584,0.959451675
123.216597,-2.296043396,-1.171775818,-2.594379425,0.003790711,-0.141165584,0.959451675
123.217295,-2.296043396,-1.171775818,-2.594379425,0.003790711,-0.141165584,0.959451675
123.218011,-2.296043396,-1.171775818,-2.594379425,0.003790711,-0.141165584,0.959451675
123.218702,-2.296043396,-1.171775818,-2.594379425,0.003790711,-0.141165584,0.959451675
123.219427,-2.296043396,-1.171775818,-2.594379425,0.003790711,-0.141165584,0.959451675
123.220119,-2.296043396,-1.171775818,-2.594379425,0.003790711,-0.141165584,0.959451675
123.258549,-2.776695251,-1.820274353,-1.045612335,0.027350280,-0.069266170,1.000345230
123.272768,-1.380516052,-2.506919861,0.968547821,0.040900085,-0.012625549,1.014505386
123.288389,-0.182701111,-2.865501404,2.730937958,0.036627624,-0.018729065,1.025003433
123.340736,-0.419212341,-15.186973572,-1.778034210,-0.002556946,-0.154593319,1.088724136
123.379260,5.600379944,-1.141258240,0.884624481,-0.002801086,-0.054983947,1.080423355
123.408736,0.442909241,8.723548889,2.944561005,0.046515319,-0.111258358,1.119852066
123.423249,-2.059532166,7.754615784,3.928752899,0.055548523,-0.103812069,1.099954605
123.461707,-4.455162048,-0.424095154,0.678630829,0.070074894,0.081246525,1.005838394
123.500197,0.030921936,1.429847717,3.501506805,0.060675476,0.011422303,0.948831558
123.514422,2.457069397,-0.317283630,3.112407684,0.062750675,-0.047415588,0.925394058
123.529857,3.830360413,-1.774497986,3.493877411,0.059210632,-0.071951717,0.922098160
123.568422,5.012916565,-3.216453552,6.301494598,0.033087585,-0.141775936,0.932352066
123.606932,2.579139709,2.345375061,7.926555634,0.003668640,-0.135428280,0.952005386
123.621157,0.229286194,5.526832581,7.941814423,-0.005242493,-0.119559139,0.959695816
123.636720,-0.869346619,6.961158752,7.934185028,-0.008904602,-0.118948787,0.960916519
123.675229,-4.287315369,7.281593323,7.712932587,0.006232117,-0.095511287,0.945779800
123.713729,-4.363609314,-1.560874939,6.652446747,-0.021721985,-0.144583553,0.954568863
123.727968,-5.210472107,-4.475303650,5.698772430,-0.027337220,-0.149466366,0.958230972
123.743416,-6.454063416,-7.878013611,4.394145966,-0.048455384,-0.137137264,0.955545425
123.781982,-5.034996033,-2.880760193,2.029033661,-0.108147763,-0.104910702,0.980325699
123.820480,-2.692771912,11.233619690,-1.846698761,-0.081170224,0.014107849,0.981424332
123.834859,-0.434471130,15.086463928,-0.465778351,-0.067498349,0.010079529,0.993875504
123.850267,1.923011780,16.330055237,-0.969318390,-0.030511048,-0.138724178,1.040506363
123.851126,1.923011780,16.330055237,-0.969318390,-0.030511048,-0.138724178,1.040506363
123.851856,1.923011780,16.330055237,-0.969318390,-0.030511048,-0.138724178,1.040506363
123.852599,1.923011780,16.330055237,-0.969318390,-0.030511048,-0.138724178,1.040506363
123.853316,1.923011780,16.330055237,-0.969318390,-0.030511048,-0.138724178,1.040506363
123.854057,1.923011780,16.330055237,-0.969318390,-0.030511048,-0.138724178,1.040506363
123.854771,1.923011780,16.330055237,-0.969318390,-0.030511048,-0.138724178,1.040506363
123.855514,1.923011780,16.330055237,-0.969318390,-0.030511048,-0.138724178,1.040506363
123.893888,-1.639915466,-0.332542419,-2.876667023,0.008917663,-0.088187069,1.044656754
123.932379,2.823280334,-8.595176697,-1.488117218,-0.043450501,-0.063895077,1.045755386
123.946610,2.090858459,-8.503623962,-2.701190948,-0.060540345,-0.049734924,1.044046402
123.962234,2.380775452,-3.559776306,-4.715351105,-0.071770810,-0.021170471,1.023050308
124.000558,3.578590393,8.540443420,-3.136066437,-0.017205384,-0.030325744,0.995828629
124.053374,8.537696838,2.612403870,2.448650360,0.022833679,-0.075491756,0.985818863
124.067653,7.553504944,-8.045860291,1.029582977,0.007941101,-0.096365780,0.990579605
124.083090,7.500099182,-12.684532166,0.281902313,-0.010125306,-0.074148983,0.987283707
124.121630,6.569313049,-10.639854431,-1.022724152,-0.089226864,-0.139822811,1.004251480
124.160126,-1.449180603,4.977516174,-0.954059601,-0.077752255,-0.149222225,0.994607925
124.174491,-2.891136169,6.266883850,-1.289752960,-0.062615536,-0.117606014,0.987161636
124.189897,-4.508567810,3.779701233,-3.670124054,-0.034417298,-0.078177303,0.965921402
124.228466,-3.890586853,-5.833335876,-2.708820343,-0.034173157,-0.044119690,0.917215347
124.266986,-3.165794373,-7.115074158,-4.623798370,-0.064568661,-0.113577694,0.901102066
124.281210,-2.685142517,-4.650779724,-3.754047394,-0.065667294,-0.109305233,0.900491714
124.296657,-1.639915466,-0.538536072,-3.914264679,-0.060662415,-0.122855037,0.909158707
124.335211,0.671791077,1.178077698,-5.936054230,-0.029534485,-0.121512264,0.945779800
124.389319,0.404762268,-2.636619568,-4.379657745,0.018317077,0.010934021,0.998270035
124.404895,2.556251526,-1.988121033,-3.906635284,0.023077819,-0.003836486,1.011819839
124.419202,3.158973694,-1.225181580,-0.923542023,0.036017273,-0.115652889,1.044656754
124.473570,2.312110901,-5.528160095,-0.328449249,0.027228210,-0.066946834,1.044656754
124.512102,8.575843811,0.178627014,1.639934540,0.002936218,-0.014212463,1.058938980
124.526325,9.308265686,2.520851135,1.098247528,0.000983093,-0.017020080,1.078592300
124.541776,9.247230530,3.535560608,1.922222137,0.000738953,-0.048025940,1.089090347
124.580323,3.158973694,1.803688049,-3.075031281,0.008795593,0.015084412,1.080057144
124.618809,4.883216858,7.968238831,-1.709369659,0.046027038,0.041573670,1.023294449
124.633041,4.997657776,7.388404846,-1.518634796,0.057135437,0.013253357,1.013406754
124.648595,5.333351135,2.978614807,-0.610736847,0.060919616,-0.040213440,0.996072769
124.687083,5.295204163,-8.137413025,-0.450519562,0.034430359,-0.123709530,0.984109879
124.741601,-0.533653259,0.018409729,1.113506317,-0.020623352,-0.097708553,0.954568863
124.755862,-1.975608826,7.022193909,-0.137714386,-0.013665345,-0.065848202,0.948221207
124.771427,-2.250267029,10.379127502,0.259014130,-0.001458313,-0.060599182,0.944559097
124.809929,-3.440452576,9.639076233,0.724407196,0.036139343,-0.110770077,0.952615738
124.848440,-4.211021423,-3.468223572,-0.473407745,0.033820007,-0.087576717,0.947854996
124.862658,-3.829551697,-6.649681091,0.106426239,0.008063171,-0.075491756,0.950540543
124.878099,-3.348899841,-6.909080505,0.556560516,-0.004998352,-0.083548397,0.952859879
124.916630,-3.005577087,-6.161399841,-3.326801300,-0.034051087,-0.169730037,1.015726089
124.955114,-5.424095154,5.862525940,-3.593830109,-0.029290345,-0.049979065,1.036111832
124.969328,-4.973960876,9.539894104,-3.532794952,-0.022698548,-0.045950744,1.040872574
124.984941,-4.546714783,12.774757385,-3.616718292,0.008185241,-0.054861877,1.055643082
125.023456,-3.402305603,1.513771057,-4.478839874,0.048224304,0.051461365,1.005228043
125.061942,5.203651428,-1.568504333,-5.310443878,0.013678405,0.059273865,0.986185074
125.076164,8.407997131,1.849464417,-3.197101593,0.015997741,0.054513123,0.988138199
125.091610,12.619422913,7.479957581,1.144023895,0.038336609,-0.090872616,1.019266129
125.092465,12.619422913,7.479957581,1.144023895,0.038336609,-0.090872616,1.019266129
125.093199,12.619422913,7.479957581,1.144023895,0.038336609,-0.090872616,1.019266129
125.093942,12.619422913,7.479957581,1.144023895,0.038336609,-0.090872616,1.019266129
125.094646,12.619422913,7.479957581,1.144023895,0.038336609,-0.090872616,1.019266129
125.095388,12.619422913,7.479957581,1.144023895,0.038336609,-0.090872616,1.019266129
125.096096,12.619422913,7.479957581,1.144023895,0.038336609,-0.090872616,1.019266129
125.096836,12.619422913,7.479957581,1.144023895,0.038336609,-0.090872616,1.019266129
125.097551,12.619422913,7.479957581,1.144023895,0.038336609,-0.090872616,1.019266129
125.098288,12.619422913,7.479957581,1.144023895,0.038336609,-0.090872616,1.019266129
125.098997,12.619422913,7.479957581,1.144023895,0.038336609,-0.090872616,1.019266129
125.099736,12.619422913,7.479957581,1.144023895,0.038336609,-0.090872616,1.019266129
125.138134,7.454322815,-4.505821228,2.654644012,0.041998718,-0.172171444,1.092020035
125.176604,3.418373108,-9.197898865,4.607769012,-0.028802063,-0.031058166,1.064676285
125.190986,0.954078674,-6.390281677,4.378887177,-0.054803040,0.009713318,1.045877457
125.206378,0.488685608,-5.253501892,4.485698700,-0.064812802,0.017525818,1.033060074
125.244970,0.885414124,-0.721641541,3.226848602,-0.098992489,0.026436951,0.979593277
125.283472,0.893043518,7.640174866,1.777263641,-0.101922177,-0.072317928,0.960062027
125.297712,0.877784729,9.112648010,2.143474579,-0.092400692,-0.065481991,0.958475113
125.313350,1.686500549,6.526283264,0.602336884,-0.073113583,-0.041922424,0.963968277
125.351663,0.236915588,-3.048606873,-3.143695831,-0.092888974,-0.085013241,0.992044449
125.406457,-3.516746521,1.056007385,-5.981830597,-0.098504208,-0.093802303,0.985940933
125.420727,-4.737449646,4.824928284,-4.928974152,-0.077752255,-0.097830623,0.993387222
125.436174,-5.820823669,4.855445862,-5.524066925,-0.064690731,-0.107596248,0.994485855
125.474711,-6.309104919,1.269630432,-6.760028839,-0.039544251,-0.110525936,0.995218277
125.531788,-10.276390076,-1.797386169,-5.340961456,0.009405944,-0.006155822,0.999490738
125.546037,-9.009910583,-0.721641541,-3.380207062,0.010260437,0.022774842,0.987283707
125.561497,-4.806114197,0.117591858,-0.625995636,0.015631530,-0.002981994,0.989725113
125.600034,-4.241539001,-9.403892517,-2.006916046,-0.003777649,-0.139822811,1.007791519
125.638541,2.991127014,-8.274742126,-2.640155792,-0.054558899,-0.018118713,0.975198746
125.652916,5.234169006,-5.322166443,-3.937152863,-0.056878235,-0.026419494,0.984720230
125.680158,7.301734924,4.657081604,-4.486469269,-0.020257141,-0.090384334,1.042093277
125.718844,3.677772522,6.129554749,-3.303913116,0.037237976,-0.106497616,1.075540543
125.757389,-0.968528748,4.000953674,-3.776935577,0.067511417,0.043526795,1.027688980
125.771623,-0.266624451,5.091957092,-2.418903351,0.073492862,0.059518006,1.015237808
125.787222,0.709938049,5.061439514,-0.946430206,0.083014347,0.001046326,1.004373550
125.825721,-1.548362732,-0.752159119,-0.862506866,0.080817081,-0.070120662,0.971414566
125.864228,0.580238342,-2.178855896,2.349468231,0.041388366,-0.084036678,0.933694839
125.878454,0.526832581,0.659278870,2.074810028,0.026129577,-0.122977108,0.943338394
125.893925,-0.587059021,2.574256897,2.593608856,0.025519226,-0.147269100,0.943582535
125.932489,-3.150535583,5.832008362,5.614849091,0.026129577,-0.136648983,0.932107925
125.933265,-3.150535583,5.832008362,5.614849091,0.026129577,-0.136648983,0.932107925
125.933980,-3.150535583,5.832008362,5.614849091,0.026129577,-0.136648983,0.932107925
125.934709,-3.150535583,5.832008362,5.614849091,0.026129577,-0.136648983,0.932107925
125.935425,-3.150535583,5.832008362,5.614849091,0.026129577,-0.136648983,0.932107925
125.936151,-3.562522888,4.535011292,5.347820282,0.020880554,-0.138602108,0.931497574
125.936851,-3.562522888,4.535011292,5.347820282,0.020880554,-0.138602108,0.931497574
125.937579,-3.562522888,4.535011292,5.347820282,0.020880554,-0.138602108,0.931497574
125.938288,-3.562522888,4.535011292,5.347820282,0.020880554,-0.138602108,0.931497574
125.939012,-3.562522888,4.535011292,5.347820282,0.020880554,-0.138602108,0.931497574
125.939721,-3.562522888,4.535011292,5.347820282,0.020880554,-0.138602108,0.931497574
125.940456,-3.562522888,4.535011292,5.347820282,0.020880554,-0.138602108,0.931497574
125.941159,-3.562522888,4.535011292,5.347820282,0.020880554,-0.138602108,0.931497574
125.941904,-3.562522888,4.535011292,5.347820282,0.020880554,-0.138602108,0.931497574
125.942613,-3.562522888,4.535011292,5.347820282,0.020880554,-0.138602108,0.931497574
125.943342,-3.562522888,4.535011292,5.347820282,0.020880554,-0.138602108,0.931497574
125.981742,-4.050804138,-0.828453064,5.141826630,-0.003655578,-0.100272030,0.914041519
125.996129,-3.020835876,-2.903648376,5.591960907,-0.027093079,-0.113089412,0.916727066
126.011557,-2.708030701,-4.467674255,4.218669891,-0.041009095,-0.124441952,0.921976089
126.062239,-2.051902771,-4.551597595,0.671001434,-0.088372372,-0.148856014,0.971780777
126.100805,-2.242637634,-3.422447205,-3.395465851,-0.088372372,-0.112967342,1.043924332
126.115203,-2.486778259,-2.766319275,-6.409076691,-0.081780575,-0.100149959,1.084207535
126.130637,-3.387046814,-1.721092224,-7.217792511,-0.076165341,-0.098074764,1.098733902
126.169188,-6.042076111,5.046180725,-8.301166534,-0.016472962,-0.080496639,1.124979019
126.207690,-9.429527283,-3.056236267,-6.622699738,0.043219421,-0.062186096,1.087991714
126.221934,-8.422447205,-6.489463806,-7.698444366,0.038458679,-0.036795471,1.067728043
126.237402,-5.065513611,-10.418601990,-9.895709991,0.028693054,-0.003958557,1.033670425
126.275984,1.861976624,1.025489807,-1.877216339,0.046759460,0.006295349,1.007791519
126.314484,1.671241760,-4.719444275,-1.221088409,0.043951843,-0.193167537,1.028909683
126.328876,0.854896545,-7.832237244,-3.555683136,0.026861999,-0.178763241,1.023416519
126.344295,-1.327110291,-6.107994080,-2.678302765,-0.006585266,-0.102469295,0.990579605
126.382821,1.923011780,7.129005432,3.463359833,-0.003655578,-0.019217346,0.942728043
126.421305,3.967689514,-0.729270935,0.617595673,-0.001946594,-0.083670467,0.943826675
126.449071,1.343177795,-4.017539978,0.083538055,-0.030755188,-0.154837459,0.943582535
126.463584,-0.548912048,-0.042625427,0.159832001,-0.036492493,-0.152762264,0.934305191
126.502022,-2.715660095,3.985694885,0.487895966,0.004034851,-0.134329647,0.937845230
126.540522,-5.393577576,1.315406799,0.487895966,0.029547546,-0.117361873,0.935403824
126.554748,-5.797935486,-0.912376404,2.395244598,0.045782898,-0.091605037,0.924539566
126.570209,-5.462242126,-2.453514099,4.325481415,0.044318054,-0.089407772,0.921976089
126.608788,-4.134727478,-12.196250916,4.951091766,-0.001336243,-0.118826717,0.931253433
126.647275,-2.570701599,-7.946678162,8.895488739,-0.051263001,-0.161551327,0.973855972
126.661525,-3.142906189,-6.367393494,7.033916473,-0.070428036,-0.217337459,1.016946793
126.677153,-5.294395447,-6.024070740,5.050273895,-0.073235653,-0.216116756,1.027444839
126.729194,-2.730918884,6.556800842,7.995220184,-0.062859677,-0.046316955,1.004861832
126.767733,-5.111289978,0.689796448,1.914592743,-0.042596009,-0.151541561,1.021097183
126.781951,-0.823570251,-0.034996033,4.150005341,-0.050652649,-0.054129455,0.983255386
126.797533,2.647804260,-0.012107849,3.631206512,-0.059563782,-0.055838440,0.982522964
126.836032,7.309364319,1.887611389,-1.953510284,-0.066643856,-0.086111873,1.023782730
126.874531,9.354042053,11.615089417,-1.411823273,-0.019768860,-0.136160702,1.065530777
126.888761,6.889747620,11.721900940,-2.617267609,-0.000847961,-0.141898006,1.071023941
126.904217,3.975318909,10.043434143,-4.227069855,0.038092468,-0.056937072,1.052713394
126.942781,4.120277405,6.572059631,-1.289752960,0.091925479,-0.016043518,1.009256363
126.981264,2.289222717,-5.428977966,1.014324188,0.089484073,-0.129080623,0.966653824
126.995515,1.793312073,-7.481285095,1.876445770,0.076300479,-0.139090389,0.948831558
127.011128,2.495216370,-8.717247009,3.989788055,0.047369812,-0.080130428,0.924417496
127.049594,3.601478577,-2.468772888,3.867717743,-0.007317688,-0.133841366,0.945657730
127.088078,0.717567444,9.410194397,4.790874481,-0.019036438,-0.122000545,0.941019058
127.102322,0.824378967,15.116981506,5.302043915,-0.007195618,-0.148001522,0.954568863
127.117782,-0.220848083,15.055946350,4.523845673,0.006232117,-0.153616756,0.964944839
127.156322,-3.249717712,1.216224670,4.157634735,0.011603210,-0.115652889,0.963235855
127.194787,-3.600669861,-10.922142029,0.922771454,-0.061638977,-0.144827694,0.968729019
127.209008,-2.784324646,-10.136314392,0.388713837,-0.080559872,-0.134085506,0.973978043
127.224635,-1.945091248,-8.686729431,-0.137714386,-0.091912411,-0.139944881,0.986063004
127.263134,-5.530906677,-2.247520447,-6.988910675,-0.098870419,-0.147635311,1.044412613
127.263896,-5.530906677,-2.247520447,-6.988910675,-0.098870419,-0.147635311,1.044412613
127.302227,-3.974510193,13.446144104,-6.485370636,-0.022942688,-0.028982971,1.029520035
127.331516,-2.677513123,10.241798401,-5.844501495,0.039679382,-0.149466366,1.044168472
127.346043,-3.509117126,5.481056213,-6.630329132,0.052130554,-0.132742733,1.032083511
127.384514,5.234169006,-6.954856873,-4.616168976,0.016852234,0.004708435,0.978860855
127.422859,12.413429260,0.361732483,-0.297931671,-0.010857727,-0.093680233,1.030130386
127.437281,10.666297913,1.368812561,-0.778583527,-0.009148743,-0.138235897,1.065164566
127.452723,9.041236877,1.879981995,-0.999835968,-0.014031556,-0.156180233,1.073587418
127.491268,3.754066467,7.891944885,0.037761688,-0.003289368,-0.060232971,1.051858902
127.529782,0.450538635,-0.347801208,2.563091278,0.012335632,-0.035696838,0.995096207
127.544020,0.618385315,-3.895469666,1.868816376,0.002936218,-0.052176330,0.980325699
127.559614,0.618385315,-9.052940369,1.082988739,-0.024163391,-0.069876522,0.962015152
127.598107,-0.899864197,-4.193016052,0.983806610,-0.070183896,-0.144461483,0.941019058
127.636593,-3.020835876,0.567726135,-1.396564484,-0.051507141,-0.101248592,0.924295425
127.650820,-2.570701599,0.315956116,-2.136615753,-0.044182923,-0.089896053,0.924417496
127.666269,-2.944541931,0.354103088,-2.243427277,-0.036858704,-0.089407772,0.927835464
127.719290,-2.219749451,-5.024620056,-1.579669952,-0.009270813,-0.108084530,0.940530777
127.757820,-3.593040466,-8.000083923,-0.900653839,-0.046624329,-0.134573787,0.968484879
127.772206,-3.760887146,-5.924888611,-0.503925323,-0.053338196,-0.134817928,0.975076675
127.787601,-3.501487732,-1.225181580,-1.022724152,-0.046990540,-0.114188045,0.993509293
127.826189,-3.570152283,5.420021057,-0.305561066,0.010260437,-0.025931213,1.040994644
127.864687,-2.463890076,1.490882874,2.509685516,0.040655944,-0.146292537,1.061258316
127.878934,-3.249717712,-0.508018494,1.357646942,0.040655944,-0.156912655,1.058206558
127.894538,-2.021385193,-2.209373474,2.257915497,0.051276062,-0.037039611,1.025979996
127.933053,6.637977600,-0.691123962,5.103679657,0.049933288,-0.064139217,1.049173355
127.971389,6.843971252,-0.042625427,5.744548798,0.024420593,-0.091482967,1.080057144
128.001346,3.326820374,7.823280334,5.218120575,0.009039734,-0.089896053,1.085184097
128.015778,1.938270569,12.278846741,5.401226044,0.044318054,0.048287537,1.061014175
128.054021,3.357337952,1.391700745,7.758708954,0.057257507,-0.051077697,1.044778824
128.092565,0.603126526,-13.546653748,4.760356903,-0.045403626,-0.086478084,0.981912613
128.106947,0.694679260,-12.112327576,4.890056610,-0.066887997,-0.088187069,0.972269058
128.122387,0.633644104,-4.780479431,4.806133270,-0.103509091,-0.101004452,0.970193863
128.160913,-2.158714294,11.576942444,1.830669403,-0.107049130,-0.106131405,0.969461441
128.161673,-3.097129822,16.574195862,0.815959930,-0.090813778,-0.131155819,0.968484879
128.162367,-3.097129822,16.574195862,0.815959930,-0.090813778,-0.131155819,0.968484879
128.163076,-3.097129822,16.574195862,0.815959930,-0.090813778,-0.131155819,0.968484879
128.163763,-3.097129822,16.574195862,0.815959930,-0.090813778,-0.131155819,0.968484879
128.164481,-3.097129822,16.574195862,0.815959930,-0.090813778,-0.131155819,0.968484879
128.165179,-3.097129822,16.574195862,0.815959930,-0.090813778,-0.131155819,0.968484879
128.165893,-3.097129822,16.574195862,0.815959930,-0.090813778,-0.131155819,0.968484879
128.166590,-3.097129822,16.574195862,0.815959930,-0.090813778,-0.131155819,0.968484879
128.167308,-3.097129822,16.574195862,0.815959930,-0.090813778,-0.131155819,0.968484879
128.168005,-3.097129822,16.574195862,0.815959930,-0.090813778,-0.131155819,0.968484879
128.168718,-3.097129822,16.574195862,0.815959930,-0.090813778,-0.131155819,0.968484879
128.169421,-3.097129822,16.574195862,0.815959930,-0.090813778,-0.131155819,0.968484879
128.170134,-3.097129822,16.574195862,0.815959930,-0.090813778,-0.131155819,0.968484879
128.170825,-3.097129822,16.574195862,0.815959930,-0.090813778,-0.131155819,0.968484879
128.171542,-4.691673279,20.388893127,0.381084442,-0.066887997,-0.136648983,0.967020035
128.172240,-4.691673279,20.388893127,0.381084442,-0.066887997,-0.136648983,0.967020035
128.210652,-8.185935974,21.418861389,0.075908661,0.010504577,-0.105643123,0.947977066
128.224908,-9.131980896,15.429786682,-0.000385284,0.034186218,-0.107230037,0.931985855
128.240552,-9.559226990,11.088661194,-0.015644073,0.043707702,-0.101492733,0.921487808
128.279071,-6.576133728,-5.963035583,-0.221637726,0.020514343,-0.080008358,0.887918472
128.317569,-2.906394958,-7.336326599,-1.121906281,-0.044182923,-0.194388241,0.951150894
128.331788,-4.005027771,-4.826255798,-3.601459503,-0.047478821,-0.164358944,0.982400894
128.347265,-4.455162048,-2.255149841,-4.158405304,-0.041009095,-0.151785702,0.994119644
128.385820,-3.043724060,8.609107971,-2.205280304,-0.000725891,-0.094046444,1.043191910
128.424314,-3.722740173,-1.301475525,0.266643524,0.038092468,-0.181326717,1.048929214
128.438539,-3.943992615,-6.466575623,-0.702289581,0.027716491,-0.187430233,1.048074722
128.454166,-3.943992615,-14.187522888,-1.793292999,-0.002312805,-0.147757381,1.027322769
128.492674,3.609107971,-7.473655701,-0.694660187,-0.050286438,-0.043021057,1.000467300
128.493458,3.609107971,-7.473655701,-0.694660187,-0.050286438,-0.043021057,1.000467300
128.494160,3.609107971,-7.473655701,-0.694660187,-0.050286438,-0.043021057,1.000467300
128.548217,1.343177795,-0.630088806,-0.603107452,-0.033440735,-0.111258358,1.018777847
128.562467,1.839088440,-2.178855896,-1.816181183,-0.043084290,-0.046561096,0.998514175
128.578038,2.365516663,-1.606651306,-1.076129913,-0.047234681,-0.014944885,0.989969254
128.616529,4.318641663,1.254371643,-1.213459015,-0.048577454,-0.006644104,0.961526871
128.670976,3.265785217,-2.018638611,-2.525714874,-0.033684876,-0.155691952,0.981302261
128.685243,2.525733948,-3.338523865,-2.846149445,-0.032952454,-0.159109920,0.979593277
128.700840,-0.236106873,-5.100914001,-4.837421417,-0.036126282,-0.150442928,0.969705582
128.739325,-2.090049744,1.033119202,-4.341510773,-0.004998352,-0.062918514,0.939920425
128.777820,-1.845909119,-1.057334900,-2.327350616,0.036261413,-0.073538631,0.921854019
128.792053,-1.365257263,-3.025718689,-2.190021515,0.031744812,-0.071951717,0.919290543
128.807482,-0.754905701,-5.787559509,-0.801471710,0.021490905,-0.129080623,0.924783707
128.846022,-1.998497009,-7.038780212,0.159832001,-0.009270813,-0.163016170,0.916849136
128.884500,0.038551331,2.925209045,1.960369110,-0.028069641,-0.100882381,0.918558121
128.898728,1.549171448,6.938270569,3.806682587,-0.016228821,-0.146658748,0.953714371
128.914363,1.511024475,6.091407776,3.593059540,-0.007561828,-0.163870662,0.973123550
128.952847,-1.693321228,-1.873680115,2.494426727,-0.001702453,-0.060965393,1.000711441
128.991323,1.465248108,-1.576133728,3.814311981,-0.024529602,-0.064383358,1.030374527
129.005534,2.724098206,-2.560325623,3.738018036,-0.029168274,-0.109427303,1.041971207
129.020981,2.647804260,-5.543418884,0.472637177,-0.036736634,-0.210135311,1.068704605
129.059528,1.449989319,-4.025169373,-0.252155304,-0.023553040,-0.052908752,1.038919449
129.098014,7.942604065,1.796058655,1.556011200,0.007452820,-0.077078670,1.070535660
129.112231,7.034706116,2.070716858,2.235027313,0.011847351,-0.112845272,1.084329605
129.127811,3.433631897,-0.141807556,0.449748993,0.019171569,-0.131277889,1.085184097
129.166312,4.707740784,3.993324280,1.548381805,0.026129577,0.060982849,1.040140152
129.204801,5.646156311,4.786781311,2.860637665,0.053839538,-0.007376526,1.023416519
129.219032,6.180213928,-0.584312439,3.486248016,0.052252624,-0.071951717,1.014017105
129.234477,6.172584534,-3.658958435,2.616497040,0.042364929,-0.093558162,1.011087418
129.235311,5.897926331,-5.764671326,2.753826141,0.029425476,-0.115774959,1.012430191
129.236047,5.897926331,-5.764671326,2.753826141,0.029425476,-0.115774959,1.012430191
129.236791,5.897926331,-5.764671326,2.753826141,0.029425476,-0.115774959,1.012430191
129.237509,5.897926331,-5.764671326,2.753826141,0.029425476,-0.115774959,1.012430191
129.238246,5.897926331,-5.764671326,2.753826141,0.029425476,-0.115774959,1.012430191
129.238960,5.897926331,-5.764671326,2.753826141,0.029425476,-0.115774959,1.012430191
129.239685,5.897926331,-5.764671326,2.753826141,0.029425476,-0.115774959,1.012430191
129.240403,5.897926331,-5.764671326,2.753826141,0.029425476,-0.115774959,1.012430191
129.241131,5.897926331,-5.764671326,2.753826141,0.029425476,-0.115774959,1.012430191
129.241960,5.897926331,-5.764671326,2.753826141,0.029425476,-0.115774959,1.012430191
129.242639,5.897926331,-5.764671326,2.753826141,0.029425476,-0.115774959,1.012430191
129.243337,5.897926331,-5.764671326,2.753826141,0.029425476,-0.115774959,1.012430191
129.244068,5.897926331,-5.764671326,2.753826141,0.029425476,-0.115774959,1.012430191
129.244779,4.623817444,-6.634422302,3.066631317,0.015265319,-0.131522030,1.010843277
129.245511,4.623817444,-6.634422302,3.066631317,0.015265319,-0.131522030,1.010843277
129.246224,4.623817444,-6.634422302,3.066631317,0.015265319,-0.131522030,1.010843277
129.284668,3.563331604,1.567176819,6.110759735,-0.019280579,-0.073538631,0.987527847
129.339213,-2.074790955,6.381324768,4.111858368,-0.021111634,-0.132376522,1.019021988
129.353479,-3.554893494,6.877235413,4.142375946,-0.017327454,-0.113821834,1.008646011
129.369064,-4.172874451,6.099037170,4.745098114,-0.003899719,-0.071341366,0.997781754
129.407427,-6.827903748,-4.475303650,3.799053192,-0.028069641,-0.111014217,1.009256363
129.462269,-9.002281189,-6.184288025,0.648113251,-0.085320614,-0.128836483,0.992044449
129.476536,-9.757591248,-1.827903748,0.693889618,-0.096795224,-0.132620662,0.994607925
129.492007,-9.826255798,-0.080772400,-0.366596222,-0.100335263,-0.142386287,0.997537613
129.530583,-10.634971619,5.435279846,-4.257587433,-0.083611630,-0.078787655,1.010843277
129.569097,-10.497642517,8.593849182,-6.523517609,-0.044549134,-0.110892147,1.006448746
129.583464,-9.559226990,7.129005432,-7.469562531,-0.019280579,-0.090994686,0.989847183
129.598871,-8.239341736,5.473426819,-7.431415558,-0.006707336,-0.088309139,0.982767105
129.637426,-1.876426697,-2.888389587,-7.652667999,-0.003899719,-0.077078670,0.959817886
129.675929,5.943702698,3.009132385,-4.547504425,0.008917663,-0.074881405,0.965799332
129.690148,7.164405823,4.702857971,-2.975849152,0.016486023,-0.100394100,0.983987808
129.705603,7.149147034,3.802589417,-1.495746613,0.027960632,-0.178152889,1.021219254
129.744181,1.671241760,-0.996299744,-0.664142609,0.021490905,-0.072806209,1.004373550
129.782665,2.861427307,-2.545066833,2.341838837,-0.000115539,-0.049856994,0.983621597
129.797064,2.594398499,-3.712364197,1.899333954,-0.013299134,-0.054373596,0.979349136
129.812485,2.121376038,-2.812095642,2.303691864,-0.037346985,-0.056204651,0.965188980
129.851011,1.732276917,3.428749084,0.861736298,-0.048699524,-0.155691952,0.944925308
129.889504,-0.396324158,4.794410706,1.090618134,-0.021477845,-0.182791561,0.938577652
129.903724,-2.257896423,1.323036194,1.433940887,-0.014641907,-0.154715389,0.929056168
129.919328,-3.020835876,-0.759788513,1.678081512,-0.017937806,-0.135428280,0.917947769
129.969429,1.221107483,-9.167381287,1.319499969,-0.063470028,-0.095633358,0.911844254
130.008022,0.519203186,-4.933067322,-0.999835968,-0.107415341,-0.147391170,0.940896988
130.022242,0.000404358,1.376441956,-0.595478058,-0.104851864,-0.159109920,0.959939957
130.037675,-0.060630798,3.436378479,-0.152973175,-0.094597958,-0.163870662,0.975076675
130.076229,-3.051353455,0.170997620,-5.928424835,-0.052849915,-0.164603084,1.036233902
130.114714,-5.096031189,8.136085510,-1.800922394,-0.008416321,-0.099539608,1.040750504
130.129092,-4.172874451,6.869606018,-2.670673370,0.011969421,-0.097586483,1.038064957
130.144507,-3.333641052,1.994422913,-2.106098175,0.032843444,-0.148367733,1.040506363
130.183044,-1.327110291,-5.047508240,0.098796844,0.023077819,-0.100272030,0.993265152
130.221536,9.155677795,-2.293296814,2.067180634,-0.003777649,-0.073782772,0.998880386
130.235748,9.598182678,-0.820823669,0.609966278,-0.011956360,-0.097952694,1.009378433
130.251225,10.033058167,5.603126526,0.228496552,-0.011468079,-0.081229061,1.017923355
130.289786,7.683204651,17.611793518,5.897136688,0.024542663,-0.165091366,1.050882339
130.328290,3.105567932,5.282691956,3.432842255,0.036383484,-0.004690979,1.001810074
130.342660,3.929542542,2.490333557,3.318401337,0.032477234,0.030709412,0.984109879
130.358064,5.653785706,-0.363059998,4.661174774,0.007941101,0.031441834,0.961038589
130.396590,8.278297424,-3.597923279,4.790874481,-0.020745423,-0.028738830,0.942239761
130.397361,8.278297424,-3.597923279,4.790874481,-0.020745423,-0.028738830,0.942239761
130.398051,9.132789612,-4.490562439,4.333110809,-0.031365540,-0.057181213,0.944437027
130.398769,9.132789612,-4.490562439,4.333110809,-0.031365540,-0.057181213,0.944437027
130.399463,9.132789612,-4.490562439,4.333110809,-0.031365540,-0.057181213,0.944437027
130.400172,9.132789612,-4.490562439,4.333110809,-0.031365540,-0.057181213,0.944437027
130.438532,9.056495667,-1.805015564,3.684612274,-0.067376278,-0.117850155,0.975931168
130.452759,8.209632874,-0.141807556,2.685161591,-0.073723935,-0.121878475,0.988138199
130.468368,6.004737854,4.504493713,1.098247528,-0.077263974,-0.128348202,1.011209488
130.506675,1.587318420,9.280494690,2.074810028,-0.041985657,-0.102225155,1.021097183
130.545164,-2.746177673,0.972084045,-0.145343781,-0.030022766,-0.130789608,1.032083511
130.559541,-4.912925720,-2.186485291,-0.320819855,-0.038323548,-0.129446834,1.028787613
130.574981,-6.469322205,-2.056785583,0.762554169,-0.041253235,-0.133231014,1.022439957
130.637378,-7.133079529,-6.016441345,-3.631977081,-0.072137021,-0.163138241,1.024515152
130.675754,-7.560325623,2.635292053,-4.150775909,-0.036858704,-0.068777889,1.023538589
130.690167,-6.255699158,4.412940979,-4.555133820,-0.029290345,-0.083304256,1.027444839
130.705610,-6.492210388,5.816749573,-4.051593781,0.001349304,-0.116995662,1.047220230
130.744205,-7.422996521,-3.544517517,-2.716449738,0.038092468,-0.151175350,1.046976089
130.782699,-4.760337830,-14.752098083,-2.197650909,-0.021233704,-0.117361873,1.001565933
130.796943,-1.739097595,-13.531394958,-1.785663605,-0.048089173,-0.119192928,0.994607925
130.812532,-0.579429626,-11.532493591,-1.396564484,-0.056878235,-0.107474178,0.995218277
130.813309,-0.579429626,-11.532493591,-1.396564484,-0.056878235,-0.107474178,0.995218277
130.814056,-0.579429626,-11.532493591,-1.396564484,-0.056878235,-0.107474178,0.995218277
130.814786,-0.579429626,-11.532493591,-1.396564484,-0.056878235,-0.107474178,0.995218277
130.815517,0.420021057,-8.854576111,-0.854877472,-0.067498349,-0.093802303,0.997537613
130.816240,0.420021057,-8.854576111,-0.854877472,-0.067498349,-0.093802303,0.997537613
130.816960,0.420021057,-8.854576111,-0.854877472,-0.067498349,-0.093802303,0.997537613
130.817686,0.420021057,-8.854576111,-0.854877472,-0.067498349,-0.093802303,0.997537613
130.818401,0.420021057,-8.854576111,-0.854877472,-0.067498349,-0.093802303,0.997537613
130.819125,0.420021057,-8.854576111,-0.854877472,-0.067498349,-0.093802303,0.997537613
130.819844,0.420021057,-8.854576111,-0.854877472,-0.067498349,-0.093802303,0.997537613
130.820567,0.420021057,-8.854576111,-0.854877472,-0.067498349,-0.093802303,0.997537613
130.821281,0.420021057,-8.854576111,-0.854877472,-0.067498349,-0.093802303,0.997537613
130.822019,0.420021057,-8.854576111,-0.854877472,-0.067498349,-0.093802303,0.997537613
130.860406,4.036354065,3.245643616,-2.106098175,-0.075799130,-0.085623592,1.011819839
130.898908,0.786231995,7.777503967,-3.769306183,-0.007195618,-0.049856994,1.011819839
130.913134,0.976966858,7.579139709,-2.151874542,0.007086609,-0.034231994,1.001077652
130.928597,1.678871155,2.940467834,-0.435260773,0.016608093,-0.035208557,0.989847183
130.967135,0.397132874,-8.061119080,-0.923542023,-0.018548157,-0.063162655,0.949563980
130.967916,0.397132874,-8.061119080,-0.923542023,-0.018548157,-0.063162655,0.949563980
130.968626,0.397132874,-8.061119080,-0.923542023,-0.018548157,-0.063162655,0.949563980
130.969353,0.397132874,-8.061119080,-0.923542023,-0.018548157,-0.063162655,0.949563980
130.970061,0.397132874,-8.061119080,-0.923542023,-0.018548157,-0.063162655,0.949563980
130.970783,0.397132874,-8.061119080,-0.923542023,-0.018548157,-0.063162655,0.949563980
130.971485,0.397132874,-8.061119080,-0.923542023,-0.018548157,-0.063162655,0.949563980
130.972216,0.397132874,-8.061119080,-0.923542023,-0.018548157,-0.063162655,0.949563980
130.973022,0.397132874,-8.061119080,-0.923542023,-0.018548157,-0.063162655,0.949563980
130.973686,0.397132874,-8.061119080,-0.923542023,-0.018548157,-0.063162655,0.949563980
130.974375,0.748085022,-6.916709900,0.602336884,-0.033806946,-0.054861877,0.939310074
130.975081,0.748085022,-6.916709900,0.602336884,-0.033806946,-0.054861877,0.939310074
130.975772,0.748085022,-6.916709900,0.602336884,-0.033806946,-0.054861877,0.939310074
130.976496,0.748085022,-6.916709900,0.602336884,-0.033806946,-0.054861877,0.939310074
130.977192,0.748085022,-6.916709900,0.602336884,-0.033806946,-0.054861877,0.939310074
130.977910,0.748085022,-6.916709900,0.602336884,-0.033806946,-0.054861877,0.939310074
130.978607,0.748085022,-6.916709900,0.602336884,-0.033806946,-0.054861877,0.939310074
131.017018,-0.053001404,-3.582664490,-1.648334503,-0.053826477,-0.179129452,0.943338394
131.031252,-1.662803650,-2.995201111,-2.426532745,-0.053582337,-0.168387264,0.933328629
131.046717,-1.937461853,0.743202209,-2.266315460,-0.053826477,-0.122855037,0.911722183
131.085268,-1.945091248,3.024391174,-2.571491241,-0.014031556,-0.126273006,0.932474136
131.123777,-2.547813416,-6.985374451,-3.158954620,-0.003655578,-0.080984920,0.906961441
131.153780,-1.174522400,-5.856224060,-3.029254913,-0.028802063,-0.146536678,0.919778824
131.168058,-1.761985779,-3.803916931,-2.495197296,-0.029412415,-0.138724178,0.923685074
131.206511,1.388954163,4.237464905,1.845928192,-0.011834290,-0.162405819,0.960306168
131.245008,-4.218650818,-3.452964783,-1.083759308,-0.014275696,-0.167898983,1.011697769
131.259235,-3.776145935,-3.666587830,-2.136615753,-0.014153626,-0.106619686,1.008035660
131.274826,-2.135826111,1.857093811,-0.526813507,-0.003167297,-0.063284725,1.015237808
131.326874,-1.632286072,0.125221252,2.845378876,0.052008484,-0.151785702,1.019998550
131.365429,5.646156311,-7.725425720,6.568523407,0.007330750,-0.088187069,0.984720230
131.379644,8.079933167,-8.450218201,6.270977020,-0.006219055,-0.081106991,0.993021011
131.395100,10.597633362,-6.313987732,4.790874481,-0.034905579,-0.063406795,1.017679214
131.433651,11.780189514,8.006385803,5.225749969,-0.035027649,-0.097830623,1.073099136
131.472148,4.959510803,8.548072815,2.235027313,0.032111023,-0.044119690,1.082986832
131.486516,3.685401917,7.220558167,2.509685516,0.046393249,-0.010428283,1.065042496
131.501912,3.609107971,3.192237854,4.310222626,0.060065124,0.028023865,1.028177261
131.540446,3.952430725,-10.914512634,5.683513641,0.017706726,-0.101126522,0.986429214
131.578941,4.486488342,-14.202781677,3.066631317,-0.053582337,-0.065726131,0.954568863
131.593173,4.433082581,-6.939598083,3.150554657,-0.085076474,-0.115652889,0.964822769
131.608781,3.326820374,-1.629539490,2.494426727,-0.088128231,-0.119437069,0.969217300
131.647111,-0.487876892,12.728981018,1.617046356,-0.025750306,-0.141653866,0.976663589
131.685612,-4.951072693,5.908302307,-0.107196808,0.021979187,-0.118216366,0.970438004
131.699986,-5.233360291,1.109413147,0.358196259,0.032355163,-0.101004452,0.958353043
131.715388,-5.240989685,-1.461692810,0.846477509,0.033820007,-0.102469295,0.955423355
131.753963,-3.432823181,-10.227867126,1.052471161,-0.008538391,-0.110159725,0.955301285
131.792472,-2.624107361,-3.750511169,-0.259784698,-0.038079407,-0.176688045,1.004739761
131.806712,-3.684593201,0.056556702,0.129314423,-0.038079407,-0.189627498,1.019510269
131.822336,-6.019187927,5.595497131,-0.755695343,-0.024407532,-0.167654842,1.036600113
131.860821,-6.972862244,8.265785217,-2.769855499,0.038336609,-0.047903869,1.042581558
131.899169,-7.178855896,-0.141807556,-1.984027863,0.053473327,-0.133963436,1.027811050
131.913578,-7.789207458,-3.590293884,-3.273395538,0.049933288,-0.111014217,1.008401871
131.929037,-4.378868103,-5.909629822,-2.403644562,0.034308288,-0.049856994,0.958108902
131.981429,6.439613342,2.963356018,1.762004852,0.002936218,-0.013480041,0.967386246
132.020013,9.796546936,3.070167542,2.402873993,0.008063171,-0.117850155,0.987161636
132.034381,9.849952698,3.032020569,2.715679169,0.005377625,-0.094900936,0.992288589
132.063866,9.384559631,0.575355530,0.823589325,0.009772155,-0.082083553,1.012063980
132.102550,9.437965393,-4.925437927,6.637187958,-0.007073547,-0.019095276,0.997659683
132.141058,4.440711975,-11.013694763,3.951641083,-0.066643856,-0.108572811,1.008157730
132.155303,3.708290100,-9.670921326,3.944011688,-0.080926083,-0.095755428,0.998270035
132.170937,3.578590393,-4.536338806,3.913494110,-0.101067685,-0.118460506,0.993509293
132.209448,-2.578330994,4.458717346,0.587078094,-0.082635067,-0.103323787,0.971048355
132.210236,-2.578330994,4.458717346,0.587078094,-0.082635067,-0.103323787,0.971048355
132.210960,-2.578330994,4.458717346,0.587078094,-0.082635067,-0.103323787,0.971048355
132.211680,-2.578330994,4.458717346,0.587078094,-0.082635067,-0.103323787,0.971048355
132.212394,-2.578330994,4.458717346,0.587078094,-0.082635067,-0.103323787,0.971048355
132.213113,-2.578330994,4.458717346,0.587078094,-0.082635067,-0.103323787,0.971048355
132.213824,-2.578330994,4.458717346,0.587078094,-0.082635067,-0.103323787,0.971048355
132.214547,-2.578330994,4.458717346,0.587078094,-0.082635067,-0.103323787,0.971048355
132.215261,-2.578330994,4.458717346,0.587078094,-0.082635067,-0.103323787,0.971048355
132.270294,-4.470420837,-2.056785583,-1.137165070,-0.022820618,-0.099783748,0.956644058
132.284699,-4.363609314,-5.055137634,-0.870136261,-0.022942688,-0.072195858,0.945657730
132.300098,-2.059532166,-8.801170349,-0.755695343,-0.040398743,-0.074759334,0.936868668
132.338633,-2.341819763,-5.360313416,-1.526264191,-0.080559872,-0.155936092,0.967264175
132.377121,-1.441551208,1.879981995,-1.976398468,-0.056145813,-0.162527889,1.001077652
132.391352,-1.540733337,2.764991760,-2.716449738,-0.051263001,-0.183279842,1.018167496
132.406810,-3.219200134,4.916481018,-3.738788605,-0.024895813,-0.161673397,1.048318863
132.445390,-4.264427185,3.215126038,-0.809101105,0.043219421,-0.033499572,1.061258316
132.483892,-2.723289490,-2.331443787,1.609416962,0.031988952,-0.112601131,1.067117691
132.498265,-2.082420349,-4.200645447,3.593059540,0.011603210,-0.098563045,1.049417496
132.513659,-0.236106873,-4.620262146,4.745098114,0.000006531,-0.091605037,1.041604996
132.552191,6.813453674,-2.850242615,0.640483856,-0.052727845,-0.067435116,1.058938980
132.590696,7.133888245,11.721900940,0.884624481,-0.009637024,-0.083548397,1.125589371
132.604931,3.334449768,12.065223694,0.426860809,0.029913757,-0.131277889,1.151346207
132.620374,-0.037742615,10.424903870,0.281902313,0.041998718,-0.112479061,1.148782730
132.674508,-5.591941833,2.337745667,1.617046356,0.080450870,-0.001517151,1.036233902
132.713057,-6.019187927,-6.443687439,3.638835907,0.042853210,-0.095877498,0.962747574
132.727276,-5.714012146,-7.778831482,3.776165009,0.020392273,-0.112479061,0.949930191
132.742708,-6.522727966,-5.902000427,4.500957489,-0.015496399,-0.138846248,0.928934097
132.781228,-5.721641541,3.375343323,5.302043915,-0.045525696,-0.095755428,0.900979996
132.819718,-5.820823669,12.149147034,5.431743622,-0.019036438,-0.150320858,0.920755386
132.834118,-7.026268005,8.296302795,4.500957489,-0.006463196,-0.153494686,0.913675308
132.849526,-7.392478943,5.503944397,3.860088348,-0.010857727,-0.141165584,0.906351089
132.888067,-6.095481873,-1.217552185,3.554912567,-0.035393860,-0.124930233,0.904520035
132.926548,-5.370689392,-7.031150818,0.976177216,-0.081170224,-0.125296444,0.908304214
132.940768,-4.607749939,-6.939598083,-0.229267120,-0.094353817,-0.139456600,0.916604996
132.956257,-4.706932068,-3.979393005,-1.579669952,-0.105706356,-0.149954647,0.936746597
132.994792,-3.959251404,-0.607200623,-5.882648468,-0.077141903,-0.065970272,0.978494644
133.033281,-2.524925232,6.472877502,-7.110980988,-0.031243470,-0.095145077,1.017190933
133.047671,-2.746177673,7.830909729,-6.042865753,-0.012322571,-0.121756405,1.021097183
133.063100,-2.120567322,5.046180725,-5.180744171,0.017340515,-0.164847225,1.023172379
133.101637,1.495765686,-10.632225037,-5.249408722,-0.019402649,-0.094900936,0.997415543
133.140130,5.974220276,-7.755943298,-3.921894073,-0.075921200,-0.056937072,1.007181168
133.154343,6.790565491,-4.635520935,-3.128437042,-0.085442685,-0.071463436,1.010354996
133.169804,7.156776428,-1.568504333,-4.326251984,-0.091546200,-0.089773983,1.015237808
133.208386,4.898475647,9.158424377,-8.034137726,-0.044793274,-0.040335510,1.006326675
133.246875,6.676124573,7.411293030,-2.724079132,0.021490905,-0.056204651,0.987283707
133.261264,5.180763245,-4.757591248,-5.081562042,0.022223327,-0.097830623,0.979715347
133.276669,4.326271057,-10.296531677,-5.821613312,0.011359069,-0.087332577,0.968729019
133.331060,3.052162170,-0.439353943,-6.134418488,-0.034051087,-0.131888241,0.941995621
133.369618,1.404212952,5.770973206,-4.219440460,0.018439148,-0.117728084,0.933938980
133.384001,0.877784729,3.878883362,-4.524616241,0.029791687,-0.125418514,0.935403824
133.399401,0.114845276,-1.614280701,-5.379108429,0.036627624,-0.101004452,0.929056168
133.454032,1.068519592,-7.504173279,-3.868488312,-0.008294251,-0.153372616,0.913675308
133.492666,1.388954163,2.482704163,-4.021076202,-0.019646790,-0.148978084,0.924905777
133.506922,1.800941467,6.892494202,-1.953510284,-0.007805969,-0.144461483,0.932962418
133.522494,3.830360413,9.822181702,0.480266571,0.014899109,-0.151419491,0.970438004
133.560994,1.839088440,-3.597923279,-3.593830109,0.031866882,-0.048758361,1.030496597
133.623263,4.043983459,-4.276939392,-1.633075714,0.004645203,-0.207327694,1.093973160
133.637680,1.701759338,-3.605552673,-0.900653839,0.010504577,-0.160452694,1.084329605
133.653096,2.647804260,-1.934715271,0.716777802,0.010626648,-0.094656795,1.076150894
133.691620,6.874488831,-0.019737244,1.418682098,0.026007507,-0.091482967,1.119119644
133.692388,6.874488831,-0.019737244,1.418682098,0.026007507,-0.091482967,1.119119644
133.693093,6.874488831,-0.019737244,1.418682098,0.026007507,-0.091482967,1.119119644
133.693801,6.874488831,-0.019737244,1.418682098,0.026007507,-0.091482967,1.119119644
133.694503,6.874488831,-0.019737244,1.418682098,0.026007507,-0.091482967,1.119119644
133.695219,6.874488831,-0.019737244,1.418682098,0.026007507,-0.091482967,1.119119644
133.695917,6.874488831,-0.019737244,1.418682098,0.026007507,-0.091482967,1.119119644
133.696636,6.874488831,-0.019737244,1.418682098,0.026007507,-0.091482967,1.119119644
133.697333,5.440162659,-0.515647888,1.601787567,0.027716491,-0.071829647,1.127542496
