time,gyro x,gyro y,gyro z,accel x,accel y,accel z
3.183471,-0.028312683,0.081710815,-0.123367310,-0.002105591,-0.000826417,1.001007318
3.186694,0.017463684,-0.070877075,-0.047073364,0.000335815,-0.001680909,1.003204584
3.187320,0.047981262,-0.185317993,-0.100479126,0.000335815,-0.001802979,0.999908686
3.187945,0.040351868,-0.200576782,0.082626343,-0.001861450,0.001248779,1.001007318
3.188571,-0.058830261,-0.017471313,0.013961792,-0.000152466,0.000394287,1.003814936
3.189196,0.032722473,-0.109024048,0.029220581,-0.002349732,0.002225341,1.003326654
3.189822,-0.013053894,-0.162429810,0.097885132,-0.000518677,-0.002047120,1.002228022
3.190448,0.139533997,-0.055618286,-0.085220337,-0.000762817,-0.000948487,1.005157709
3.191073,-0.058830261,-0.078506470,0.082626343,-0.002715942,0.002835693,1.005768061
3.191699,-0.058830261,0.028305054,0.113143921,-0.002471802,0.000760498,1.003937006
3.192324,0.017463684,0.058822632,0.013961792,0.001556518,0.000272216,1.005645990
3.192949,0.093757629,-0.078506470,-0.146255493,0.002166870,0.001126708,1.008087397
3.193576,0.170051575,-0.131912231,0.082626343,0.000702026,-0.003389893,1.007721186
3.194203,0.086128235,-0.299758911,-0.253067017,0.001190308,0.001859130,1.007721186
3.194829,0.154792786,-0.055618286,-0.092849731,-0.000396607,-0.000460206,1.009063959
3.195455,0.047981262,0.173263550,0.013961792,0.001556518,-0.001192627,1.010650873
3.196081,-0.043571472,-0.208206177,0.036849976,0.002288940,0.000516357,1.009186029
3.196708,0.047981262,-0.063247681,-0.108108521,0.005340698,0.000150146,1.009796381
3.197335,0.124275208,-0.124282837,0.120773315,0.001190308,0.001981201,1.011871576
3.197960,-0.013053894,-0.040359497,0.082626343,-0.001006958,-0.000216065,1.012603998
3.198585,0.017463684,0.074081421,-0.054702759,0.002166870,0.002469482,1.011993647
3.199211,-0.096977234,0.020675659,-0.016555786,0.002044800,0.001126708,1.012848139
3.199837,-0.005424500,0.112228394,0.158920288,0.000702026,-0.001436768,1.011139154
3.200463,0.032722473,-0.116653442,0.013961792,0.000579956,-0.002413331,1.012726068
3.201089,0.177680969,0.219039917,-0.207290649,0.000579956,0.003079833,1.011993647
3.201715,-0.135124207,0.051193237,0.151290894,0.000213745,0.001004638,1.008575678
3.202341,0.154792786,-0.032730103,0.059738159,0.000335815,-0.000093995,1.013092279
3.202968,0.047981262,0.249557495,-0.016555786,0.003265503,-0.002779542,1.009430170
3.203595,0.047981262,0.028305054,0.197067261,-0.000274536,-0.001314698,1.010162592
3.204220,-0.043571472,-0.002212524,-0.031814575,-0.001251099,-0.002291260,1.008941889
3.204847,0.109016418,0.226669312,-0.108108521,-0.002593872,-0.000826417,1.006134272
3.205474,0.170051575,0.257186890,-0.069961548,-0.000762817,-0.000826417,1.008575678
3.206100,0.124275208,0.096969604,0.021591187,-0.001617310,-0.003511963,1.010162592
3.206727,0.109016418,0.180892944,-0.092849731,-0.001861450,-0.003511963,1.005890131
3.207352,0.093757629,0.051193237,0.029220581,-0.000640747,-0.002657471,1.007599115
3.207979,-0.081718445,0.104598999,-0.047073364,-0.001739380,-0.003023682,1.005157709
3.208605,-0.066459656,0.096969604,0.105514526,-0.000640747,-0.000826417,1.006378412
3.209231,0.025093079,0.287704468,0.044479370,-0.000640747,-0.001802979,1.003937006
3.209856,0.002204895,0.051193237,0.189437866,0.001556518,-0.001680909,1.001373529
3.210482,0.269233704,0.058822632,0.059738159,-0.002838013,0.000272216,0.998077631
3.211108,0.116645813,0.180892944,-0.176773071,-0.001495239,0.000516357,0.998321772
3.211733,0.078498840,0.150375366,-0.001296997,-0.001251099,0.001248779,0.997101068
3.212359,0.086128235,-0.086135864,-0.069961548,0.000213745,0.001981201,0.998565912
3.212984,-0.051200867,0.165634155,-0.077590942,-0.000518677,-0.000460206,1.001007318
3.213609,-0.066459656,-0.017471313,0.013961792,-0.000884888,0.000150146,0.999054193
3.214234,0.093757629,0.035934448,-0.008926392,0.000579956,-0.004244385,0.996246576
3.214860,0.047981262,0.150375366,0.128402710,-0.003814575,0.000272216,0.998199701
3.215485,-0.104606628,-0.093765259,0.074996948,-0.001006958,-0.000216065,0.999664545
3.216111,0.192939758,0.234298706,-0.062332153,0.001068237,-0.001802979,0.999176264
3.216737,0.070869446,-0.002212524,0.006332397,-0.002715942,-0.000216065,1.002594233
3.229704,0.047981262,-0.177688599,0.181808472,-0.004791138,-0.001802979,1.006866693
3.230413,0.116645813,0.150375366,-0.077590942,0.000335815,-0.001802979,1.004425287
3.231038,0.231086731,0.058822632,0.151290894,0.000702026,-0.001680909,1.004303217
3.231663,0.238716125,0.173263550,-0.237808228,-0.005645630,-0.002047120,1.003082514
3.232289,0.208198547,0.020675659,0.067367554,-0.001251099,-0.000093995,1.003570795
3.232915,0.192939758,-0.109024048,0.097885132,-0.004302857,-0.002535401,1.001983881
3.233542,0.109016418,0.158004761,0.113143921,-0.002715942,-0.000338135,0.997833490
3.234168,0.124275208,-0.017471313,-0.069961548,-0.000640747,-0.000582276,0.997101068
3.234794,0.170051575,-0.032730103,-0.108108521,-0.002105591,-0.000216065,0.996734858
3.236551,0.002204895,-0.040359497,-0.062332153,-0.000518677,0.000028076,0.997345209
3.237177,0.047981262,0.013046265,-0.039443970,-0.004058716,-0.000948487,0.994781733
3.237802,0.055610657,0.180892944,0.052108765,-0.002593872,-0.001925049,0.995636225
3.238427,0.437080383,-0.093765259,-0.031814575,-0.002960083,-0.005587159,0.996368647
3.239052,0.452339172,0.013046265,0.105514526,-0.002227661,-0.001680909,0.996002436
3.239678,0.101387024,-0.177688599,-0.077590942,-0.000762817,-0.002779542,0.998077631
3.240303,0.139533997,-0.086135864,0.151290894,0.000457886,0.002591552,0.996856928
3.240928,0.009834290,-0.009841919,0.074996948,-0.001129028,0.000272216,0.997955561
3.241554,0.192939758,-0.276870728,0.021591187,-0.006378052,-0.000826417,0.998199701
3.242179,0.040351868,0.089340210,0.136032104,-0.005157349,-0.005709229,1.000152826
3.242806,0.047981262,-0.208206177,0.021591187,-0.005035278,-0.006929932,1.002350092
3.243433,0.215827942,-0.345535278,-0.138626099,-0.001739380,-0.004366456,1.002472162
3.244058,0.055610657,-0.154800415,0.097885132,-0.000762817,-0.001802979,1.003692865
3.244683,0.086128235,-0.131912231,0.090255737,-0.001983521,-0.001192627,1.006622553
3.245308,0.253974915,-0.116653442,0.143661499,0.000091675,0.000394287,1.004181147
3.245935,0.131904602,-0.162429810,0.021591187,-0.001129028,0.000028076,1.005157709
3.246561,0.177680969,-0.154800415,-0.016555786,0.000213745,-0.000460206,1.005645990
3.247187,0.055610657,-0.124282837,-0.031814575,-0.001983521,0.001370849,1.006012201
3.247812,0.261604309,-0.177688599,0.052108765,-0.001006958,0.000394287,1.006866693
3.248438,0.101387024,-0.192947388,-0.047073364,-0.003204224,0.001004638,1.007354975
3.249063,0.070869446,-0.047988892,0.280990601,0.002166870,-0.000582276,1.009063959
3.249690,0.261604309,-0.231094360,0.029220581,-0.001006958,-0.001070557,1.010772943
3.250317,0.116645813,-0.063247681,-0.069961548,0.000457886,-0.000582276,1.009796381
3.250943,0.292121887,0.035934448,0.113143921,-0.001251099,0.002225341,1.011261225
3.251568,0.025093079,-0.002212524,0.082626343,-0.001129028,0.001859130,1.010528803
3.252193,0.177680969,-0.032730103,-0.008926392,0.000579956,-0.001680909,1.005401850
3.252819,0.109016418,0.096969604,-0.001296997,0.000213745,-0.000582276,1.007110834
3.253446,0.170051575,-0.124282837,-0.153884888,-0.000884888,-0.002047120,1.006378412
3.254071,0.223457336,-0.032730103,-0.069961548,-0.001617310,-0.000216065,1.002350092
3.254696,0.223457336,0.234298706,0.166549683,-0.003448364,-0.001192627,1.002960443
3.255323,0.093757629,0.165634155,0.143661499,0.000213745,-0.000826417,0.999176264
3.255950,0.253974915,-0.040359497,-0.146255493,-0.000152466,-0.000216065,0.996734858
3.256577,0.017463684,-0.009841919,0.036849976,-0.001983521,-0.001436768,0.996368647
3.257203,0.177680969,-0.017471313,0.090255737,-0.002838013,-0.002291260,0.995514154
3.257828,0.109016418,0.150375366,-0.146255493,-0.000152466,0.001004638,0.994415522
3.258453,0.345527649,-0.009841919,-0.039443970,-0.005035278,0.000028076,0.992706537
3.259079,0.086128235,0.028305054,0.189437866,-0.002593872,0.000394287,0.991607904
3.259706,-0.051200867,-0.055618286,-0.192031860,-0.006133911,-0.001802979,0.989166498
3.260332,0.070869446,-0.078506470,0.074996948,-0.004913208,-0.000826417,0.988189936
3.260959,0.231086731,-0.078506470,0.151290894,-0.002838013,0.002103271,0.986114740
3.275647,-0.142753601,-0.162429810,-0.024185181,0.001190308,0.000638427,1.015533686
3.276351,-0.081718445,0.112228394,-0.047073364,0.001678589,0.000638427,1.016144037
3.276976,0.139533997,0.005416870,-0.047073364,-0.000884888,0.000638427,1.016388178
3.277601,0.170051575,-0.078506470,0.067367554,-0.000030396,-0.002047120,1.012726068
3.278226,0.017463684,-0.009841919,-0.001296997,0.000579956,0.000882568,1.016632318
3.278853,0.223457336,0.150375366,-0.054702759,0.001068237,-0.003267823,1.013702631
3.279479,0.032722473,-0.147171021,-0.054702759,-0.000640747,0.000272216,1.011261225
3.280104,-0.096977234,0.234298706,-0.069961548,-0.000518677,0.001737060,1.010772943
3.280731,0.055610657,-0.070877075,-0.092849731,-0.000640747,0.001614990,1.010406733
3.281356,0.070869446,0.127487183,0.052108765,0.002166870,-0.001436768,1.010406733
3.281982,-0.066459656,0.173263550,-0.008926392,-0.001739380,-0.002657471,1.006622553
3.282609,0.162422180,0.173263550,0.006332397,-0.001006958,0.001126708,1.009063959
3.283236,0.101387024,0.142745972,0.082626343,-0.001983521,-0.001436768,1.005645990
3.283863,0.101387024,-0.055618286,0.158920288,-0.002593872,-0.001558838,1.003692865
3.284488,0.299751282,0.356369019,0.151290894,-0.003814575,0.000760498,1.007721186
3.285113,0.109016418,0.158004761,-0.016555786,-0.003570435,-0.000460206,1.004913568
3.286900,0.200569153,0.096969604,0.113143921,-0.004302857,-0.001436768,1.001007318
3.287525,0.154792786,-0.124282837,-0.001296997,-0.000762817,0.003323974,1.003204584
3.288151,0.009834290,0.135116577,0.113143921,-0.002105591,-0.001436768,1.002838373
3.288776,-0.051200867,-0.055618286,0.181808472,-0.000152466,0.002225341,1.005279779
3.289402,-0.119865417,0.173263550,0.105514526,0.001312378,0.001126708,1.004181147
3.290027,-0.028312683,-0.063247681,-0.001296997,-0.001373169,-0.000826417,1.005645990
3.290653,-0.096977234,0.272445679,0.258102417,0.002044800,0.000028076,1.006744623
3.291278,-0.081718445,0.043563843,-0.047073364,-0.001129028,0.002347412,1.004791498
3.291905,-0.127494812,0.219039917,0.059738159,-0.002227661,-0.001925049,1.005890131
3.292530,0.040351868,-0.063247681,0.082626343,-0.001495239,-0.000826417,1.007843256
3.293155,-0.020683289,0.196151733,0.174179077,0.000702026,-0.003267823,1.008453608
3.293780,-0.096977234,0.035934448,0.029220581,0.000946167,0.002103271,1.008331537
3.294406,-0.096977234,0.074081421,0.044479370,0.000091675,0.000272216,1.006744623
3.295033,-0.028312683,-0.116653442,-0.054702759,0.000579956,0.000394287,1.008819818
3.295659,-0.135124207,0.188522339,0.021591187,0.000091675,0.002713623,1.006500483
3.296284,0.025093079,0.211410522,-0.001296997,0.001312378,-0.001802979,1.010040522
3.296909,-0.135124207,-0.055618286,-0.062332153,0.000579956,0.002835693,1.008209467
3.297534,-0.135124207,0.180892944,-0.100479126,0.002533081,0.003690185,1.008697748
3.298159,-0.257194519,0.173263550,-0.047073364,-0.000640747,-0.000582276,1.008331537
3.298785,0.025093079,0.165634155,0.128402710,-0.000274536,0.000394287,1.007599115
3.299411,0.017463684,0.295333862,0.105514526,0.001922729,0.000272216,1.006012201
3.300037,-0.051200867,0.203781128,0.021591187,0.000091675,0.002103271,1.005645990
3.300663,-0.020683289,0.203781128,0.151290894,-0.000274536,-0.000582276,1.007232904
3.301288,0.025093079,0.234298706,-0.054702759,0.003387573,-0.002047120,1.006256342
3.301914,0.032722473,0.020675659,0.052108765,0.000702026,0.002469482,1.005401850
3.302541,-0.096977234,0.318222046,-0.138626099,-0.001983521,-0.000093995,1.005401850
3.303168,-0.074089050,0.234298706,0.052108765,0.002166870,-0.002047120,1.006134272
3.303794,0.032722473,0.112228394,-0.062332153,-0.003326294,-0.000582276,1.004303217
3.304420,0.047981262,0.280075073,-0.069961548,0.002411011,0.000516357,0.999420404
3.305046,-0.081718445,0.142745972,0.006332397,-0.000030396,-0.001192627,1.001739740
3.305671,-0.005424500,0.196151733,-0.138626099,-0.002105591,0.000394287,1.000763178
3.306298,0.223457336,0.066452026,-0.123367310,0.001190308,0.001614990,0.999542475
3.306925,0.017463684,0.257186890,-0.054702759,-0.000396607,0.000516357,0.997223139
3.319490,0.116645813,-0.124282837,-0.077590942,-0.001129028,-0.002047120,1.007354975
3.320172,0.055610657,0.035934448,-0.047073364,0.001312378,-0.003023682,1.011749506
3.320798,0.139533997,-0.017471313,0.059738159,0.000457886,-0.005831299,1.010284662
3.321424,0.139533997,0.005416870,0.044479370,0.000335815,-0.003389893,1.010162592
3.322049,-0.066459656,-0.109024048,-0.031814575,0.000824097,-0.002047120,1.008087397
3.322674,0.139533997,-0.124282837,-0.161514282,0.003875854,-0.002169190,1.009674311
3.323299,0.101387024,-0.032730103,0.006332397,0.003143433,-0.003145752,1.010040522
3.323926,0.078498840,0.035934448,-0.062332153,0.001800659,0.000150146,1.010162592
3.324553,0.017463684,0.089340210,-0.016555786,0.001434448,0.001492919,1.013458490
3.325179,-0.005424500,0.020675659,0.090255737,0.002533081,-0.001802979,1.009063959
3.325805,0.154792786,0.142745972,0.013961792,0.003753784,-0.000460206,1.009063959
3.326432,0.353157043,0.219039917,-0.001296997,0.000213745,0.000272216,1.008331537
3.327058,0.215827942,0.051193237,0.021591187,-0.000152466,-0.003023682,1.006866693
3.327683,0.131904602,-0.047988892,0.029220581,-0.001129028,-0.001192627,1.005401850
3.328308,0.101387024,0.188522339,-0.222549438,0.001312378,-0.003878174,1.005401850
3.328933,0.170051575,0.180892944,0.006332397,0.000457886,-0.001314698,1.005279779
3.329558,0.078498840,0.066452026,0.082626343,-0.001495239,-0.003023682,1.004181147
3.330183,0.215827942,0.074081421,-0.253067017,-0.001617310,-0.004244385,1.000274897
3.330808,0.101387024,-0.063247681,-0.024185181,-0.002471802,-0.000704346,0.999786615
3.331434,0.322639465,0.158004761,-0.123367310,-0.003448364,-0.002169190,0.996246576
3.332059,0.040351868,0.104598999,-0.085220337,-0.002105591,-0.001070557,0.993927240
3.332685,0.093757629,0.173263550,0.044479370,-0.005279419,-0.001192627,0.993927240
3.333312,0.154792786,-0.009841919,0.006332397,-0.007232544,-0.000582276,0.991363764
3.333938,0.170051575,-0.002212524,-0.291213989,-0.001373169,0.000516357,0.993316889
3.334564,0.139533997,-0.109024048,0.067367554,-0.002471802,0.001737060,0.990265131
3.335189,0.192939758,-0.215835571,-0.100479126,-0.006378052,0.002103271,0.989288568
3.336935,0.055610657,-0.025100708,0.151290894,-0.005645630,-0.002413331,0.991363764
3.337562,-0.013053894,-0.086135864,0.082626343,-0.004180786,-0.001802979,0.993561029
3.338187,0.078498840,-0.070877075,-0.008926392,-0.003082153,0.000028076,0.994049311
3.338814,0.002204895,-0.223464966,-0.069961548,-0.002960083,-0.003634034,0.995758295
3.339440,0.017463684,-0.109024048,-0.031814575,-0.000640747,-0.000216065,0.997711420
3.340065,0.101387024,-0.147171021,-0.092849731,-0.005523560,-0.000704346,1.001495600
3.340690,0.025093079,-0.261611938,-0.031814575,-0.003448364,-0.001436768,0.997833490
3.341316,-0.035942078,-0.276870728,-0.062332153,-0.004180786,-0.002169190,1.000152826
3.341942,0.101387024,-0.307388306,-0.115737915,-0.002960083,-0.002291260,1.001495600
3.342568,0.070869446,-0.322647095,-0.047073364,-0.000396607,-0.000948487,1.005035639
3.343194,0.047981262,-0.109024048,-0.130996704,0.002044800,-0.002047120,1.005035639
3.343820,-0.066459656,-0.086135864,-0.146255493,0.001312378,0.000272216,1.008697748
3.344445,-0.104606628,-0.215835571,-0.054702759,-0.000640747,-0.001436768,1.006500483
3.345072,-0.013053894,-0.063247681,-0.077590942,0.000702026,-0.000948487,1.011627436
3.345697,-0.020683289,-0.269241333,0.143661499,-0.001251099,-0.005587159,1.007965326
3.346323,0.215827942,-0.055618286,0.006332397,-0.000762817,-0.002779542,1.010895014
3.346948,0.177680969,-0.063247681,0.204696655,0.000824097,-0.001925049,1.012603998
3.347574,0.070869446,-0.147171021,-0.108108521,0.000824097,-0.002901612,1.013214350
3.348199,0.253974915,0.005416870,-0.001296997,-0.001006958,-0.004244385,1.012726068
3.348824,-0.020683289,-0.231094360,0.136032104,-0.003692505,-0.003634034,1.008453608
3.349449,0.330268860,-0.070877075,-0.047073364,-0.000640747,0.000150146,1.010406733
3.350075,0.299751282,0.035934448,-0.169143677,0.000824097,-0.000704346,1.007477045
3.350701,0.032722473,-0.063247681,0.235214233,-0.000518677,-0.002047120,1.008697748
3.363304,-0.203788757,-0.345535278,0.151290894,-0.000884888,-0.001070557,1.000030756
3.364056,-0.066459656,-0.147171021,-0.039443970,-0.002227661,-0.002291260,0.998932123
3.364681,-0.058830261,-0.154800415,-0.069961548,-0.000640747,-0.002535401,1.002594233
3.365307,0.147163391,-0.253982544,-0.001296997,-0.000518677,-0.002047120,1.003692865
3.365933,-0.081718445,-0.177688599,0.090255737,-0.001739380,-0.000460206,1.002594233
3.366573,-0.074089050,-0.154800415,-0.054702759,0.000335815,-0.001314698,1.004669428
3.367199,0.086128235,-0.147171021,0.006332397,-0.001006958,-0.000338135,1.007110834
3.367824,0.170051575,-0.253982544,0.136032104,0.002777222,0.002225341,1.014312983
3.368449,-0.035942078,-0.284500122,0.021591187,0.000579956,-0.000460206,1.010406733
3.369075,-0.203788757,-0.208206177,-0.062332153,0.002655151,0.000150146,1.014312983
3.369702,-0.081718445,-0.253982544,0.151290894,0.000946167,-0.001925049,1.016754389
3.370328,0.032722473,-0.124282837,0.021591187,0.001800659,0.000516357,1.016266108
3.370953,-0.005424500,-0.215835571,-0.085220337,0.000824097,-0.001925049,1.018829584
3.371578,-0.028312683,-0.147171021,-0.085220337,0.002166870,-0.002779542,1.016998529
3.372203,0.154792786,-0.215835571,0.006332397,0.002288940,-0.000093995,1.017730951
3.372829,0.147163391,-0.047988892,0.090255737,-0.000396607,-0.003267823,1.015655756
3.373455,0.063240051,-0.139541626,-0.054702759,0.001068237,-0.000338135,1.016388178
3.374081,0.017463684,-0.017471313,0.021591187,0.002166870,-0.004122315,1.017730951
3.374706,-0.058830261,0.249557495,0.021591187,0.001922729,-0.000460206,1.018097162
3.375332,-0.119865417,0.005416870,-0.169143677,0.003021362,-0.001558838,1.017486811
3.375957,0.215827942,0.104598999,0.151290894,0.001190308,-0.001436768,1.013702631
3.376583,0.337898254,0.287704468,0.303878784,-0.000640747,-0.001802979,1.010895014
3.377209,0.131904602,0.196151733,0.113143921,-0.001739380,-0.001558838,1.010895014
3.377835,0.376045227,0.074081421,-0.001296997,0.000579956,0.001859130,1.006622553
3.378460,0.261604309,0.226669312,0.151290894,-0.001373169,-0.001802979,1.004669428
3.379085,0.261604309,0.043563843,0.052108765,-0.000884888,-0.002169190,1.005890131
3.379710,0.086128235,0.135116577,0.029220581,-0.001251099,-0.000826417,1.002472162
3.380337,0.246345520,0.112228394,-0.054702759,-0.001129028,-0.001192627,1.000519037
3.380963,0.154792786,-0.040359497,0.143661499,-0.003448364,0.000882568,1.000519037
3.381588,0.208198547,-0.025100708,-0.008926392,-0.003448364,-0.003023682,0.996978998
3.382213,0.276863098,-0.116653442,-0.130996704,-0.000762817,0.001859130,0.999542475
3.382840,0.246345520,0.089340210,-0.054702759,0.000702026,0.001004638,0.999786615
3.383466,0.154792786,0.096969604,0.212326050,0.001556518,0.001004638,0.996368647
3.384091,0.284492493,-0.170059204,0.128402710,-0.002227661,0.000150146,0.998199701
3.384716,0.353157043,-0.040359497,0.105514526,-0.002838013,0.001859130,0.996124506
3.385342,0.307380676,-0.040359497,0.074996948,-0.002227661,0.001004638,0.994293451
3.387102,0.330268860,-0.086135864,-0.039443970,-0.000884888,0.001126708,1.000763178
3.387727,0.177680969,-0.025100708,0.120773315,-0.001739380,-0.000216065,1.000763178
3.388352,0.063240051,-0.093765259,-0.085220337,0.000946167,-0.000338135,1.005035639
3.388978,0.215827942,0.020675659,0.036849976,0.000335815,0.000638427,1.003814936
3.389603,0.238716125,-0.292129517,-0.161514282,-0.004180786,-0.000826417,1.004303217
3.390230,0.307380676,-0.086135864,0.059738159,-0.002105591,-0.000948487,1.005523920
3.390857,0.040351868,-0.154800415,-0.153884888,-0.000640747,0.000150146,1.008209467
3.391484,0.101387024,-0.009841919,0.044479370,0.000091675,-0.004366456,1.008575678
3.392110,0.215827942,-0.261611938,0.036849976,0.001434448,0.002347412,1.010284662
3.392737,0.009834290,0.005416870,-0.130996704,-0.000396607,0.001737060,1.017364740
3.393362,0.200569153,-0.017471313,0.074996948,0.000091675,0.000882568,1.014312983
3.393989,0.284492493,-0.116653442,0.044479370,-0.000274536,-0.000093995,1.013580561
3.394615,0.261604309,0.035934448,0.151290894,0.004974487,-0.001802979,1.014557123
3.407200,0.070869446,-0.070877075,-0.260696411,-0.001739380,-0.000338135,0.992584467
3.407861,0.070869446,-0.070877075,-0.260696411,-0.001739380,-0.000338135,0.992584467
3.408487,0.055610657,0.089340210,0.151290894,-0.002227661,-0.002047120,0.989898920
3.409113,-0.089347839,-0.032730103,-0.024185181,-0.001861450,-0.000948487,0.990143061
3.409738,0.162422180,-0.002212524,-0.008926392,-0.002349732,-0.000460206,0.989044428
3.410363,0.063240051,-0.047988892,-0.123367310,-0.003570435,-0.001802979,0.990020990
3.410990,0.124275208,0.043563843,0.036849976,-0.005157349,-0.000460206,0.990020990
3.411616,0.147163391,-0.192947388,-0.207290649,-0.003448364,-0.000216065,0.990753412
3.412242,0.009834290,-0.307388306,0.036849976,-0.002349732,-0.001925049,0.993561029
3.412867,-0.058830261,-0.086135864,-0.161514282,-0.003692505,-0.000704346,0.992706537
3.413494,0.139533997,-0.231094360,-0.054702759,-0.005279419,0.000516357,0.997223139
3.414119,0.101387024,-0.238723755,0.059738159,-0.004180786,-0.001558838,0.996978998
3.414745,0.032722473,-0.192947388,-0.146255493,-0.003204224,-0.003878174,1.001495600
3.415372,-0.005424500,-0.337905884,0.059738159,-0.000518677,-0.001680909,1.002228022
3.415997,0.139533997,-0.215835571,-0.054702759,0.002044800,0.002225341,1.006256342
3.416623,0.109016418,-0.223464966,0.013961792,0.000091675,-0.001314698,1.007721186
3.417249,-0.020683289,-0.086135864,-0.130996704,0.002044800,-0.001802979,1.008209467
3.417876,-0.035942078,-0.192947388,-0.039443970,0.001312378,-0.002413331,1.012115717
3.418501,-0.119865417,-0.215835571,0.181808472,0.003509643,0.001492919,1.014068842
3.419126,0.055610657,0.096969604,0.227584839,0.004364136,-0.001802979,1.017853022
3.419751,0.101387024,0.142745972,0.059738159,0.003387573,-0.002779542,1.019928217
3.420376,0.032722473,-0.002212524,-0.001296997,-0.002105591,-0.000826417,1.018707514
3.421009,-0.020683289,0.341110229,-0.016555786,-0.001373169,0.001737060,1.020538568
3.421634,0.040351868,0.257186890,-0.085220337,-0.002838013,-0.001925049,1.017608881
3.422261,0.116645813,-0.009841919,-0.024185181,-0.001373169,-0.000582276,1.014801264
3.422888,0.025093079,0.081710815,0.029220581,-0.001983521,-0.003145752,1.013092279
3.423514,0.131904602,-0.147171021,-0.275955200,-0.002593872,-0.004000245,1.009796381
3.424141,0.276863098,0.013046265,-0.085220337,0.000824097,-0.001925049,1.008819818
3.424766,0.116645813,-0.040359497,0.082626343,-0.000396607,-0.002413331,1.002350092
3.425392,0.292121887,-0.154800415,-0.077590942,-0.001861450,-0.003389893,1.001373529
3.426017,0.330268860,0.096969604,-0.024185181,0.000702026,0.000638427,1.003692865
3.426644,0.345527649,0.135116577,-0.123367310,0.001312378,0.001492919,1.005279779
3.427270,0.345527649,0.074081421,-0.092849731,0.002411011,0.006009521,0.999420404
3.427897,0.139533997,0.104598999,0.204696655,-0.000884888,0.001981201,0.996490717
3.428522,0.116645813,0.302963257,-0.008926392,-0.000152466,-0.001802979,0.996002436
3.429149,0.131904602,0.096969604,-0.031814575,-0.004180786,-0.004854737,0.999176264
3.429774,0.093757629,0.158004761,-0.176773071,-0.000152466,-0.004854737,0.995880365
3.430400,0.147163391,-0.139541626,0.158920288,-0.003448364,-0.001070557,0.995636225
3.431027,0.223457336,-0.017471313,0.013961792,-0.002715942,0.004300537,0.996612787
3.431653,0.261604309,-0.040359497,0.258102417,-0.001739380,0.002469482,0.997345209
3.432278,0.231086731,-0.009841919,0.105514526,-0.001373169,0.001004638,0.993316889
3.432903,0.223457336,0.035934448,-0.153884888,-0.004180786,0.005765380,0.993683100
3.433528,0.231086731,-0.269241333,0.052108765,-0.003936646,0.004178466,0.990631342
3.434154,-0.005424500,-0.086135864,-0.031814575,-0.004058716,0.008206787,0.992218256
3.434781,-0.058830261,-0.002212524,-0.039443970,-0.000884888,0.004056396,0.990265131
3.443246,-0.089347839,-0.093765259,-0.108108521,0.002044800,0.000638427,1.007354975
3.443872,-0.196159363,-0.009841919,-0.031814575,0.001068237,0.000394287,1.013824701
3.444498,-0.173271179,-0.177688599,0.136032104,0.000091675,-0.003389893,1.013946772
3.445124,0.231086731,-0.223464966,-0.031814575,-0.001495239,-0.000460206,1.015289545
3.457769,-0.081718445,-0.459976196,-0.115737915,-0.003448364,0.002347412,0.989898920
3.458515,-0.043571472,-0.261611938,-0.069961548,-0.003326294,0.003446044,0.991485834
3.459140,0.063240051,-0.437088013,0.013961792,-0.002471802,0.003201904,0.995758295
3.459767,0.070869446,-0.109024048,-0.077590942,-0.003936646,0.001370849,0.995636225
3.460394,-0.219047546,-0.269241333,0.044479370,-0.002960083,0.000516357,0.999664545
3.461021,-0.119865417,-0.276870728,0.082626343,-0.001617310,0.001492919,1.000763178
3.461647,-0.089347839,-0.253982544,0.105514526,-0.002593872,-0.000338135,1.004791498
3.462272,-0.180900574,-0.398941040,0.059738159,-0.003814575,-0.001436768,1.005157709
3.462899,-0.081718445,-0.109024048,0.036849976,-0.003692505,-0.000460206,1.006256342
3.463525,-0.196159363,-0.353164673,0.227584839,-0.001861450,-0.002169190,1.007721186
3.464150,-0.180900574,-0.299758911,-0.001296997,-0.001861450,0.000150146,1.007354975
3.464775,-0.005424500,-0.360794067,-0.008926392,-0.003082153,-0.001436768,1.011627436
3.465401,-0.158012390,-0.315017700,0.326766968,-0.000640747,-0.000093995,1.010895014
3.466027,-0.127494812,-0.200576782,-0.069961548,0.002411011,-0.001802979,1.011749506
3.466653,-0.135124207,-0.101394653,-0.192031860,0.001190308,0.000028076,1.015167475
3.467279,-0.081718445,-0.147171021,0.197067261,-0.001129028,-0.003511963,1.014679193
3.467905,0.009834290,-0.170059204,-0.108108521,-0.000152466,-0.003023682,1.017730951
3.468532,0.040351868,-0.124282837,0.128402710,-0.003936646,-0.002169190,1.018829584
3.469159,-0.020683289,0.035934448,0.097885132,-0.001739380,0.001370849,1.020904779
3.469784,0.101387024,0.013046265,0.082626343,-0.000762817,-0.000582276,1.021637201
3.470410,0.177680969,-0.063247681,0.013961792,-0.002105591,-0.002169190,1.017853022
3.471036,0.124275208,-0.025100708,-0.039443970,0.002044800,0.000516357,1.017486811
3.471662,-0.020683289,0.081710815,0.074996948,-0.002593872,-0.002169190,1.018829584
3.472288,0.101387024,0.089340210,-0.092849731,-0.000884888,-0.001436768,1.016388178
3.472914,0.131904602,-0.170059204,-0.062332153,-0.001861450,-0.002779542,1.013946772
3.473539,0.147163391,0.135116577,0.074996948,-0.002960083,-0.001802979,1.014312983
3.474165,0.093757629,0.104598999,-0.031814575,-0.002349732,-0.000826417,1.012970209
3.474791,0.047981262,-0.040359497,0.097885132,-0.001617310,-0.003511963,1.010895014
3.475417,0.139533997,0.074081421,-0.016555786,-0.001739380,-0.000338135,1.009552240
3.476043,0.032722473,0.089340210,0.158920288,0.000213745,-0.002535401,1.007110834
3.476668,0.139533997,0.074081421,-0.207290649,-0.000274536,0.000150146,1.005645990
3.477293,0.223457336,0.272445679,0.029220581,-0.004302857,0.000028076,1.001861811
3.477920,0.002204895,0.226669312,-0.077590942,-0.001495239,-0.002413331,1.000030756
3.478547,-0.013053894,0.035934448,0.029220581,-0.003570435,0.000272216,1.003937006
3.479174,-0.096977234,0.035934448,0.013961792,-0.001861450,-0.001802979,0.998932123
3.479800,0.139533997,0.287704468,0.052108765,-0.004546997,-0.006075440,0.999298334
3.480425,-0.020683289,-0.009841919,0.181808472,-0.008697388,-0.005343018,1.002228022
3.481050,-0.028312683,-0.124282837,-0.115737915,-0.006500122,-0.005220948,0.997711420
3.481677,0.047981262,0.112228394,0.219955444,-0.005401489,-0.003145752,0.995147943
3.482303,0.101387024,0.066452026,-0.069961548,-0.006622192,-0.005831299,0.998687983
3.482928,-0.005424500,0.089340210,0.044479370,-0.005279419,-0.003878174,0.997223139
3.483555,0.055610657,-0.124282837,0.052108765,-0.006255982,-0.004732667,1.000396967
3.484181,0.047981262,-0.063247681,-0.016555786,-0.003570435,-0.004366456,1.000152826
3.484807,0.109016418,-0.086135864,-0.069961548,-0.007598755,-0.003145752,0.999908686
3.485432,0.047981262,0.104598999,0.158920288,-0.004669067,-0.005587159,1.002105951
3.486059,-0.051200867,-0.192947388,0.090255737,-0.005645630,-0.004122315,1.001251459
3.486684,-0.104606628,-0.215835571,0.044479370,-0.005279419,-0.004854737,1.002105951
3.487309,0.101387024,-0.116653442,-0.031814575,-0.006133911,-0.005098877,1.003082514
3.501108,0.337898254,-0.070877075,0.120773315,-0.002349732,-0.005098877,0.997223139
3.501806,0.452339172,0.318222046,0.334396362,-0.004546997,-0.003634034,0.996246576
3.502431,0.276863098,0.234298706,0.273361206,-0.004669067,-0.004000245,0.998443842
3.503056,0.345527649,-0.025100708,0.380172729,-0.002715942,-0.000948487,0.996856928
3.503683,0.131904602,0.142745972,0.174179077,-0.005157349,-0.003267823,0.994659662
3.504309,0.276863098,-0.017471313,0.227584839,-0.005523560,-0.000216065,0.995392084
3.504934,0.261604309,0.035934448,0.227584839,-0.004058716,-0.000460206,0.992584467
3.505560,0.223457336,-0.223464966,0.136032104,-0.005889771,-0.002047120,0.990875483
3.506186,0.101387024,-0.055618286,0.212326050,-0.004913208,-0.001558838,0.990631342
3.506812,0.231086731,-0.109024048,0.403060913,-0.005279419,-0.000338135,0.989898920
3.507437,0.086128235,-0.124282837,0.120773315,-0.006622192,0.000028076,0.993072748
3.508062,0.162422180,-0.139541626,0.059738159,-0.006744263,-0.000582276,0.992096186
3.508689,0.109016418,-0.047988892,0.387802124,-0.003326294,-0.001070557,0.994415522
3.509314,0.101387024,-0.315017700,0.197067261,-0.002227661,0.003323974,0.995880365
3.509939,0.139533997,-0.200576782,0.143661499,-0.002227661,-0.001070557,0.997345209
3.510564,0.070869446,-0.177688599,0.479354858,-0.005157349,0.002225341,1.000152826
3.511189,0.162422180,-0.337905884,0.181808472,-0.005157349,0.000516357,1.000641108
3.511814,0.017463684,-0.368423462,0.242843628,-0.000152466,0.001859130,1.002472162
3.512439,0.101387024,-0.521011353,0.250473022,-0.000762817,0.003446044,1.001129389
3.513065,0.154792786,0.074081421,-0.077590942,0.000946167,0.001004638,1.002716303
3.513690,0.086128235,-0.238723755,0.212326050,-0.002105591,0.003934326,1.006622553
3.514317,0.231086731,-0.681228638,0.288619995,0.000091675,0.003690185,1.006622553
3.514942,0.101387024,-0.002212524,-0.069961548,0.000335815,0.002835693,1.008819818
3.515568,0.017463684,-0.200576782,0.204696655,0.000946167,0.001859130,1.008819818
3.516193,0.437080383,-0.131912231,0.242843628,0.001678589,0.000638427,1.011749506
3.516819,-0.020683289,-0.246353149,-0.184402466,0.002044800,0.000760498,1.009674311
3.517444,0.208198547,-0.299758911,0.097885132,-0.000030396,0.000150146,1.009430170
3.518069,0.192939758,-0.047988892,0.090255737,0.002166870,0.002103271,1.013214350
3.518694,0.124275208,-0.017471313,0.105514526,-0.000396607,0.002713623,1.014557123
3.519321,0.177680969,-0.185317993,0.074996948,0.001068237,0.004178466,1.011139154
3.519948,0.246345520,-0.109024048,-0.031814575,0.001190308,0.005277099,1.010528803
3.520573,0.070869446,-0.101394653,0.067367554,0.001922729,0.003934326,1.009308100
3.521198,0.170051575,-0.147171021,0.052108765,0.001556518,0.000882568,1.009308100
3.521824,0.162422180,-0.002212524,0.006332397,0.001312378,0.003934326,1.006500483
3.522449,0.154792786,0.096969604,0.090255737,0.000824097,0.000882568,1.005768061
3.523076,0.292121887,0.058822632,-0.039443970,0.002655151,0.001614990,1.006012201
3.523703,0.238716125,-0.063247681,0.059738159,-0.000640747,-0.001802979,1.006622553
3.524328,0.246345520,-0.070877075,0.090255737,-0.000396607,0.001492919,1.006256342
3.524954,0.322639465,-0.154800415,0.181808472,0.000824097,-0.001558838,1.005890131
3.525581,0.223457336,0.005416870,-0.214920044,-0.002227661,0.002713623,1.004791498
3.526207,0.307380676,-0.025100708,0.250473022,-0.001373169,-0.001802979,1.003326654
3.526832,0.223457336,-0.192947388,-0.062332153,-0.000884888,0.002591552,1.003448725
3.527457,0.269233704,-0.292129517,-0.123367310,-0.001861450,0.001737060,0.998565912
3.528082,0.139533997,-0.032730103,0.090255737,-0.002471802,0.001370849,0.997345209
3.528708,0.376045227,-0.086135864,0.052108765,-0.001495239,0.002713623,0.997345209
3.529335,0.101387024,-0.116653442,0.136032104,-0.003082153,0.003934326,0.997711420
3.529961,0.322639465,-0.170059204,-0.176773071,-0.000640747,0.002591552,0.996368647
3.530587,0.322639465,-0.154800415,0.151290894,-0.005279419,0.001614990,0.996734858
3.531213,0.063240051,-0.124282837,-0.077590942,-0.003570435,0.004300537,0.997955561
3.543781,0.269233704,-0.276870728,-0.138626099,0.002288940,0.001370849,1.001373529
3.544498,0.429450989,-0.025100708,-0.123367310,-0.000030396,0.005155029,1.002228022
3.545124,0.078498840,-0.139541626,-0.161514282,-0.000274536,0.000638427,1.000763178
3.545750,0.002204895,-0.009841919,-0.283584595,0.001190308,0.004056396,1.002350092
3.546376,0.078498840,-0.070877075,-0.054702759,0.002411011,0.003934326,1.004913568
3.547006,0.124275208,-0.093765259,-0.253067017,0.001678589,0.004300537,1.003326654
3.547632,0.200569153,-0.101394653,-0.237808228,-0.001739380,0.003568115,1.002228022
3.548259,0.032722473,0.043563843,0.036849976,0.000213745,0.003323974,1.005645990
3.548884,0.261604309,-0.170059204,-0.161514282,0.001800659,0.003201904,1.002716303
3.549509,0.269233704,-0.170059204,-0.062332153,0.001190308,0.003079833,1.001739740
3.551294,0.124275208,0.005416870,-0.260696411,0.001922729,0.005155029,0.997223139
3.551920,0.162422180,-0.154800415,-0.115737915,0.003753784,0.000394287,1.001617670
3.552545,-0.020683289,0.058822632,-0.062332153,-0.001861450,-0.000704346,1.003692865
3.553171,0.147163391,-0.086135864,-0.207290649,0.001678589,0.002103271,1.002472162
3.553796,0.009834290,-0.047988892,-0.176773071,0.000579956,0.000150146,1.003570795
3.554421,0.200569153,-0.040359497,-0.100479126,0.002044800,-0.000460206,1.006012201
3.555048,0.101387024,-0.086135864,0.044479370,0.000824097,0.000760498,1.006134272
3.555675,0.047981262,-0.025100708,0.067367554,-0.000030396,-0.003023682,1.003814936
3.556302,-0.028312683,-0.017471313,0.006332397,0.003265503,0.000028076,1.003204584
3.556928,0.139533997,-0.063247681,-0.031814575,-0.000274536,-0.001680909,1.005523920
3.557555,0.231086731,-0.139541626,-0.230178833,-0.001006958,-0.001314698,1.003814936
3.558180,0.299751282,0.074081421,0.143661499,-0.000396607,-0.003267823,1.005279779
3.558806,0.139533997,-0.101394653,-0.199661255,0.002166870,-0.001314698,1.003937006
3.559431,0.200569153,-0.253982544,-0.100479126,0.001190308,-0.004976807,1.003937006
3.560056,0.208198547,-0.192947388,-0.260696411,0.000702026,-0.005709229,1.007232904
3.560683,0.040351868,-0.154800415,-0.192031860,0.002288940,-0.005587159,1.004791498
3.561309,0.292121887,-0.070877075,-0.069961548,0.003997925,-0.004976807,1.006012201
3.561934,0.292121887,-0.345535278,0.059738159,0.001800659,-0.001925049,1.006500483
3.562559,0.292121887,-0.116653442,-0.008926392,0.003753784,-0.002779542,1.004669428
3.563185,0.398933411,-0.124282837,0.036849976,0.003143433,-0.002901612,1.006012201
3.563812,0.284492493,-0.040359497,0.044479370,0.001312378,-0.005587159,1.006012201
3.564437,0.131904602,-0.276870728,-0.092849731,-0.000274536,-0.000948487,1.005523920
3.565062,0.459968567,-0.185317993,-0.069961548,0.001556518,-0.001314698,1.007110834
3.565689,0.215827942,-0.467605591,-0.069961548,0.001800659,-0.003145752,1.005645990
3.566314,0.269233704,-0.246353149,-0.077590942,0.003875854,-0.000826417,1.002960443
3.566939,0.070869446,-0.025100708,0.052108765,-0.001495239,-0.000338135,1.002960443
3.567564,0.177680969,-0.269241333,0.174179077,0.004364136,-0.002657471,1.005645990
3.568189,0.414192200,-0.429458618,0.013961792,0.002655151,-0.002535401,1.009430170
3.568815,0.437080383,-0.162429810,0.143661499,-0.001251099,-0.006075440,1.005523920
3.569440,0.429450989,-0.261611938,0.013961792,0.001434448,-0.003878174,1.007110834
3.570067,0.521003723,-0.292129517,-0.024185181,0.000457886,-0.003267823,1.007965326
3.570693,0.437080383,-0.322647095,0.036849976,0.002655151,-0.002291260,1.001739740
3.571319,0.498115540,-0.215835571,0.036849976,0.000824097,0.000394287,1.001007318
3.571945,0.368415833,-0.421829224,-0.077590942,0.005340698,-0.001680909,0.999542475
3.572570,0.589668274,-0.177688599,-0.054702759,0.004730347,-0.002901612,1.004059076
3.573197,0.192939758,-0.330276489,-0.069961548,0.006927612,0.000516357,1.004303217
3.573823,0.498115540,-0.383682251,-0.001296997,0.007415893,0.003690185,1.004913568
3.574450,0.482856750,-0.276870728,0.090255737,0.007660034,0.004178466,1.006134272
3.575077,0.383674622,0.005416870,0.090255737,0.001068237,0.004910888,1.006500483
3.575703,0.452339172,-0.238723755,-0.062332153,0.002288940,-0.000216065,1.005035639
3.588259,0.673591614,-0.475234985,0.303878784,0.002777222,-0.005953370,1.008453608
3.588968,0.391304016,-0.665969849,0.067367554,0.003875854,-0.005098877,1.006622553
3.589593,0.597297668,-0.421829224,-0.001296997,0.005096558,-0.002169190,1.008209467
3.590219,0.620185852,-0.444717407,0.158920288,0.003021362,-0.003267823,1.008209467
3.590844,0.498115540,-0.452346802,0.273361206,0.005828979,-0.007662354,1.005768061
3.591469,0.582038879,-0.368423462,0.128402710,0.005584839,-0.002535401,1.004669428
3.592094,0.490486145,-0.353164673,0.151290894,0.006073120,0.004544677,1.008331537
3.592719,0.360786438,-0.177688599,0.166549683,0.003509643,-0.001680909,1.004425287
3.593345,0.353157043,-0.238723755,0.311508179,0.003265503,-0.002535401,1.008575678
3.593971,0.330268860,-0.376052856,0.433578491,-0.000396607,-0.008760987,1.008331537
3.594597,0.330268860,-0.398941040,0.265731812,0.000702026,-0.012423096,1.008453608
3.595224,0.414192200,-0.391311646,0.288619995,0.004730347,-0.008272706,1.010528803
3.595849,0.475227356,-0.475234985,0.349655151,0.002655151,-0.008150635,1.003570795
3.596474,0.673591614,-0.315017700,0.357284546,0.004730347,-0.007296143,1.006622553
3.597100,0.543891907,-0.398941040,0.288619995,0.002166870,-0.005953370,1.005401850
3.597725,0.444709778,-0.299758911,0.342025757,0.000824097,-0.002535401,1.001373529
3.598351,0.559150696,-0.231094360,0.105514526,0.005706909,-0.000826417,0.999054193
3.598977,0.459968567,-0.253982544,0.517501831,0.002288940,-0.001925049,0.995025873
3.599602,0.589668274,-0.292129517,0.395431519,0.001800659,-0.006441651,0.994781733
3.601372,0.284492493,-0.177688599,0.189437866,0.003021362,-0.003389893,0.996734858
3.601997,0.322639465,-0.093765259,0.288619995,-0.001006958,-0.003389893,0.992950678
3.602622,0.398933411,-0.131912231,0.364913940,-0.000884888,-0.003389893,0.996368647
3.603249,0.192939758,-0.223464966,0.418319702,-0.000762817,-0.002901612,0.998810053
3.603875,0.246345520,-0.139541626,0.334396362,0.000946167,-0.003511963,1.001007318
3.604500,0.360786438,-0.147171021,0.334396362,-0.003082153,-0.006319581,1.000030756
3.605126,0.414192200,-0.299758911,0.387802124,-0.002471802,-0.005953370,0.997589350
3.605751,0.337898254,-0.337905884,0.311508179,0.001434448,-0.004366456,0.999176264
3.606376,0.322639465,-0.109024048,0.181808472,-0.000396607,-0.003511963,1.000885248
3.607007,0.543891907,-0.353164673,0.395431519,0.000335815,-0.001314698,1.001007318
3.607634,0.421821594,-0.238723755,0.280990601,0.002899292,-0.000460206,0.997223139
3.608259,0.437080383,-0.406570435,0.296249390,0.002044800,-0.001314698,0.999664545
3.608884,0.223457336,-0.223464966,0.342025757,-0.002471802,0.003323974,0.999786615
3.609509,0.406562805,-0.253982544,0.319137573,0.000824097,0.000272216,1.003448725
3.610135,0.223457336,-0.452346802,0.395431519,0.002411011,0.000760498,1.004913568
3.610762,0.284492493,-0.299758911,0.326766968,0.002166870,-0.001680909,1.003082514
3.611388,0.170051575,-0.192947388,0.609054565,-0.001006958,0.000882568,1.005768061
3.612015,0.406562805,-0.536270142,0.227584839,0.003875854,-0.001680909,1.002960443
3.612640,0.215827942,-0.299758911,0.273361206,0.001556518,-0.002657471,1.002594233
3.613265,0.330268860,-0.353164673,0.456466675,0.000946167,0.000882568,1.007477045
3.613891,0.337898254,-0.330276489,0.349655151,0.001678589,-0.000582276,1.006012201
3.614517,0.215827942,-0.383682251,0.273361206,0.001434448,0.002591552,1.007110834
3.615143,0.315010071,-0.383682251,0.387802124,0.001678589,0.001859130,1.009796381
3.615768,0.215827942,-0.284500122,0.258102417,0.003631714,-0.000093995,1.007721186
3.616394,0.269233704,-0.307388306,0.235214233,0.005218628,0.002835693,1.009918451
3.617019,0.192939758,-0.147171021,0.067367554,0.003997925,0.003934326,1.010650873
3.617646,0.055610657,-0.002212524,0.082626343,0.003875854,0.004300537,1.009430170
3.618272,0.253974915,0.165634155,0.319137573,0.003997925,0.002835693,1.014679193
3.618897,0.177680969,0.096969604,0.296249390,0.003875854,0.005155029,1.010284662
3.619522,0.017463684,-0.093765259,0.181808472,0.001800659,0.006497802,1.009430170
3.632145,-0.516593933,0.615768433,-0.077590942,0.002288940,0.003446044,1.003326654
3.632872,-0.508964539,0.493698120,-0.253067017,-0.002593872,0.004178466,1.000396967
3.633499,-0.653923035,0.646286011,-0.047073364,-0.002715942,0.004910888,1.000396967
3.634125,-0.409782410,0.714950562,-0.039443970,-0.000640747,0.001492919,1.002960443
3.634750,-0.508964539,0.631027222,0.120773315,-0.000030396,0.000882568,1.003082514
3.635375,-0.638664246,0.585250854,-0.024185181,-0.001617310,0.001370849,1.004669428
3.636008,-0.386894226,0.669174194,0.113143921,-0.001129028,0.000272216,1.003937006
3.636634,-0.646293640,0.608139038,-0.031814575,-0.003936646,0.002225341,1.001129389
3.637261,-0.562370300,0.714950562,-0.016555786,-0.006744263,-0.000704346,1.004913568
3.637887,-0.394523621,0.775985718,-0.085220337,-0.002593872,-0.000338135,1.001495600
3.638513,-0.463188171,0.447921753,0.151290894,-0.002105591,0.001614990,1.005401850
3.639140,-0.310600281,0.402145386,0.074996948,-0.002960083,-0.001314698,1.003937006
3.639767,-0.318229675,0.417404175,0.143661499,-0.002105591,-0.000338135,1.006256342
3.640392,-0.432670593,0.669174194,-0.253067017,-0.004302857,-0.002901612,1.005523920
3.641018,-0.524223328,0.486068726,0.044479370,-0.002471802,-0.000826417,1.006134272
3.641643,-0.402153015,0.608139038,-0.039443970,-0.001983521,-0.002291260,1.001861811
3.642269,-0.196159363,0.737838745,-0.024185181,-0.004302857,-0.002413331,1.001983881
3.642895,-0.371635437,0.486068726,0.120773315,-0.003204224,0.000150146,1.001861811
3.643521,-0.379264832,0.425033569,0.013961792,-0.002715942,-0.001192627,1.001373529
3.644148,-0.272453308,0.569992065,-0.138626099,-0.004302857,-0.000582276,0.998810053
3.644773,-0.394523621,0.394515991,0.143661499,-0.003448364,0.001126708,0.997955561
3.645398,-0.310600281,0.226669312,0.151290894,-0.002593872,0.000638427,0.997101068
3.646025,-0.096977234,0.379257202,0.067367554,-0.003814575,0.002103271,0.993194818
3.646650,-0.356376648,0.508956909,0.136032104,-0.004669067,0.003323974,0.992218256
3.647276,-0.119865417,0.341110229,-0.153884888,-0.005645630,0.003812255,0.993438959
3.647902,-0.310600281,0.379257202,-0.024185181,-0.004180786,0.000028076,0.991119623
3.648527,-0.119865417,0.287704468,-0.199661255,-0.005523560,-0.000338135,0.992218256
3.649152,-0.119865417,0.226669312,0.074996948,-0.003448364,-0.000093995,0.991119623
3.649778,-0.158012390,0.363998413,0.166549683,-0.006011841,0.002469482,0.990143061
3.651541,-0.211418152,0.043563843,-0.047073364,-0.006866333,-0.004000245,0.989532709
3.652167,-0.043571472,0.135116577,-0.008926392,-0.008209107,-0.002291260,0.990875483
3.652792,-0.165641785,-0.063247681,-0.016555786,-0.006011841,-0.001314698,0.988556147
3.653418,0.154792786,-0.192947388,-0.024185181,-0.006866333,0.000028076,0.990997553
3.654043,-0.043571472,-0.002212524,0.021591187,-0.006744263,-0.001802979,0.995147943
3.654669,0.047981262,-0.055618286,-0.275955200,-0.007110474,-0.003634034,0.994293451
3.655294,0.154792786,-0.215835571,0.143661499,-0.008697388,-0.000582276,0.993438959
3.655919,-0.028312683,-0.185317993,0.158920288,-0.006378052,0.002103271,0.997345209
3.656545,0.101387024,-0.147171021,-0.115737915,-0.004546997,0.000760498,0.996002436
3.657172,0.109016418,-0.055618286,-0.062332153,-0.007598755,0.002591552,0.995880365
3.657797,0.109016418,-0.101394653,-0.008926392,-0.005767700,0.002225341,0.996124506
3.658423,0.040351868,-0.253982544,0.067367554,-0.004546997,0.000760498,1.001739740
3.659049,0.208198547,-0.315017700,-0.130996704,-0.005157349,0.003690185,1.003204584
3.659675,0.055610657,-0.360794067,0.082626343,-0.005767700,0.000394287,1.003692865
3.660301,0.086128235,-0.162429810,0.029220581,-0.002838013,0.000150146,1.004547358
3.660928,0.078498840,-0.406570435,-0.047073364,-0.003692505,0.002713623,1.005035639
3.661554,0.276863098,-0.437088013,0.059738159,-0.001373169,0.001248779,1.006134272
3.662181,-0.028312683,-0.353164673,0.120773315,-0.001617310,0.001126708,1.007477045
3.662807,0.078498840,-0.353164673,-0.016555786,-0.004058716,0.001614990,1.006012201
3.663432,0.109016418,-0.299758911,-0.115737915,-0.003570435,0.000272216,1.007843256
3.675995,0.421821594,-0.223464966,0.021591187,-0.006133911,-0.005465088,1.000763178
3.676695,0.551521301,-0.589675903,-0.062332153,-0.008575317,-0.001680909,1.004181147
3.677320,0.490486145,-0.253982544,0.113143921,-0.006988403,-0.002169190,1.000396967
3.677947,0.566780090,-0.231094360,0.013961792,-0.006622192,-0.006441651,1.003692865
3.678573,0.582038879,-0.597305298,0.052108765,-0.008941528,-0.005709229,1.001495600
3.679200,0.337898254,-0.635452271,-0.222549438,-0.005279419,-0.004366456,1.001251459
3.679825,0.543891907,-0.559158325,-0.092849731,-0.003204224,-0.004000245,1.002472162
3.680450,0.620185852,-0.406570435,0.219955444,-0.004913208,-0.000704346,1.000152826
3.681077,0.452339172,-0.429458618,-0.275955200,-0.002105591,0.000272216,1.006256342
3.681704,0.376045227,-0.467605591,-0.092849731,-0.003692505,0.000516357,1.004059076
3.682329,0.398933411,-0.536270142,0.036849976,-0.004180786,0.002225341,1.007843256
3.682955,0.536262512,-0.345535278,0.021591187,-0.006378052,0.001004638,1.008819818
3.683582,0.376045227,-0.421829224,0.105514526,-0.002349732,0.002591552,1.008331537
3.684207,0.208198547,-0.269241333,-0.085220337,-0.003326294,0.000760498,1.008331537
3.684832,0.452339172,-0.353164673,-0.008926392,-0.002105591,-0.000460206,1.005768061
3.692020,0.238716125,-0.124282837,0.189437866,0.000824097,0.004544677,1.012115717
3.692647,0.215827942,-0.109024048,0.036849976,0.000824097,0.003934326,1.011627436
3.693273,0.330268860,-0.009841919,0.044479370,-0.001251099,0.003446044,1.010040522
3.693899,0.055610657,0.089340210,0.013961792,-0.001861450,0.005399169,1.014557123
3.694526,0.261604309,0.058822632,0.258102417,0.000457886,0.005643310,1.014068842
3.695152,0.070869446,0.112228394,0.044479370,-0.001373169,0.005277099,1.010772943
3.695778,-0.028312683,0.333480835,0.044479370,-0.000396607,0.003568115,1.007721186
3.696403,-0.081718445,0.211410522,0.136032104,0.001556518,0.004422607,1.010040522
3.697028,0.032722473,0.287704468,-0.123367310,0.001678589,0.001004638,1.008941889
3.697655,0.002204895,0.249557495,0.174179077,0.000213745,0.002957763,1.014190912
3.698282,-0.005424500,0.295333862,0.067367554,-0.001006958,-0.001436768,1.011139154
3.698907,-0.104606628,0.440292358,-0.115737915,-0.000030396,0.003812255,1.008453608
3.699532,-0.135124207,0.379257202,-0.138626099,0.002288940,0.001737060,1.005890131
3.700158,-0.249565125,0.402145386,0.006332397,0.003265503,0.006253662,1.003448725
3.701965,-0.211418152,0.341110229,0.151290894,-0.000518677,0.001126708,1.002960443
3.702590,-0.440299988,0.524215698,-0.184402466,0.000213745,0.002591552,1.004059076
3.703215,-0.081718445,0.272445679,0.059738159,-0.000518677,0.001492919,1.007110834
3.703841,-0.379264832,0.615768433,-0.024185181,-0.000640747,0.003079833,1.004425287
3.704467,-0.241935730,0.524215698,0.074996948,-0.001129028,0.001614990,1.003937006
3.705092,-0.425041199,0.531845093,-0.054702759,0.000824097,0.005032958,1.001007318
3.705717,-0.341117859,0.417404175,-0.077590942,-0.000030396,0.000516357,1.002960443
3.706342,-0.249565125,0.531845093,-0.092849731,-0.000884888,0.000638427,1.004303217
3.706968,-0.470817566,0.394515991,0.204696655,-0.000640747,0.000394287,1.000396967
3.707593,-0.196159363,0.310592651,-0.123367310,0.000457886,0.003079833,1.003204584
3.708218,-0.272453308,0.249557495,0.219955444,0.000702026,0.001737060,1.002960443
3.708844,-0.028312683,0.508956909,-0.283584595,-0.000152466,0.001248779,1.003448725
3.709469,-0.302970886,0.501327515,0.006332397,0.002044800,-0.001192627,1.004913568
3.710096,-0.348747253,0.318222046,0.189437866,-0.000030396,0.000882568,1.003448725
3.710721,-0.295341492,0.562362671,0.021591187,0.001922729,0.002835693,1.001495600
3.711347,-0.295341492,0.554733276,-0.123367310,0.001434448,0.000760498,1.004791498
3.711972,-0.196159363,0.463180542,0.090255737,-0.002593872,0.001859130,1.002838373
3.712598,-0.348747253,0.440292358,-0.199661255,-0.000640747,0.003568115,1.003204584
3.713225,-0.417411804,0.562362671,-0.008926392,0.001922729,0.000272216,1.002472162
3.713850,0.025093079,0.493698120,0.158920288,0.002411011,0.001492919,1.003937006
3.726499,0.017463684,-0.101394653,0.021591187,-0.001739380,-0.002535401,0.992340326
3.727239,-0.013053894,0.020675659,-0.024185181,0.000579956,-0.004854737,0.990020990
3.727866,0.185310364,-0.192947388,-0.062332153,-0.002227661,0.000638427,0.987945795
3.728492,0.337898254,-0.139541626,-0.146255493,-0.002227661,-0.000704346,0.985626459
3.729117,0.330268860,-0.261611938,0.021591187,-0.001495239,-0.002291260,0.988800287
3.729742,0.147163391,-0.215835571,-0.123367310,-0.002105591,-0.002901612,0.986236811
3.730368,0.360786438,-0.147171021,0.181808472,-0.002838013,-0.000582276,0.987823725
3.730993,0.154792786,-0.315017700,0.197067261,-0.001617310,-0.001070557,0.989288568
3.731619,0.238716125,-0.475234985,0.036849976,-0.001373169,-0.000948487,0.987213373
3.732245,0.269233704,-0.276870728,-0.130996704,-0.000762817,-0.003267823,0.990265131
3.732872,0.299751282,-0.498123169,0.006332397,-0.003570435,-0.002413331,0.988922358
3.733497,0.345527649,-0.627822876,-0.008926392,-0.001739380,-0.001558838,0.991119623
3.734122,0.376045227,-0.475234985,-0.031814575,-0.002960083,-0.000948487,0.991852045
3.734749,0.398933411,-0.414199829,0.082626343,-0.003082153,-0.001925049,0.994049311
3.735376,0.292121887,-0.849075317,0.181808472,-0.001495239,-0.006685792,0.994293451
3.736009,0.330268860,-0.536270142,-0.024185181,-0.002960083,-0.007906495,0.990997553
3.736634,0.521003723,-0.650711060,0.013961792,-0.004791138,-0.011324463,0.995392084
3.737260,0.498115540,-0.948257446,0.097885132,-0.005523560,-0.010469971,0.995636225
3.737886,0.543891907,-0.849075317,0.113143921,-0.004302857,-0.009371338,0.997833490
3.738512,0.780403137,-0.742263794,-0.054702759,-0.001739380,-0.005953370,1.000396967
3.739137,0.818550110,-0.871963501,0.113143921,0.000091675,-0.008883057,1.001495600
3.739763,0.620185852,-0.894851685,0.128402710,0.003387573,-0.001925049,1.003814936
3.740388,0.612556458,-0.795669556,-0.031814575,0.002899292,0.000516357,1.002594233
3.741014,0.597297668,-0.955886841,0.013961792,-0.001251099,-0.001802979,1.001739740
3.741639,0.673591614,-0.902481079,0.189437866,-0.000274536,-0.001314698,0.999420404
3.742264,0.612556458,-0.688858032,0.166549683,-0.000274536,-0.003634034,0.996612787
3.742889,0.620185852,-0.932998657,0.166549683,0.001678589,-0.000582276,0.999908686
3.743515,0.528633118,-1.039810181,0.296249390,0.001922729,-0.003145752,1.001739740
3.744140,0.406562805,-0.994033813,0.021591187,-0.001251099,-0.007052002,1.000641108
3.744765,0.582038879,-0.994033813,0.158920288,0.000579956,-0.012667237,1.004791498
3.745390,0.475227356,-0.986404419,0.219955444,0.001800659,-0.011568604,1.004913568
3.746016,0.879585266,-0.803298950,0.357284546,0.003387573,-0.010225831,1.005401850
3.746641,0.849067688,-1.169509888,0.219955444,0.003387573,-0.003267823,1.006134272
3.747267,0.864326477,-0.727005005,0.349655151,0.003143433,-0.003145752,1.001129389
3.747893,0.726997375,-0.871963501,0.158920288,0.003509643,-0.004732667,0.999786615
3.748519,0.841438293,-0.948257446,0.189437866,0.002044800,-0.004854737,0.999054193
3.749146,0.597297668,-0.597305298,0.258102417,-0.000152466,-0.001680909,0.999298334
3.749772,0.711738586,-0.833816528,0.403060913,0.003143433,-0.001070557,0.998199701
3.750399,0.795661926,-0.711746216,0.364913940,0.003143433,-0.003756104,0.995270014
3.752158,0.688850403,-0.688858032,0.364913940,-0.001373169,-0.004366456,1.001373529
3.752784,0.856697083,-0.887222290,0.387802124,0.000457886,-0.002779542,0.998199701
3.753409,0.612556458,-0.650711060,0.242843628,-0.001251099,-0.005098877,1.000030756
3.754036,0.788032532,-0.948257446,0.433578491,-0.002227661,-0.002779542,1.002838373
3.754663,0.528633118,-0.795669556,0.349655151,-0.003326294,-0.004122315,1.004669428
3.755288,0.719367981,-0.925369263,0.334396362,0.000702026,-0.007540284,0.998687983
3.755914,0.711738586,-0.864334106,0.517501831,0.000213745,-0.003756104,1.001617670
3.756539,0.726997375,-0.986404419,0.456466675,-0.002593872,-0.003511963,1.000519037
3.757166,0.742256165,-0.948257446,0.456466675,-0.001129028,-0.003511963,0.998321772
3.757791,0.437080383,-0.841445923,0.326766968,-0.001983521,-0.002413331,1.001617670
3.770375,-0.058830261,0.051193237,0.303878784,0.004364136,0.006986083,1.024933100
3.771074,0.055610657,-0.093765259,0.204696655,0.006439331,0.006986083,1.028839350
3.771701,0.147163391,0.089340210,0.120773315,0.008636597,0.007962646,1.028839350
3.772327,0.070869446,0.310592651,0.105514526,0.007660034,0.007962646,1.029327631
3.772954,-0.096977234,0.127487183,0.158920288,0.005706909,0.008572998,1.025543451
3.773579,0.078498840,0.196151733,0.258102417,0.009735229,0.008450927,1.030914545
3.774205,-0.089347839,0.219039917,0.113143921,0.009857300,0.009183349,1.028961420
3.774832,-0.043571472,0.425033569,0.242843628,0.007904175,0.009183349,1.028595209
3.775458,-0.219047546,0.402145386,-0.008926392,0.009002808,0.006864013,1.025421381
3.776087,-0.364006042,0.592880249,-0.123367310,0.008758667,0.009061279,1.028961420
3.776714,-0.325859070,0.608139038,0.082626343,0.006683472,0.008084716,1.025299311
3.777340,-0.310600281,0.646286011,0.052108765,0.006073120,0.009671630,1.024566889
3.777966,-0.463188171,0.829391479,-0.092849731,0.004730347,0.007596435,1.024200678
3.778593,-0.409782410,0.821762085,0.197067261,0.003875854,0.005155029,1.020904779
3.779220,-0.486076355,0.882797241,-0.169143677,0.004364136,0.004788818,1.018951654
3.779845,-0.302970886,1.050643921,-0.085220337,0.005096558,0.003568115,1.024078608
3.780472,-0.615776062,1.073532104,0.029220581,0.002411011,0.003201904,1.020172358
3.781099,-0.623405457,0.943832397,-0.085220337,0.004119995,0.003934326,1.016144037
3.781725,-0.661552429,1.050643921,-0.024185181,0.004486206,0.004666748,1.014557123
3.782351,-0.470817566,1.058273315,-0.001296997,0.001678589,0.000882568,1.011871576
3.782978,-0.447929382,0.974349976,-0.161514282,-0.000396607,-0.000826417,1.012359858
3.783605,-0.760734558,1.165084839,-0.115737915,0.003509643,0.000516357,1.011505365
3.784231,-0.600517273,1.043014526,-0.085220337,0.001434448,-0.004000245,1.009918451
3.784857,-0.470817566,0.943832397,0.250473022,0.003509643,0.000150146,1.007843256
3.785483,-0.432670593,1.020126343,0.074996948,-0.002227661,-0.004122315,1.006988764
3.786108,-0.615776062,1.020126343,-0.375137329,-0.001617310,-0.004122315,1.005157709
3.786735,-0.569999695,1.172714233,0.036849976,-0.002227661,-0.004732667,1.001861811
3.787360,-0.440299988,0.943832397,-0.031814575,-0.000640747,-0.005098877,1.003326654
3.787987,-0.577629089,1.157455444,-0.054702759,-0.001739380,-0.004122315,1.003082514
3.788613,-0.531852722,0.905685425,-0.016555786,-0.002471802,0.000638427,0.999542475
3.789238,-0.310600281,0.951461792,-0.108108521,-0.001983521,-0.001802979,0.997955561
3.789864,-0.539482117,1.043014526,-0.024185181,0.000335815,0.001248779,0.997589350
3.790490,-0.516593933,0.959091187,0.021591187,-0.002715942,-0.000582276,0.999176264
3.791116,-0.295341492,0.882797241,0.036849976,-0.002593872,0.002591552,0.990875483
3.791742,-0.486076355,0.859909058,0.052108765,-0.003814575,0.000638427,0.994415522
3.792368,-0.409782410,0.875167847,0.006332397,-0.000640747,0.000272216,0.996002436
3.792994,-0.325859070,0.943832397,-0.047073364,-0.003082153,0.001370849,0.999420404
3.793619,-0.310600281,0.753097534,-0.298843384,-0.000640747,0.004300537,0.994659662
3.794245,-0.241935730,0.623397827,-0.031814575,-0.002105591,0.000516357,0.992462397
3.794871,-0.310600281,0.745468140,-0.062332153,-0.002838013,0.001004638,0.994781733
3.795497,-0.302970886,0.844650269,-0.146255493,-0.001373169,0.001370849,0.996490717
3.796123,-0.371635437,0.646286011,-0.115737915,-0.003204224,0.000394287,0.995880365
3.796748,-0.440299988,0.646286011,-0.031814575,-0.002960083,-0.001680909,0.997711420
3.797374,-0.295341492,0.562362671,0.052108765,-0.001739380,-0.001192627,0.997467279
3.798007,-0.264823914,0.547103882,-0.039443970,-0.001739380,0.001248779,0.999054193
3.798633,-0.302970886,0.577621460,-0.146255493,0.002044800,-0.000460206,0.997833490
3.799258,-0.196159363,0.569992065,-0.039443970,0.001190308,-0.001925049,0.997955561
3.799884,-0.440299988,0.440292358,-0.123367310,0.000335815,-0.001680909,0.998565912
3.800509,-0.173271179,0.653915405,-0.260696411,-0.000762817,-0.003878174,1.001495600
3.814424,0.223457336,0.127487183,0.021591187,-0.002715942,-0.001070557,0.992584467
3.815140,0.055610657,0.074081421,0.166549683,-0.002715942,-0.001925049,0.992218256
3.815766,0.124275208,0.219039917,-0.008926392,-0.003814575,-0.002535401,0.995392084
3.816392,0.070869446,0.013046265,-0.039443970,-0.001983521,-0.001925049,0.993194818
3.817019,0.047981262,-0.078506470,0.128402710,-0.003326294,-0.001070557,0.994049311
3.817644,0.170051575,-0.215835571,-0.024185181,-0.002715942,-0.001802979,0.990875483
3.818269,-0.096977234,-0.055618286,0.097885132,-0.004424927,-0.002535401,0.991485834
3.818894,0.101387024,-0.177688599,-0.047073364,-0.003936646,-0.004000245,0.994049311
3.819519,0.055610657,-0.147171021,-0.001296997,-0.003692505,-0.001558838,0.992462397
3.820146,0.269233704,-0.261611938,0.181808472,-0.009551880,-0.005587159,0.988556147
3.820772,0.398933411,-0.498123169,-0.153884888,-0.005157349,-0.004854737,0.988067865
3.821397,0.330268860,-0.452346802,0.067367554,-0.003570435,-0.003878174,0.987335443
3.822022,0.398933411,-0.437088013,-0.001296997,-0.005523560,-0.004732667,0.989532709
3.822648,0.376045227,-0.467605591,0.090255737,-0.004791138,-0.002413331,0.990265131
3.823273,0.444709778,-0.505752563,-0.069961548,-0.007476685,-0.004854737,0.985016108
3.823899,0.559150696,-0.604934692,0.113143921,-0.006133911,-0.004366456,0.985992670
3.824526,0.582038879,-0.490493774,0.052108765,-0.006133911,-0.004366456,0.985260248
3.825152,0.475227356,-0.696487427,0.074996948,-0.008087036,-0.005465088,0.988922358
3.825778,0.528633118,-0.505752563,0.212326050,-0.005889771,-0.004732667,0.986847162
3.826405,0.604927063,-0.665969849,0.181808472,-0.005279419,-0.004488526,0.990020990
3.827030,0.566780090,-0.711746216,0.082626343,-0.003570435,-0.008150635,0.992218256
3.827656,0.589668274,-0.849075317,0.181808472,-0.002960083,-0.005343018,0.992584467
3.828282,0.696479797,-0.749893188,-0.016555786,-0.006622192,-0.007296143,0.993072748
3.828909,0.726997375,-0.879592896,0.303878784,-0.007354614,-0.009981690,0.992584467
3.829536,0.978767395,-0.803298950,0.174179077,-0.001495239,-0.006441651,0.992096186
3.830161,0.864326477,-0.932998657,0.303878784,-0.005035278,-0.008272706,0.997101068
3.830787,0.521003723,-0.849075317,0.143661499,-0.006133911,-0.006685792,0.996978998
3.831413,0.795661926,-0.818557739,0.174179077,-0.004669067,-0.008516846,0.996368647
3.832038,0.757514954,-0.955886841,0.235214233,-0.005279419,-0.006441651,0.997101068
3.832665,0.597297668,-0.917739868,0.288619995,-0.005523560,-0.007784424,0.994781733
3.833290,0.749885559,-1.108474731,0.471725464,-0.000762817,-0.005831299,0.997833490
3.833915,0.711738586,-0.772781372,0.273361206,-0.004913208,-0.004244385,0.999908686
3.834540,0.612556458,-0.948257446,0.456466675,-0.003448364,-0.006685792,1.002228022
3.835165,0.543891907,-0.788040161,0.410690308,-0.002227661,-0.009371338,1.003448725
3.835791,0.704109192,-0.887222290,0.570907593,-0.006500122,-0.006441651,1.003814936
3.836416,0.498115540,-0.864334106,0.570907593,-0.001495239,-0.007174073,1.007965326
3.837042,0.475227356,-0.841445923,0.609054565,-0.001495239,-0.009371338,1.008697748
3.837668,0.505744934,-0.917739868,0.586166382,-0.000274536,-0.007052002,1.010528803
3.838294,0.688850403,-0.833816528,0.631942749,0.000213745,-0.003878174,1.011139154
3.838919,0.650703430,-0.665969849,0.738754272,0.004242065,-0.004854737,1.012848139
3.839546,0.681221008,-0.688858032,0.685348511,0.001068237,-0.007052002,1.016754389
3.840173,0.681221008,-0.704116821,0.624313354,-0.002105591,-0.005587159,1.016510248
3.840800,0.620185852,-0.818557739,0.647201538,0.000824097,-0.005098877,1.016510248
3.841427,0.475227356,-0.475234985,0.891342163,-0.002715942,-0.004610596,1.016754389
3.842054,0.650703430,-0.566787720,0.792160034,-0.000396607,-0.004366456,1.013824701
3.842680,0.521003723,-0.734634399,0.662460327,0.000579956,-0.006807862,1.016021967
3.843305,0.635444641,-0.429458618,0.746383667,0.001922729,-0.000826417,1.016754389
3.843930,0.513374329,-0.444717407,0.891342163,0.000457886,-0.002779542,1.016754389
3.844556,0.498115540,-0.421829224,0.754013062,0.003753784,-0.004732667,1.016510248
3.857183,0.002204895,0.066452026,0.639572144,-0.000640747,0.016385498,1.006378412
3.857876,0.185310364,-0.002212524,0.494613647,0.003631714,0.011502685,1.006378412
3.858501,0.032722473,0.241928101,0.517501831,0.004852417,0.011014404,1.004303217
3.859126,-0.051200867,0.074081421,0.609054565,0.000579956,0.012601318,1.006622553
3.859752,-0.173271179,-0.009841919,0.456466675,0.003143433,0.015775146,1.007477045
3.860378,-0.066459656,0.135116577,0.525131226,0.002288940,0.012967529,1.010895014
3.861007,-0.165641785,0.051193237,0.586166382,0.004486206,0.013211669,1.008819818
3.861634,0.192939758,0.196151733,0.380172729,0.002533081,0.013822021,1.011017084
3.862259,-0.127494812,0.127487183,0.509872437,0.004364136,0.012845458,1.009918451
3.862885,-0.249565125,0.470809937,0.265731812,0.005096558,0.011380615,1.015289545
3.864698,-0.150382996,0.203781128,0.280990601,0.005706909,0.013944091,1.017608881
3.865324,-0.249565125,0.386886597,0.227584839,0.004608276,0.012235107,1.013580561
3.865950,-0.272453308,0.333480835,0.074996948,0.002655151,0.009671630,1.016998529
3.866575,-0.302970886,0.470809937,0.181808472,0.005340698,0.012601318,1.017364740
3.867201,-0.325859070,0.569992065,0.174179077,0.004119995,0.012723388,1.017120600
3.867827,-0.409782410,0.394515991,0.052108765,0.004242065,0.011014404,1.018829584
3.868453,-0.272453308,0.707321167,0.151290894,0.004119995,0.010159912,1.018951654
3.869079,-0.493705750,0.569992065,-0.069961548,0.007415893,0.011502685,1.016876459
3.869704,-0.585258484,0.638656616,0.006332397,0.003875854,0.013211669,1.017853022
3.870331,-0.592887878,0.669174194,0.059738159,0.005462768,0.008939208,1.019073725
3.870957,-0.455558777,0.539474487,-0.176773071,0.005340698,0.006986083,1.019439936
3.871583,-0.783622742,0.905685425,0.006332397,0.002533081,0.007596435,1.019684076
3.872208,-0.623405457,0.997238159,0.090255737,0.003875854,0.006864013,1.019195795
3.872834,-0.730216980,0.989608765,-0.138626099,0.003265503,0.006497802,1.016632318
3.873459,-0.554740906,0.829391479,0.090255737,0.004242065,0.005277099,1.016876459
3.874086,-0.684440613,0.852279663,0.113143921,0.004486206,0.002713623,1.015777826
3.874713,-0.631034851,1.035385132,-0.085220337,0.002899292,0.001492919,1.015533686
3.875339,-0.852287292,1.027755737,0.151290894,0.003509643,0.000760498,1.018463373
3.875964,-0.882804871,1.134567261,-0.130996704,0.001190308,0.001248779,1.017364740
3.876591,-0.699699402,1.279525757,-0.077590942,-0.000518677,0.003568115,1.015655756
3.877217,-0.699699402,1.233749390,0.044479370,0.002044800,0.001492919,1.016388178
3.877844,-0.814140320,1.157455444,-0.184402466,0.000091675,0.001859130,1.015777826
3.878469,-0.936210632,1.142196655,0.044479370,-0.000274536,0.001981201,1.010895014
3.879094,-0.730216980,1.104049683,-0.016555786,-0.001373169,-0.001314698,1.014557123
3.879719,-0.905693054,1.302413940,0.082626343,-0.000884888,0.001248779,1.012603998
3.880344,-0.898063660,1.195602417,-0.291213989,-0.001373169,0.003568115,1.011261225
3.880971,-0.974357605,1.142196655,-0.138626099,0.003143433,0.001004638,1.010162592
3.881597,-1.035392761,1.531295776,-0.054702759,0.004119995,0.002469482,1.011505365
3.882223,-0.920951843,1.371078491,-0.001296997,0.000335815,0.003690185,1.013092279
3.882849,-1.187980652,1.317672729,-0.214920044,-0.000884888,0.003323974,1.009796381
3.883476,-1.249015808,1.294784546,-0.085220337,-0.002349732,0.003690185,1.010162592
3.884101,-1.088798523,1.439743042,-0.230178833,-0.000152466,0.002347412,1.008575678
3.884728,-1.004875183,1.500778198,0.044479370,0.000824097,0.001126708,1.013336420
3.885353,-1.081169128,1.485519409,-0.222549438,0.000946167,0.002347412,1.012603998
3.885980,-0.936210632,1.500778198,-0.214920044,-0.001617310,0.004300537,1.013092279
3.886607,-1.210868835,1.554183960,-0.100479126,0.000091675,0.001004638,1.011383295
3.887233,-1.104057312,1.561813354,-0.268325806,0.002288940,0.003690185,1.011871576
3.887860,-1.241386414,1.485519409,-0.138626099,0.000579956,0.002469482,1.010406733
3.888485,-1.180351257,1.676254272,-0.069961548,0.002044800,0.003690185,1.010650873
3.901179,0.070869446,-0.223464966,0.151290894,-0.007598755,0.001126708,0.981353998
3.901905,0.101387024,-0.261611938,0.044479370,-0.006133911,0.001370849,0.987457514
3.902531,0.116645813,-0.170059204,-0.008926392,-0.001983521,0.006741943,0.992828608
3.903157,-0.272453308,-0.223464966,0.082626343,-0.000884888,0.006864013,0.997345209
3.903784,-0.310600281,0.020675659,-0.024185181,-0.001617310,0.006253662,0.996246576
3.904410,-0.402153015,-0.200576782,0.113143921,0.001190308,0.003690185,1.003814936
3.905036,-0.440299988,-0.154800415,0.036849976,-0.000152466,0.003323974,1.008209467
3.905662,-0.432670593,-0.040359497,0.166549683,0.000213745,0.005032958,1.014190912
3.906289,-0.417411804,-0.002212524,-0.039443970,0.000091675,0.003323974,1.016388178
3.906915,-0.516593933,-0.444717407,0.082626343,0.002166870,0.002957763,1.022857904
3.907542,-0.478446960,-0.032730103,-0.024185181,0.002288940,0.002469482,1.023834467
3.908168,-0.554740906,-0.047988892,0.288619995,0.005706909,0.003690185,1.024200678
3.908795,-0.486076355,-0.017471313,0.006332397,0.005706909,0.002957763,1.026031733
3.909422,-0.524223328,-0.040359497,0.143661499,0.004730347,-0.000582276,1.023834467
3.910047,-0.394523621,0.058822632,0.258102417,0.003509643,-0.003756104,1.024078608
3.910673,-0.280082703,0.226669312,0.036849976,0.001434448,-0.000460206,1.023590326
3.911299,-0.142753601,0.241928101,-0.077590942,0.002288940,-0.000093995,1.022003412
3.911924,-0.158012390,0.348739624,0.158920288,0.002777222,-0.001070557,1.019317865
3.912551,0.017463684,0.211410522,-0.253067017,0.003875854,-0.002657471,1.014801264
3.913178,0.047981262,0.234298706,0.128402710,-0.001129028,-0.003389893,1.012726068
3.914977,0.231086731,0.356369019,0.082626343,-0.002105591,0.000028076,1.002350092
3.915602,0.170051575,-0.009841919,0.013961792,-0.005279419,0.000760498,0.999176264
3.916229,0.231086731,0.058822632,-0.062332153,-0.002960083,-0.002413331,1.000519037
3.916854,0.047981262,0.486068726,0.151290894,-0.004180786,0.000272216,0.995392084
3.917480,0.292121887,0.165634155,-0.085220337,-0.003570435,0.001004638,0.992584467
3.918106,0.215827942,0.173263550,0.181808472,-0.005767700,-0.000704346,0.985992670
3.918733,0.269233704,0.158004761,0.059738159,-0.007232544,0.002347412,0.987701654
3.919359,0.116645813,0.264816284,0.074996948,-0.004424927,0.001126708,0.989532709
3.919984,0.223457336,0.196151733,0.151290894,-0.006133911,0.001004638,0.986725092
3.920609,0.040351868,0.005416870,-0.047073364,-0.007476685,0.001492919,0.986480951
3.921235,-0.119865417,-0.047988892,-0.001296997,-0.007354614,0.000760498,0.988556147
3.921860,-0.135124207,-0.177688599,-0.092849731,-0.003448364,0.005032958,0.984771967
3.922487,-0.013053894,-0.360794067,0.136032104,-0.006011841,0.005643310,0.987701654
3.923113,0.025093079,-0.299758911,-0.077590942,-0.004669067,0.003934326,0.988067865
3.923739,-0.165641785,-0.307388306,0.113143921,-0.002960083,0.004422607,0.990265131
3.924365,-0.356376648,-0.475234985,0.059738159,-0.001495239,0.006375732,0.990753412
3.924991,-0.417411804,-0.124282837,-0.039443970,-0.001129028,0.006986083,0.992706537
3.925617,-0.104606628,-0.307388306,0.143661499,-0.000518677,0.005032958,0.995514154
3.926243,-0.310600281,-0.223464966,0.052108765,-0.002471802,0.004788818,0.997589350
3.926868,-0.165641785,-0.238723755,-0.085220337,-0.001251099,0.003568115,0.999542475
3.927493,-0.096977234,-0.253982544,-0.008926392,-0.001373169,0.001737060,0.998565912
3.928119,-0.226676941,-0.307388306,-0.138626099,0.000091675,0.003079833,1.004669428
3.928744,-0.226676941,-0.261611938,0.113143921,-0.000884888,-0.000216065,1.005645990
3.929370,-0.219047546,-0.192947388,0.265731812,0.002288940,0.001614990,1.010528803
3.929996,-0.089347839,-0.177688599,0.113143921,0.002655151,0.002347412,1.012115717
3.930623,-0.028312683,-0.284500122,-0.100479126,0.000824097,0.001614990,1.014312983
3.931250,0.040351868,-0.078506470,-0.085220337,0.002777222,0.001737060,1.013214350
3.931876,-0.028312683,-0.215835571,-0.184402466,0.003387573,0.001004638,1.017364740
3.932501,0.063240051,-0.116653442,0.052108765,0.003143433,0.000272216,1.018341303
3.951797,-0.066459656,-0.086135864,-0.077590942,-0.004791138,-0.001925049,0.998199701
3.952511,-0.119865417,-0.131912231,0.059738159,-0.002105591,-0.004732667,1.000763178
3.953138,-0.005424500,0.028305054,-0.039443970,-0.001373169,-0.002657471,1.001739740
3.953763,-0.028312683,-0.047988892,-0.153884888,-0.000884888,-0.002291260,1.002838373
3.954388,-0.074089050,-0.070877075,-0.146255493,-0.002105591,-0.003756104,1.002716303
3.955015,0.017463684,-0.009841919,0.120773315,0.002166870,-0.001558838,1.007965326
3.955640,0.025093079,-0.009841919,-0.100479126,-0.000640747,-0.001070557,1.010040522
3.956266,0.086128235,-0.032730103,0.013961792,0.000091675,-0.003389893,1.004913568
3.956893,-0.158012390,0.119857788,-0.115737915,-0.001983521,-0.004122315,1.006866693
3.957518,0.284492493,-0.170059204,0.143661499,-0.004913208,-0.004854737,1.005890131
3.958143,-0.013053894,-0.025100708,0.105514526,0.001434448,-0.000826417,1.008087397
3.958768,0.002204895,-0.116653442,0.021591187,-0.000518677,-0.000826417,1.009430170
3.959395,0.231086731,-0.055618286,-0.237808228,-0.003448364,-0.001436768,1.011139154
3.960020,-0.074089050,-0.116653442,-0.153884888,-0.000640747,-0.005343018,1.008209467
3.960646,0.009834290,0.074081421,-0.054702759,-0.000518677,-0.004122315,1.009308100
3.961272,0.063240051,-0.009841919,-0.001296997,-0.002593872,-0.002169190,1.010650873
3.961899,-0.028312683,0.013046265,-0.054702759,-0.000762817,-0.004366456,1.006500483
3.962526,0.063240051,0.028305054,-0.069961548,-0.002838013,-0.006807862,1.008209467
3.963152,0.078498840,0.043563843,-0.016555786,-0.003692505,-0.004610596,1.008209467
3.965021,0.238716125,-0.086135864,-0.024185181,-0.002105591,-0.007540284,1.006866693
3.965647,0.391304016,-0.055618286,-0.085220337,-0.001983521,-0.004000245,1.006988764
3.966272,0.253974915,-0.047988892,0.074996948,-0.000762817,-0.006075440,1.007721186
3.966897,0.040351868,-0.093765259,0.151290894,-0.001006958,-0.004366456,1.005523920
3.967523,0.391304016,-0.170059204,0.013961792,-0.001373169,-0.003756104,1.009674311
3.968148,0.299751282,-0.017471313,0.090255737,-0.002838013,-0.003267823,1.009186029
3.968773,0.261604309,-0.192947388,0.082626343,0.000946167,-0.006319581,1.008819818
3.969400,0.345527649,-0.192947388,0.006332397,-0.001251099,-0.005220948,1.007477045
3.970027,0.208198547,-0.147171021,0.166549683,-0.001739380,-0.005220948,1.006622553
3.970654,0.368415833,-0.162429810,-0.192031860,-0.002960083,-0.001680909,1.006500483
3.971281,0.238716125,-0.154800415,0.166549683,-0.000152466,-0.001070557,1.004791498
3.971908,0.238716125,-0.269241333,0.021591187,0.000213745,-0.002779542,1.006622553
3.972535,0.406562805,-0.154800415,-0.176773071,-0.000274536,0.001004638,1.004181147
3.973161,0.238716125,-0.040359497,0.036849976,-0.001739380,-0.001436768,1.006378412
3.973787,0.337898254,-0.238723755,0.197067261,0.000091675,0.001859130,1.005768061
3.974414,0.269233704,-0.261611938,-0.184402466,-0.001006958,0.002591552,1.005768061
3.975040,0.269233704,-0.093765259,-0.031814575,0.001190308,0.001004638,1.002105951
3.975665,0.284492493,0.058822632,0.036849976,0.004974487,-0.000338135,1.006866693
3.976291,0.253974915,-0.353164673,0.029220581,0.003021362,-0.002047120,1.004303217
3.976917,0.215827942,-0.154800415,0.166549683,0.003875854,-0.003145752,1.004791498
3.977543,0.162422180,-0.070877075,-0.207290649,-0.001495239,-0.002047120,1.007599115
3.978170,0.070869446,-0.147171021,-0.108108521,-0.000884888,-0.003634034,1.004425287
3.978796,0.170051575,-0.109024048,0.067367554,-0.002227661,-0.000093995,1.005035639
3.979422,0.276863098,-0.147171021,-0.069961548,0.001190308,-0.003511963,1.004913568
3.980048,0.063240051,0.158004761,-0.062332153,-0.000762817,-0.000338135,1.001861811
3.980675,0.284492493,-0.086135864,0.029220581,-0.001373169,-0.002047120,1.005035639
3.981300,0.215827942,-0.093765259,0.143661499,-0.001495239,-0.001192627,1.005157709
3.981927,0.200569153,-0.093765259,0.013961792,0.000213745,-0.002291260,1.004913568
3.982553,0.070869446,-0.246353149,0.029220581,0.002533081,0.000638427,1.002594233
3.983180,0.116645813,0.043563843,-0.146255493,-0.003570435,0.000638427,1.003204584
3.995874,0.261604309,0.203781128,0.136032104,0.001068237,0.005032958,0.996368647
3.996607,0.063240051,-0.009841919,-0.245437622,0.001190308,0.001248779,0.998443842
3.997233,0.139533997,-0.116653442,-0.108108521,-0.000518677,-0.000582276,0.994781733
3.997858,0.086128235,0.096969604,-0.024185181,-0.000152466,0.002713623,0.997223139
3.998485,0.078498840,0.219039917,0.052108765,0.001312378,-0.000338135,0.995392084
3.999112,0.017463684,0.081710815,0.006332397,-0.000030396,0.001859130,0.998810053
3.999737,-0.081718445,-0.025100708,0.059738159,-0.001006958,-0.001558838,0.999176264
4.000363,0.002204895,0.096969604,0.021591187,-0.000762817,0.000394287,0.997589350
4.000989,-0.035942078,0.249557495,-0.001296997,0.001556518,-0.000338135,0.999298334
4.001614,-0.035942078,0.249557495,-0.001296997,0.001556518,-0.000338135,0.999298334
4.002241,0.047981262,0.035934448,-0.031814575,0.000946167,-0.000216065,1.002716303
4.002866,-0.074089050,0.005416870,0.136032104,0.001556518,0.000638427,1.002350092
4.003493,-0.051200867,0.325851440,0.074996948,-0.000640747,0.001737060,1.002472162
4.004118,0.009834290,-0.109024048,-0.008926392,-0.000762817,0.001492919,1.000519037
4.004744,-0.035942078,0.066452026,0.044479370,0.003021362,0.001737060,1.001373529
4.005370,-0.043571472,-0.070877075,0.105514526,0.003143433,-0.000826417,1.005035639
4.005996,-0.081718445,-0.025100708,-0.031814575,0.003387573,0.002225341,1.004547358
4.006623,-0.005424500,0.158004761,0.128402710,0.000579956,0.004056396,1.005035639
4.007248,-0.119865417,-0.025100708,-0.047073364,0.001312378,0.001004638,1.006744623
4.007875,0.124275208,-0.009841919,0.097885132,0.000824097,0.001248779,1.007477045
4.008500,-0.127494812,0.058822632,0.074996948,-0.001373169,0.002347412,1.004913568
4.009126,0.025093079,0.020675659,0.059738159,0.000946167,0.001004638,1.006622553
4.009752,0.047981262,0.081710815,0.052108765,0.002288940,0.000882568,1.007965326
4.010377,0.116645813,0.043563843,-0.092849731,0.001190308,-0.002047120,1.006988764
4.011008,-0.119865417,0.074081421,-0.253067017,0.000946167,0.001492919,1.009063959
4.011633,-0.119865417,-0.002212524,-0.031814575,0.000457886,-0.000948487,1.008697748
4.012259,0.177680969,-0.032730103,0.006332397,0.002533081,0.000882568,1.007354975
4.012884,0.040351868,0.188522339,0.006332397,0.002655151,0.001981201,1.006622553
4.013510,-0.096977234,0.165634155,-0.130996704,-0.000152466,0.001248779,1.004303217
4.015319,0.002204895,0.066452026,-0.085220337,0.001312378,0.000150146,1.003326654
4.015945,0.040351868,0.028305054,-0.108108521,-0.000762817,0.000638427,1.002838373
4.016570,-0.051200867,0.180892944,-0.085220337,-0.004424927,0.000150146,1.001617670
4.017195,0.070869446,0.272445679,0.044479370,0.001312378,0.001004638,1.000274897
4.017820,-0.074089050,0.043563843,-0.024185181,-0.002349732,0.001004638,1.003326654
4.018445,0.139533997,0.051193237,0.059738159,-0.001617310,0.002225341,0.999054193
4.019071,0.017463684,0.142745972,-0.199661255,0.000824097,0.001370849,1.001007318
4.019698,-0.058830261,0.035934448,0.120773315,-0.001739380,-0.000948487,0.995514154
4.020324,0.047981262,0.104598999,0.097885132,-0.001129028,-0.000826417,0.998810053
4.020950,0.093757629,-0.032730103,-0.108108521,-0.001861450,0.001370849,1.000274897
4.021577,0.032722473,0.028305054,0.044479370,-0.001983521,-0.000338135,0.998077631
4.022203,0.131904602,-0.009841919,-0.115737915,-0.001495239,0.000272216,0.998687983
4.022830,-0.058830261,0.142745972,-0.008926392,-0.002838013,0.001737060,0.998443842
4.023457,0.101387024,0.020675659,0.052108765,0.000091675,0.001370849,1.001373529
4.024082,0.208198547,0.081710815,0.128402710,-0.003814575,0.001614990,1.001129389
4.024708,-0.035942078,-0.101394653,-0.123367310,-0.002105591,0.001248779,1.000152826
4.025335,-0.196159363,-0.208206177,0.151290894,-0.002715942,-0.001314698,1.001251459
4.025960,-0.150382996,-0.032730103,-0.130996704,0.000946167,0.001004638,1.002594233
4.026586,0.109016418,0.005416870,-0.153884888,-0.000030396,0.002591552,1.003937006
4.027212,0.116645813,-0.200576782,0.067367554,-0.000884888,0.002347412,1.004059076
4.027837,0.192939758,0.203781128,-0.031814575,0.001678589,0.000882568,1.009918451
4.040789,-0.058830261,0.417404175,0.067367554,-0.000640747,-0.000826417,1.005035639
4.041502,0.223457336,0.058822632,-0.153884888,-0.003448364,-0.000582276,0.997345209
4.042127,-0.043571472,0.241928101,-0.077590942,-0.002349732,-0.001802979,0.997711420
4.042754,0.147163391,0.173263550,0.074996948,-0.006133911,-0.001070557,0.996734858
4.043381,0.063240051,0.318222046,-0.085220337,-0.006378052,0.001248779,0.995758295
4.044008,0.139533997,0.112228394,0.059738159,-0.003082153,-0.001925049,0.994049311
4.044633,0.101387024,0.127487183,0.006332397,-0.005645630,-0.002901612,0.991485834
4.045259,0.200569153,-0.177688599,-0.047073364,-0.001739380,-0.002291260,0.993683100
4.045885,0.055610657,-0.215835571,-0.062332153,0.000213745,-0.000460206,0.995147943
4.046511,0.070869446,0.196151733,-0.100479126,-0.003570435,-0.002901612,0.996490717
4.047136,0.055610657,-0.147171021,0.113143921,-0.001129028,0.001004638,0.995270014
4.047763,0.116645813,0.020675659,0.082626343,-0.001739380,0.001737060,0.997833490
4.048388,-0.013053894,0.066452026,0.074996948,-0.000884888,-0.000948487,0.999786615
4.049015,0.086128235,0.142745972,0.074996948,-0.004913208,-0.002535401,0.999298334
4.049642,-0.074089050,-0.124282837,0.166549683,-0.000640747,-0.002413331,1.000030756
4.050267,-0.089347839,0.051193237,0.128402710,-0.005035278,-0.001436768,1.003570795
4.050892,-0.020683289,0.081710815,0.006332397,-0.003082153,0.000028076,1.007110834
4.051517,-0.035942078,-0.078506470,-0.207290649,-0.002715942,-0.000826417,1.006378412
4.052143,0.078498840,-0.200576782,0.044479370,-0.002105591,-0.000460206,1.005157709
4.052768,-0.081718445,0.035934448,0.174179077,-0.001983521,0.001981201,1.006622553
4.053393,0.078498840,-0.177688599,-0.268325806,0.001190308,0.001248779,1.008209467
4.054019,-0.028312683,-0.040359497,-0.100479126,0.000335815,0.000394287,1.006134272
4.054645,-0.043571472,-0.070877075,0.013961792,-0.000884888,-0.000338135,1.009308100
4.055272,-0.013053894,0.127487183,-0.031814575,-0.001983521,-0.001802979,1.009674311
4.055897,-0.135124207,-0.009841919,0.052108765,-0.002715942,-0.001070557,1.011505365
4.056522,-0.112236023,0.089340210,0.181808472,-0.003326294,-0.003878174,1.009063959
4.057149,-0.089347839,0.104598999,-0.222549438,-0.000518677,-0.004854737,1.008941889
4.057776,-0.127494812,-0.406570435,-0.176773071,-0.002105591,-0.004732667,1.009918451
4.058401,0.078498840,0.089340210,0.021591187,0.002655151,-0.003511963,1.010772943
4.059027,0.055610657,-0.017471313,-0.039443970,-0.001739380,-0.002535401,1.009308100
4.059654,-0.043571472,-0.017471313,0.120773315,0.001068237,0.000272216,1.007843256
4.060280,-0.058830261,0.058822632,-0.069961548,-0.000152466,0.001248779,1.011993647
4.060905,0.002204895,0.104598999,-0.008926392,0.000702026,0.000028076,1.008331537
4.061531,0.109016418,0.051193237,0.006332397,-0.003448364,-0.002047120,1.009063959
4.062157,0.124275208,-0.017471313,0.151290894,0.000213745,0.001370849,1.007599115
4.062783,0.047981262,0.119857788,0.082626343,-0.002105591,0.001126708,1.004303217
4.063409,0.047981262,0.028305054,0.212326050,-0.002960083,-0.002047120,1.004059076
4.064035,0.215827942,-0.170059204,-0.031814575,-0.004180786,-0.001802979,1.003082514
4.065817,-0.066459656,0.089340210,0.021591187,-0.004913208,0.000028076,1.001251459
4.066442,0.162422180,-0.253982544,-0.031814575,-0.003082153,-0.000093995,1.000274897
4.067068,0.009834290,-0.086135864,-0.001296997,-0.001373169,-0.000338135,0.999054193
4.067693,0.139533997,-0.185317993,-0.161514282,-0.004180786,-0.000582276,1.000763178
4.068318,0.170051575,0.005416870,0.105514526,-0.001861450,-0.000338135,0.995392084
4.068943,0.170051575,-0.009841919,0.021591187,-0.004791138,-0.002657471,0.996978998
4.069569,0.330268860,-0.131912231,-0.192031860,-0.005767700,-0.004976807,0.997833490
4.070194,-0.035942078,-0.101394653,-0.047073364,-0.005157349,-0.003511963,0.994415522
4.070820,0.109016418,-0.200576782,-0.207290649,-0.003570435,-0.003267823,0.994659662
4.071445,0.070869446,-0.101394653,-0.085220337,-0.007842896,-0.004366456,0.992828608
4.084068,-0.119865417,-0.040359497,0.036849976,0.002655151,-0.001558838,1.015655756
4.084786,-0.081718445,-0.055618286,0.036849976,-0.000396607,-0.001070557,1.016998529
4.085413,0.032722473,-0.131912231,-0.001296997,0.001922729,0.001370849,1.017608881
4.086039,0.192939758,-0.002212524,0.204696655,-0.000518677,0.001370849,1.018341303
4.086665,0.109016418,-0.040359497,-0.047073364,-0.001373169,-0.001802979,1.018341303
4.087292,0.116645813,0.119857788,-0.161514282,-0.002105591,-0.002413331,1.011627436
4.087918,0.109016418,0.005416870,0.082626343,0.001556518,0.001737060,1.013214350
4.088544,0.109016418,0.203781128,0.067367554,0.001312378,0.001859130,1.013702631
4.089169,0.055610657,0.089340210,0.113143921,-0.000030396,-0.001436768,1.010406733
4.089795,0.101387024,0.158004761,0.036849976,0.003509643,0.002591552,1.009063959
4.090420,0.109016418,0.119857788,0.029220581,-0.001617310,0.003446044,1.011139154
4.091045,0.215827942,0.295333862,0.052108765,-0.003692505,0.000150146,1.006744623
4.091671,0.086128235,0.310592651,0.006332397,-0.001006958,0.002103271,1.006256342
4.092298,0.124275208,0.020675659,-0.016555786,-0.000762817,0.000028076,1.005157709
4.092925,0.086128235,0.348739624,-0.039443970,-0.002105591,0.000638427,1.003570795
4.093550,0.315010071,0.241928101,0.044479370,-0.003448364,0.000150146,1.000885248
4.094176,0.139533997,0.096969604,0.044479370,-0.001983521,0.001614990,1.001129389
4.094801,0.246345520,0.348739624,0.013961792,-0.004424927,-0.000948487,0.998565912
4.095426,0.215827942,0.066452026,0.074996948,-0.001495239,-0.001436768,0.998077631
4.096052,0.032722473,0.074081421,0.097885132,-0.003082153,0.002103271,1.000152826
4.096679,0.139533997,0.043563843,-0.169143677,-0.002715942,0.000028076,0.999054193
4.097306,0.124275208,0.013046265,-0.016555786,-0.003936646,0.000760498,0.996734858
4.097931,0.116645813,0.005416870,0.136032104,-0.002960083,0.001004638,0.995392084
4.098556,0.025093079,0.074081421,-0.077590942,-0.003448364,0.002347412,0.996856928
4.099182,0.131904602,0.089340210,0.136032104,-0.003570435,0.001126708,0.994903803
4.099807,0.040351868,0.020675659,0.052108765,-0.002227661,0.000150146,0.997955561
4.100433,0.055610657,-0.002212524,0.158920288,-0.001983521,0.002225341,0.995880365
4.101059,0.231086731,-0.002212524,-0.008926392,-0.002593872,0.002347412,1.000152826
4.101684,-0.020683289,0.058822632,0.074996948,-0.000274536,0.005277099,1.001251459
4.102310,0.055610657,0.058822632,0.013961792,-0.005889771,0.000272216,1.000641108
4.102937,0.086128235,0.058822632,0.105514526,-0.005157349,0.002713623,0.998810053
4.103562,-0.066459656,-0.170059204,-0.062332153,0.000213745,0.000394287,0.999786615
4.104188,-0.058830261,-0.009841919,-0.008926392,-0.003936646,0.004422607,1.002838373
4.104815,0.147163391,-0.078506470,0.097885132,-0.000640747,0.002957763,1.000885248
4.105441,-0.013053894,0.173263550,0.120773315,0.000702026,0.002347412,1.003326654
4.106067,0.009834290,0.089340210,0.143661499,-0.004058716,0.001126708,1.002838373
4.106692,0.109016418,-0.086135864,0.074996948,-0.000030396,0.000272216,1.005890131
4.107318,-0.104606628,0.043563843,0.067367554,0.000579956,0.000150146,1.006866693
4.107943,-0.051200867,0.081710815,0.036849976,-0.000518677,0.000150146,1.008819818
4.108569,0.200569153,0.119857788,0.013961792,-0.000152466,0.001614990,1.007721186
4.109194,0.101387024,0.219039917,0.059738159,-0.000152466,0.002469482,1.009186029
4.109819,0.109016418,0.142745972,0.219955444,-0.001129028,0.000638427,1.010528803
4.110445,0.162422180,-0.093765259,0.204696655,-0.001373169,0.001981201,1.010162592
4.111071,-0.074089050,0.302963257,0.303878784,0.000702026,0.000516357,1.010162592
4.111698,0.139533997,-0.070877075,0.128402710,0.000824097,0.002713623,1.007232904
4.112324,-0.043571472,0.142745972,-0.069961548,0.000946167,0.003446044,1.006744623
4.112950,-0.043571472,0.180892944,0.029220581,0.003265503,-0.001680909,1.007721186
4.113576,-0.119865417,0.264816284,0.029220581,0.001434448,0.001126708,1.006622553
4.114201,0.200569153,0.173263550,-0.115737915,-0.000884888,-0.002047120,1.005645990
4.116009,0.101387024,0.325851440,-0.138626099,-0.003204224,0.001370849,1.001495600
4.128620,-0.066459656,-0.353164673,0.074996948,-0.001495239,0.001004638,1.011139154
4.129340,-0.104606628,-0.109024048,0.120773315,-0.001129028,-0.001314698,1.009430170
4.129966,-0.074089050,0.013046265,0.059738159,-0.001006958,0.000394287,1.006500483
4.130592,-0.158012390,-0.116653442,-0.016555786,0.003875854,0.001981201,1.012970209
4.131219,-0.074089050,-0.139541626,-0.146255493,0.000213745,-0.001802979,1.013092279
4.131844,-0.135124207,-0.047988892,-0.016555786,0.002044800,0.001492919,1.014312983
4.132469,0.002204895,-0.078506470,0.006332397,0.002411011,0.002103271,1.012848139
4.133095,-0.112236023,-0.200576782,-0.047073364,0.003143433,0.001492919,1.014923334
4.133721,-0.165641785,0.112228394,0.052108765,-0.000640747,0.001737060,1.017486811
4.134348,-0.035942078,0.203781128,0.067367554,0.001556518,0.001370849,1.014068842
4.134974,-0.035942078,0.135116577,-0.054702759,0.003387573,-0.000948487,1.011505365
4.135600,0.032722473,0.005416870,0.113143921,0.001312378,0.000516357,1.009430170
4.136227,-0.081718445,0.142745972,0.082626343,-0.001006958,-0.001802979,1.008209467
4.136853,0.078498840,0.142745972,-0.161514282,0.002655151,-0.001802979,1.005523920
4.137478,0.032722473,-0.025100708,0.052108765,0.000213745,-0.001436768,1.006866693
4.138104,0.025093079,0.272445679,0.029220581,0.002655151,0.001492919,1.006622553
4.138730,-0.142753601,0.249557495,0.074996948,0.000335815,0.001492919,1.005401850
4.139355,0.047981262,0.203781128,-0.024185181,-0.001739380,0.000516357,1.002105951
4.139980,0.047981262,0.341110229,0.120773315,-0.002105591,-0.002535401,0.999542475
4.140606,0.047981262,0.150375366,-0.184402466,-0.002105591,-0.003267823,1.002350092
4.141233,-0.058830261,0.280075073,0.013961792,-0.003082153,0.000150146,0.998199701
4.141858,-0.035942078,0.066452026,-0.031814575,-0.004302857,-0.000338135,0.997589350
4.142484,0.032722473,0.226669312,-0.024185181,-0.002715942,-0.000704346,0.997833490
4.143110,0.063240051,0.264816284,-0.024185181,-0.002838013,0.001737060,0.996368647
4.143737,0.170051575,0.112228394,-0.237808228,-0.003814575,-0.000216065,0.996490717
4.144362,-0.096977234,0.051193237,-0.092849731,-0.004302857,-0.001314698,0.996612787
4.144989,0.299751282,0.074081421,-0.092849731,-0.005279419,-0.001436768,0.995392084
4.145616,0.070869446,-0.017471313,0.143661499,-0.001983521,0.001248779,0.994781733
4.146242,0.070869446,-0.009841919,-0.115737915,-0.003570435,0.000516357,0.996490717
4.146868,0.086128235,-0.154800415,-0.115737915,-0.002960083,0.001126708,0.997467279
4.147494,0.017463684,0.051193237,0.021591187,-0.000274536,0.000760498,0.998687983
4.148120,0.093757629,0.165634155,-0.062332153,-0.003692505,0.001981201,1.000274897
4.148747,0.032722473,-0.002212524,0.120773315,-0.004791138,0.004910888,1.002838373
4.149372,-0.028312683,-0.192947388,0.029220581,-0.002471802,0.000516357,1.003937006
4.149999,-0.035942078,-0.017471313,-0.039443970,0.002288940,0.000760498,1.003814936
4.150626,-0.211418152,-0.162429810,-0.100479126,0.000213745,0.001004638,1.005523920
4.151251,-0.028312683,-0.185317993,-0.123367310,-0.000030396,-0.002901612,1.006500483
4.151876,0.055610657,-0.009841919,-0.047073364,0.001068237,0.001004638,1.007843256
4.152502,-0.074089050,-0.292129517,0.120773315,0.001434448,-0.001436768,1.006866693
4.153129,-0.096977234,0.051193237,0.143661499,-0.001739380,-0.000826417,1.009552240
4.153756,-0.280082703,-0.124282837,-0.069961548,0.002166870,-0.001192627,1.013092279
4.154381,-0.013053894,0.142745972,-0.100479126,0.000457886,-0.001314698,1.012970209
4.155009,-0.058830261,-0.070877075,0.029220581,-0.001861450,-0.002779542,1.013702631
4.155635,-0.058830261,-0.192947388,-0.138626099,0.000702026,-0.001558838,1.014312983
4.156260,0.032722473,0.020675659,-0.115737915,0.003265503,-0.002047120,1.013702631
4.156886,0.009834290,0.203781128,0.021591187,-0.000030396,-0.001558838,1.012848139
4.157512,0.070869446,-0.063247681,-0.260696411,0.001678589,-0.002535401,1.011871576
4.158137,0.231086731,-0.002212524,0.029220581,0.001800659,-0.000826417,1.009308100
4.158762,0.131904602,0.005416870,-0.054702759,-0.001006958,-0.004244385,1.007965326
4.172672,-0.028312683,-0.414199829,-0.214920044,-0.003204224,-0.003023682,0.998932123
4.173410,0.017463684,-0.154800415,0.006332397,-0.004180786,-0.002169190,0.999908686
4.174035,0.055610657,-0.421829224,-0.054702759,-0.004180786,-0.000948487,0.999176264
4.174662,0.025093079,-0.299758911,-0.237808228,-0.004791138,-0.004366456,1.003937006
4.175288,0.078498840,-0.429458618,-0.108108521,-0.002227661,-0.003634034,1.000396967
4.175915,-0.051200867,-0.643081665,-0.047073364,-0.001861450,-0.006929932,1.005401850
4.176542,0.063240051,-0.498123169,-0.062332153,-0.002105591,-0.004244385,1.009063959
4.177167,0.124275208,-0.345535278,0.074996948,-0.000152466,-0.004854737,1.008575678
4.177794,0.215827942,-0.383682251,0.120773315,0.003143433,0.000150146,1.007965326
4.178419,0.330268860,-0.421829224,-0.092849731,0.002411011,0.001004638,1.009430170
4.179045,0.238716125,-0.421829224,-0.069961548,0.005828979,0.008695068,1.010895014
4.179671,0.032722473,-0.215835571,-0.001296997,0.005096558,0.004178466,1.013336420
4.180296,0.002204895,-0.307388306,-0.001296997,0.002777222,0.004666748,1.014801264
4.180922,-0.051200867,-0.139541626,-0.024185181,0.004730347,0.003079833,1.015045404
4.181548,-0.188529968,-0.093765259,0.074996948,0.003875854,-0.003756104,1.020294428
4.182175,0.017463684,0.035934448,0.013961792,0.001312378,-0.007906495,1.017975092
4.182801,-0.035942078,-0.040359497,0.013961792,0.002288940,-0.006075440,1.015045404
4.183427,0.109016418,0.051193237,0.128402710,-0.001495239,-0.006319581,1.017730951
4.184052,0.200569153,0.028305054,0.120773315,0.000335815,-0.005953370,1.017364740
4.184677,0.009834290,-0.055618286,-0.024185181,-0.001495239,-0.002413331,1.010895014
4.185304,0.055610657,-0.078506470,-0.016555786,0.000091675,-0.003023682,1.008087397
4.185931,0.185310364,-0.154800415,0.105514526,-0.001617310,-0.002535401,1.003937006
4.186557,0.093757629,-0.017471313,-0.047073364,-0.001983521,0.000394287,0.998687983
4.187182,0.002204895,-0.101394653,-0.108108521,-0.002227661,-0.000948487,0.995270014
4.187808,0.063240051,-0.177688599,0.136032104,-0.000396607,0.003079833,0.990143061
4.188433,0.162422180,-0.109024048,0.120773315,-0.000640747,-0.001436768,0.990875483
4.189058,0.047981262,-0.047988892,-0.054702759,-0.002471802,-0.003023682,0.990631342
4.189683,0.086128235,0.150375366,0.059738159,-0.002838013,-0.005220948,0.989654779
4.190308,0.177680969,-0.086135864,-0.039443970,-0.007232544,-0.002413331,0.990143061
4.190935,0.192939758,-0.299758911,0.044479370,-0.002349732,0.001126708,0.986969233
4.191561,0.063240051,-0.261611938,-0.092849731,-0.002349732,0.002103271,0.988922358
4.192188,0.009834290,-0.086135864,0.036849976,-0.002960083,0.004788818,0.989166498
4.192813,-0.112236023,-0.162429810,0.158920288,-0.002105591,0.002103271,0.991241693
4.193438,-0.112236023,-0.215835571,-0.100479126,-0.002471802,-0.000216065,0.990020990
4.194063,-0.066459656,-0.345535278,0.250473022,-0.005279419,-0.003267823,0.990020990
4.194688,0.055610657,-0.292129517,0.036849976,-0.004913208,-0.005098877,0.996002436
4.201849,-0.211418152,-0.078506470,-0.153884888,0.002655151,-0.002047120,1.019806147
4.202475,-0.119865417,-0.200576782,-0.024185181,0.005218628,-0.001192627,1.018097162
4.203102,-0.234306335,-0.093765259,0.006332397,0.004486206,-0.001802979,1.019562006
4.203727,-0.127494812,-0.025100708,0.082626343,0.005462768,0.001248779,1.022491693
4.204353,0.063240051,0.051193237,-0.169143677,0.003875854,-0.001314698,1.022003412
4.204979,0.017463684,-0.017471313,-0.054702759,0.002288940,-0.000093995,1.023468256
4.205604,0.109016418,-0.055618286,-0.008926392,0.004486206,-0.001680909,1.019928217
4.206229,-0.119865417,0.226669312,0.082626343,0.002411011,-0.001802979,1.020538568
4.206854,-0.142753601,0.028305054,0.006332397,0.000702026,-0.003878174,1.019439936
4.207480,-0.028312683,0.440292358,-0.062332153,0.001434448,-0.004244385,1.016510248
4.208105,0.070869446,0.241928101,0.166549683,0.001312378,-0.001314698,1.011749506
4.208730,0.047981262,0.219039917,0.250473022,0.001556518,-0.001192627,1.011505365
4.209355,-0.028312683,0.356369019,-0.237808228,-0.001373169,0.000394287,1.008331537
4.223305,0.284492493,-0.307388306,0.052108765,-0.001861450,-0.002413331,1.005035639
4.224029,0.078498840,-0.322647095,0.067367554,0.001556518,0.001370849,1.006012201
4.224654,0.170051575,-0.025100708,0.074996948,0.000824097,0.004422607,1.008453608
4.225280,-0.150382996,-0.170059204,0.074996948,-0.002593872,0.004910888,1.014190912
4.225906,-0.135124207,-0.131912231,-0.123367310,0.003021362,0.003446044,1.013702631
4.226531,0.078498840,-0.124282837,0.006332397,0.002166870,0.002225341,1.017975092
4.227158,0.017463684,-0.192947388,-0.047073364,0.003143433,0.000272216,1.017730951
4.227783,0.040351868,-0.109024048,0.235214233,0.002166870,0.001370849,1.014557123
4.228408,0.047981262,-0.047988892,0.136032104,0.004242065,0.000516357,1.019928217
4.229033,0.032722473,-0.086135864,0.013961792,0.003875854,-0.002535401,1.018829584
4.229658,0.200569153,-0.017471313,-0.039443970,0.002655151,-0.001070557,1.017242670
4.230283,0.017463684,0.028305054,0.097885132,0.002044800,-0.004122315,1.018951654
4.230909,0.383674622,0.142745972,0.013961792,0.001556518,-0.000704346,1.019317865
4.231534,0.276863098,0.104598999,-0.085220337,0.003631714,0.001370849,1.016632318
4.232159,0.078498840,0.173263550,0.029220581,0.002777222,0.003812255,1.014923334
4.232785,-0.035942078,0.203781128,-0.077590942,0.000335815,0.002225341,1.011871576
4.233410,0.208198547,-0.009841919,0.029220581,0.001434448,0.000028076,1.010650873
4.234035,0.208198547,0.173263550,0.105514526,0.000335815,-0.001070557,1.010040522
4.234660,0.040351868,0.089340210,-0.016555786,-0.001617310,-0.000338135,1.006988764
4.235287,0.200569153,0.264816284,0.120773315,0.000702026,-0.000093995,1.007232904
4.235914,0.116645813,0.394515991,0.128402710,-0.003082153,-0.004610596,1.006134272
4.236539,0.376045227,0.020675659,0.006332397,-0.004791138,-0.004122315,1.007721186
4.237166,0.276863098,0.035934448,-0.047073364,-0.000274536,0.000638427,1.002350092
4.237793,0.292121887,0.295333862,0.105514526,-0.002349732,0.003323974,0.999298334
4.238419,0.246345520,0.104598999,-0.138626099,-0.002471802,0.002469482,0.998199701
4.239046,0.032722473,0.074081421,-0.024185181,-0.005279419,0.002957763,0.995392084
4.239672,0.093757629,-0.002212524,0.013961792,-0.003204224,0.004666748,0.994415522
4.240298,0.078498840,0.188522339,-0.031814575,-0.000884888,0.005887451,0.993927240
4.240924,0.055610657,-0.032730103,-0.184402466,-0.003692505,-0.000582276,0.992218256
4.241550,-0.028312683,0.035934448,0.059738159,-0.002838013,0.000516357,0.992950678
4.242177,0.093757629,0.051193237,-0.047073364,-0.004546997,-0.002047120,0.993561029
4.242803,0.154792786,-0.086135864,-0.123367310,-0.002960083,-0.004976807,0.995392084
4.243428,0.093757629,-0.063247681,0.113143921,-0.005279419,-0.003389893,0.993561029
4.244054,0.047981262,-0.101394653,-0.100479126,-0.002105591,-0.001802979,0.998443842
4.244679,0.170051575,-0.078506470,-0.138626099,-0.002838013,0.001004638,0.995392084
4.245305,0.322639465,-0.040359497,0.143661499,-0.001129028,0.002835693,0.999908686
4.245931,0.246345520,-0.116653442,0.113143921,-0.003570435,0.003690185,0.994537592
4.246556,0.223457336,-0.162429810,0.044479370,0.000335815,0.002225341,0.999786615
4.247181,0.200569153,-0.017471313,-0.100479126,0.000824097,0.003812255,1.000641108
4.247807,0.055610657,-0.170059204,-0.016555786,0.001312378,0.003079833,1.000763178
4.248433,-0.020683289,-0.200576782,0.029220581,-0.001129028,0.004788818,1.004425287
4.249058,-0.127494812,0.058822632,0.044479370,0.000946167,0.001614990,1.006378412
4.249683,-0.280082703,-0.086135864,0.197067261,-0.001617310,-0.000216065,1.004791498
4.250309,0.147163391,-0.040359497,0.029220581,-0.001617310,-0.002657471,1.007477045
4.250935,-0.043571472,0.058822632,-0.047073364,-0.001129028,-0.001925049,1.008819818
4.251560,-0.035942078,-0.063247681,-0.031814575,-0.000884888,-0.003023682,1.008331537
4.252185,0.177680969,-0.093765259,-0.031814575,0.000213745,-0.001925049,1.007232904
4.252811,0.070869446,-0.154800415,-0.062332153,0.002166870,0.000638427,1.008697748
4.253436,-0.028312683,-0.086135864,-0.047073364,0.001312378,0.002591552,1.006378412
4.266124,-0.089347839,-0.078506470,0.090255737,-0.004546997,0.002469482,0.992828608
4.266821,-0.112236023,-0.009841919,-0.031814575,-0.005157349,0.000760498,0.989410639
4.267448,-0.089347839,-0.047988892,-0.100479126,-0.003814575,0.001981201,0.991974115
4.268074,-0.196159363,-0.086135864,0.143661499,-0.001739380,-0.001070557,0.992950678
4.268700,-0.013053894,-0.070877075,0.120773315,-0.002349732,0.001981201,0.991363764
4.269327,0.017463684,-0.185317993,0.250473022,-0.001006958,0.003079833,0.993927240
4.269952,-0.112236023,-0.070877075,0.006332397,-0.001373169,0.002347412,0.990997553
4.270577,-0.333488464,-0.147171021,-0.092849731,-0.001739380,0.001248779,0.990020990
4.271203,-0.127494812,-0.238723755,0.105514526,-0.003570435,0.001737060,0.996490717
4.271830,-0.302970886,-0.070877075,0.158920288,-0.001495239,-0.001436768,0.996856928
4.273593,-0.180900574,-0.124282837,-0.092849731,-0.001129028,0.001737060,1.000641108
4.274219,-0.249565125,-0.208206177,0.158920288,-0.005889771,-0.002413331,1.002838373
4.274845,-0.051200867,-0.292129517,-0.024185181,-0.001983521,-0.000826417,1.005768061
4.275471,-0.173271179,-0.246353149,0.074996948,0.002288940,0.000028076,1.006256342
4.276098,-0.180900574,0.013046265,0.029220581,0.001434448,0.001004638,1.010406733
4.276725,-0.074089050,-0.070877075,-0.024185181,0.000091675,-0.000704346,1.012115717
4.277351,-0.302970886,-0.040359497,-0.085220337,0.002166870,-0.000460206,1.008453608
4.277976,-0.135124207,-0.101394653,0.097885132,-0.000640747,0.001614990,1.011505365
4.278603,0.032722473,-0.002212524,-0.108108521,-0.000274536,0.001614990,1.010528803
4.279229,-0.074089050,0.043563843,-0.108108521,0.002044800,0.001370849,1.014557123
4.279854,0.009834290,-0.147171021,-0.008926392,0.003631714,0.000028076,1.013336420
4.280480,-0.127494812,0.203781128,0.067367554,0.003753784,0.002713623,1.015045404
4.281106,-0.081718445,0.203781128,0.097885132,-0.001006958,-0.001436768,1.011871576
4.281732,-0.142753601,-0.032730103,-0.062332153,-0.000396607,0.001248779,1.009674311
4.282357,-0.074089050,0.081710815,0.006332397,-0.000762817,0.000760498,1.011749506
4.282984,-0.135124207,0.066452026,0.036849976,0.001190308,0.000028076,1.011993647
4.283609,-0.020683289,-0.009841919,0.113143921,0.000091675,-0.002047120,1.011505365
4.284234,-0.005424500,-0.032730103,0.006332397,-0.000640747,-0.002657471,1.007477045
4.284861,-0.226676941,0.028305054,-0.161514282,0.002777222,-0.004000245,1.009063959
4.285487,0.078498840,0.028305054,0.113143921,0.003387573,-0.002657471,1.009308100
4.286113,-0.051200867,-0.208206177,0.097885132,0.003387573,-0.002779542,1.010895014
4.286738,-0.173271179,0.173263550,-0.016555786,0.005462768,-0.016451417,1.017486811
4.287364,-0.058830261,0.127487183,0.006332397,-0.001861450,-0.025972901,1.016876459
4.287990,0.322639465,0.150375366,0.120773315,-0.010284302,0.003934326,1.014801264
4.288616,0.139533997,0.287704468,-0.138626099,-0.000274536,0.034573972,1.022613764
4.289241,-0.470817566,0.348739624,-0.024185181,0.007537964,0.028836669,1.026886225
4.289868,-0.585258484,0.516586304,0.387802124,0.004608276,0.005887451,1.027984858
4.290493,-0.341117859,0.363998413,0.181808472,-0.000884888,-0.014010010,1.029693842
4.291119,-0.234306335,0.379257202,-0.192031860,-0.003692505,-0.017794190,1.022125483
4.291746,0.040351868,0.173263550,-0.123367310,-0.002105591,-0.003389893,1.004913568
4.292373,-0.020683289,-0.009841919,-0.092849731,0.000579956,0.005032958,1.000152826
4.293007,0.215827942,0.051193237,-0.130996704,-0.001739380,0.008450927,0.988922358
4.293632,0.170051575,0.127487183,-0.016555786,-0.005035278,0.009305419,0.978424311
4.294258,0.139533997,-0.032730103,-0.199661255,0.000457886,0.015775146,0.975494623
4.294885,-0.188529968,0.020675659,-0.123367310,0.003265503,0.016629638,0.975128412
4.295510,-0.364006042,0.203781128,-0.016555786,-0.002593872,0.009305419,0.977203608
4.296136,-0.585258484,0.226669312,-0.054702759,-0.008331177,-0.004610596,0.981720209
4.296762,-0.508964539,0.127487183,0.044479370,-0.004180786,-0.020479737,0.987701654
4.297387,-0.287712097,0.341110229,0.097885132,-0.005767700,-0.034151614,0.998565912
4.309981,-0.089347839,0.249557495,-0.192031860,0.000702026,-0.010103760,1.006988764
4.310667,0.017463684,0.196151733,-0.047073364,0.001678589,-0.010469971,1.001983881
4.311294,-0.165641785,0.257186890,-0.123367310,0.001678589,-0.005831299,1.002350092
4.311921,0.025093079,0.447921753,0.097885132,-0.001861450,-0.006685792,1.001861811
4.312546,-0.135124207,0.302963257,0.090255737,0.001068237,-0.004854737,1.002960443
4.313171,0.047981262,0.386886597,-0.092849731,0.000824097,-0.000338135,1.002838373
4.313796,0.131904602,0.486068726,-0.031814575,-0.002593872,-0.000216065,1.002838373
4.314421,0.116645813,0.409774780,0.044479370,-0.001739380,0.003934326,1.003448725
4.315046,0.078498840,0.348739624,-0.016555786,-0.003204224,-0.002657471,1.004547358
4.315671,0.002204895,0.203781128,0.059738159,-0.002471802,-0.001802979,1.002716303
4.316298,0.208198547,0.066452026,-0.092849731,-0.001861450,0.004300537,0.996124506
4.316924,-0.013053894,0.013046265,0.006332397,-0.000884888,0.000516357,0.996368647
4.317549,-0.180900574,-0.040359497,-0.123367310,0.001678589,0.001004638,0.994781733
4.318175,-0.203788757,0.135116577,0.097885132,-0.001495239,0.003079833,0.997101068
4.318800,0.009834290,-0.025100708,-0.031814575,-0.002349732,-0.000093995,0.990631342
4.319427,-0.074089050,0.104598999,-0.092849731,-0.002349732,-0.002535401,0.995636225
4.320052,-0.234306335,0.158004761,-0.199661255,-0.001129028,-0.002413331,0.998321772
4.320677,-0.325859070,-0.047988892,0.074996948,-0.000640747,-0.001314698,0.998199701
4.321304,-0.135124207,0.081710815,0.013961792,-0.002227661,-0.004488526,1.002960443
4.321930,-0.104606628,-0.017471313,0.097885132,-0.002471802,-0.002779542,1.001373529
4.323712,-0.028312683,0.135116577,-0.047073364,-0.007964966,-0.008150635,1.004913568
4.324337,-0.135124207,-0.284500122,-0.222549438,-0.006378052,-0.004976807,1.007477045
4.324964,-0.142753601,-0.170059204,0.212326050,-0.004546997,-0.007418213,1.006744623
4.325591,-0.104606628,-0.192947388,-0.001296997,-0.003082153,-0.004976807,1.005401850
4.326216,-0.043571472,-0.170059204,-0.039443970,-0.000762817,-0.007052002,1.007110834
4.326843,-0.096977234,-0.185317993,0.013961792,0.000457886,-0.001558838,1.008697748
4.327469,0.055610657,-0.109024048,-0.207290649,0.004364136,0.001370849,1.012726068
4.328095,0.017463684,0.066452026,-0.100479126,0.002411011,0.006619873,1.014557123
4.328722,-0.142753601,-0.009841919,-0.077590942,0.007171753,0.006741943,1.016266108
4.329348,-0.165641785,0.150375366,-0.123367310,0.005706909,0.001492919,1.010895014
4.329973,0.047981262,0.104598999,0.052108765,0.004730347,-0.002169190,1.011261225
4.330599,-0.112236023,0.119857788,0.151290894,-0.002715942,-0.002901612,1.015167475
4.331225,0.093757629,0.142745972,0.074996948,-0.002227661,-0.001680909,1.011017084
4.331851,0.047981262,0.417404175,-0.008926392,-0.003692505,-0.001925049,1.006256342
4.332478,0.070869446,0.150375366,-0.008926392,-0.006988403,-0.005343018,1.006500483
4.333104,0.162422180,-0.032730103,0.036849976,-0.005035278,-0.014498292,1.005157709
4.333730,0.093757629,0.165634155,-0.100479126,-0.006011841,-0.018404542,1.003448725
4.334355,0.215827942,0.226669312,0.067367554,-0.006744263,-0.014864502,1.000030756
4.334980,0.353157043,0.112228394,0.158920288,-0.007354614,-0.004976807,0.994903803
4.335605,0.261604309,-0.002212524,-0.001296997,-0.008575317,-0.003634034,0.991363764
4.336231,0.360786438,0.020675659,0.021591187,-0.005157349,-0.011080323,0.987945795
4.336856,0.414192200,-0.116653442,-0.062332153,-0.007964966,-0.011690674,0.989288568
4.337481,0.528633118,-0.177688599,0.029220581,-0.009063599,-0.013399659,0.985138178
4.338106,0.673591614,-0.131912231,-0.024185181,-0.011505005,-0.007418213,0.981964350
4.338732,0.765144348,-0.322647095,0.013961792,-0.011260864,-0.005709229,0.981353998
4.339359,0.559150696,-0.330276489,-0.092849731,-0.015289185,-0.008150635,0.982452631
4.339986,0.917732239,-0.543899536,0.105514526,-0.023834106,-0.029146729,0.981476068
4.340613,1.207649231,-0.650711060,0.174179077,-0.037872192,-0.048555911,0.977813959
4.341240,2.031623840,-1.100845337,-0.214920044,-0.048614379,-0.072359622,0.969513178
4.353892,-0.081718445,0.478439331,0.326766968,0.014129761,0.021024169,0.999542475
4.354584,0.025093079,0.623397827,0.067367554,0.002655151,0.023831787,0.992706537
4.355209,-0.348747253,0.745468140,0.105514526,-0.003814575,0.024564208,0.987091303
4.355835,-0.325859070,0.783615112,0.326766968,-0.005035278,0.015042724,0.993683100
4.356460,-0.615776062,0.219039917,0.242843628,-0.006255982,0.003690185,0.996612787
4.357085,-0.180900574,-0.109024048,0.036849976,-0.009185669,0.000394287,1.002594233
4.357710,-0.035942078,-0.131912231,0.273361206,-0.013458130,-0.005098877,1.002228022
4.358335,0.383674622,-0.253982544,-0.069961548,-0.005645630,-0.010836182,0.998810053
4.358962,0.711738586,-0.452346802,-0.314102173,-0.002105591,-0.010836182,0.990387201
4.359587,0.910102844,-0.353164673,-0.207290649,0.004730347,-0.016085206,0.986358881
4.360213,0.879585266,0.142745972,-0.024185181,0.002044800,-0.019136963,0.977081537
4.360838,1.116096497,0.127487183,-0.245437622,-0.001739380,-0.020845948,0.973175287
4.361464,1.016914368,0.165634155,0.036849976,-0.006622192,-0.021334229,0.967193842
4.362089,1.055061340,0.623397827,0.113143921,-0.009185669,-0.012789307,0.969513178
4.362715,1.001655579,0.333480835,0.029220581,-0.010528442,-0.003023682,0.977081537
4.363340,0.757514954,0.158004761,0.120773315,-0.007720825,0.003568115,0.981598139
4.363966,0.688850403,-0.047988892,0.265731812,-0.012725708,0.008572998,0.982696772
4.364592,0.681221008,-0.391311646,0.105514526,-0.014312622,0.006619873,0.986236811
4.365217,0.482856750,-0.696487427,0.113143921,-0.005401489,0.015531005,0.991241693
4.365842,0.459968567,-0.643081665,0.227584839,-0.004546997,0.022733154,0.987213373
4.366467,0.047981262,-0.772781372,-0.115737915,0.003265503,0.031766355,0.988067865
4.367092,-0.348747253,-0.688858032,0.212326050,0.005706909,0.030057373,0.990265131
4.367718,-0.508964539,-0.612564087,-0.047073364,0.002288940,0.021878662,0.998565912
4.368344,-0.486076355,-0.681228638,0.158920288,0.004364136,0.012723388,1.005401850
4.368970,-0.493705750,-0.551528931,0.059738159,0.003631714,0.004300537,1.006622553
4.369596,-0.318229675,-0.406570435,-0.146255493,0.001190308,-0.000704346,1.012603998
4.370221,-0.188529968,-0.627822876,-0.115737915,-0.003570435,-0.008272706,1.015655756
4.370847,-0.020683289,-0.727005005,-0.176773071,0.003387573,-0.006197510,1.017975092
4.371474,0.055610657,-0.833816528,-0.001296997,0.003143433,-0.004732667,1.019562006
4.372099,0.002204895,-0.864334106,-0.184402466,0.007660034,-0.004610596,1.017608881
4.373888,0.276863098,-0.620193481,0.082626343,0.013519409,-0.004732667,1.009674311
4.374514,0.055610657,-0.200576782,-0.092849731,0.013763550,0.000272216,1.006134272
4.375139,0.368415833,0.058822632,0.105514526,0.016204957,0.002469482,1.003937006
4.375765,0.513374329,0.158004761,-0.130996704,0.018280152,0.009427490,1.006622553
4.376391,0.513374329,0.325851440,0.082626343,0.014251831,0.012235107,1.014679193
4.377016,0.246345520,0.905685425,-0.008926392,0.007293823,0.016507568,1.020050287
4.377641,0.040351868,0.837020874,0.280990601,-0.001495239,0.013211669,1.024566889
4.378267,0.231086731,0.638656616,0.036849976,-0.005889771,0.008695068,1.029083490
4.378894,0.261604309,0.631027222,0.036849976,-0.007476685,0.009061279,1.033478022
4.379520,0.223457336,0.211410522,-0.085220337,-0.009429810,0.006497802,1.034698725
4.380145,0.444709778,-0.215835571,-0.222549438,-0.006255982,0.008328857,1.033111811
4.380772,0.437080383,-0.200576782,-0.130996704,-0.001617310,0.013822021,1.026397943
4.381397,0.200569153,-0.360794067,-0.047073364,0.002166870,0.010526123,1.019928217
4.382022,0.261604309,-0.330276489,-0.100479126,0.006073120,0.011014404,1.014312983
4.382648,0.200569153,0.043563843,-0.268325806,0.009857300,0.007474365,1.008697748
4.383275,-0.066459656,-0.055618286,-0.062332153,0.012298706,0.011624755,1.003448725
4.383902,-0.013053894,0.234298706,-0.092849731,0.011688354,0.013211669,1.001983881
4.384528,-0.409782410,0.577621460,-0.108108521,0.011688354,0.015286865,0.997833490
4.385153,-0.478446960,0.722579956,-0.024185181,0.008514526,0.016141357,1.001373529
4.397751,0.376045227,-0.223464966,-0.062332153,-0.006500122,-0.007052002,1.003082514
4.398453,0.292121887,-0.208206177,0.082626343,-0.002227661,-0.001436768,1.000152826
4.399080,0.139533997,-0.200576782,-0.054702759,-0.000762817,0.000638427,1.001983881
4.399707,0.444709778,-0.345535278,0.006332397,-0.000884888,0.003812255,1.001129389
4.400332,0.231086731,-0.345535278,-0.176773071,-0.000396607,0.003934326,1.004181147
4.400958,0.070869446,-0.147171021,-0.085220337,-0.001373169,0.006009521,1.006012201
4.401584,-0.119865417,0.043563843,0.059738159,-0.001006958,0.007474365,1.011871576
4.402211,-0.241935730,-0.131912231,-0.123367310,-0.003326294,0.011624755,1.008331537
4.402837,-0.341117859,-0.101394653,-0.069961548,-0.002349732,0.007718505,1.013580561
4.403463,-0.608146667,-0.002212524,0.013961792,-0.005279419,0.003079833,1.015655756
4.404089,-0.562370300,-0.101394653,0.036849976,-0.004546997,0.000638427,1.018097162
4.404716,-0.348747253,-0.269241333,0.113143921,-0.006988403,-0.003389893,1.015167475
4.405342,-0.379264832,-0.200576782,0.013961792,-0.003326294,-0.005831299,1.014557123
4.405967,-0.089347839,-0.124282837,-0.100479126,-0.001495239,-0.006929932,1.011139154
4.406593,-0.325859070,-0.162429810,0.044479370,-0.002471802,-0.007052002,1.008209467
4.407218,-0.173271179,-0.101394653,0.036849976,0.000213745,-0.010469971,1.006622553
4.407844,-0.043571472,0.119857788,0.181808472,0.002533081,-0.011812745,1.002838373
4.408470,0.246345520,0.165634155,0.189437866,-0.000518677,-0.009737549,1.004791498
4.409097,0.025093079,0.051193237,0.029220581,-0.003814575,-0.009737549,1.002838373
4.409723,0.223457336,-0.101394653,-0.024185181,-0.002960083,-0.011202393,1.002594233
4.410350,0.452339172,0.127487183,-0.062332153,-0.003814575,-0.008272706,1.002472162
4.410975,0.162422180,0.104598999,-0.085220337,-0.003570435,-0.004854737,1.001251459
4.411600,0.391304016,0.051193237,-0.115737915,-0.006011841,-0.005098877,0.998565912
4.412225,0.536262512,-0.002212524,-0.054702759,-0.009551880,-0.008272706,1.000763178
4.412851,0.383674622,0.096969604,-0.054702759,-0.008331177,-0.000948487,1.001129389
4.413476,0.253974915,-0.116653442,0.090255737,-0.004424927,-0.000216065,1.001129389
4.414101,0.253974915,-0.177688599,-0.092849731,-0.004180786,0.000882568,0.999908686
4.414726,0.231086731,-0.109024048,0.136032104,-0.003204224,0.002835693,0.999054193
4.415351,0.200569153,-0.246353149,-0.092849731,-0.002227661,0.005277099,0.999420404
4.415976,0.330268860,-0.208206177,-0.092849731,-0.000884888,0.006741943,1.001983881
4.416602,0.177680969,-0.131912231,0.036849976,-0.000518677,0.002835693,0.998932123
4.417228,0.101387024,-0.154800415,-0.024185181,-0.005157349,0.004422607,1.004791498
4.417853,0.040351868,-0.002212524,-0.047073364,-0.001373169,0.006009521,1.006500483
4.418478,-0.074089050,-0.170059204,-0.077590942,0.001312378,0.003323974,1.004425287
4.419104,-0.302970886,0.066452026,-0.016555786,-0.003936646,0.001370849,1.005523920
4.419731,-0.188529968,-0.185317993,-0.108108521,0.000213745,-0.000338135,1.007232904
4.420356,-0.188529968,-0.337905884,0.128402710,-0.000396607,-0.000826417,1.007721186
4.420981,-0.310600281,-0.147171021,-0.031814575,-0.000640747,-0.003511963,1.011749506
4.421606,-0.173271179,-0.131912231,0.059738159,0.000946167,-0.002535401,1.009430170
4.422233,-0.333488464,-0.009841919,0.113143921,0.003387573,0.001004638,1.014557123
4.424037,-0.135124207,0.119857788,0.120773315,-0.008819458,-0.015841065,1.002472162
4.424663,-0.165641785,-0.200576782,0.105514526,-0.003692505,-0.021944581,1.002838373
4.425290,0.284492493,-0.376052856,-0.016555786,0.002166870,-0.012789307,1.006988764
4.425916,0.124275208,-0.131912231,0.158920288,0.011322143,0.002469482,1.007354975
4.426543,0.139533997,-0.200576782,0.044479370,0.005828979,0.004178466,1.002350092
4.427169,0.383674622,-0.139541626,-0.031814575,0.002777222,0.003812255,1.002350092
4.427794,0.299751282,-0.040359497,0.052108765,0.000213745,0.003568115,1.003937006
4.428420,0.276863098,0.158004761,-0.047073364,0.004364136,0.007474365,1.003448725
4.429045,0.162422180,0.035934448,-0.069961548,0.008880737,0.007108154,1.001129389
4.441695,-0.165641785,-0.101394653,0.105514526,-0.000762817,-0.002901612,0.995392084
4.442421,-0.119865417,-0.055618286,-0.085220337,0.000702026,-0.004732667,0.999054193
4.443048,-0.066459656,-0.215835571,-0.085220337,0.000946167,-0.007052002,0.998932123
4.443673,0.063240051,-0.154800415,0.006332397,-0.000884888,-0.004854737,1.002838373
4.444299,0.063240051,-0.124282837,-0.153884888,-0.001495239,0.001126708,1.003448725
4.444924,0.238716125,-0.101394653,-0.100479126,0.000457886,-0.002779542,1.002960443
4.452119,0.299751282,0.028305054,0.021591187,0.002288940,-0.000826417,1.020172358
4.452744,0.330268860,0.005416870,0.174179077,-0.003204224,0.004178466,1.014557123
4.453370,0.040351868,0.196151733,0.052108765,0.000824097,0.005521240,1.013824701
4.453995,-0.035942078,0.013046265,-0.031814575,0.004119995,0.003934326,1.006378412
4.454621,0.055610657,-0.009841919,-0.054702759,0.004730347,0.000272216,1.009063959
4.455247,0.086128235,-0.032730103,-0.016555786,0.002899292,-0.004488526,1.005645990
4.455872,0.154792786,-0.086135864,0.074996948,0.003753784,0.001004638,1.001739740
4.456499,0.055610657,0.127487183,-0.047073364,-0.002715942,0.001126708,1.003937006
4.457124,0.093757629,0.013046265,-0.039443970,0.003265503,-0.004366456,0.999664545
4.457751,0.124275208,0.158004761,-0.085220337,0.003143433,-0.001192627,1.000641108
4.458378,0.047981262,0.058822632,-0.077590942,0.001678589,0.006864013,0.999786615
4.459008,-0.035942078,0.226669312,-0.153884888,0.000824097,-0.007418213,0.992584467
4.459634,-0.074089050,0.081710815,0.128402710,-0.004669067,-0.007418213,0.989044428
4.460261,0.078498840,-0.078506470,-0.039443970,-0.002838013,-0.001070557,0.991485834
4.460886,0.154792786,0.135116577,-0.108108521,-0.001617310,-0.003389893,0.990509272
4.461513,-0.051200867,0.226669312,-0.130996704,-0.001983521,-0.015596924,0.991485834
4.462139,0.109016418,-0.185317993,0.013961792,-0.006378052,-0.010347901,0.993561029
4.462764,0.101387024,-0.269241333,0.006332397,-0.006744263,0.000272216,0.994049311
4.463390,0.124275208,-0.147171021,-0.199661255,-0.002105591,0.000516357,0.991729975
4.464015,0.177680969,-0.116653442,0.052108765,0.001434448,-0.005098877,0.990875483
4.464640,0.177680969,-0.528640747,-0.031814575,-0.005767700,-0.007418213,0.992096186
4.465266,0.055610657,-0.360794067,0.021591187,-0.008087036,-0.004122315,0.995758295
4.465893,0.223457336,-0.383682251,-0.260696411,-0.001739380,-0.003145752,0.998687983
4.466520,0.429450989,-0.315017700,-0.008926392,0.006073120,0.001492919,0.999664545
4.467146,0.383674622,-0.498123169,0.113143921,0.000213745,0.003934326,0.998443842
4.467773,0.170051575,-0.383682251,-0.024185181,0.000579956,0.001126708,0.999786615
4.468399,0.025093079,-0.383682251,0.158920288,0.005096558,0.000028076,1.001007318
4.469025,0.109016418,-0.070877075,-0.031814575,0.002899292,-0.000948487,1.001129389
4.469651,-0.005424500,-0.292129517,0.097885132,0.003997925,0.002225341,1.001739740
4.470277,0.040351868,-0.337905884,-0.092849731,-0.000030396,-0.000948487,1.005523920
4.470904,-0.142753601,0.043563843,0.036849976,0.004608276,0.001004638,1.006622553
4.471529,0.147163391,-0.177688599,0.036849976,0.005584839,0.000150146,1.010895014
4.472156,-0.165641785,-0.147171021,-0.001296997,0.002533081,-0.004366456,1.009796381
4.474063,-0.074089050,0.020675659,0.166549683,0.002044800,-0.002169190,1.009063959
4.474689,-0.028312683,-0.017471313,0.074996948,0.001190308,-0.001802979,1.010040522
4.475315,0.124275208,-0.185317993,-0.130996704,0.002288940,0.000150146,1.010162592
4.475941,-0.051200867,-0.215835571,0.074996948,0.002533081,0.002469482,1.009308100
4.476566,0.215827942,0.020675659,0.044479370,0.003875854,-0.001192627,1.008331537
4.477191,0.063240051,0.142745972,-0.031814575,0.004119995,-0.001070557,1.007843256
4.477816,-0.051200867,0.013046265,-0.008926392,0.002288940,0.000150146,1.006744623
4.478442,-0.158012390,0.058822632,0.013961792,-0.000396607,-0.000338135,1.005890131
4.479067,-0.119865417,0.096969604,0.105514526,0.003753784,-0.000704346,1.006378412
4.479693,-0.058830261,0.127487183,0.151290894,0.001678589,0.003446044,1.006378412
4.492388,0.047981262,0.043563843,0.280990601,0.000946167,0.002469482,1.008453608
4.493121,-0.150382996,0.234298706,-0.077590942,0.000702026,0.001126708,1.006744623
4.493747,-0.211418152,0.249557495,-0.085220337,0.003265503,-0.000338135,1.007110834
4.494372,-0.020683289,0.394515991,0.120773315,0.000946167,-0.001680909,1.004303217
4.494997,0.047981262,0.356369019,-0.161514282,0.002288940,0.002103271,1.006378412
4.495623,-0.035942078,0.203781128,0.006332397,0.001922729,0.003934326,1.002228022
4.496248,0.002204895,0.325851440,0.074996948,0.000824097,-0.001802979,1.002472162
4.496875,-0.020683289,0.333480835,0.082626343,0.004242065,0.000760498,1.004425287
4.497502,0.017463684,0.272445679,0.105514526,0.001922729,-0.001070557,1.001739740
4.498129,0.009834290,0.363998413,0.059738159,0.000091675,-0.000093995,1.001739740
4.498754,0.154792786,0.241928101,-0.123367310,-0.002105591,0.000150146,0.999054193
4.499379,0.025093079,0.142745972,0.052108765,0.002044800,-0.002901612,1.000030756
4.500009,-0.035942078,0.196151733,-0.306472778,0.000091675,-0.002535401,0.995636225
