time,gyro x,gyro y,gyro z,accel x,accel y,accel z
180.031402,-4.587057590,3.746014357,-31.345329285,-0.105971314,0.040855788,1.009841561
180.032204,-4.617575169,3.738384962,-31.360588074,-0.108901002,0.041466139,1.004226327
180.032831,-4.793051243,3.875714064,-31.497917175,-0.108168580,0.042076491,1.003371835
180.033458,-4.945639133,3.654461622,-31.398735046,-0.109389283,0.042564772,0.999709725
180.034084,-4.831198215,3.913861036,-31.269035339,-0.110609986,0.045006178,0.997512460
180.034709,-4.808310032,3.898602247,-31.406364441,-0.114760377,0.049766921,0.993728280
180.035334,-4.754904270,3.776531935,-31.406364441,-0.112807252,0.051475905,0.987990975
180.035960,-4.762533665,3.570538282,-31.139335632,-0.114027955,0.052940749,0.986281991
180.036585,-4.983786106,3.524761915,-31.223258972,-0.116469361,0.052940749,0.982253671
180.037211,-4.869345188,3.349285841,-31.322441101,-0.117567994,0.055015944,0.980422616
180.037837,-4.770163059,3.181439161,-31.215629578,-0.117079712,0.055504225,0.978347421
180.038463,-4.861715794,3.166180372,-31.215629578,-0.117934205,0.054649733,0.972365975
180.039090,-4.724386692,2.929669142,-31.421623230,-0.118788697,0.057213210,0.968948007
180.039717,-4.709127903,2.632122755,-31.436882019,-0.120985962,0.059288405,0.961501718
180.041446,-4.449728489,1.762371778,-31.230888367,-0.123427369,0.060875319,0.952346444
180.042071,-4.403952122,1.502972364,-31.368217468,-0.122817017,0.058922194,0.955031991
180.042697,-4.144552708,1.075726271,-31.734428406,-0.122572877,0.059654616,0.951003671
180.043322,-4.182699680,0.823956251,-31.482658386,-0.119887330,0.064537428,0.951247811
180.043949,-3.686789036,0.396710157,-31.726799011,-0.115492798,0.060264967,0.949660897
180.044574,-3.633383274,0.129681349,-31.696281433,-0.113905884,0.062706374,0.943923593
180.045201,-3.480795383,-0.160235643,-31.749687195,-0.116469361,0.061851881,0.945022225
180.045826,-3.343466282,-0.534075975,-31.711540222,-0.112929322,0.066124342,0.950515389
180.046452,-2.961996555,-1.029986620,-31.871757507,-0.113539673,0.064293288,0.945754647
180.047079,-2.786520481,-1.426715136,-31.963310242,-0.107680298,0.066246413,0.949050546
180.047705,-2.542379856,-1.396197557,-31.764945984,-0.107680298,0.068199538,0.946120858
180.048331,-2.397421360,-1.899737597,-31.986198425,-0.102187134,0.070396803,0.948073983
180.048957,-2.321127415,-2.189654589,-31.970939636,-0.101088502,0.071007155,0.952590585
180.049582,-2.046469212,-2.349871874,-31.871757507,-0.101088502,0.071983717,0.955276132
180.050209,-1.756552219,-2.693194628,-32.115898132,-0.097426392,0.073326491,0.958205819
180.051927,-1.535299778,-3.471392870,-32.237968445,-0.092909791,0.078209303,0.962966561
180.052554,-1.397970676,-3.669757128,-32.123527527,-0.093642212,0.079674147,0.965652108
180.053180,-1.092794895,-3.982562304,-32.108268738,-0.092421509,0.080284499,0.969680429
180.053806,-1.214865208,-3.929156542,-32.031974792,-0.089247681,0.083580397,0.971267343
180.054432,-1.336935520,-4.219073296,-32.390556335,-0.090834595,0.085289381,0.977737069
180.055058,-1.085165501,-4.249590874,-32.215080261,-0.085097291,0.085777663,0.977614999
180.055685,-1.092794895,-4.585284233,-32.146415710,-0.085341431,0.089928053,0.979934335
180.056311,-1.314047337,-4.585284233,-32.268486023,-0.083266236,0.090050124,0.984084725
180.056937,-1.100424290,-4.653948784,-32.230339050,-0.080702759,0.089561842,0.987014413
180.057563,-0.955465734,-4.684466362,-32.253227234,-0.080824830,0.091514967,0.990676522
180.058190,-1.191977024,-4.936236382,-32.443962097,-0.077651002,0.093834303,0.991531014
180.058816,-1.153830051,-5.004900932,-32.215080261,-0.075942017,0.096275710,0.995193124
180.059442,-1.191977024,-4.959124565,-32.474479675,-0.076918580,0.094444655,0.996657968
180.060067,-1.253012180,-5.081194878,-32.451591492,-0.073500611,0.096153639,0.999099374
180.060693,-1.260641575,-5.020159721,-32.466850281,-0.071913697,0.098472975,1.000320077
180.062421,-1.237753391,-4.974383354,-32.665214539,-0.068617798,0.097618483,1.004714608
180.063047,-1.207235813,-5.050677299,-32.535514832,-0.068007447,0.096886061,1.006423593
180.063673,-1.207235813,-5.004900932,-32.695732117,-0.062758423,0.096886061,1.006789804
180.077617,3.950234890,-4.348773003,-33.664665222,-0.029799439,0.140221030,1.038283944
180.078342,4.209634304,-4.287737846,-33.550224304,-0.028090455,0.145225912,1.038283944
180.078968,4.171487331,-4.287737846,-33.763847351,-0.026625611,0.149254233,1.039382577
180.079593,4.415627956,-4.150408745,-33.939323425,-0.029799439,0.152061850,1.043410897
180.080219,4.377480984,-4.081744194,-33.809623718,-0.028700806,0.156944662,1.044143319
180.080845,4.407998562,-3.822345018,-34.168205261,-0.026747681,0.161705405,1.043166757
180.081471,4.636880398,-3.822345018,-34.061393738,-0.026625611,0.165367514,1.047195077
180.082097,4.415627956,-3.738421679,-34.236869812,-0.030409791,0.170128256,1.044997811
180.082723,4.278298855,-3.578204393,-34.351310730,-0.027358033,0.177208334,1.048415780
180.083350,4.346963406,-3.578204393,-34.328422546,-0.026503541,0.179039389,1.053298593
180.083975,4.057046413,-3.341693163,-34.404716492,-0.024672486,0.185753256,1.053542733
180.084600,3.889199734,-3.440875292,-34.564933777,-0.023695923,0.188560873,1.052199960
180.085226,3.477212429,-2.960223436,-34.809074402,-0.024062134,0.193565756,1.053176522
180.085852,3.072854519,-2.868670702,-35.068473816,-0.019667603,0.201500326,1.053054452
180.087584,2.073403835,-2.441424608,-35.266838074,-0.022719361,0.212974936,1.060134530
180.088210,1.722451687,-2.212542772,-35.320243835,-0.021376587,0.216148764,1.061111093
180.088836,1.264688015,-2.151507616,-35.564384460,-0.020766236,0.221153647,1.059280038
180.089463,0.974771082,-1.922625780,-35.381278992,-0.021254517,0.224937826,1.064162850
180.090088,0.333901942,-1.670855761,-35.907707214,-0.019667603,0.225670248,1.062453866
180.090715,-0.093344152,-1.457232714,-35.961112976,-0.018935181,0.228111655,1.062087655
180.091340,-0.604513586,-1.441973925,-35.999259949,-0.023695923,0.234581381,1.060866952
180.091965,-0.955465734,-1.129168749,-36.281547546,-0.020400025,0.236290365,1.061355233
180.092592,-1.733664036,-0.938433886,-36.319694519,-0.016005494,0.235313803,1.059035897
180.093217,-2.229574680,-0.831622362,-36.464653015,-0.019667603,0.238121420,1.058791757
180.093842,-2.687338352,-0.518817186,-36.907157898,-0.018691041,0.240074545,1.055495858
180.094467,-3.366354465,-0.404376268,-36.869010925,-0.018691041,0.244347006,1.054031014
180.095093,-3.915670872,-0.427264452,-36.952934265,-0.018324830,0.245323569,1.052688241
180.095719,-4.373434544,-0.144976854,-37.166557312,-0.022353150,0.248253256,1.050002694
180.096345,-5.029562473,0.183087111,-37.250480652,-0.020522095,0.248131186,1.046828866
180.098070,-6.616476536,0.114422560,-37.761650085,-0.021376587,0.251305014,1.043532968
180.098696,-7.150534153,0.305157423,-38.051567078,-0.023573853,0.254722983,1.039138436
180.099321,-7.730368137,0.343304396,-38.364372253,-0.022719361,0.252525717,1.036208749
180.099946,-8.027914047,0.205975294,-38.272819519,-0.024672486,0.249718100,1.033279061
180.100571,-8.630636215,0.457745314,-38.478813171,-0.025404908,0.250328451,1.027053475
180.101197,-9.019735336,0.320416212,-38.783988953,-0.029311158,0.248497397,1.021804452
180.101823,-9.271505356,0.083904982,-39.035758972,-0.026747681,0.247764975,1.021560311
180.102448,-9.584310532,0.137310743,-39.051017761,-0.031020142,0.243248373,1.015823007
180.103074,-9.828451157,0.061016798,-39.516410828,-0.035048462,0.244469076,1.011062264
180.103701,-10.263326645,-0.144976854,-39.493522644,-0.033705689,0.244957358,1.006179452
180.104327,-10.492208481,-0.312823534,-39.707145691,-0.034560181,0.241783530,1.005691171
180.104953,-10.507467270,-0.282305956,-39.829216003,-0.039320923,0.239952475,0.999465585
180.105578,-10.568502426,-0.823992968,-40.142021179,-0.039076783,0.238853842,0.992507577
180.106203,-10.675313950,-0.938433886,-40.348014832,-0.037856080,0.234459311,0.991286874
180.106830,-10.751607895,-1.174945116,-40.286979675,-0.040541627,0.235557944,0.988845468
180.108550,-10.698202133,-1.678485155,-40.965995789,-0.042372681,0.227379233,0.984084725
180.109177,-10.545614243,-2.059954882,-40.752372742,-0.039931275,0.230308920,0.983474374
180.109802,-10.240438461,-2.288836718,-41.324577332,-0.036391236,0.226158530,0.980178475
180.129822,-3.190878391,-12.725848198,-45.886955261,-0.041151978,0.133995444,0.980666757
180.130555,-3.084066868,-13.015765190,-45.963249207,-0.040663697,0.127159506,0.980666757
180.131182,-2.580526829,-13.214129448,-46.062431335,-0.042494752,0.125938803,0.981765389
180.131809,-2.687338352,-13.298052788,-46.184501648,-0.042006470,0.120445631,0.981399179
180.132434,-2.473715305,-13.687151909,-46.024284363,-0.043837525,0.117271803,0.982864022
180.133059,-2.168539524,-13.999957085,-46.260795593,-0.040663697,0.113975905,0.985183358
180.133685,-2.008322239,-14.175433159,-45.848808289,-0.039809205,0.110802077,0.984450936
180.134310,-1.924398899,-14.221209526,-46.176872253,-0.036391236,0.108116530,0.988723397
180.134937,-1.550558567,-14.472979546,-46.054801941,-0.035780884,0.102135085,0.988357186
180.135563,-1.474264622,-14.656085014,-46.161613464,-0.034071900,0.102745436,0.992507577
180.136188,-1.291159153,-14.915484428,-46.085319519,-0.033705689,0.099937819,0.994704843
180.136813,-1.230123997,-14.999407768,-45.947990417,-0.033339478,0.096397780,0.995315194
180.137438,-1.191977024,-15.121478081,-46.123466492,-0.033217408,0.092979811,0.999221444
180.138065,-1.069906712,-15.235918999,-46.100578308,-0.028090455,0.092979811,0.999343514
180.139783,-1.054647923,-15.411395073,-46.115837097,-0.024428345,0.088829421,1.009109139
180.140409,-1.245382786,-15.693682671,-45.978507996,-0.030043580,0.083214186,1.010940194
180.141034,-1.260641575,-15.754717827,-45.917472839,-0.031264283,0.083580397,1.012771249
180.141659,-1.291159153,-15.586871147,-45.978507996,-0.030898072,0.082847975,1.017287850
180.142284,-1.474264622,-15.625018120,-45.879325867,-0.031508423,0.080162428,1.017898202
180.142911,-1.909140110,-15.731829643,-45.803031921,-0.032729127,0.081993483,1.023513436
180.143537,-1.993063450,-15.617388725,-45.757255554,-0.031874634,0.075645827,1.025344491
180.144163,-2.252462864,-15.380877495,-45.604667664,-0.032362916,0.074913405,1.028884530
180.144788,-2.488974094,-15.312212944,-45.337638855,-0.031874634,0.075157546,1.030837655
180.145413,-2.717855930,-15.258807182,-45.352897644,-0.029555298,0.073448561,1.034621835
180.146040,-2.954367161,-15.083331108,-45.505485535,-0.030898072,0.072227858,1.039626718
180.146667,-3.396872044,-14.961260796,-45.391044617,-0.030653931,0.070030592,1.041091561
180.147293,-3.854635715,-14.915484428,-45.101127625,-0.032607056,0.071983717,1.042556405
180.147919,-4.098776340,-14.686602592,-44.994316101,-0.032729127,0.066124342,1.043655038
180.148544,-4.785421848,-14.511126518,-45.078239441,-0.034926392,0.063194655,1.043288827
180.150288,-5.472067356,-14.381426811,-44.757804871,-0.037123658,0.057823561,1.043044686
180.150913,-5.792501926,-14.320391655,-44.765434265,-0.038222291,0.055626296,1.040969491
180.151540,-6.219748020,-14.122027397,-44.345817566,-0.039931275,0.055504225,1.042678475
180.152167,-6.662252903,-14.030474663,-44.582328796,-0.043837525,0.049400710,1.039748788
180.152792,-6.860617161,-13.740557671,-44.208488464,-0.043959595,0.047569655,1.036330819
180.153419,-7.356527805,-13.732928276,-44.177970886,-0.048232056,0.042686842,1.038283944
180.154044,-7.715109348,-13.641375542,-44.223747253,-0.051772095,0.039757155,1.032058358
180.154669,-7.783773899,-13.542193413,-43.788871765,-0.053481080,0.037071608,1.031203866
180.155296,-8.211019516,-13.557452202,-43.872795105,-0.058852173,0.038658522,1.025954843
180.155923,-8.386495590,-13.427752495,-43.651542664,-0.059462525,0.032310866,1.022414804
180.156548,-8.645895004,-13.496417046,-43.445549011,-0.062758423,0.027550124,1.021926522
180.157175,-8.798482895,-13.908404350,-43.476066589,-0.065077759,0.028160475,1.017165780
180.157800,-8.829000473,-13.809222221,-43.231925964,-0.067275025,0.025474928,1.011794686
180.158427,-8.996847153,-13.885516167,-43.132743835,-0.065077759,0.025108717,1.011428475
180.159052,-9.012105942,-13.969439507,-43.010673523,-0.066420533,0.023521803,1.010573983
180.160784,-9.103658676,-14.411944389,-42.606315613,-0.070815064,0.024498366,1.004470468
180.161409,-8.981588364,-14.579791069,-42.438468933,-0.071547486,0.020958327,1.003249764
180.175661,-11.072042465,-16.769428253,-39.386711121,-0.075697877,0.038292311,1.033156991
180.176391,-11.018636703,-17.066974640,-39.272270203,-0.076552369,0.039757155,1.033401132
180.177018,-10.797384262,-17.005939484,-39.249382019,-0.076552369,0.042686842,1.031081796
180.177643,-11.011007309,-17.044086456,-39.279899597,-0.075087525,0.044395827,1.033279061
180.178268,-10.713460922,-17.059345245,-38.883171082,-0.072157837,0.045006178,1.031448007
180.178893,-10.614278793,-17.356891632,-39.234123230,-0.072401978,0.044395827,1.033767343
180.179519,-10.560873032,-17.219562531,-38.913688660,-0.075209595,0.048546217,1.036452889
180.180145,-10.232809067,-17.303485870,-38.898429871,-0.073256470,0.050011061,1.033401132
180.180772,-10.385396957,-17.311115265,-38.661918640,-0.073256470,0.051842116,1.037185311
180.181399,-10.133626938,-17.654438019,-38.661918640,-0.072157837,0.052940749,1.035110116
180.182024,-9.935262680,-17.616291046,-38.494071960,-0.073012330,0.054039381,1.038283944
180.182651,-9.813192368,-17.745990753,-38.372001648,-0.075209595,0.058678053,1.040603280
180.183276,-9.645345688,-17.547626495,-38.364372253,-0.069716431,0.060997389,1.041946054
180.183903,-9.492757797,-17.883319855,-38.272819519,-0.069838502,0.063682936,1.044021249
180.185641,-9.187582016,-18.135089874,-38.097343445,-0.068373658,0.072960280,1.050613046
180.186268,-9.057882309,-18.302936554,-38.166007996,-0.066664673,0.075279616,1.051467538
180.186895,-8.920553207,-18.455524445,-38.188896179,-0.067275025,0.077843092,1.057082772
180.187522,-8.897665024,-18.280048370,-37.723503113,-0.065932252,0.083580397,1.060378671
180.188149,-8.966329575,-18.592853546,-37.990531921,-0.065932252,0.083580397,1.062331796
180.188774,-8.897665024,-18.661518097,-37.891349792,-0.062880494,0.084679030,1.063796639
180.189399,-8.684041977,-18.577594757,-37.906608582,-0.060561158,0.090660475,1.067458749
180.190024,-8.607748032,-18.730182648,-37.754020691,-0.060805298,0.092369460,1.070510507
180.190650,-8.539083481,-18.775959015,-37.830314636,-0.058730103,0.095665358,1.071242929
180.191277,-8.493307114,-18.638629913,-37.738761902,-0.053359009,0.097496413,1.074782968
180.191904,-8.668783188,-18.585224152,-37.670097351,-0.052748658,0.100548171,1.078323007
180.192530,-8.439901352,-18.615741730,-37.448844910,-0.051283814,0.099449538,1.081618905
180.193157,-8.439901352,-18.753070831,-37.425956726,-0.049208619,0.100792311,1.083694100
180.193782,-8.386495590,-18.684406281,-37.494621277,-0.049208619,0.101158522,1.087356210
180.194408,-7.921103001,-18.707294464,-37.410697937,-0.047133423,0.101890944,1.091750741
180.196137,-8.012655258,-18.394489288,-37.548027039,-0.045546509,0.104942702,1.100661874
180.196764,-7.768515110,-18.272418976,-37.433586121,-0.043959595,0.106895827,1.102981210
180.197391,-7.707479954,-18.241901398,-37.464103699,-0.039565064,0.108238600,1.107864022
180.198018,-7.532003880,-17.784137726,-37.250480652,-0.038588502,0.106895827,1.114944100
180.198644,-7.470968723,-17.776508331,-37.364921570,-0.035536744,0.110191725,1.117507577
180.199269,-7.448080540,-17.562885284,-37.105522156,-0.035902955,0.110924147,1.121291757
180.199896,-7.287863255,-17.372150421,-37.273368835,-0.034316041,0.109093092,1.128005624
180.200521,-7.303122044,-17.074604034,-37.418327332,-0.033949830,0.112755202,1.126174569
180.201148,-7.020834446,-17.089862823,-37.189445496,-0.031996705,0.111046217,1.130447030
180.201775,-6.799582005,-16.670246124,-36.998710632,-0.029189087,0.110069655,1.131911874
180.202401,-6.761435032,-16.365070343,-37.197074890,-0.027968384,0.112633131,1.133742929
180.203026,-6.494406223,-16.319293976,-37.006340027,-0.024672486,0.114708327,1.141189218
180.203652,-6.502035618,-15.892046928,-37.143669128,-0.024672486,0.116905592,1.143142343
180.204279,-6.318930149,-15.304583549,-37.075004578,-0.026625611,0.118370436,1.146560311
180.204904,-6.120565891,-15.014666557,-36.853752136,-0.022963502,0.118980788,1.150100350
180.206675,-5.426290989,-14.144915581,-36.914787292,-0.015028931,0.123619460,1.156570077
180.207411,-5.319479465,-13.809222221,-36.907157898,-0.014906861,0.124962233,1.152785897
180.222174,-5.853537083,-4.646319389,-37.410697937,0.007432006,0.189049155,1.157668710
180.222907,-6.250265598,-4.386919975,-37.311515808,0.009873413,0.189659506,1.160232186
180.223532,-6.700399876,-4.051226616,-37.372550964,0.010727905,0.194908530,1.159499764
180.224157,-7.181051731,-3.562945604,-37.570915222,0.016465209,0.197594076,1.162429452
180.224784,-7.844809055,-3.173846483,-37.570915222,0.014023803,0.199669272,1.163894296
180.225410,-8.157613754,-2.670306444,-37.670097351,0.017075561,0.201256186,1.163406014
180.226036,-8.775594711,-2.334613085,-37.731132507,0.019516967,0.203087240,1.162551522
180.226663,-9.584310532,-1.686114550,-37.700614929,0.020859741,0.206016928,1.164382577
180.227288,-9.813192368,-1.457232714,-37.807426453,0.018418334,0.209312826,1.163406014
180.227914,-10.743978500,-0.854510546,-37.815055847,0.019272827,0.209312826,1.159743905
180.228540,-11.621358871,-0.473040819,-37.738761902,0.022324584,0.209434897,1.161208749
180.229166,-12.193563461,0.122051954,-37.563285828,0.021103881,0.210411459,1.158889413
180.229791,-12.582662582,0.427227736,-38.005790710,0.021836303,0.209190756,1.157912850
180.230418,-13.391378403,0.724774122,-38.066825867,0.020005248,0.211510092,1.157058358
180.232143,-15.115621567,1.884442091,-38.166007996,0.019394897,0.203697592,1.143874764
180.232769,-15.725973129,2.220135450,-38.127861023,0.022202514,0.202354819,1.135451913
180.233395,-16.107442856,2.822857618,-38.143119812,0.018784545,0.200401694,1.134841561
180.234021,-16.603353500,2.998333693,-38.143119812,0.017807983,0.200767905,1.126418710
180.234646,-16.710165024,3.219586134,-38.433036804,0.020249389,0.198692709,1.122512460
180.235271,-17.106893539,3.478985548,-38.410148621,0.017685913,0.195885092,1.113357186
180.235897,-17.274740219,3.852825880,-38.577995300,0.014756225,0.191734701,1.112624764
180.236524,-17.534139633,3.601055861,-38.394889832,0.013779663,0.188927084,1.103713632
180.237149,-17.724874496,4.219037056,-38.303337097,0.013169311,0.187828451,1.097610116
180.237774,-17.701986313,4.257184029,-38.700065613,0.012314819,0.186119467,1.093459725
180.257098,-5.357626438,-2.464312792,-41.454277039,0.002793334,0.189903647,0.992141366
180.257723,-4.991415501,-2.700824022,-41.637382507,0.002305053,0.190025717,0.991897225
180.258348,-4.579428196,-2.998370409,-41.515312195,-0.000014283,0.186851889,0.991775155
180.258974,-4.114035130,-3.463763475,-41.805229187,0.000840209,0.189537436,0.988235116
180.259599,-3.465536594,-3.967303514,-41.873893738,-0.001601197,0.184776694,0.984695077
180.260224,-3.175619602,-4.219073296,-41.973075867,-0.003188111,0.182823569,0.986159921
180.260850,-2.557638645,-4.730242729,-42.087516785,-0.004775025,0.180382162,0.988235116
180.261475,-1.977804661,-5.256670952,-42.110404968,-0.005263306,0.180992514,0.983596444
180.262100,-1.428488255,-5.668658257,-42.346916199,-0.006484009,0.175865561,0.980300546
180.262727,-0.741842687,-6.149310112,-42.285881042,-0.008803345,0.177208334,0.982986093
180.263352,-0.467184484,-6.637591362,-42.552909851,-0.006117798,0.175377280,0.983718514
180.263978,0.349160731,-6.790179253,-42.659721375,-0.008559205,0.171593100,0.982375741
180.264603,1.043435574,-7.614153862,-42.797050476,-0.009413697,0.170982748,0.982009530
180.265229,1.417275906,-8.010882378,-42.736015320,-0.009779908,0.164513022,0.982375741
180.265856,2.050515652,-8.598345757,-42.934379578,-0.003554322,0.164879233,0.981277108
180.267568,3.194924831,-9.498614311,-43.048820496,-0.002455689,0.159752280,0.985915780
180.268194,3.919717312,-9.864825249,-43.361625671,-0.004042603,0.158287436,0.986281991
180.268820,4.369851589,-10.345477104,-43.369255066,-0.003066041,0.151207358,0.986648202
180.269447,5.079385281,-10.688799858,-43.300590515,-0.002333619,0.148155600,0.987014413
180.270073,5.605813503,-11.100787163,-43.323478699,-0.000502564,0.147056967,0.991286874
180.270698,6.452676296,-11.543292046,-43.506584167,-0.002821900,0.141807944,0.993239999
180.271323,6.689187527,-12.008685112,-43.460807800,-0.001357056,0.139610678,0.994338632
180.271948,7.207986355,-12.496966362,-43.773612976,0.000351928,0.135826498,1.001174569
180.285943,7.055398464,-13.572710991,-42.461357117,0.015610717,0.088707350,1.086989999
180.286683,6.521340847,-13.496417046,-42.499504089,0.015488647,0.084312819,1.089675546
180.287310,5.964395046,-13.214129448,-42.110404968,0.012803100,0.083336256,1.094680429
180.287937,5.392190456,-13.221758842,-42.194328308,0.007920288,0.078941725,1.095534921
180.288562,4.911538601,-13.046282768,-41.934928894,0.002793334,0.078697585,1.098220468
180.289187,4.362222195,-12.939471245,-41.904411316,0.003281616,0.073204421,1.097976327
180.289812,3.843423367,-12.466448784,-41.637382507,0.001328491,0.070518874,1.095779061
180.290437,3.088113308,-12.496966362,-41.324577332,-0.000502564,0.070396803,1.098342538
180.291062,2.798196316,-12.176531792,-41.385612488,-0.001234986,0.069298171,1.099441171
180.291688,2.203103542,-12.260455132,-41.240653992,0.001206420,0.065391921,1.099929452
180.292313,1.478311062,-11.970538139,-41.171989441,0.000840209,0.060387038,1.100783944
180.292939,1.333352566,-11.680621147,-40.729484558,0.005356811,0.058433913,1.102370858
180.293565,0.829812586,-11.428851128,-40.653190613,0.005723022,0.054283522,1.103469491
180.294190,0.036355555,-11.474627495,-40.500602722,0.001328491,0.050865553,1.106277108
180.295923,-1.420858860,-10.345477104,-40.088615417,0.003769897,0.040611647,1.114455819
180.296550,-2.092245579,-10.253924370,-39.890251160,0.003891967,0.036705397,1.117507577
180.297176,-2.473715305,-9.780901909,-39.676628113,0.006089233,0.030479811,1.123855233
180.297801,-3.061178684,-9.567278862,-39.646110535,0.006699584,0.025719069,1.122390389
180.298426,-3.564718723,-9.155291557,-39.340934753,0.004502319,0.023643874,1.125442147
180.299052,-4.052999973,-8.842486382,-38.921318054,0.004868530,0.020225905,1.132278085
180.299677,-4.548910618,-8.430499077,-38.761100769,0.001938842,0.015465163,1.127883554
180.300302,-5.205038548,-8.148211479,-38.555107117,0.000962280,0.007164381,1.133864999
180.300927,-5.479696751,-7.659930229,-38.295707703,-0.000014283,0.007652663,1.134109139
180.301553,-6.021383762,-7.324236870,-38.288078308,-0.003432252,0.002159499,1.133010507
180.302178,-6.471518040,-7.286089897,-37.868461609,-0.006117798,-0.006019212,1.132644296
180.302803,-6.753805637,-6.629961967,-37.609062195,-0.002333619,-0.010779954,1.129592538
180.303429,-7.066610813,-6.019610405,-37.395439148,-0.009413697,-0.014319994,1.130080819
180.304054,-7.364157200,-5.538958549,-37.166557312,-0.008681275,-0.020545579,1.127517343
180.304681,-7.486227512,-5.645770073,-36.830863953,-0.014174439,-0.024085619,1.123977304
180.306406,-8.058431625,-4.104632378,-35.785636902,-0.017104127,-0.035071947,1.117995858
180.307031,-8.104207993,-3.913897753,-35.648307800,-0.021864869,-0.041541673,1.118362069
180.307657,-8.172872543,-3.540057421,-35.373649597,-0.022719361,-0.039466478,1.114333749
180.308282,-8.050802231,-3.173846483,-35.045585632,-0.025893189,-0.043861009,1.115676522
180.308908,-8.439901352,-2.906817675,-34.679374695,-0.025771119,-0.045936204,1.110183358
180.309534,-8.233907700,-2.738970995,-34.694633484,-0.025771119,-0.045692064,1.108352304
180.310160,-8.279684067,-2.388018847,-34.130058289,-0.029067017,-0.047401048,1.104934335
180.310785,-8.081319809,-2.052325487,-34.038505554,-0.028944947,-0.050941087,1.102370858
180.311411,-8.119466782,-1.609820604,-33.641777039,-0.030531861,-0.051551439,1.099929452
180.312036,-8.066061020,-1.525897264,-33.359489441,-0.031874634,-0.051795579,1.097732186
180.312662,-8.096578598,-1.167315722,-32.970390320,-0.034071900,-0.051917650,1.093948007
180.313337,-8.012655258,-1.136798143,-32.573661804,-0.036391236,-0.053870775,1.092116952
180.313963,-8.264425278,-0.839251757,-32.459220886,-0.034804322,-0.053016283,1.089919686
180.314588,-8.104207993,-0.663775682,-32.154045105,-0.036635377,-0.051063158,1.086135507
180.315213,-7.974508762,-0.541705370,-31.871757507,-0.035414673,-0.049720384,1.081863046
180.316955,-7.852438450,0.038128614,-30.849418640,-0.039198853,-0.047156908,1.073318124
180.317581,-8.020284653,0.129681349,-30.811271667,-0.043227173,-0.045081712,1.073196054
180.332034,-7.638815403,1.289349318,-24.936637878,-0.045668580,-0.009803392,1.041823983
180.332770,-7.326010227,1.441937208,-24.890861511,-0.045912720,-0.010535814,1.041213632
180.333396,-7.165792942,1.274090528,-24.570426941,-0.046767212,-0.005653001,1.042922616
180.334021,-6.654623508,1.449566603,-24.639091492,-0.044692017,-0.001502611,1.039626718
180.334646,-6.578329563,1.640301466,-24.356803894,-0.043471314,-0.004188158,1.039138436
180.335273,-6.372335911,1.319866896,-24.120292664,-0.043471314,0.001060866,1.039992929
180.335898,-5.884054661,1.800518751,-24.059257507,-0.043593384,0.001671217,1.036697030
180.336523,-5.494955540,1.396160841,-23.799858093,-0.046767212,0.008263014,1.036574960
180.337149,-5.250814915,1.243572950,-23.769340515,-0.045180298,0.008995436,1.037551522
180.337776,-5.159262180,1.289349318,-23.670158386,-0.046767212,0.007774733,1.036574960
180.338401,-4.686239719,1.373272657,-23.502311707,-0.043593384,0.014610671,1.039382577
180.339026,-4.236105442,1.472454786,-23.281059265,-0.046278931,0.014976881,1.037551522
180.339652,-3.847006321,1.663189650,-23.387870789,-0.044325806,0.021446608,1.035964608
180.340277,-3.557089329,1.701336622,-23.006401062,-0.038710572,0.019005202,1.037917733
180.342003,-2.366903782,1.556378126,-22.586784363,-0.038710572,0.030479811,1.036697030
180.342629,-1.886251926,1.754742384,-22.563896179,-0.034804322,0.035606764,1.038894296
180.343255,-1.756552219,1.770001173,-22.464714050,-0.032362916,0.040977858,1.044143319
180.343881,-1.588705540,1.655560255,-22.495231628,-0.031874634,0.044639967,1.042190194
180.344508,-1.016500950,1.892071486,-22.144279480,-0.032362916,0.045860671,1.041457772
180.345133,-0.749472082,1.998883009,-22.304496765,-0.030409791,0.052574538,1.041579843
180.345758,-0.490072668,1.922589064,-22.182426453,-0.026991822,0.056969069,1.044021249
180.346384,-0.299337804,2.098065138,-21.930656433,-0.025526978,0.060753249,1.044021249
180.347016,-0.192526281,2.365093946,-22.182426453,-0.027358033,0.066612624,1.046950936
180.347641,0.173684657,2.250653028,-21.846733093,-0.027846314,0.068077467,1.046462655
180.348266,0.166055262,2.357464552,-21.778068542,-0.024672486,0.073326491,1.049026132
180.348891,0.219461024,2.639752150,-21.717033386,-0.023940064,0.077843092,1.050368905
180.349517,0.196572840,2.807598829,-21.694145203,-0.023817994,0.083458327,1.049514413
180.350142,0.387307703,3.089886427,-21.808586121,-0.023695923,0.083580397,1.050613046
180.350768,0.440713465,3.128033400,-21.564445496,-0.023207642,0.088096999,1.049148202
180.352502,0.082131922,3.440838575,-21.465263367,-0.020522095,0.100914381,1.049758554
180.353127,0.135537684,3.852825880,-21.381340027,-0.021254517,0.102989577,1.046828866
180.353752,-0.039938390,3.890972853,-21.556816101,-0.020155884,0.109459303,1.047561288
180.354379,-0.223043859,3.959637403,-21.244010925,-0.017592408,0.108604811,1.043532968
180.355004,-0.429037511,4.211407661,-21.244010925,-0.021254517,0.113243483,1.043410897
180.355630,-0.642660558,4.226666451,-21.388969421,-0.023329712,0.117882155,1.041213632
180.356256,-0.802877843,4.432660103,-21.251640320,-0.022963502,0.117760085,1.038894296
180.356881,-0.802877843,4.203778267,-21.320304871,-0.021254517,0.123497389,1.039626718
180.357506,-1.367453098,4.524212837,-21.259269714,-0.020155884,0.126305014,1.041091561
180.358132,-1.680258274,4.501324654,-21.327934265,-0.022231080,0.128013998,1.038528085
180.358758,-1.504782200,4.547101021,-21.190605164,-0.022841431,0.127647787,1.030959725
180.359383,-1.954916477,4.486065865,-21.411857605,-0.021742798,0.135338217,1.033156991
180.360017,-1.893881321,4.608136177,-21.175346375,-0.019667603,0.133140951,1.031692147
180.360643,-2.138021946,4.661541939,-21.335563660,-0.025649048,0.133995444,1.032180429
180.361268,-2.374533176,4.745465279,-21.266899109,-0.024428345,0.135094076,1.030837655
180.362997,-2.481344700,4.615765572,-21.427116394,-0.023573853,0.136925131,1.028640389
180.363623,-2.656820774,4.669171333,-21.289787292,-0.023085572,0.133873373,1.022781014
180.364250,-2.649191380,4.447918892,-21.472892761,-0.021986939,0.133873373,1.025466561
180.378180,3.606912136,5.973797798,-22.396049500,-0.010878541,0.122154616,1.055129647
180.378895,3.797646999,5.874615669,-22.411308289,-0.012099244,0.121422194,1.055129647
180.379520,4.003640652,5.966168404,-22.594413757,-0.013808228,0.120079421,1.051711679
180.380145,4.453774929,6.309491158,-22.533378601,-0.013930298,0.119591139,1.051833749
180.380770,4.507180691,6.576519966,-22.357902527,-0.016005494,0.118736647,1.050613046
180.381396,4.461404324,6.675702095,-22.441825867,-0.014052369,0.120689772,1.048537850
180.382023,4.705544949,6.957989693,-22.647819519,-0.012465455,0.120811842,1.047561288
180.382650,4.812356472,6.973248482,-22.647819519,-0.015273072,0.118492506,1.047073007
180.383275,5.163308620,7.232647896,-22.884330750,-0.014052369,0.119835280,1.044997811
180.383900,5.132791042,7.255536079,-22.617301941,-0.015151002,0.121178053,1.044997811
180.384526,5.315896511,7.446270943,-22.655448914,-0.012221314,0.120201491,1.044875741
180.385153,5.231973171,7.682782173,-22.655448914,-0.012465455,0.120201491,1.045364022
180.385778,5.140420437,7.652264595,-22.464714050,-0.010268189,0.123131178,1.039626718
180.386404,5.079385281,8.056622505,-22.693595886,-0.012099244,0.121666335,1.039626718
180.388145,4.919167995,8.377057076,-22.479972839,-0.005019166,0.126305014,1.042434335
180.388772,4.583474636,8.689862251,-22.563896179,-0.008070923,0.126060873,1.043044686
180.389399,4.186746120,9.078961372,-22.808036804,-0.003554322,0.123985671,1.044387460
180.390024,4.133340359,9.361248970,-22.609672546,-0.003188111,0.125694662,1.046706796
180.390649,3.698464870,9.582501411,-22.396049500,-0.003310181,0.128380209,1.046584725
180.391275,3.118630886,9.597760201,-22.754631042,-0.007460572,0.126793295,1.048537850
180.391901,2.500649929,10.063153267,-22.403678894,-0.009291627,0.125938803,1.051833749
180.392527,2.218362331,10.353070259,-22.243461609,-0.009047486,0.125816733,1.051101327
180.393154,1.165505886,10.597210884,-22.563896179,-0.011733033,0.123619460,1.052688241
180.393779,0.539895594,10.848980904,-22.403678894,-0.012709595,0.124473952,1.056350350
180.394405,-0.261190832,11.054974556,-22.174797058,-0.012465455,0.123253249,1.052199960
180.395032,-0.749472082,11.482220650,-22.312126160,-0.016615845,0.120933913,1.052688241
180.395658,-1.619223118,11.611920357,-22.151908875,-0.016737916,0.116539381,1.049392343
180.396283,-2.298239231,12.084942818,-22.006950378,-0.016982056,0.112511061,1.049514413
180.396909,-2.740744114,12.138348579,-22.022209167,-0.020644166,0.109947585,1.048293710
180.398639,-4.510763645,12.985211372,-21.671257019,-0.021986939,0.097984694,1.039626718
180.399265,-5.121115208,13.450604439,-21.701774597,-0.022963502,0.092247389,1.036330819
180.399890,-5.487326145,13.893109322,-21.701774597,-0.024550416,0.086998366,1.030105233
180.400515,-5.761984348,13.801556587,-21.549186707,-0.023940064,0.082115553,1.032668710
180.401142,-6.036642551,14.167767525,-21.480522156,-0.023573853,0.076866530,1.025222421
180.401768,-6.296041965,14.656048775,-21.297416687,-0.024550416,0.074669264,1.022781014
180.402395,-6.463888645,14.533978462,-21.152458191,-0.026381470,0.068443678,1.019973397
180.403020,-6.524923801,14.526349068,-21.274528503,-0.025649048,0.060753249,1.015456796
180.403646,-6.570700169,14.976483345,-21.129570007,-0.030409791,0.057091139,1.012771249
180.404271,-6.364706516,15.151959419,-21.068534851,-0.028944947,0.052818678,1.011184335
180.404898,-6.540182590,15.212994576,-20.832023621,-0.033339478,0.045250319,0.999343514
180.405523,-6.158712864,15.319806099,-20.793876648,-0.035780884,0.040855788,0.999587655
180.406149,-6.219748020,15.350323677,-20.595512390,-0.036391236,0.035118483,0.993728280
180.406775,-5.769613743,15.495282173,-20.412406921,-0.037856080,0.031334303,0.990188241
180.407400,-5.220297337,15.533429146,-20.191154480,-0.041518189,0.023765944,0.987990975
180.409116,-4.503134251,15.792828560,-20.000419617,-0.045302369,0.019005202,0.984695077
180.409742,-3.877523899,15.716534615,-19.985160828,-0.043471314,0.012535475,0.978835702
180.410367,-3.251913548,15.724164009,-19.916496277,-0.048109986,0.010216139,0.977126718
180.425126,10.610696793,14.602643013,-16.185722351,-0.065443970,0.000450514,0.922805429
180.425844,10.954019547,14.595013618,-16.033134460,-0.061171509,0.001671217,0.921950936
180.426469,11.266824722,14.610272408,-15.880546570,-0.064589478,0.004112624,0.916946054
180.427096,11.587259293,14.228802681,-15.766105652,-0.065932252,0.007774733,0.915969491
180.427721,11.602518082,14.129620552,-15.682182312,-0.067641236,0.013512038,0.915847421
180.428346,11.373636246,14.358502388,-15.224418640,-0.066542603,0.013023756,0.912429452
180.428971,11.648294449,14.053326607,-15.171012878,-0.066420533,0.013756178,0.912795663
180.429598,11.442300797,14.007550240,-15.232048035,-0.066420533,0.018883131,0.909499764
180.430224,11.579629898,13.656598091,-14.797172546,-0.070082642,0.024742506,0.906936288
180.430850,11.358377457,13.587933540,-14.675102234,-0.070692994,0.025719069,0.903884530
180.431477,11.381265640,13.481122017,-14.423332214,-0.067275025,0.030723952,0.904739022
180.432102,10.969278336,13.267498970,-14.331779480,-0.069228150,0.035118483,0.900832772
180.432727,10.748025894,13.160687447,-14.179191589,-0.070692994,0.036949538,0.898879647
180.433353,10.801431656,13.061505318,-13.896903992,-0.070448853,0.042442702,0.896316171
180.435071,9.840127945,12.229901314,-13.423881531,-0.069106080,0.056236647,0.893020272
180.435697,9.367105484,12.168866158,-13.156852722,-0.074477173,0.059410475,0.892654061
180.436323,9.107706070,12.077313423,-13.080558777,-0.073256470,0.064903639,0.889114022
180.436948,8.855936050,11.871319771,-12.912712097,-0.072524048,0.069420241,0.892531991
180.437574,8.306619644,11.657696724,-12.721977234,-0.071059205,0.075157546,0.889236093
180.438199,8.085367203,11.398297310,-12.866935730,-0.073744752,0.079796217,0.886184335
180.438826,7.406350613,11.177044868,-12.538871765,-0.070326783,0.083702467,0.885573983
180.439453,7.101174831,11.093121529,-12.645683289,-0.069594361,0.087486647,0.883742929
180.440080,6.628152370,10.978680611,-12.371025085,-0.071547486,0.092613600,0.886184335
180.440707,6.132241726,10.353070259,-12.103996277,-0.073866822,0.097984694,0.882400155
180.441333,5.735513210,10.337811470,-12.058219910,-0.070692994,0.102623366,0.878738046
180.441959,5.415078640,10.208111763,-12.157402039,-0.071303345,0.106163405,0.877761483
180.442585,4.789468288,9.857159615,-12.027702332,-0.070448853,0.110802077,0.878005624
180.443212,4.461404324,9.483319283,-12.020072937,-0.072646119,0.114586256,0.881057382
180.443837,4.041787624,9.437542915,-11.829338074,-0.070815064,0.118858717,0.876418710
180.445550,3.065225124,8.522015572,-11.676750183,-0.071669556,0.128380209,0.875198007
180.446176,2.706643581,8.140545845,-11.516532898,-0.070815064,0.129600912,0.873611093
180.446802,2.325173855,7.919293404,-11.669120789,-0.069228150,0.132896811,0.874099374
180.447429,2.088662624,7.377606392,-11.585197449,-0.071303345,0.137413412,0.873244882
180.448055,1.714822292,7.102948189,-11.463127136,-0.068251587,0.139732748,0.872146249
180.448680,1.882668972,6.713849068,-11.577568054,-0.070815064,0.146934897,0.872268319
180.449305,1.455422878,6.362896919,-11.493644714,-0.067641236,0.145103842,0.870803475
180.449930,1.272317410,6.225567818,-11.386833191,-0.070326783,0.145103842,0.870071054
180.450557,1.211282253,5.516034126,-11.493644714,-0.066664673,0.147301108,0.867263436
180.451182,1.134988308,5.348187447,-11.470756531,-0.067641236,0.149986655,0.867507577
180.451809,1.119729519,4.974347115,-11.539421082,-0.070082642,0.154625326,0.867263436
180.452435,1.302834988,4.524212837,-11.737785339,-0.068861939,0.157921225,0.865188241
180.453060,1.096841335,4.165631294,-11.623344421,-0.066542603,0.155968100,0.866286874
180.453685,1.218911648,3.807049513,-11.676750183,-0.067641236,0.160118490,0.865432382
180.454310,1.493569851,3.150921583,-11.669120789,-0.067641236,0.159141928,0.864944100
180.456026,1.974221706,2.059918165,-12.050590515,-0.071181275,0.161583334,0.865676522
180.456653,2.309915066,1.678448439,-11.981925964,-0.072035767,0.165245444,0.864822030
180.457279,2.760049343,1.152020216,-12.020072937,-0.072035767,0.165977865,0.866164804
180.457906,2.737161160,0.633221388,-12.210807800,-0.073866822,0.168297201,0.868117929
180.471820,11.297342300,-9.445208549,-14.331779480,-0.056776978,0.205162436,0.923904061
180.472532,11.343118668,-9.437579155,-14.438591003,-0.053481080,0.207970053,0.933303475
180.473159,11.190530777,-9.765643120,-14.575920105,-0.056532837,0.203941733,0.936477304
180.473784,10.923501968,-10.047930717,-14.690361023,-0.057509400,0.207481772,0.942947030
180.474411,11.152383804,-10.116595268,-14.804801941,-0.058363892,0.206261069,0.949538827
180.475036,10.976907730,-10.284441948,-14.850578308,-0.057021119,0.204430014,0.951003671
180.475663,10.824319839,-10.429400444,-14.858207703,-0.056654908,0.206383139,0.957107186
180.476288,10.496255875,-10.475176811,-14.873466492,-0.059340455,0.202965170,0.961623788
180.476914,10.267374039,-10.719317436,-15.048942566,-0.058119752,0.206138998,0.964187264
180.477539,10.007974625,-10.925311089,-14.896354675,-0.060439087,0.204430014,0.965896249
180.478166,9.534952164,-10.803240776,-15.216789246,-0.059706666,0.204185873,0.970046639
180.478792,9.130594254,-10.864275932,-15.148124695,-0.058608033,0.204430014,0.970168710
180.479417,9.000894547,-10.902422905,-15.232048035,-0.059218384,0.202232748,0.970779061
180.480043,8.695718765,-11.192339897,-15.354118347,-0.055800416,0.206016928,0.975173593
180.481791,7.551309109,-10.978716850,-15.392265320,-0.055556275,0.196007162,0.985183358
180.482417,7.238503933,-11.192339897,-15.682182312,-0.055190064,0.195640951,0.989577889
180.483042,6.849404812,-11.161822319,-15.392265320,-0.054701783,0.191124350,0.993484139
180.483667,6.704446316,-10.871905327,-15.682182312,-0.048720337,0.194908530,0.994826913
180.484292,6.116982937,-10.978716850,-15.636405945,-0.050917603,0.194786459,0.999709725
180.484919,5.582925320,-11.039752007,-15.674552917,-0.050551392,0.194298178,1.003615975
180.485544,5.178567410,-10.910052299,-15.811882019,-0.051772095,0.187950522,1.006545663
180.486169,4.797097683,-10.757464409,-15.445671082,-0.051283814,0.191368490,1.013015389
180.486794,4.423257351,-10.612505913,-15.773735046,-0.050185181,0.189903647,1.015945077
180.487421,3.805276394,-10.551470757,-15.796623230,-0.046034791,0.188194662,1.019851327
180.488046,3.324624538,-10.414141655,-15.644035339,-0.048232056,0.184166342,1.022414804
180.507345,-9.286764145,-2.304095507,-14.827690125,-0.069472291,0.118126296,1.028518319
180.507971,-9.309652328,-2.494830370,-14.957389832,-0.061781861,0.121300124,1.019118905
180.508596,-8.890035629,-2.662677050,-15.041313171,-0.048109986,0.120201491,1.005202889
180.509221,-8.073690414,-2.441424608,-14.659843445,-0.048476197,0.120445631,1.002517343
180.509847,-7.623556614,-2.006549120,-14.575920105,-0.060194947,0.114952467,0.998000741
180.510472,-7.196310520,-2.227801561,-14.629325867,-0.063857056,0.115074538,0.992873788
180.511098,-6.776693821,-2.494830370,-14.659843445,-0.057753541,0.118736647,0.993239999
180.511724,-6.196859837,-2.677935839,-14.385185242,-0.051894166,0.117027663,0.993239999
180.512350,-5.891684055,-2.380389452,-14.873466492,-0.050185181,0.120811842,0.994216561
180.512977,-5.555990696,-2.693194628,-14.263114929,-0.052016236,0.123863600,0.993239999
180.513602,-5.411032200,-2.754229784,-14.400444031,-0.058119752,0.123741530,0.995803475
180.514228,-5.159262180,-2.800006151,-14.476737976,-0.053603150,0.126671225,0.997268319
180.514854,-4.808310032,-3.089923143,-14.446220398,-0.052870728,0.132896811,0.999221444
180.515479,-4.556540012,-3.089923143,-14.240226746,-0.052138306,0.132774740,1.001296639
180.516105,-4.411581516,-3.074664354,-14.461479187,-0.052138306,0.134849936,1.004470468
180.517837,-4.190329075,-3.456134081,-14.255485535,-0.052748658,0.134849936,1.006789804
180.518462,-3.862265110,-3.654498339,-14.224967957,-0.051161744,0.137779623,1.013381600
180.519093,-3.557089329,-3.685015917,-14.125785828,-0.047621705,0.139610678,1.014358163
180.519719,-3.770712376,-3.768939257,-14.316520691,-0.049086548,0.142540365,1.013259530
180.520344,-3.450277805,-3.929156542,-14.125785828,-0.048232056,0.144493490,1.016189218
180.520969,-3.328207493,-3.814715624,-14.286003113,-0.050795533,0.144737631,1.017165780
180.535515,2.782937527,-5.317706108,-14.850578308,-0.039565064,0.145347983,1.003982186
180.536273,3.271218777,-5.401629448,-15.186271667,-0.039931275,0.146080405,1.003371835
180.536900,3.820535183,-5.714434624,-15.171012878,-0.036269166,0.147179037,1.005080819
180.537527,4.285928249,-5.973834038,-15.140495300,-0.038832642,0.148033530,1.005080819
180.538154,4.934426785,-5.912798882,-15.308341980,-0.035170533,0.144981772,1.003371835
180.538781,5.087014675,-6.485003471,-15.247306824,-0.034926392,0.147179037,1.003860116
180.539407,5.674478054,-6.515521049,-15.224418640,-0.037001587,0.146568686,1.005813241
180.540033,6.132241726,-6.538409233,-15.560112000,-0.033217408,0.146446615,1.004836679
180.540659,6.582376003,-6.896990776,-15.399894714,-0.028822877,0.145347983,1.006789804
180.541286,6.994363308,-7.087725639,-15.697441101,-0.030043580,0.148277670,1.010451913
180.541911,7.322427273,-7.225054741,-15.605888367,-0.024916627,0.145103842,1.009841561
180.542536,7.627603054,-7.476824760,-15.727958679,-0.023085572,0.144371420,1.012282968
180.543162,7.833596706,-7.492083549,-15.743217468,-0.022231080,0.145958334,1.016799569
180.543789,8.146402359,-7.720965385,-15.956840515,-0.024672486,0.145836264,1.019851327
180.545522,8.756753922,-7.942217827,-16.132316589,-0.018935181,0.148888022,1.033645272
180.546148,8.710977554,-7.995623589,-16.002616882,-0.021254517,0.149986655,1.036452889
180.546773,8.657571793,-7.942217827,-15.994987488,-0.021132447,0.151573569,1.041823983
180.547399,8.764383316,-7.881182671,-16.109428406,-0.016982056,0.147423178,1.046584725
180.548026,8.649942398,-7.965106010,-16.048393250,-0.016615845,0.149742514,1.048904061
180.548651,8.398172379,-7.820147514,-16.017875671,-0.018568970,0.149376303,1.052688241
180.549276,8.169290543,-7.675189018,-16.162834167,-0.018813111,0.146080405,1.055495858
180.549901,8.054849625,-7.545489311,-16.292533875,-0.018813111,0.142418295,1.057204843
180.550528,7.871743679,-7.789629936,-16.124687195,-0.019789673,0.140343100,1.061843514
180.551153,7.635232449,-7.423418999,-16.376457214,-0.019179322,0.133873373,1.066726327
180.551778,7.345315456,-7.507342339,-16.208610535,-0.017714478,0.135338217,1.063064218
180.552403,7.093545437,-7.370013237,-16.216239929,-0.016982056,0.132164389,1.067214608
180.553029,6.902810574,-7.232684135,-16.216239929,-0.018446900,0.127891928,1.068191171
180.553656,6.597634792,-7.217425346,-16.384086609,-0.018080689,0.123741530,1.067947030
180.554281,6.551858425,-7.041949272,-16.323051453,-0.014540650,0.121422194,1.067092538
180.556006,6.208535671,-6.797808647,-16.323051453,-0.017958619,0.107384108,1.067336679
180.556631,5.910989285,-6.835955620,-16.246757507,-0.017958619,0.105675124,1.070510507
180.557258,6.231423855,-6.851214409,-16.132316589,-0.017836548,0.102501296,1.069533944
180.557883,6.261941433,-6.698626518,-16.269645691,-0.018935181,0.099083327,1.068313241
180.558508,6.193276882,-6.408709526,-16.223869324,-0.017470337,0.096275710,1.070022225
180.559133,6.391641140,-6.599444389,-15.933952332,-0.021254517,0.089561842,1.069533944
180.559758,6.429788113,-6.500262260,-16.078910828,-0.020400025,0.087852858,1.069778085
180.560383,6.292459011,-6.233233452,-15.987358093,-0.017348267,0.082970046,1.071853280
180.561008,6.528970242,-6.263751030,-15.773735046,-0.014784791,0.079552077,1.071975350
180.561634,6.612893581,-6.294268608,-15.804252625,-0.007582642,0.077110671,1.071242929
180.562260,6.895181179,-6.225604057,-15.720329285,-0.004042603,0.074425124,1.069656014
180.562886,7.085916042,-6.073016167,-15.705070496,-0.007948853,0.070518874,1.074660897
180.563513,7.055398464,-5.867022514,-15.659294128,-0.016859986,0.060997389,1.076125741
180.564139,7.429238796,-5.912798882,-15.369377136,-0.022475220,0.060753249,1.078200936
180.564764,7.490273952,-5.874651909,-15.430412292,-0.023940064,0.066490553,1.079299569
180.566510,7.436868191,-5.729693413,-15.163383484,-0.029799439,0.055748366,1.083327889
180.567136,7.749673367,-5.599993706,-15.361747742,-0.025893189,0.056114577,1.088332772
180.567762,7.658120632,-5.424517632,-15.109977722,-0.028212525,0.053795241,1.088576913
180.581706,3.629800320,0.625591993,-11.768302917,-0.018935181,0.013389967,1.136550546
180.582422,3.362771511,1.335125685,-11.463127136,-0.024428345,0.008385085,1.132033944
180.583049,3.233071804,1.640301466,-11.447868347,-0.029921509,0.007896803,1.129104257
180.583674,2.760049343,2.082806349,-11.211357117,-0.028944947,0.008263014,1.130447030
180.584299,2.431985378,2.387982130,-11.081657410,-0.033217408,0.002891921,1.128615975
180.584925,2.004739285,2.670269728,-10.623893738,-0.031264283,0.008507155,1.125198007
180.585551,1.791116238,2.929669142,-10.562858582,-0.029189087,0.007530592,1.125198007
180.586176,1.493569851,3.486614943,-10.448417664,-0.036269166,0.005333327,1.124099374
180.586801,1.402017117,3.532391310,-10.158500671,-0.036025025,0.004356764,1.121047616
180.587426,0.928994715,3.906231642,-10.112724304,-0.037856080,0.006065749,1.120071054
180.588051,0.593301356,4.096966743,-9.632072449,-0.036391236,0.005089186,1.117141366
180.588676,0.402566493,4.470807076,-9.555778503,-0.037856080,0.005333327,1.116653085
180.589302,0.288125575,4.753094673,-9.448966980,-0.042006470,0.006187819,1.115554452
180.589928,-0.093344152,4.844647408,-9.159049988,-0.040785767,0.006676100,1.108596444
180.591671,-0.779989660,5.432110786,-8.556327820,-0.040297486,0.008873366,1.110061288
180.592297,-1.008871555,5.363446236,-8.243522644,-0.041151978,0.007164381,1.102248788
180.592922,-1.275900364,5.737286568,-8.052787781,-0.038344361,0.007774733,1.104201913
180.593548,-1.581076145,6.004315376,-7.915458679,-0.036635377,0.007652663,1.103103280
180.594173,-1.611593723,5.889874458,-7.762870789,-0.036147095,0.008629225,1.100417733
180.594798,-2.038839817,6.027203560,-7.587394714,-0.036757447,0.009117506,1.103347421
180.595423,-2.153280735,6.515484810,-7.396659851,-0.035780884,0.011436842,1.103103280
180.596048,-2.412680149,6.340008736,-7.099113464,-0.034926392,0.009971999,1.103225350
180.596675,-2.206686497,6.385785103,-6.954154968,-0.035414673,0.012291335,1.097610116
180.597301,-2.519491673,6.675702095,-6.847343445,-0.034682252,0.010460280,1.100173593
180.597928,-2.801779270,6.950360298,-6.587944031,-0.034316041,0.015465163,1.102737069
180.598553,-2.679708958,6.973248482,-6.496391296,-0.034804322,0.013634108,1.103347421
180.599178,-2.817038059,7.102948189,-6.145439148,-0.031264283,0.016563796,1.105544686
180.599804,-2.916220188,7.316571236,-5.985221863,-0.029921509,0.013145827,1.106887460
180.600429,-2.855185032,7.507306099,-5.855522156,-0.031264283,0.013145827,1.106643319
180.602138,-2.961996555,8.193951607,-5.275688171,-0.031630494,0.016197585,1.112502694
180.602763,-3.091696262,8.331280708,-5.123100281,-0.025160767,0.020714186,1.110549569
180.603389,-2.870443821,8.842450142,-5.069694519,-0.028700806,0.020836256,1.113357186
180.604018,-2.878073215,8.941632271,-4.924736023,-0.027968384,0.022179030,1.110427499
180.604643,-3.007772923,9.086590767,-4.657707214,-0.026625611,0.024864577,1.112258554
180.605269,-2.633932590,9.330731392,-4.741630554,-0.026503541,0.026573561,1.113845468
180.605895,-2.824667454,9.788495064,-4.314384460,-0.025771119,0.029625319,1.114211679
180.606521,-2.710226536,9.910565376,-4.245719910,-0.025038697,0.030601881,1.115310311
180.607148,-2.550009251,10.322552681,-4.421195984,-0.025038697,0.033165358,1.112380624
180.607773,-2.466085911,10.681134224,-4.032096863,-0.020888306,0.033653639,1.111892343
180.608399,-2.305868626,10.818463326,-3.848991394,-0.021254517,0.036827467,1.109573007
180.609026,-2.405050755,11.238080025,-3.665885925,-0.019545533,0.040367506,1.111404061
180.609652,-2.061728001,11.451703072,-3.742179871,-0.021742798,0.042930983,1.108596444
180.610278,-2.099874973,11.764508247,-3.406486511,-0.018446900,0.043541335,1.106765389
180.610903,-2.084616184,11.985760689,-3.414115906,-0.016493775,0.049400710,1.103347421
180.612631,-1.672628880,12.718182564,-3.307304382,-0.014418580,0.062096022,1.098708749
180.613256,-1.626852512,12.962323189,-2.933464050,-0.013442017,0.063682936,1.093215585
180.613882,-1.542929173,13.435345650,-2.498588562,-0.010634400,0.068809889,1.092483163
180.614509,-1.535299778,13.404828072,-2.902946472,-0.011000611,0.071251296,1.092239022
180.629278,-3.267172337,14.854413033,-2.078971863,0.006821655,0.143638998,1.046096444
180.630020,-3.206137180,14.717083931,-2.101860046,0.010849975,0.140587240,1.048781991
180.630645,-3.160360813,14.846783638,-2.323112488,0.008652709,0.144371420,1.044875741
180.631271,-2.771261692,14.656048775,-2.391777039,0.009507202,0.143028647,1.043655038
180.631896,-2.611044407,14.762860298,-2.223930359,0.009507202,0.143516928,1.042922616
180.632521,-2.397421360,14.961224556,-2.284965515,0.013413452,0.140831381,1.044997811
180.633146,-2.199057102,14.572125435,-2.475700378,0.016343139,0.139122397,1.042068124
180.633772,-1.802328587,14.533978462,-2.567253113,0.016098998,0.139244467,1.038161874
180.634398,-1.321676731,14.595013618,-2.544364929,0.019516967,0.138878256,1.039626718
180.635023,-0.955465734,14.389019966,-2.689323425,0.019516967,0.135826498,1.036208749
180.635649,-0.635031164,14.404278755,-2.651176453,0.021348022,0.138878256,1.036697030
180.636275,-0.039938390,14.427166939,-2.834281921,0.023179077,0.137047201,1.032546639
180.636901,0.661965907,14.129620552,-2.803764343,0.025376342,0.137535483,1.031325936
180.637528,1.249429226,14.190655708,-2.819023132,0.025010131,0.138634115,1.034988046
180.639259,2.271768093,14.152508736,-3.124198914,0.026108764,0.138878256,1.031570077
180.639884,3.225442410,14.121991158,-3.246269226,0.025864623,0.138389975,1.028518319
180.640510,3.667947292,14.053326607,-3.284416199,0.029404663,0.135948569,1.025954843
180.641136,4.552957058,14.068585396,-3.391227722,0.030137084,0.138878256,1.027053475
180.641762,4.942056179,14.038067818,-3.406486511,0.030259155,0.141197592,1.030105233
180.642388,5.941506863,13.946515083,-3.574333191,0.028183959,0.139854819,1.029006600
180.643017,6.322976589,14.022809029,-3.551445007,0.031113647,0.141197592,1.030837655
180.643644,7.017251492,13.915997505,-3.726921082,0.032212280,0.141075522,1.030837655
180.644269,7.574197292,14.007550240,-3.787956238,0.032212280,0.140587240,1.030227304
180.644895,8.237955093,13.961773872,-3.856620789,0.031846069,0.141319662,1.030959725
180.645522,8.764383316,14.060956001,-3.810844421,0.031846069,0.141441733,1.032180429
180.646147,9.061929703,14.045697212,-4.230461121,0.033432983,0.142174155,1.031203866
180.646772,9.664651871,13.839703560,-4.184684753,0.032212280,0.141075522,1.034865975
180.647398,10.069009781,13.961773872,-4.253349304,0.029282592,0.140587240,1.032058358
180.648024,10.564920425,14.007550240,-4.253349304,0.031601928,0.139610678,1.032058358
180.649748,11.762735367,13.885479927,-4.535636902,0.026597045,0.138267905,1.030715585
180.650373,11.922952652,13.915997505,-4.604301453,0.027695678,0.136558920,1.026809335
180.650999,12.258646011,13.748150826,-4.596672058,0.025742553,0.135582358,1.023635507
180.651625,12.594339371,13.671856880,-4.871330261,0.026597045,0.133995444,1.021194100
180.652252,12.868997574,13.572674751,-4.672966003,0.024277709,0.136803061,1.017531991
180.652878,13.166543961,13.595562935,-5.001029968,0.024399780,0.133507162,1.013381600
180.653504,13.242837906,13.565045357,-4.947624207,0.027695678,0.136314780,1.011184335
180.654130,13.601419449,13.442975044,-4.886589050,0.026841186,0.134361655,1.007400155
180.654756,13.937112808,13.236981392,-5.115470886,0.028428100,0.138389975,1.006911874
180.655381,13.967630386,13.130169868,-5.008659363,0.030991577,0.136680990,1.005202889
180.656007,14.165994644,13.114911079,-5.016288757,0.034409545,0.138023764,1.005324960
180.656632,14.219400406,13.168316841,-5.039176941,0.035141967,0.135582358,0.998855233
180.657257,14.440652847,13.122540474,-5.306205750,0.035264038,0.137047201,1.003615975
180.657883,14.463541031,13.008099556,-5.260429382,0.041001342,0.137657553,1.003738046
180.658509,14.371988297,13.046246529,-4.901847839,0.040024780,0.140221030,1.002883554
180.660249,13.868448257,12.931805611,-5.535087585,0.043686889,0.141441733,1.006667733
180.660874,13.677713394,12.832623482,-5.237541199,0.043198608,0.144371420,1.007766366
180.661501,13.303873062,12.954693794,-5.428276062,0.039658569,0.139854819,1.012405038
180.675440,0.448342860,12.603741646,-4.909477234,0.023301147,0.091514967,0.966872811
180.676148,0.280496180,12.252789497,-4.955253601,0.022446655,0.090538405,0.963576913
180.676773,0.021096766,12.054425240,-4.909477234,0.023667358,0.088951491,0.964309335
180.677398,-0.055197179,12.039166451,-4.764518738,0.022568725,0.087120436,0.961623788
180.678024,-0.436666906,11.840802193,-4.657707214,0.025986694,0.085045241,0.964675546
180.678651,-0.436666906,11.779767036,-4.573783875,0.023301147,0.082970046,0.959304452
180.679277,-0.833395422,11.573773384,-4.611930847,0.023301147,0.083214186,0.958694100
180.679903,-0.955465734,11.436444283,-4.329643250,0.021836303,0.075523756,0.958938241
180.680529,-1.039389133,11.100750923,-4.573783875,0.024888061,0.076012038,0.960769296
180.681154,-1.039389133,10.910016060,-4.512748718,0.021958373,0.073570631,0.956496835
180.681780,-1.085165501,10.734539986,-4.222831726,0.026352905,0.066612624,0.959792733
180.682405,-0.978353918,10.429364204,-4.291496277,0.026963256,0.068443678,0.960158944
180.683032,-1.169088840,10.246258736,-4.398307800,0.029648803,0.064659499,0.960158944
180.683657,-1.054647923,10.047894478,-4.138908386,0.030747436,0.062218092,0.961623788
180.685402,-0.757101476,9.658795357,-4.039726257,0.026719116,0.057945631,0.960525155
180.686028,-0.718954504,9.689312935,-3.917655945,0.025620483,0.056969069,0.960158944
180.686655,-0.757101476,9.536725044,-3.986320496,0.020493530,0.052086256,0.956252694
180.687280,-0.398519933,9.269696236,-3.856620789,0.019394897,0.051964186,0.957595468
180.687905,-0.482443273,8.934002876,-3.589591980,0.018784545,0.050987624,0.954909921
180.688532,-0.078085363,8.682232857,-3.642997742,0.014145873,0.052452467,0.956130624
180.689159,0.318643153,8.552533150,-3.505668640,0.015244506,0.048912428,0.953811288
180.689785,0.578042567,8.499127388,-3.398857117,0.012558959,0.045738600,0.954543710
180.690411,0.974771082,8.140545845,-3.314933777,0.015610717,0.046837233,0.953811288
180.691036,0.997659266,8.277874947,-3.360710144,0.014145873,0.043785475,0.953933358
180.691661,1.554605007,7.904034615,-3.360710144,0.014512084,0.046348952,0.955031991
180.692287,1.783486843,7.896405220,-3.162345886,0.009873413,0.044884108,0.957229257
180.692913,2.439614773,7.545453072,-3.101310730,0.015244506,0.041221999,0.952956796
180.693538,2.584573269,7.301312447,-3.086051941,0.016221069,0.040611647,0.953567147
180.694164,2.973672390,7.125836372,-2.986869812,0.017807983,0.045250319,0.954299569
180.695864,4.407998562,6.721478462,-2.773246765,0.018662475,0.047325514,0.955398202
180.696490,4.865762234,6.546002388,-2.674064636,0.021836303,0.045738600,0.957595468
180.697115,5.338784695,6.401043892,-2.605400085,0.018906616,0.048912428,0.959914804
180.697742,5.804177761,6.340008736,-2.643547058,0.024033569,0.047813796,0.958938241
180.698367,5.865212917,6.111126900,-2.757987976,0.021348022,0.050499342,0.961623788
180.698992,6.406899929,6.225567818,-2.529106140,0.020249389,0.048180006,0.961013436
180.699619,6.681558132,5.958539009,-2.490959167,0.019761108,0.050499342,0.961257577
180.700244,6.811257839,5.950909615,-2.239189148,0.020371459,0.051720046,0.961257577
180.700870,7.185098171,5.668622017,-2.201042175,0.020737670,0.052330397,0.961501718
180.701495,7.597085476,5.653363228,-2.208671570,0.020371459,0.052330397,0.961501718
180.702120,7.795449734,5.271893501,-2.109489441,0.017685913,0.051720046,0.964675546
180.702746,8.131143570,5.393963814,-2.101860046,0.017441772,0.051964186,0.960891366
180.703372,8.375284195,4.981976509,-1.972160339,0.019150756,0.051597975,0.961013436
180.703998,8.543130875,4.791241646,-1.995048523,0.015244506,0.053184889,0.961867929
180.704625,8.833047867,4.905682564,-1.888237000,0.017319702,0.051475905,0.961745858
180.706325,9.489175797,4.219037056,-1.720390320,0.012192748,0.060142897,0.961013436
180.706950,9.588357925,4.234295845,-1.682243347,0.013413452,0.057091139,0.961257577
180.707577,9.863016129,3.890972853,-1.796684265,0.014634155,0.056846999,0.966750741
180.708203,9.962198257,3.959637403,-1.613578796,0.013169311,0.060264967,0.966994882
180.708830,10.122415543,3.730755568,-1.460990906,0.014512084,0.063682936,0.966262460
180.723279,8.337137222,4.035931587,0.606575012,0.001572631,0.063072585,0.993728280
180.723987,8.329507828,3.913861036,0.515022278,-0.001112916,0.063682936,0.991653085
180.724612,8.421060562,4.219037056,0.591316223,0.002060913,0.063194655,0.990310311
180.725239,8.276102066,4.318219185,0.690498352,0.002060913,0.065758131,0.992263436
180.725864,7.925149441,4.264813423,0.583686829,0.001206420,0.065391921,0.992751718
180.726489,7.833596706,4.508954048,0.736274719,-0.002333619,0.063805006,0.995071054
180.727116,7.520791531,4.554730415,1.117744446,-0.002211548,0.064781569,0.994704843
180.727741,7.513162136,4.745465279,0.896492004,-0.002455689,0.065880202,0.993484139
180.728368,7.238503933,4.829388618,1.087226868,-0.000990845,0.062950514,0.992263436
180.728994,7.032510281,4.890423775,1.003303528,-0.003310181,0.065025710,0.991408944
180.729620,7.009622097,4.730206490,1.155891418,0.000351928,0.064171217,0.991042733
180.730245,6.574746609,4.898053169,1.308479309,-0.000258423,0.062828444,0.990554452
180.730870,6.467935085,5.226117134,1.491584778,0.002427123,0.064659499,0.993606210
180.731496,6.216165066,4.951458931,1.331367493,-0.000380494,0.062950514,0.992019296
180.733227,5.735513210,5.401593208,1.796760559,0.003525756,0.065147780,0.989699960
180.733852,5.384561062,5.691510201,1.873054504,0.004990600,0.066612624,0.990432382
180.734478,5.308267117,5.638104439,2.086677551,0.003037475,0.066612624,0.990066171
180.735103,5.201455593,5.645733833,1.880683899,-0.000014283,0.063682936,0.986159921
180.735729,4.728433132,5.683880806,2.132453918,0.005600952,0.064903639,0.984939218
180.736355,4.659768581,5.645733833,2.216377258,0.003891967,0.064049147,0.982497811
180.736981,4.575845242,6.225567818,2.315559387,0.002427123,0.066124342,0.984695077
180.737606,4.476663113,5.981427193,2.346076965,0.002427123,0.070030592,0.983474374
180.738232,4.041787624,5.958539009,2.605476379,0.005356811,0.067345046,0.982497811
180.757521,-2.427938938,7.331830025,4.612007141,0.003891967,0.090904616,0.932571054
180.758146,-2.321127415,7.415753365,4.711189270,0.003891967,0.095909499,0.932571054
180.758772,-2.305868626,7.202130318,4.528083801,0.002182983,0.097252272,0.929397225
180.759399,-2.214315891,6.912213326,4.726448059,0.002427123,0.098472975,0.927199960
180.760024,-2.153280735,7.026654243,4.726448059,-0.000624634,0.104088210,0.928298593
180.760650,-1.878622532,6.858807564,4.840888977,0.002427123,0.106529616,0.924392343
180.761276,-1.649740696,6.782513618,4.589118958,-0.002943970,0.104332350,0.920730233
180.761902,-1.733664036,6.500226021,4.779853821,-0.002699830,0.110680006,0.918777108
180.762528,-1.459005833,6.546002388,4.833259583,0.000229858,0.110435866,0.918655038
180.763154,-1.237753391,6.179791451,4.726448059,-0.001479127,0.115562819,0.918044686
180.763779,-1.291159153,6.011944771,4.886665344,-0.003432252,0.120567702,0.914138436
180.764404,-0.924948156,6.050091743,4.695930481,-0.002821900,0.122887038,0.915237069
180.765029,-0.963095129,5.615216255,4.665412903,-0.003066041,0.128868490,0.912673593
180.765654,-0.642660558,5.470257759,4.612007141,-0.002821900,0.131676108,0.918899179
180.766281,-0.284079015,5.371075630,4.688301086,-0.005995728,0.135094076,0.911208749
180.767974,-0.032308996,4.821759224,4.451789856,0.002060913,0.145958334,0.916457772
180.768601,0.120278895,4.722577095,4.512825012,-0.001234986,0.145592123,0.917556405
180.769227,0.478860438,4.371624947,4.222908020,0.000351928,0.147301108,0.915969491
180.769852,0.593301356,4.226666451,4.459419250,0.000229858,0.153282553,0.917556405
180.770477,0.616189539,4.119854927,4.138984680,0.001938842,0.156700522,0.920241952
180.771104,1.150247097,3.890972853,4.184761047,-0.000868775,0.157432944,0.920486093
180.771729,0.967141688,3.875714064,4.047431946,-0.001479127,0.159996420,0.921584725
180.772355,1.226541042,3.814678907,3.955879211,0.000107788,0.158165365,0.921950936
180.772982,1.394387722,3.532391310,3.948249817,0.006577514,0.165855795,0.921584725
180.773607,1.783486843,3.372174025,3.742256165,0.002182983,0.159996420,0.923049569
180.774234,1.867410183,3.311138868,3.498115540,0.000229858,0.160484701,0.922317147
180.788201,11.770364761,2.349835157,1.400032043,-0.001479127,0.147056967,0.940261483
180.788921,12.426492691,2.204876661,1.186408997,-0.003310181,0.148033530,0.942336679
180.789548,12.884256363,2.380352736,1.262702942,-0.004042603,0.148643881,0.942214608
180.790175,13.609048843,2.395611525,1.178779602,0.001694702,0.152916342,0.944900155
180.790801,13.815042496,2.525311232,0.721015930,-0.000136353,0.150719076,0.946364999
180.791427,14.326211929,2.632122755,0.919380188,-0.000868775,0.148277670,0.947585702
180.792052,14.616128922,2.792340040,0.911750793,-0.001601197,0.149620444,0.951369882
180.792678,14.967081070,2.876263380,0.621833801,-0.000624634,0.148888022,0.954299569
180.793303,15.127298355,3.044110060,0.789680481,-0.001723267,0.153282553,0.956130624
180.793930,15.150186539,3.150921583,0.659980774,-0.002089478,0.153038412,0.957107186
180.794555,15.691873550,3.341656446,0.652351379,-0.001845337,0.153404623,0.958449960
180.795181,15.478250504,3.295880079,0.385322571,-0.004286744,0.148643881,0.959060311
180.795808,15.775796890,3.372174025,0.576057434,-0.005263306,0.148765951,0.957107186
180.796433,16.210672379,3.707867384,0.331916809,-0.004775025,0.149010092,0.960403085
180.798142,16.248819351,3.974896193,0.309028625,-0.008925416,0.147667319,0.959182382
180.798769,16.508218765,4.280072212,0.034370422,-0.012953736,0.145958334,0.956252694
180.799394,16.492959976,4.203778267,0.156440735,-0.010268189,0.147179037,0.958694100
180.800021,16.805765152,4.348736763,-0.026664734,-0.011610962,0.145592123,0.956740975
180.800647,16.714212418,4.760724068,-0.217399597,-0.014418580,0.142052084,0.952468514
180.801273,16.950723648,4.745465279,-0.225028992,-0.016005494,0.143272787,0.951491952
180.801898,16.973611832,4.882794380,0.003852844,-0.019179322,0.136925131,0.948562264
180.802523,17.217752457,4.821759224,-0.240287781,-0.015883423,0.139732748,0.949172616
180.803148,17.362710953,4.943829536,-0.156364441,-0.020033814,0.136314780,0.947707772
180.803774,17.286417007,5.020123482,-0.385246277,-0.018813111,0.136314780,0.944656014
180.804401,17.362710953,5.058270454,-0.514945984,-0.018691041,0.134972006,0.944167733
180.805026,17.675516129,5.210858345,-0.308952332,-0.020033814,0.128502280,0.941726327
180.805651,17.728921890,5.256634712,-0.324211121,-0.023695923,0.126793295,0.940871835
180.806277,17.980691910,5.363446236,-0.766716003,-0.024428345,0.124351881,0.936721444
180.806903,18.278238297,5.157452583,-0.553092957,-0.025282837,0.121666335,0.936233163
180.808611,18.850442886,5.310040474,-0.614128113,-0.030531861,0.117638014,0.934646249
180.809238,18.903848648,5.271893501,-0.713310242,-0.033339478,0.114097975,0.932693124
180.809865,19.415018082,5.187970161,-0.720939636,-0.034071900,0.111534499,0.931106210
180.810490,19.643899918,5.142193794,-0.926933289,-0.037367798,0.110680006,0.929885507
180.811115,19.331094742,5.111676216,-0.896415710,-0.033461548,0.108116530,0.928908944
180.811740,19.765970230,5.210858345,-0.820121765,-0.035048462,0.107384108,0.925735116
180.812366,19.910928726,5.142193794,-0.904045105,-0.034316041,0.105064772,0.927932382
180.812991,20.300027847,4.943829536,-1.041374207,-0.032118775,0.103477858,0.928786874
180.813616,20.315286636,5.142193794,-0.896415710,-0.032973267,0.101280592,0.925613046
180.814241,20.551797867,5.233746529,-0.995597839,-0.033461548,0.101768874,0.923171639
180.814867,20.856973648,5.043011665,-0.781974792,-0.032607056,0.100304030,0.926833749
180.815492,20.734903336,4.821759224,-0.965080261,-0.032362916,0.101158522,0.925368905
180.816118,20.986673355,4.997235298,-0.766716003,-0.030409791,0.097008131,0.925246835
180.816743,21.337625504,4.730206490,-0.896415710,-0.032240845,0.095909499,0.924148202
180.817370,21.268960953,4.913311958,-0.911674500,-0.032362916,0.094688796,0.924636483
180.819073,21.383401871,5.050641060,-0.751457214,-0.034560181,0.093101881,0.924636483
180.819698,21.474954605,5.058270454,-1.018486023,-0.033827759,0.096153639,0.926223397
180.820324,21.406290054,5.378705025,-0.972709656,-0.035536744,0.094322585,0.927199960
180.820949,21.246072769,5.378705025,-0.865898132,-0.037001587,0.090660475,0.929153085
180.835697,12.891885757,6.019574165,-0.003776550,-0.053603150,0.100426100,0.879714608
180.836433,11.808511734,6.126385689,0.141181946,-0.053969361,0.101158522,0.873366952
180.837059,11.213418961,5.783062935,0.446357727,-0.057265259,0.102013014,0.870925546
180.837684,10.770914078,5.577069283,0.354804993,-0.058119752,0.103844069,0.864455819
180.838309,10.198709488,5.546551704,0.301399231,-0.061659791,0.104942702,0.859573007
180.838935,9.771463394,5.119305611,0.621833801,-0.060439087,0.105308913,0.857497811
180.839561,9.222146988,4.936200142,0.545539856,-0.059950806,0.107384108,0.853957772
180.840186,8.794900894,4.699688911,0.469245911,-0.063368775,0.107506178,0.851150155
180.840812,8.321878433,4.455548286,0.598945618,-0.065077759,0.107017897,0.844070077
180.841438,8.092996597,4.180890083,0.782051086,-0.064467408,0.108726881,0.844436288
180.842065,7.742043972,3.822308302,0.545539856,-0.064223267,0.108726881,0.837234139
180.842691,7.330056667,3.356915236,0.804939270,-0.066176392,0.109581374,0.835891366
180.843316,6.872292995,3.211956739,0.606575012,-0.069106080,0.112388991,0.837234139
180.843942,6.460305691,2.655010939,0.820198059,-0.068739869,0.109947585,0.832473397
180.845646,5.865212917,2.052288771,0.904121399,-0.069838502,0.115440749,0.828078866
180.846271,5.704995632,1.632672071,0.820198059,-0.070692994,0.113609694,0.825881600
180.846896,5.270120144,0.907879591,0.644721985,-0.068739869,0.116051100,0.827224374
180.847521,5.041238308,0.389080763,0.721015930,-0.068984009,0.113731764,0.825759530
180.848146,5.018350124,-0.091571093,0.797309875,-0.070204712,0.113365553,0.822707772
180.848772,4.881021023,-0.518817186,0.949897766,-0.073134400,0.117149733,0.820022225
180.849398,4.720803738,-1.091021776,0.789680481,-0.072035767,0.112266921,0.819533944
180.850024,4.636880398,-1.327533007,0.621833801,-0.071791627,0.116905592,0.819167733
180.850649,5.025979519,-1.976031542,0.934638977,-0.070570923,0.114708327,0.813796639
180.851276,4.713174343,-2.540606737,0.888862610,-0.069838502,0.113365553,0.817947030
180.851902,4.995461941,-2.876300097,0.713386536,-0.072401978,0.115929030,0.817580819
180.852528,5.163308620,-3.547686815,0.865974426,-0.075331666,0.113731764,0.816482186
180.853153,5.003091335,-4.081744194,0.576057434,-0.074599244,0.110924147,0.816726327
180.853780,5.415078640,-4.844683647,0.797309875,-0.076064087,0.113609694,0.816115975
180.854406,5.674478054,-5.088824272,0.705757141,-0.074843384,0.114708327,0.813796639
180.856106,6.124612331,-6.683367729,0.362434387,-0.074843384,0.112877272,0.818801522
180.856731,6.834146023,-7.247942924,0.568428040,-0.073988892,0.116173171,0.818923593
180.857358,7.192727566,-7.522601128,0.515022278,-0.072890259,0.117760085,0.821364999
180.857984,7.627603054,-8.338946342,0.591316223,-0.075819947,0.118614577,0.823318124
180.858611,7.742043972,-8.628863335,0.614204407,-0.072401978,0.120079421,0.825881600
180.859238,8.230325699,-9.361285210,0.469245911,-0.068373658,0.121666335,0.825027108
180.859863,8.665201187,-9.979266167,0.537910461,-0.070937134,0.125816733,0.827834725
180.860488,8.855936050,-10.032671928,0.370063782,-0.070326783,0.127403647,0.829299569
180.861113,9.443399429,-10.543841362,0.286140442,-0.069472291,0.128502280,0.832595468
180.861738,9.512063980,-11.055010796,0.309028625,-0.066908814,0.132652670,0.839919686
180.862363,9.801980972,-11.688250542,0.217475891,-0.065443970,0.133263022,0.838210702
180.862989,10.191080093,-11.810320854,0.232734680,-0.063490845,0.135216147,0.841140389
180.863614,10.519144058,-12.252825737,0.286140442,-0.063002564,0.138756186,0.845656991
180.864239,10.801431656,-12.664813042,0.148811340,-0.063246705,0.142784506,0.849074960
180.864864,11.221048355,-12.886065483,-0.019035339,-0.061171509,0.142296225,0.855788827
180.866594,11.633035660,-13.969439507,0.003852844,-0.060317017,0.153770834,0.859817147
180.867220,11.747476578,-14.373797417,0.011482239,-0.057753541,0.157921225,0.860183358
180.867847,11.770364761,-14.762896538,-0.194511414,-0.056776978,0.156822592,0.867019296
180.868473,11.983987808,-15.060442924,-0.125846863,-0.059584595,0.159752280,0.866042733
180.882390,9.817239761,-20.690937042,-2.117118835,-0.049086548,0.204552084,0.921340585
180.883103,9.710428238,-21.194477081,-2.536735535,-0.048964478,0.206627280,0.926711679
180.883728,9.519693375,-21.255512238,-2.346000671,-0.046645142,0.207725912,0.929519296
180.884354,9.260293961,-21.415729523,-2.513847351,-0.044692017,0.209434897,0.931960702
180.884981,9.145853043,-21.537799835,-2.437553406,-0.046767212,0.206871420,0.935989022
180.885607,8.741495132,-21.934528351,-2.750358582,-0.043349244,0.207970053,0.935744882
180.886233,8.688089371,-21.919269562,-2.925834656,-0.042616822,0.205772787,0.938918710
180.886859,8.459207535,-22.102375031,-2.857170105,-0.041884400,0.208946615,0.942947030
180.887485,8.176919937,-22.117633820,-2.994499207,-0.041396119,0.209434897,0.949538827
180.888112,7.986184597,-22.048969269,-3.108940125,-0.037001587,0.208946615,0.949538827
180.888737,7.696267605,-22.491474152,-3.093681335,-0.037367798,0.205406576,0.950393319
180.889364,7.764932156,-22.499103546,-3.284416199,-0.037489869,0.209434897,0.954787850
180.889989,7.619973660,-22.430438995,-3.398857117,-0.039931275,0.205040365,0.956985116
180.890615,7.207986355,-22.636432648,-3.528556824,-0.041029908,0.206871420,0.958694100
180.892368,6.895181179,-22.842426300,-3.894767761,-0.034438111,0.208580405,0.969680429
180.892995,6.597634792,-22.911090851,-4.093132019,-0.039198853,0.209190756,0.971511483
180.893621,6.361123562,-23.033161163,-4.207572937,-0.038344361,0.208580405,0.976516366
180.894246,6.284829617,-22.979755402,-4.032096863,-0.035414673,0.208214194,0.972732186
180.894871,6.017800808,-23.147602081,-4.367790222,-0.036269166,0.209434897,0.979323983
180.895497,6.139871120,-23.033161163,-4.650077820,-0.036269166,0.206627280,0.980300546
180.896122,5.834695339,-23.056049347,-4.489860535,-0.035902955,0.205406576,0.982375741
180.896747,5.468484402,-22.941608429,-4.665336609,-0.035170533,0.204307944,0.985183358
180.897373,5.430337429,-22.819538116,-4.787406921,-0.036391236,0.204918295,0.986770272
180.897999,5.178567410,-23.231525421,-5.039176941,-0.035658814,0.204674155,0.986404061
180.898624,5.140420437,-22.918720245,-4.932365417,-0.035048462,0.204063803,0.994094491
180.899249,4.797097683,-23.246784210,-5.321464539,-0.033827759,0.205772787,0.991164804
180.899874,4.621621609,-22.964496613,-5.268058777,-0.032851197,0.203697592,0.992995858
180.900500,4.209634304,-23.040790558,-5.535087585,-0.033827759,0.206505209,0.996047616
180.901126,3.873940945,-23.094196320,-5.641899109,-0.034682252,0.205406576,0.998244882
180.902833,3.240701199,-22.964496613,-5.802116394,-0.035414673,0.202354819,1.001174569
180.903459,2.950784206,-22.933979034,-5.992851257,-0.034071900,0.202232748,1.005080819
180.904085,3.004189968,-23.010272980,-6.046257019,-0.030287720,0.200035483,1.005813241
180.904710,2.256509304,-23.185749054,-6.236991882,-0.031874634,0.201256186,1.007156014
180.905335,2.065774441,-22.941608429,-6.191215515,-0.029067017,0.200767905,1.008864999
180.905962,1.775857449,-23.147602081,-6.442985535,-0.031142212,0.199058920,1.006179452
180.906587,1.447793484,-23.170490265,-6.671867371,-0.032118775,0.196495444,1.009231210
180.907212,1.035806179,-23.139972687,-6.656608582,-0.029677369,0.200035483,1.007888436
180.907839,0.875588953,-23.017902374,-6.809196472,-0.032851197,0.200279623,1.010329843
180.908466,0.570413172,-23.132343292,-6.763420105,-0.032607056,0.197838217,1.011306405
180.909091,0.364419520,-23.185749054,-6.923637390,-0.032973267,0.194786459,1.010696054
180.909718,0.005837977,-23.101825714,-6.977043152,-0.034438111,0.193443686,1.011306405
180.910344,-0.322225988,-23.155231476,-7.106742859,-0.031996705,0.193809897,1.012771249
180.910970,-0.657919347,-22.964496613,-7.030448914,-0.034071900,0.192711264,1.011794686
180.911597,-0.909689367,-23.147602081,-7.404289246,-0.033217408,0.194176108,1.013259530
180.913325,-1.672628880,-23.345966339,-7.495841980,-0.035292603,0.186607748,1.013137460
180.913952,-2.084616184,-23.529071808,-7.549247742,-0.036513306,0.184898764,1.018386483
180.914577,-2.168539524,-23.475666046,-7.671318054,-0.036513306,0.185631186,1.016067147
180.929391,-2.298239231,-24.040241241,-9.403190613,-0.021498658,0.147179037,1.051711679
180.930136,-1.939657688,-24.322528839,-9.403190613,-0.023940064,0.145347983,1.052199960
180.930762,-1.558187962,-24.269123077,-9.769401550,-0.024306275,0.145103842,1.055129647
180.931387,-1.092794895,-24.162311554,-9.632072449,-0.020155884,0.142174155,1.059280038
180.932019,-0.703695714,-24.154682159,-9.647331238,-0.020888306,0.143394858,1.058303475
180.932644,-0.276449621,-24.322528839,-9.746513367,-0.022109009,0.140587240,1.059157968
180.933269,0.097390711,-24.353046417,-9.960136414,-0.021498658,0.138267905,1.061355233
180.933894,0.555154383,-24.299640656,-9.891471863,-0.021498658,0.137169272,1.064284921
180.934624,0.974771082,-24.368305206,-10.059318542,-0.019423462,0.137413412,1.061843514
180.935476,1.432534695,-24.551410675,-10.158500671,-0.018446900,0.137657553,1.065993905
180.936316,2.523538113,-24.528522491,-10.372123718,-0.020277955,0.130211264,1.067092538
180.936970,2.935525417,-24.398822784,-10.402641296,-0.019911744,0.135338217,1.071609139
180.937596,3.477212429,-24.734516144,-10.654411316,-0.023695923,0.130455405,1.070998788
180.939338,5.392190456,-24.688739777,-10.723075867,-0.020277955,0.125572592,1.080276132
180.939965,5.712625027,-24.696369171,-11.028251648,-0.019301392,0.124718092,1.081008554
180.940648,6.445046902,-24.642963409,-11.196098328,-0.016982056,0.121544264,1.085525155
180.941274,7.085916042,-24.642963409,-10.883293152,-0.019667603,0.124718092,1.088821054
180.941899,7.749673367,-24.711627960,-11.035881042,-0.018568970,0.124596022,1.092605233
180.942524,8.298990250,-24.757404327,-11.432609558,-0.019301392,0.120689772,1.095779061
180.943150,8.932229996,-24.726886749,-11.310539246,-0.015639283,0.120323561,1.097243905
180.943776,9.405252457,-24.627704620,-11.173210144,-0.014540650,0.124351881,1.101760507
180.944401,9.985086441,-24.574298859,-11.562309265,-0.013808228,0.118004225,1.104568124
180.945026,10.694620132,-24.322528839,-11.524162292,-0.013197877,0.119469069,1.109206796
180.945652,10.938760757,-24.284381866,-11.661491394,-0.012465455,0.118492506,1.115798593
180.946277,11.282083511,-24.078388214,-11.775932312,-0.009291627,0.119713210,1.119338632
180.946947,11.503335953,-24.147052765,-11.836967468,-0.010878541,0.118736647,1.123366952
180.947573,12.174722672,-23.681659698,-11.836967468,-0.013686158,0.121178053,1.130935311
180.949345,12.785074234,-23.193378448,-11.898002625,-0.013442017,0.116905592,1.145217538
180.949970,12.899515152,-22.857685089,-11.974296570,-0.011244752,0.118370436,1.148391366
180.950595,12.960550308,-22.499103546,-12.248954773,-0.010878541,0.118492506,1.154128671
180.951220,12.983438492,-22.079486847,-12.248954773,-0.011977173,0.119346999,1.157058358
180.951845,13.090250015,-21.858234406,-12.386283875,-0.009535767,0.119591139,1.161574960
180.952471,13.227579117,-21.400470734,-12.317619324,-0.011610962,0.117760085,1.165847421
180.953096,12.792703629,-21.080036163,-12.294731140,-0.010390259,0.113243483,1.169265389
180.953721,12.716409683,-20.477313995,-12.233695984,-0.010024048,0.112388991,1.174148202
180.954346,12.746927261,-20.050067902,-12.218437195,-0.012953736,0.112633131,1.179275155
180.954973,12.189981461,-19.699115753,-12.172660828,-0.008925416,0.113731764,1.183547616
180.955598,12.045022964,-19.241352081,-12.371025085,-0.014296509,0.112144850,1.187453866
180.956224,11.747476578,-18.600482941,-12.332878113,-0.014662720,0.111534499,1.189040780
180.956851,11.259195328,-18.188495636,-12.386283875,-0.015395142,0.110924147,1.188430429
180.957477,10.854837418,-17.486591339,-12.348136902,-0.015395142,0.109093092,1.193801522
180.958104,10.557291031,-17.166156769,-12.454948425,-0.015517212,0.110802077,1.194533944
180.959840,9.405252457,-16.166706085,-12.180290222,-0.016127564,0.101646803,1.193069100
180.960466,9.107706070,-15.571612358,-12.279472351,-0.021376587,0.100914381,1.196364999
180.961091,8.367654800,-15.213030815,-12.103996277,-0.023207642,0.095787428,1.195022225
180.961716,8.031961441,-14.595049858,-12.142143250,-0.020400025,0.089805983,1.197829843
180.975641,1.684304714,-3.776568651,-10.433158875,-0.032729127,0.043297194,1.191604257
180.976362,1.363870144,-3.211993456,-10.166130066,-0.035658814,0.042686842,1.189773202
180.976989,0.906106532,-2.700824022,-10.234794617,-0.035658814,0.045616530,1.190749764
180.977614,0.974771082,-2.029437304,-10.196647644,-0.037611939,0.041221999,1.186355233
180.978239,0.661965907,-1.831073046,-9.914360046,-0.037611939,0.041466139,1.187453866
180.978866,0.272866786,-1.327533007,-9.868583679,-0.035170533,0.044029616,1.185500741
180.979493,-0.085714757,-0.762957811,-9.792289734,-0.036391236,0.044151686,1.184035897
180.980119,-0.650289953,-0.175494432,-9.662590027,-0.036757447,0.043663405,1.180007577
180.980746,-0.917318761,0.160198927,-9.326896667,-0.036513306,0.042442702,1.179031014
180.981372,-0.886801183,0.579815626,-9.258232117,-0.036757447,0.039146803,1.175124764
180.981997,-1.268270969,0.862103224,-9.265861511,-0.036391236,0.039879225,1.171706796
180.982624,-1.596334934,1.159649611,-9.250602722,-0.038466431,0.038170241,1.166457772
180.983251,-1.733664036,1.670819044,-9.059867859,-0.037978150,0.036339186,1.166946054
180.983878,-1.909140110,1.937847853,-8.830986023,-0.034071900,0.036339186,1.159255624
180.985609,-2.054098606,2.967816114,-8.708915710,-0.044203736,0.037071608,1.150344491
180.986234,-2.405050755,3.196697950,-8.686027527,-0.040663697,0.031578444,1.145339608
180.986859,-2.542379856,3.318768263,-8.533439636,-0.042372681,0.034508131,1.140700936
180.987485,-2.511862278,3.852825880,-8.701286316,-0.044203736,0.034630202,1.139114022
180.988112,-2.740744114,4.035931587,-8.487663269,-0.043593384,0.032066725,1.133376718
180.988739,-2.496603489,3.929119825,-8.098564148,-0.044569947,0.032432936,1.130569100
181.008021,-3.709677219,7.934552193,-6.153068542,-0.033461548,0.033165358,1.082107186
181.008648,-3.328207493,8.163434029,-5.962333679,-0.031752564,0.031944655,1.081008554
181.009274,-2.969625950,8.140545845,-5.992851257,-0.032851197,0.033531569,1.079421639
181.009900,-2.961996555,8.125287056,-5.893669128,-0.030531861,0.030723952,1.077834725
181.010525,-2.649191380,8.071881294,-5.825004578,-0.027113892,0.028526686,1.075271249
181.011150,-2.313498020,8.239727974,-5.855522156,-0.028578736,0.030846022,1.074782968
181.011776,-2.000692844,8.285504341,-5.977592468,-0.029433228,0.030723952,1.072463632
181.012401,-1.825216770,8.354168892,-5.695304871,-0.024916627,0.031212233,1.073073983
181.013027,-1.596334934,8.254986763,-5.786857605,-0.027724244,0.030968092,1.071242929
181.013652,-0.985983312,8.270245552,-5.825004578,-0.026503541,0.031456374,1.070510507
181.014277,-0.886801183,8.422833443,-5.603752136,-0.024550416,0.029259108,1.069167733
181.014903,-0.482443273,8.422833443,-5.702934265,-0.026137330,0.036217116,1.069533944
181.015529,-0.146749914,8.560162544,-5.489311218,-0.024916627,0.034019850,1.068557382
181.016155,0.494119227,8.285504341,-5.397758484,-0.027358033,0.032188796,1.070632577
181.016782,0.600930750,8.537274361,-5.573234558,-0.019179322,0.034874342,1.070510507
181.018507,2.035256863,8.567791939,-5.588493347,-0.026015259,0.033897780,1.072219491
181.019134,2.576943874,8.537274361,-5.504570007,-0.022963502,0.035850905,1.071731210
181.019759,2.973672390,8.895855904,-5.458793640,-0.018446900,0.034996413,1.070754647
181.020384,3.347512722,8.506756783,-5.603752136,-0.019179322,0.034752272,1.070144296
181.021018,3.851052761,8.590680122,-5.390129089,-0.018446900,0.038292311,1.073318124
181.021644,4.514810085,8.712750435,-5.519828796,-0.018446900,0.035972975,1.070754647
181.022269,4.995461941,8.842450142,-5.435905457,-0.018813111,0.031334303,1.073318124
181.022895,5.231973171,8.705121040,-5.351982117,-0.012709595,0.037681960,1.072097421
181.023521,5.720254421,9.040814400,-5.504570007,-0.016737916,0.039268874,1.076736093
181.024147,6.330605984,9.185772896,-5.336723328,-0.018080689,0.038170241,1.076614022
181.024772,6.803628445,8.956891060,-5.382499695,-0.013930298,0.037926100,1.076247811
181.025398,7.238503933,9.117108345,-5.443534851,-0.015028931,0.037804030,1.074782968
181.026024,7.833596706,9.475689888,-5.435905457,-0.010146119,0.041710280,1.074660897
181.040831,20.109292984,11.482220650,-5.115470886,-0.031020142,0.005699538,1.041701913
181.041598,20.971414566,11.482220650,-5.130729675,-0.032607056,0.008751296,1.045241952
181.042223,21.658060074,11.596661568,-4.901847839,-0.035414673,0.009117506,1.049758554
181.042848,21.703836441,11.581402779,-4.734001160,-0.031752564,0.009483717,1.049758554
181.043474,22.085306168,11.795025826,-5.107841492,-0.033705689,0.014610671,1.051101327
181.044099,22.230264664,11.634808540,-4.764518738,-0.034926392,0.014854811,1.053054452
181.044725,22.520181656,11.939984322,-4.520378113,-0.032118775,0.018761061,1.056228280
181.045350,22.382852554,11.878949165,-4.833183289,-0.032729127,0.018028639,1.060744882
181.045976,22.405740738,12.107831001,-4.413566589,-0.035658814,0.020347975,1.065017343
181.046601,22.428628922,12.481671333,-4.413566589,-0.037856080,0.022789381,1.067580819
181.047228,22.215005875,12.542706490,-4.398307800,-0.037734009,0.025108717,1.065383554
181.047853,21.772500992,12.649518013,-4.466972351,-0.036391236,0.025719069,1.069289804
181.048479,21.772500992,12.840252876,-4.108390808,-0.037856080,0.030357741,1.074050546
181.049104,21.215555191,13.015728951,-4.123649597,-0.038466431,0.034386061,1.073684335
181.051111,19.880411148,13.992291451,-4.016838074,-0.038588502,0.041344069,1.080886483
181.051736,19.094583511,14.327984810,-3.787956238,-0.037489869,0.041344069,1.074538827
181.052361,18.713113785,14.671307564,-3.581962585,-0.040663697,0.043907546,1.079787850
181.052988,17.988321304,14.923077583,-3.581962585,-0.040785767,0.046593092,1.075515389
181.053613,17.545816422,15.403729439,-3.482780457,-0.041884400,0.048790358,1.076491952
181.054238,16.637918472,15.708905220,-3.513298035,-0.035048462,0.050499342,1.075271249
181.054865,15.936014175,15.991192818,-3.093681335,-0.022963502,0.048912428,1.073196054
181.055490,15.401956558,16.426067352,-3.192863464,-0.014296509,0.048912428,1.073196054
181.056116,14.425394058,16.891460419,-2.948722839,-0.018446900,0.049766921,1.072829843
181.056743,14.188882828,17.189006805,-2.628288269,-0.031386353,0.048424147,1.066482186
181.057370,13.166543961,17.616252899,-2.864799500,-0.044203736,0.051475905,1.066970468
181.057997,12.373086929,17.723064423,-2.567253113,-0.055067994,0.053062819,1.057082772
181.058624,11.648294449,18.119792938,-2.712211609,-0.062148072,0.057335280,1.054641366
181.059250,10.839578629,18.127422333,-2.574882507,-0.062758423,0.057701491,1.048537850
181.059903,10.130044937,18.119792938,-2.559623718,-0.068617798,0.052452467,1.042800546
181.061636,8.405801773,18.981914520,-2.399406433,-0.059462525,0.054893874,1.029616952
181.062263,7.764932156,18.875102997,-2.124748230,-0.064833619,0.054771803,1.023269296
181.062889,7.200356960,18.905620575,-2.216300964,-0.066542603,0.047813796,1.018386483
181.063514,6.673928738,19.027690887,-2.132377625,-0.067030884,0.048790358,1.012649179
181.064139,6.132241726,19.050579071,-1.972160339,-0.067885377,0.050011061,1.009475350
181.064765,5.674478054,18.974285126,-1.972160339,-0.063246705,0.053062819,1.006667733
181.065390,5.277749538,19.103984833,-1.941642761,-0.063246705,0.053917311,1.001418710
181.066017,4.949685574,19.264202118,-1.735649109,-0.062514283,0.050499342,0.998489022
181.066643,4.423257351,19.203166962,-1.583061218,-0.063246705,0.054405592,0.999099374
181.067268,3.973123074,19.073467255,-1.552543640,-0.060561158,0.051475905,0.993117929
181.067894,3.629800320,19.012432098,-1.583061218,-0.060683228,0.054527663,0.992629647
181.068520,3.240701199,18.890361786,-1.628837585,-0.058485962,0.057457350,0.993362069
181.069145,2.950784206,18.791179657,-1.613578796,-0.055067994,0.053306960,0.990432382
181.069771,2.462502956,18.753032684,-1.438102722,-0.057631470,0.052818678,0.986037850
181.070397,1.844521999,18.722515106,-1.483879089,-0.060561158,0.052086256,0.985549569
181.072105,1.119729519,18.508892059,-1.117668152,-0.064101197,0.050987624,0.980544686
181.072732,0.921365321,18.554668427,-1.171073914,-0.061659791,0.045982741,0.976516366
181.073357,0.730630457,18.218975067,-1.293144226,-0.064101197,0.048424147,0.976638436
181.087269,0.867959559,14.160138130,0.759162903,-0.078627564,0.015343092,0.916335702
181.087957,1.142617702,13.977032661,0.728645325,-0.082533814,0.018761061,0.910354257
181.088583,1.432534695,13.580304146,0.804939270,-0.079726197,0.019371413,0.908156991
181.089209,1.821633816,13.160687447,1.026191711,-0.085829712,0.018272780,0.904739022
181.089834,1.852151394,12.802105904,1.110115051,-0.086684205,0.022667311,0.900954843
181.090460,2.225991726,12.748700142,1.094856262,-0.085707642,0.024254225,0.898879647
181.091086,2.554055691,11.871319771,1.262702942,-0.085951783,0.024376296,0.898635507
181.091711,2.630349636,11.550885201,1.316108704,-0.088271119,0.028770827,0.899123788
181.092337,3.080483913,11.398297310,1.148262024,-0.086440064,0.030357741,0.900832772
181.092963,3.027078152,10.948163033,1.293220520,-0.088515259,0.030113600,0.902175546
181.093590,3.339883327,10.528546333,1.201667786,-0.088515259,0.033897780,0.903274179
181.094217,3.545876980,10.093670845,1.422920227,-0.089858033,0.036827467,0.903152108
181.094842,3.690835476,9.696942329,1.354255676,-0.086317994,0.036095046,0.899612069
181.095469,3.629800320,9.391766548,1.522102356,-0.085707642,0.040123366,0.902785897
181.097236,3.912087917,8.300763130,1.468696594,-0.088026978,0.050743483,0.908889413
181.097862,3.431436062,7.842999458,1.575508118,-0.085463502,0.051353835,0.907180429
181.098488,3.629800320,7.621747017,1.812019348,-0.083998658,0.055504225,0.912795663
181.099115,3.492471218,7.202130318,1.651802063,-0.085219361,0.053551100,0.912917733
181.099742,3.439065456,6.759625435,1.621284485,-0.087538697,0.056480788,0.915114999
181.100368,3.248330593,6.652813911,1.674690247,-0.085585572,0.060631178,0.918410897
181.100993,3.019448757,6.309491158,1.812019348,-0.081679322,0.063194655,0.918288827
181.101619,3.027078152,6.004315376,1.781501770,-0.082411744,0.062584303,0.922317147
181.102245,2.988931179,5.722027779,1.819648743,-0.082167603,0.064903639,0.923293710
181.102871,2.981301785,5.348187447,1.735725403,-0.080946900,0.068565749,0.923659921
181.103497,2.691384792,5.149823189,1.926460266,-0.084853150,0.066978835,0.929031014
181.104124,2.348062038,5.088788033,1.827278137,-0.082777955,0.068443678,0.931960702
181.104749,2.187844753,5.035382271,1.911201477,-0.082411744,0.071983717,0.935012460
181.105374,2.187844753,4.722577095,1.850166321,-0.082289673,0.073448561,0.939284921
181.105999,2.225991726,4.592877388,2.040901184,-0.082533814,0.080650710,0.939406991
181.107704,1.814004421,4.165631294,2.117195129,-0.079848267,0.082603835,0.945388436
181.108331,1.676675320,3.990154982,1.995124817,-0.082655884,0.081261061,0.952590585
181.108957,1.592751980,3.944378614,2.025642395,-0.080702759,0.085045241,0.951003671
181.109582,1.623269558,3.707867384,1.934089661,-0.081557252,0.085167311,0.957107186
181.110208,1.196023464,3.707867384,2.040901184,-0.079237916,0.084679030,0.960036874
181.110833,1.073953152,3.639202833,2.063789368,-0.081557252,0.087120436,0.961257577
181.111459,1.150247097,3.669720411,1.781501770,-0.079604127,0.085899733,0.961379647
181.112086,1.020547390,3.585797071,1.926460266,-0.078505494,0.086388014,0.963943124
181.112711,1.196023464,3.616314650,1.926460266,-0.080580689,0.092125319,0.966628671
181.113337,1.226541042,3.677349806,1.819648743,-0.079237916,0.091392897,0.967116952
181.113963,1.150247097,3.395062208,1.865425110,-0.078871705,0.094444655,0.966750741
181.114588,1.005288601,3.570538282,1.682319641,-0.076552369,0.095909499,0.970901132
181.115213,1.196023464,3.204327345,1.773872375,-0.078627564,0.097252272,0.971999764
181.115840,1.058694363,3.440838575,1.857795715,-0.075575806,0.098961256,0.975783944
181.116466,0.898477137,3.448467970,1.567878723,-0.076552369,0.099327467,0.977737069
181.118173,0.875588953,3.334027052,1.651802063,-0.074843384,0.104454421,0.982497811
181.118800,0.974771082,3.318768263,1.651802063,-0.073134400,0.108604811,0.984573007
181.119427,1.051064968,3.555279493,1.293220520,-0.073866822,0.108726881,0.986159921
181.120054,0.974771082,3.402691603,1.590766907,-0.072279908,0.107506178,0.986892343
181.120680,0.967141688,3.608685255,1.407661438,-0.073378541,0.113121413,0.991897225
181.135405,-3.801229954,8.544903755,0.461616516,-0.057875611,0.138878256,1.021438241
181.136130,-4.045370579,8.979779243,0.301399231,-0.058608033,0.139122397,1.023635507
181.136756,-4.449728489,9.269696236,0.240364075,-0.062026002,0.140831381,1.021072030
181.137383,-4.518393040,9.452801704,0.110664368,-0.059340455,0.139000326,1.018874764
181.138017,-4.724386692,9.880047798,0.003852844,-0.062392212,0.141807944,1.016555429
181.138644,-4.869345188,9.941082954,0.118293762,-0.059950806,0.144249350,1.016677499
181.139271,-5.128744602,10.070782661,-0.026664734,-0.060439087,0.142418295,1.012160897
181.139896,-5.136373997,10.383587837,0.049629211,-0.067275025,0.144737631,1.013015389
181.140521,-5.601767063,10.650616646,-0.148735046,-0.061537720,0.140587240,1.010940194
181.141147,-5.586508274,11.108380318,-0.049552917,-0.065932252,0.141441733,1.010573983
181.141773,-5.906942844,11.169415474,-0.339469910,-0.069106080,0.141441733,1.004958749
181.142398,-6.189230442,11.428814888,-0.293693542,-0.067275025,0.144005209,1.004348397
181.143024,-6.311300755,11.589032173,-0.179252625,-0.070082642,0.142540365,1.001784921
181.143650,-6.441000462,11.619549751,-0.392875671,-0.068984009,0.144615561,0.997024179
181.145373,-6.837728977,12.214642525,-0.682792664,-0.073256470,0.145103842,0.990432382
181.146000,-6.845358372,12.092572212,-0.431022644,-0.073500611,0.143272787,0.990920663
181.146626,-6.921652317,12.245160103,-0.507316589,-0.074843384,0.144737631,0.986892343
181.147251,-6.921652317,12.512188911,-0.736198425,-0.074965455,0.142418295,0.983840585
181.147878,-7.280233860,12.481671333,-0.827751160,-0.076430298,0.142052084,0.981765389
181.148503,-7.379415989,12.336712837,-0.812492371,-0.074843384,0.141685873,0.979079843
181.149130,-7.089498997,12.504559517,-0.812492371,-0.073134400,0.136680990,0.977126718
181.149757,-7.097128391,12.336712837,-1.033744812,-0.076796509,0.138023764,0.972854257
181.150382,-6.936911106,12.435894966,-0.751457214,-0.074355103,0.136314780,0.974807382
181.151008,-6.914022923,12.573224068,-1.010856628,-0.076552369,0.135094076,0.967849374
181.151633,-6.830099583,12.405377388,-1.110038757,-0.078139283,0.131920248,0.968093514
181.152258,-6.685141087,12.527447701,-1.148185730,-0.077895142,0.129478842,0.964431405
181.152883,-6.509665012,12.557965279,-1.232109070,-0.077284791,0.128380209,0.961501718
181.153510,-6.189230442,12.458783150,-1.186332703,-0.078505494,0.127769858,0.957107186
181.154136,-6.128195286,12.168866158,-1.094779968,-0.081068970,0.124107741,0.955886483
181.155843,-4.648092747,11.871319771,-1.407585144,-0.078139283,0.117760085,0.946975350
181.156469,-4.281881809,11.688214302,-1.300773621,-0.079970337,0.116661452,0.941604257
181.157094,-3.831747532,11.733990669,-1.491508484,-0.082777955,0.113121413,0.939651132
181.157719,-3.389242649,11.634808540,-1.827201843,-0.080214478,0.116417311,0.941238046
181.158344,-2.664450169,11.260968208,-1.728019714,-0.082167603,0.109947585,0.938796639
181.158970,-2.221945286,11.138897896,-1.720390320,-0.081313111,0.115562819,0.933303475
181.159595,-1.512411594,11.108380318,-1.972160339,-0.081068970,0.107994460,0.932571054
181.160220,-0.863913000,10.955792427,-1.621208191,-0.079848267,0.108726881,0.933181405
181.160847,-0.276449621,10.711651802,-1.804313660,-0.078993775,0.107384108,0.930984139
181.161472,0.288125575,10.635357857,-1.949272156,-0.079482056,0.105553053,0.933425546
181.162097,0.936624110,10.436993599,-1.827201843,-0.077528931,0.106773756,0.929885507
181.162723,1.760598660,10.101300240,-2.117118835,-0.082045533,0.107994460,0.929153085
181.163349,2.172585964,10.047894478,-2.078971863,-0.079359986,0.107628249,0.927688241
181.163974,2.988931179,9.872418404,-2.109489441,-0.078017212,0.109459303,0.932204843
181.164599,3.522988796,9.735089302,-1.972160339,-0.081557252,0.107750319,0.924514413
181.166303,4.797097683,9.300213814,-2.193412781,-0.077162720,0.110924147,0.927932382
181.166928,5.193826199,9.178143501,-2.277336121,-0.079726197,0.109459303,0.928908944
181.167554,5.819436550,9.063702583,-2.254447937,-0.077040650,0.111656569,0.926589608
181.182383,9.336587906,4.692059517,-3.414115906,-0.087660767,0.140709311,0.916457772
181.183084,9.122964859,4.531842232,-3.437004089,-0.089980103,0.142296225,0.918777108
181.183709,9.130594254,4.005414009,-3.353080750,-0.090468384,0.141685873,0.918166757
181.184335,9.161111832,3.952008009,-3.429374695,-0.093886353,0.140343100,0.915725350
181.184962,8.749124527,3.364544630,-3.559074402,-0.093031861,0.134483725,0.914138436
181.185589,8.642313004,3.265362501,-3.612480164,-0.095961548,0.133507162,0.913650155
181.186214,8.817789078,2.952557325,-3.505668640,-0.094496705,0.133873373,0.912795663
181.186839,8.619424820,2.761822462,-3.612480164,-0.093398072,0.135094076,0.914382577
181.187466,8.611795425,2.403240919,-3.627738953,-0.095229127,0.134605795,0.916091561
181.188091,8.443948746,2.075176954,-3.704032898,-0.091811158,0.132042319,0.916335702
181.188718,8.489725113,2.014141798,-3.627738953,-0.093764283,0.129478842,0.914016366
181.189345,8.268472672,1.686077833,-3.719291687,-0.093031861,0.129722983,0.914504647
181.189972,8.482095718,1.251202345,-3.848991394,-0.092421509,0.125816733,0.914016366
181.190598,8.535501480,1.136761427,-3.879508972,-0.089247681,0.122764967,0.916701913
181.192353,8.756753922,0.457745314,-3.894767761,-0.084853150,0.124840163,0.918288827
181.192978,8.680459976,0.419598341,-4.131278992,-0.080092408,0.127281576,0.923171639
181.193604,8.550760269,-0.091571093,-4.024467468,-0.079482056,0.124229811,0.925735116
181.194229,8.787271500,-0.045794725,-4.047355652,-0.080580689,0.126182944,0.929153085
181.194856,8.871194839,-0.412005663,-4.123649597,-0.077773072,0.126549155,0.933547616
181.195482,8.817789078,-0.404376268,-4.154167175,-0.077284791,0.130211264,0.934890389
181.196108,8.955118179,-0.633258104,-4.154167175,-0.075209595,0.130089194,0.936477304
181.196734,8.649942398,-0.892657518,-4.093132019,-0.073378541,0.130943686,0.940017343
181.197360,8.710977554,-0.839251757,-4.154167175,-0.073866822,0.134849936,0.943435311
181.197986,8.504983902,-0.953692675,-4.116020203,-0.075331666,0.134605795,0.947707772
181.198612,8.291360855,-0.961322069,-4.138908386,-0.077040650,0.135216147,0.949050546
181.199237,7.986184597,-1.304644823,-4.260978699,-0.076308228,0.138023764,0.950027108
181.199863,7.856484890,-1.342791796,-4.283866882,-0.074843384,0.139000326,0.952834725
181.200489,7.681008816,-1.396197557,-4.276237488,-0.077040650,0.140831381,0.954299569
181.201115,7.238503933,-1.541156054,-4.276237488,-0.080214478,0.142540365,0.957473397
181.202820,6.368752956,-1.693743944,-4.306755066,-0.079604127,0.147667319,0.962478280
181.203445,6.025430202,-1.564044237,-4.428825378,-0.077651002,0.147545248,0.961745858
181.204070,5.560037136,-1.663226366,-4.344902039,-0.073134400,0.151085287,0.965041757
181.204696,5.308267117,-1.808184862,-4.489860535,-0.075087525,0.151817709,0.968093514
181.205321,4.652139187,-1.747149706,-4.535636902,-0.073256470,0.153282553,0.971267343
181.205947,4.186746120,-1.762408495,-4.451713562,-0.072035767,0.156944662,0.972121835
181.206572,3.698464870,-1.678485155,-4.482231140,-0.076674439,0.156090170,0.973342538
181.207199,3.217813015,-1.823443651,-4.589042664,-0.071669556,0.157066733,0.975295663
181.207825,2.737161160,-1.716632128,-4.550895691,-0.070937134,0.158653647,0.976882577
181.208450,2.073403835,-1.686114550,-4.856071472,-0.072157837,0.157555014,0.976638436
181.209075,1.577493191,-1.701373339,-4.627189636,-0.066908814,0.156822592,0.982009530
181.209701,0.928994715,-1.586932421,-4.688224792,-0.068129517,0.158165365,0.983108163
181.210326,0.440713465,-1.739520311,-4.657707214,-0.064955689,0.156822592,0.986159921
181.210952,-0.146749914,-1.396197557,-4.856071472,-0.066542603,0.153282553,0.984695077
181.211579,-0.612142980,-1.487750292,-4.756889343,-0.067030884,0.153770834,0.988479257
181.213285,-1.901510715,-0.877398729,-4.817924500,-0.061415650,0.152672201,0.993850350
181.213912,-2.397421360,-1.159686327,-4.581413269,-0.060439087,0.150963217,0.994948983
181.214537,-2.756002903,-0.839251757,-4.825553894,-0.059584595,0.149620444,0.999465585
181.215162,-3.114584446,-0.549334764,-4.779777527,-0.060072877,0.146690756,0.996657968
181.229603,-0.398519933,0.297528028,-4.840812683,-0.065199830,0.114952467,0.971145272
181.230314,0.051614344,0.228863478,-5.107841492,-0.065566041,0.114097975,0.969192147
181.230939,0.570413172,0.213604689,-5.138359070,-0.066176392,0.114464186,0.971267343
181.231564,1.211282253,0.152569532,-5.107841492,-0.064711548,0.114464186,0.963332772
181.232190,1.508828640,-0.129718065,-5.100212097,-0.062758423,0.117515944,0.961623788
181.232816,2.218362331,-0.183123827,-4.970512390,-0.062270142,0.116173171,0.963576913
181.233442,2.721902370,-0.442523241,-5.168876648,-0.060194947,0.117271803,0.961013436
181.234068,3.225442410,-0.747699022,-5.176506042,-0.061171509,0.118370436,0.961501718
181.234693,3.683206081,-0.732440233,-5.176506042,-0.060317017,0.118736647,0.958938241
181.235357,4.308816433,-1.083392382,-5.359611511,-0.060194947,0.118126296,0.959304452
181.235984,4.545327663,-1.075762987,-5.466423035,-0.059340455,0.118980788,0.962356210
181.236609,5.239602566,-1.365679979,-5.313835144,-0.059340455,0.119591139,0.964187264
181.237235,5.476113796,-1.403826952,-5.489311218,-0.055434205,0.119224928,0.960769296
181.237860,6.162759304,-1.602191210,-5.405387878,-0.058608033,0.122520827,0.959792733
181.239569,6.803628445,-2.182025194,-5.489311218,-0.057143189,0.125084311,0.964187264
181.258761,10.213968277,-5.363482475,-5.397758484,-0.058485962,0.083214186,0.992141366
181.259386,10.427591324,-5.325335503,-5.573234558,-0.055312134,0.085045241,0.997756600
181.260017,10.549661636,-5.218523979,-5.405387878,-0.055800416,0.082115553,0.996780038
181.260642,10.786172867,-5.439776421,-5.283317566,-0.058974244,0.085533522,0.996169686
181.261267,10.564920425,-5.348223686,-5.199394226,-0.056899048,0.085411452,0.996291757
181.261893,10.992166519,-5.348223686,-5.100212097,-0.062392212,0.081261061,0.995925546
181.262518,11.182901382,-5.394000053,-4.878959656,-0.061537720,0.085899733,0.998000741
181.263143,11.190530777,-5.394000053,-4.917106628,-0.060194947,0.084434889,0.995559335
181.263768,11.633035660,-5.210894585,-4.886589050,-0.065443970,0.080528639,0.998611093
181.264393,11.610147476,-5.569476128,-4.802665710,-0.062636353,0.086143874,0.998489022
181.265019,12.006875992,-5.363482475,-4.817924500,-0.066420533,0.084801100,0.998855233
181.265644,12.090799332,-5.699175835,-4.787406921,-0.063246705,0.085533522,0.998855233
181.266269,12.411233902,-5.661028862,-4.566154480,-0.065932252,0.086876296,1.001662850
181.266896,12.441751480,-5.592364311,-4.611930847,-0.068251587,0.085777663,0.997390389
181.267522,12.785074234,-5.729693413,-4.688224792,-0.065810181,0.092369460,0.996657968
181.269236,13.166543961,-6.011981010,-4.375419617,-0.063002564,0.096886061,0.997024179
181.269862,13.548013687,-6.149310112,-4.367790222,-0.065321900,0.099449538,0.996413827
181.270489,13.769266129,-5.981463432,-4.398307800,-0.064345337,0.103355788,0.995559335
181.271116,13.807413101,-6.401080132,-4.520378113,-0.064345337,0.103477858,0.993239999
181.271741,13.799783707,-6.576556206,-4.329643250,-0.063490845,0.106651686,0.996657968
181.272367,13.990518570,-6.546038628,-4.383049011,-0.061293580,0.112633131,0.995071054
181.272992,14.272806168,-6.515521049,-4.352531433,-0.061293580,0.118004225,0.995315194
181.273618,14.227029800,-6.774920464,-4.192314148,-0.060072877,0.121300124,0.997512460
181.274244,14.356729507,-6.912249565,-4.268608093,-0.059584595,0.125450522,0.998122811
181.274869,14.440652847,-6.782549858,-4.268608093,-0.060317017,0.132042319,0.998489022
181.275495,14.295694351,-6.889361382,-4.291496277,-0.056899048,0.134849936,1.004226327
181.276121,14.127847672,-7.064837456,-4.169425964,-0.058852173,0.143272787,1.005447030
181.276747,14.005777359,-7.171648979,-4.299125671,-0.052382447,0.148399740,1.007033944
181.277372,14.059183121,-7.141131401,-4.474601746,-0.053603150,0.153404623,1.011306405
181.277997,13.708230972,-7.110613823,-4.360160828,-0.053114869,0.157921225,1.013625741
181.279729,12.884256363,-7.225054741,-4.474601746,-0.050429322,0.168785483,1.021194100
181.280354,12.273904800,-7.034319878,-4.573783875,-0.050063111,0.175255209,1.020705819
181.294361,-4.808310032,-4.585284233,-5.855522156,-0.037367798,0.198448569,1.040847421
181.295095,-5.327108860,-4.653948784,-5.931816101,-0.030531861,0.196007162,1.039138436
181.295720,-5.700949192,-4.455584526,-5.878410339,-0.032240845,0.193443686,1.041701913
181.296347,-6.311300755,-4.058856010,-5.939445496,-0.034804322,0.191856772,1.042800546
181.296973,-6.662252903,-4.035967827,-5.939445496,-0.046767212,0.187950522,1.042434335
181.297598,-6.982687473,-4.112261772,-6.214103699,-0.051650025,0.191490561,1.038650155
181.298225,-7.547262669,-3.929156542,-6.053886414,-0.057265259,0.190025717,1.036086679
181.298850,-7.997396946,-4.051226616,-6.130180359,-0.062148072,0.193443686,1.035964608
181.299477,-8.439901352,-3.967303514,-6.351432800,-0.060072877,0.189171225,1.030837655
181.300102,-8.577230453,-4.226702690,-6.198844910,-0.058241822,0.182213217,1.030227304
181.300727,-8.584859848,-4.150408745,-6.679496765,-0.061659791,0.185387045,1.029372811
181.301352,-8.630636215,-4.257220268,-6.687126160,-0.058730103,0.181847006,1.031692147
181.301977,-9.004476547,-4.058856010,-6.656608582,-0.060927369,0.179405600,1.028030038
181.302602,-9.210470200,-4.180926323,-6.717643738,-0.064345337,0.179039389,1.028518319
181.304322,-9.675863266,-4.386919975,-6.961784363,-0.063124634,0.173057944,1.029128671
181.304948,-9.652975082,-4.325884819,-7.144889832,-0.064711548,0.170494467,1.028640389
181.305575,-9.446981430,-4.241961479,-7.297477722,-0.065932252,0.168297201,1.026931405
181.306201,-9.355428696,-4.440325737,-7.305107117,-0.070937134,0.168541342,1.028884530
181.306827,-9.324911118,-4.226702690,-7.228813171,-0.069838502,0.165489584,1.026809335
181.307453,-9.363058090,-4.394549370,-7.320365906,-0.071303345,0.161095053,1.031203866
181.308080,-9.210470200,-4.310626030,-7.518730164,-0.064955689,0.162681967,1.032302499
181.308707,-8.874776840,-4.623431206,-7.686576843,-0.064101197,0.159630209,1.035354257
181.309332,-8.905294418,-4.631060600,-7.793388367,-0.063612916,0.156090170,1.036819100
181.309957,-8.470418930,-4.608172417,-7.816276550,-0.064223267,0.155601889,1.034621835
181.310584,-8.447530746,-4.409808159,-8.022270203,-0.060561158,0.150597006,1.037185311
181.311211,-8.127096176,-4.508990288,-7.976493835,-0.061781861,0.147301108,1.037307382
181.311836,-8.081319809,-4.577654839,-8.037528992,-0.057875611,0.144981772,1.035598397
181.312461,-7.806662083,-4.570025444,-8.144340515,-0.059462525,0.143150717,1.038894296
181.313088,-7.287863255,-4.531878471,-8.449516296,-0.059950806,0.136558920,1.038650155
181.314804,-6.181601048,-4.478472710,-8.525810242,-0.063246705,0.129356772,1.038039804
181.315429,-5.662802219,-4.356402397,-8.541069031,-0.063246705,0.123131178,1.040847421
181.316055,-5.189779758,-4.562396049,-8.510551453,-0.062270142,0.120079421,1.042068124
181.316682,-4.732016087,-4.386919975,-8.548698425,-0.061903931,0.115562819,1.040969491
181.317308,-4.060629368,-4.287737846,-8.571586609,-0.062636353,0.111900710,1.043899179
181.317935,-3.541830540,-4.341143608,-8.632621765,-0.063979127,0.107017897,1.041091561
181.318560,-2.893332005,-4.158038139,-8.724174500,-0.061781861,0.107628249,1.044753671
181.319187,-2.496603489,-4.158038139,-8.678398132,-0.063734986,0.104942702,1.043044686
181.319813,-1.802328587,-3.944415331,-8.739433289,-0.061659791,0.100670241,1.045364022
181.320439,-1.069906712,-3.753680468,-8.747062683,-0.061903931,0.097740553,1.045119882
181.321064,-0.535849035,-3.974932909,-8.777580261,-0.063246705,0.094688796,1.043288827
181.321689,0.143167078,-3.990191698,-8.655509949,-0.064833619,0.090294264,1.045241952
181.322315,0.257607996,-3.837603807,-8.838615417,-0.067519166,0.088951491,1.046828866
181.322941,0.928994715,-3.692645311,-8.800468445,-0.069106080,0.085777663,1.044875741
181.323567,1.684304714,-3.814715624,-8.815727234,-0.068373658,0.081383131,1.048049569
181.325289,2.767678738,-3.494281054,-8.808097839,-0.065321900,0.073448561,1.047683358
181.325914,3.469583035,-3.677386522,-8.876762390,-0.065077759,0.068321608,1.048659921
181.326540,4.079934597,-3.479022264,-8.579216003,-0.065077759,0.065391921,1.046340585
181.341311,11.793252945,-0.373858690,-6.801567078,-0.070692994,0.062706374,1.065993905
181.342048,11.541482925,-0.152606249,-6.679496765,-0.070692994,0.063194655,1.065871835
181.342674,11.488077164,0.137310743,-6.534538269,-0.069228150,0.066856764,1.067458749
181.343301,11.327859879,-0.068682909,-6.351432800,-0.068007447,0.068931960,1.068679452
181.343926,11.091348648,0.442486525,-6.290397644,-0.074965455,0.068199538,1.066360116
181.344552,10.938760757,0.732403517,-6.290397644,-0.073622681,0.068809889,1.068435311
181.345179,10.534402847,0.755291700,-5.893669128,-0.072768189,0.070518874,1.062698007
181.345805,10.557291031,1.075726271,-5.908927917,-0.075209595,0.073570631,1.065261483
181.346431,10.366556168,1.075726271,-5.969963074,-0.070326783,0.072960280,1.066726327
181.347057,10.137674332,1.251202345,-5.664787292,-0.072157837,0.071983717,1.069411874
181.347682,9.840127945,1.625042677,-5.687675476,-0.073622681,0.073814772,1.065139413
181.348307,9.504434586,1.754742384,-5.687675476,-0.073500611,0.073204421,1.062942147
181.348932,9.428140640,2.014141798,-5.413017273,-0.071303345,0.073082350,1.065749764
181.349558,9.267923355,2.105694532,-5.588493347,-0.071303345,0.078941725,1.068923593
181.351290,8.497354507,2.883892775,-5.222282410,-0.067641236,0.081261061,1.065261483
181.351916,8.596536636,2.929669142,-5.084953308,-0.073988892,0.080406569,1.062942147
181.352542,8.047220230,3.219586134,-5.077323914,-0.069106080,0.081749342,1.065749764
181.353168,7.841226101,3.356915236,-4.863700867,-0.068251587,0.080650710,1.061965585
181.353794,7.902261257,3.631573439,-4.909477234,-0.072890259,0.082725905,1.062942147
181.354420,7.925149441,3.822308302,-4.756889343,-0.071669556,0.085777663,1.064040780
181.355047,7.795449734,3.952008009,-4.741630554,-0.070692994,0.085045241,1.062698007
181.355673,7.551309109,3.898602247,-4.566154480,-0.069594361,0.084312819,1.064406991
181.356300,7.314797878,4.203778267,-4.505119324,-0.070326783,0.087242506,1.060622811
181.356926,7.230874538,4.608136177,-4.619560242,-0.069594361,0.089805983,1.062820077
181.357551,7.162209988,4.684430122,-4.436454773,-0.068984009,0.087852858,1.061843514
181.358178,7.207986355,4.844647408,-4.634819031,-0.068129517,0.091026686,1.064651132
181.358805,7.070657253,4.989605904,-4.398307800,-0.069716431,0.091514967,1.060622811
181.359431,6.765481472,5.233746529,-4.413566589,-0.070204712,0.092979811,1.061721444
181.360057,6.559487820,5.508404732,-4.268608093,-0.069106080,0.095177077,1.063064218
181.361769,6.284829617,6.134015083,-4.161796570,-0.068007447,0.103233717,1.060134530
181.362394,6.017800808,6.347638130,-4.116020203,-0.068007447,0.104698561,1.057448983
181.363021,5.727883816,6.393414497,-4.001579285,-0.070204712,0.107384108,1.059890389
181.363647,5.476113796,6.675702095,-4.032096863,-0.070204712,0.111046217,1.060012460
181.364273,5.270120144,6.942730904,-4.085502625,-0.069106080,0.112388991,1.060500741
181.364900,5.094644070,7.072430611,-3.879508972,-0.071059205,0.112388991,1.061721444
181.365526,4.812356472,7.171612740,-3.833732605,-0.071059205,0.115562819,1.059768319
181.366151,4.491921902,7.736187935,-3.864250183,-0.072524048,0.119224928,1.058547616
181.366777,4.125710964,7.698040962,-3.879508972,-0.068617798,0.119957350,1.056838632
181.367403,3.942605495,7.850628853,-3.948173523,-0.067275025,0.122887038,1.056960702
181.368028,3.522988796,8.399945259,-3.574333191,-0.066054322,0.124107741,1.054031014
181.368654,3.210183620,8.644085884,-3.711662292,-0.066786744,0.124351881,1.056228280
181.369280,2.775308132,8.506756783,-3.642997742,-0.068495728,0.128746420,1.050857186
181.369905,2.500649929,8.789044380,-3.711662292,-0.071791627,0.128868490,1.052810311
181.370531,2.195474148,8.926373482,-3.787956238,-0.069594361,0.132286459,1.047073007
181.372259,1.196023464,9.628277779,-3.642997742,-0.070815064,0.133018881,1.047561288
181.372886,0.822183192,9.613018990,-3.620109558,-0.073622681,0.134605795,1.042312264
181.373512,0.623818934,9.651165962,-3.841362000,-0.073622681,0.138023764,1.042922616
181.374138,0.219461024,9.857159615,-3.559074402,-0.071425416,0.136925131,1.038894296
181.388044,-1.245382786,11.131268501,-4.100761414,-0.075453736,0.120567702,0.985427499
181.388753,-1.344564915,11.062603951,-3.917655945,-0.079726197,0.119224928,0.981887460
181.389378,-1.146200657,11.039715767,-3.871879578,-0.079848267,0.119346999,0.978835702
181.390004,-0.871542394,10.917645454,-3.795585632,-0.079726197,0.114830397,0.979690194
181.390630,-0.833395422,10.795575142,-3.848991394,-0.078383423,0.112877272,0.972488046
181.391257,-0.566366613,10.780316353,-4.016838074,-0.081435181,0.114952467,0.970168710
181.391882,-0.383261144,10.650616646,-3.925285339,-0.079848267,0.114342116,0.971145272
181.392507,-0.314596593,10.147076607,-3.910026550,-0.087660767,0.111168288,0.966506600
181.393133,-0.131491125,10.383587837,-3.894767761,-0.083998658,0.113975905,0.965163827
181.393759,0.112649500,10.124188423,-3.871879578,-0.080580689,0.115318678,0.960891366
181.394384,0.249978602,10.009747505,-3.986320496,-0.083144166,0.117760085,0.962478280
181.395016,0.318643153,9.811383247,-3.986320496,-0.082777955,0.111656569,0.959060311
181.395641,0.547524989,9.796124458,-4.138908386,-0.081679322,0.111656569,0.959914804
181.396267,0.692483485,9.765606880,-3.993949890,-0.083022095,0.110802077,0.959792733
181.398006,0.990029871,9.048443794,-4.085502625,-0.084486939,0.105308913,0.957717538
181.398631,1.424905300,9.086590767,-4.116020203,-0.084120728,0.102623366,0.958205819
181.399256,1.424905300,8.918744087,-4.138908386,-0.084242798,0.099815749,0.960769296
181.399881,1.623269558,8.628827095,-4.199943542,-0.087904908,0.099205397,0.956374764
181.400506,1.577493191,8.605938911,-4.024467468,-0.084364869,0.097374342,0.959060311
181.401131,2.012368679,8.537274361,-4.116020203,-0.081679322,0.091759108,0.960525155
181.401758,2.073403835,8.331280708,-4.077873230,-0.080824830,0.090416335,0.954909921
181.402384,2.248879910,8.163434029,-4.283866882,-0.079604127,0.089073561,0.956252694
181.403016,2.416726589,7.980328560,-4.154167175,-0.077406861,0.088096999,0.957351327
181.403643,2.447244167,7.881146431,-4.016838074,-0.078017212,0.084556960,0.954421639
181.404270,2.706643581,7.957440376,-4.047355652,-0.075819947,0.081138991,0.956496835
181.404896,3.004189968,7.804852486,-3.902397156,-0.076430298,0.079307936,0.953811288
181.405521,3.225442410,7.614117622,-3.879508972,-0.076674439,0.074547194,0.952346444
181.406147,3.431436062,7.720929146,-4.039726257,-0.076918580,0.074180983,0.954299569
181.406774,3.698464870,7.453900337,-4.108390808,-0.075697877,0.072227858,0.949538827
181.408482,4.308816433,7.026654243,-3.627738953,-0.072401978,0.064537428,0.947097421
181.409109,4.407998562,6.851178169,-3.818473816,-0.074477173,0.064903639,0.943679452
181.409735,4.728433132,6.652813911,-3.635368347,-0.076186158,0.064049147,0.941604257
181.410362,4.911538601,6.713849068,-3.627738953,-0.076186158,0.062828444,0.940261483
181.410987,5.102273464,6.645184517,-3.276786804,-0.077406861,0.061363600,0.940749764
181.411613,5.087014675,6.500226021,-3.383598328,-0.078749634,0.060264967,0.937453866
181.412238,5.415078640,6.202679634,-3.581962585,-0.080214478,0.058800124,0.936965585
181.412864,5.422708035,5.950909615,-3.208122253,-0.082533814,0.056969069,0.936599374
181.413489,5.842324734,5.783062935,-3.009757996,-0.083388306,0.055870436,0.934524179
181.414114,5.842324734,5.660992622,-3.047904968,-0.085463502,0.059044264,0.934280038
181.414739,5.972024441,5.470257759,-2.910575867,-0.086562134,0.054283522,0.933913827
181.415365,5.994912624,5.279522896,-2.674064636,-0.084364869,0.054283522,0.935989022
181.415991,6.147500515,5.050641060,-2.864799500,-0.088637330,0.051964186,0.933913827
181.416616,6.300088406,4.844647408,-2.674064636,-0.087782837,0.053306960,0.935134530
181.417242,6.322976589,4.486065865,-2.536735535,-0.089125611,0.053551100,0.930495858
181.418948,6.567117214,3.974896193,-2.178153992,-0.085341431,0.050377272,0.935500741
181.419575,6.506082058,3.700237989,-2.147636414,-0.086440064,0.050377272,0.933913827
181.420201,6.361123562,3.471356153,-2.063713074,-0.084120728,0.050011061,0.932571054
181.420827,6.696816921,3.440838575,-2.033195496,-0.084242798,0.048180006,0.934524179
181.435559,9.481546402,0.251751661,0.530281067,-0.090590455,0.068077467,0.960158944
181.436268,9.634134293,0.152569532,0.667610168,-0.088881470,0.069298171,0.961989999
181.436894,9.611246109,-0.053424120,0.713386536,-0.087050416,0.067711256,0.963698983
181.437520,9.733316422,-0.000018358,0.743904114,-0.088637330,0.073326491,0.966994882
181.438147,9.946939468,0.091534376,0.858345032,-0.089491822,0.074913405,0.968948007
181.438774,9.687540054,0.122051954,0.835456848,-0.090712525,0.077354811,0.971633554
181.439399,9.763834000,-0.099200487,0.911750793,-0.091567017,0.081138991,0.972365975
181.440040,9.740945816,-0.038165331,1.194038391,-0.090224244,0.086143874,0.971633554
181.440666,9.565469742,0.045758009,1.178779602,-0.090468384,0.089805983,0.972976327
181.441291,9.672281265,-0.068682909,1.262702942,-0.090956666,0.093590163,0.975417733
181.441918,9.611246109,-0.053424120,1.316108704,-0.089369752,0.100670241,0.978347421
181.442544,9.519693375,-0.198382616,1.201667786,-0.088637330,0.101280592,0.978591561
181.443170,9.359476089,-0.068682909,1.224555969,-0.089369752,0.105919264,0.979323983
181.443795,9.206888199,-0.068682909,1.506843567,-0.088393189,0.110924147,0.982741952
181.445509,8.665201187,-0.167865038,1.529731750,-0.089613892,0.120811842,0.985427499
181.446134,8.184549332,-0.007647753,1.560249329,-0.085707642,0.125816733,0.988235116
181.446759,7.871743679,0.076275587,1.743354797,-0.082655884,0.130821615,0.986770272
181.447386,7.444497585,-0.038165331,1.728096008,-0.082655884,0.132774740,0.989944100
181.448019,7.391091824,-0.022906542,1.575508118,-0.082777955,0.140953451,0.989333749
181.448645,7.154580593,0.236492872,1.514472961,-0.085585572,0.141807944,0.989577889
181.449271,6.727334499,0.007611036,1.636543274,-0.085219361,0.140831381,0.988357186
181.449897,6.216165066,0.221234083,1.621284485,-0.083876587,0.145347983,0.993362069
181.450522,5.910989285,0.305157423,1.590766907,-0.083266236,0.148155600,0.991164804
181.451147,5.521890163,0.122051954,1.613655090,-0.083632447,0.149620444,0.990066171
181.451774,5.247231960,0.526409864,1.308479309,-0.084731080,0.152305990,0.993362069
181.452399,5.033608913,0.282269239,1.682319641,-0.084486939,0.154137045,0.990432382
181.453025,4.507180691,0.160198927,1.377143860,-0.084731080,0.156090170,0.991286874
181.453650,4.385110378,0.381451368,1.430549622,-0.083144166,0.161583334,0.989333749
181.454276,3.996011257,0.556927443,1.682319641,-0.084242798,0.160484701,0.991531014
181.455968,2.958413601,0.267010450,1.483955383,-0.086562134,0.169395834,0.986281991
181.456594,2.836343288,0.259381056,1.415290833,-0.085585572,0.168419272,0.985793710
181.457219,2.592202663,0.144940138,1.415290833,-0.084731080,0.168419272,0.981887460
181.457845,2.317544460,0.022869825,1.209297180,-0.086928345,0.172569662,0.982619882
181.458472,1.768228054,-0.015277147,1.125373840,-0.086562134,0.175255209,0.982009530
181.459098,1.569863796,0.022869825,1.255073547,-0.087660767,0.175377280,0.981887460
181.459724,1.592751980,-0.267047167,1.140632629,-0.088637330,0.176353842,0.981277108
181.460349,1.508828640,-0.328082323,1.186408997,-0.087294556,0.176475912,0.981765389
181.460975,1.150247097,-0.297564745,1.041450500,-0.086317994,0.178551108,0.979812264
181.461601,0.974771082,-0.541705370,0.888862610,-0.082289673,0.176231772,0.977737069
181.462227,0.890847743,-0.602740526,0.911750793,-0.086195923,0.181114584,0.979812264
181.462853,1.127358913,-0.724810839,0.927009583,-0.082777955,0.179771811,0.978469491
181.463479,0.616189539,-0.869769335,0.904121399,-0.084120728,0.182335287,0.977126718
181.464105,0.562783778,-0.572222948,0.659980774,-0.083510377,0.184288412,0.978591561
181.464731,0.333901942,-0.968951464,0.659980774,-0.085219361,0.183800131,0.982497811
181.466420,-0.017050207,-1.068133593,0.263252258,-0.081679322,0.188927084,0.981765389
181.467045,-0.070455968,-1.083392382,0.377693176,-0.082289673,0.192467123,0.984817147
181.467672,-0.062826574,-1.251239061,0.179328918,-0.081068970,0.188560873,0.984084725
181.468297,-0.062826574,-1.365679979,-0.072441101,-0.080458619,0.190880209,0.983962655
181.468924,-0.413778722,-1.571673632,0.171699524,-0.079237916,0.189781576,0.987990975
181.482812,-3.534201145,-1.892108202,-1.445732117,-0.078505494,0.165977865,0.987014413
181.483514,-3.770712376,-1.991290331,-1.636466980,-0.083144166,0.162681967,0.986892343
181.484141,-3.969076633,-1.808184862,-1.552543640,-0.082533814,0.162071615,0.984573007
181.484768,-4.388693333,-2.265948534,-1.621208191,-0.079604127,0.158409506,0.985305429
181.485393,-4.281881809,-1.930255175,-1.712760925,-0.082411744,0.158043295,0.979446054
181.486019,-4.587057590,-2.029437304,-1.605949402,-0.085707642,0.155235678,0.982864022
181.486646,-4.846457005,-2.296466112,-1.590690613,-0.083632447,0.153282553,0.977370858
181.487271,-5.327108860,-1.976031542,-1.590690613,-0.085951783,0.153892905,0.981032968
181.487897,-5.594137669,-1.907366991,-1.720390320,-0.088026978,0.149986655,0.979079843
181.488523,-5.952719212,-2.075213671,-1.605949402,-0.084731080,0.150474936,0.979079843
181.489149,-6.158712864,-2.265948534,-1.567802429,-0.088026978,0.151451498,0.979079843
181.489774,-6.875875950,-1.983660936,-1.605949402,-0.088393189,0.146202475,0.978591561
