time,gyro x,gyro y,gyro z,accel x,accel y,accel z
71.228755,-2.534389496,-0.708133698,0.591918945,0.012900025,-0.078269348,0.969401598
71.267568,-0.749111176,-5.079776764,-1.086547852,0.032309204,-0.048606262,0.984782457
71.281814,-0.222682953,-6.330997467,-1.155212402,0.050863892,-0.072409973,0.994303942
71.297315,-0.512599945,-4.591495514,1.232788086,0.048422486,-0.083152160,1.008708239
71.335883,-3.083705902,-0.753910065,-0.544860840,0.046347290,-0.078757629,0.990641832
71.374364,0.189304352,-15.806705475,0.141784668,0.067343384,-0.042136535,1.006388903
71.388728,1.516819000,-18.324405670,0.088378906,-0.008218139,-0.087302551,1.023722887
71.404135,0.189304352,-16.851932526,-0.758483887,-0.023598999,-0.095237121,1.019938707
71.442687,-1.725673676,-6.361515045,-1.109436035,0.052328736,-0.074485168,0.965251207
71.481172,3.721714020,-15.760929108,0.591918945,0.101767212,-0.078147277,0.944865465
71.495382,3.622531891,-19.323856354,-2.368286133,0.045248657,-0.091330871,0.944987535
71.510846,2.508640289,-18.011600494,-1.979187012,0.045004517,-0.129905090,0.959391832
71.549406,-0.749111176,-2.905399323,-0.521972656,0.032187134,-0.113669738,0.997721910
71.587864,1.379489899,-5.407840729,-3.337219238,0.018637329,-0.105124816,0.986247301
71.602271,0.509738922,0.359981537,-2.780273438,-0.001260132,-0.082785949,0.984660387
71.617792,1.463413239,12.528865814,-1.056030273,0.016317993,-0.088645324,0.984172106
71.656401,3.607273102,11.384456635,-3.604248047,0.085776001,-0.074241027,1.011515856
71.657186,3.607273102,11.384456635,-3.604248047,0.085776001,-0.074241027,1.011515856
71.657879,3.607273102,11.384456635,-3.604248047,0.085776001,-0.074241027,1.011515856
71.658589,3.607273102,11.384456635,-3.604248047,0.085776001,-0.074241027,1.011515856
71.659285,3.607273102,11.384456635,-3.604248047,0.085776001,-0.074241027,1.011515856
71.659985,3.607273102,11.384456635,-3.604248047,0.085776001,-0.074241027,1.011515856
71.660679,3.607273102,11.384456635,-3.604248047,0.085776001,-0.074241027,1.011515856
71.661388,3.607273102,11.384456635,-3.604248047,0.085776001,-0.074241027,1.011515856
71.662077,3.607273102,11.384456635,-3.604248047,0.085776001,-0.074241027,1.011515856
71.662782,3.607273102,11.384456635,-3.604248047,0.085776001,-0.074241027,1.011515856
71.663478,3.523349762,11.170833588,-3.489807129,0.073324829,-0.086814269,1.027873278
71.664183,3.523349762,11.170833588,-3.489807129,0.073324829,-0.086814269,1.027873278
71.664879,3.523349762,11.170833588,-3.489807129,0.073324829,-0.086814269,1.027873278
71.665590,3.523349762,11.170833588,-3.489807129,0.073324829,-0.086814269,1.027873278
71.703909,0.296115875,12.864559174,0.179931641,0.059042603,-0.077170715,0.995890856
71.718158,0.830173492,8.782833099,-1.063659668,0.056601197,-0.085593566,1.007487535
71.733784,-0.352382660,-4.454166412,-3.840759277,0.063925415,-0.094504699,1.001384020
71.772281,0.059604645,-10.290653229,-6.846740723,0.017172486,-0.081687316,0.980876207
71.810749,1.211643219,2.305477142,-5.473449707,0.020834595,-0.073508605,1.013957262
71.824995,-1.771450043,7.310359955,-4.107788086,0.026327759,-0.087912902,1.008342028
71.840470,-1.840114594,8.805721283,-5.816772461,0.017050415,-0.042868957,0.998942614
71.879028,-1.824855804,15.168636322,-2.520874023,0.059897095,-0.109031066,1.011882067
71.917498,-0.482082367,-2.050907135,-6.549194336,0.094565064,-0.054221496,0.982585192
71.931740,1.684665680,-6.582767487,-6.236389160,0.071127564,-0.043967590,0.974894762
71.962878,-0.131130219,-5.796939850,-3.939941406,0.077353150,-0.090354308,0.981242418
72.001434,0.792026520,-3.599674225,-4.199340820,0.040365845,-0.059226379,0.949992418
72.039888,2.081394196,11.598079681,-0.682189941,0.045736939,-0.099265441,0.955485582
72.054130,1.745700836,9.118526459,-1.712158203,0.085043579,-0.108786926,0.971965075
72.069749,1.898288727,4.983394623,-3.024414062,0.086020142,-0.106467590,0.973307848
72.108358,3.210544586,3.793209076,-1.811340332,0.028647095,-0.080588683,0.978312731
72.146673,1.631259918,-10.275394440,-4.771545410,0.069174439,-0.121970519,1.011149645
72.161089,1.097202301,-16.508609772,-6.587341309,0.028647095,-0.070456848,0.995158434
72.176523,1.379489899,-15.013248444,-6.724670410,0.004843384,-0.075217590,0.987834215
72.230849,1.379489899,-5.789310455,-8.075073242,0.038778931,-0.070823058,0.989054918
72.269388,1.554965973,9.355037689,-7.060363770,0.003012329,-0.078513488,0.978923082
72.283770,1.677036285,12.887447357,-6.221130371,0.025595337,-0.086448058,0.991252184
72.299176,1.097202301,10.011165619,-7.335021973,0.075277954,-0.115012512,1.008097887
72.300010,1.097202301,10.011165619,-7.335021973,0.075277954,-0.115012512,1.008097887
72.300759,1.097202301,10.011165619,-7.335021973,0.075277954,-0.115012512,1.008097887
72.301503,1.097202301,10.011165619,-7.335021973,0.075277954,-0.115012512,1.008097887
72.302232,1.097202301,10.011165619,-7.335021973,0.075277954,-0.115012512,1.008097887
72.302974,1.097202301,10.011165619,-7.335021973,0.075277954,-0.115012512,1.008097887
72.303698,1.097202301,10.011165619,-7.335021973,0.075277954,-0.115012512,1.008097887
72.304445,1.097202301,10.011165619,-7.335021973,0.075277954,-0.115012512,1.008097887
72.305168,1.097202301,10.011165619,-7.335021973,0.075277954,-0.115012512,1.008097887
72.305912,1.097202301,10.011165619,-7.335021973,0.075277954,-0.115012512,1.008097887
72.306634,1.097202301,10.011165619,-7.335021973,0.075277954,-0.115012512,1.008097887
72.307378,1.097202301,10.011165619,-7.335021973,0.075277954,-0.115012512,1.008097887
72.308106,1.097202301,10.011165619,-7.335021973,0.075277954,-0.115012512,1.008097887
72.308843,1.097202301,10.011165619,-7.335021973,0.075277954,-0.115012512,1.008097887
72.347269,0.364780426,2.122371674,-5.954101562,0.050253540,-0.128440246,1.006999254
72.385844,2.859592438,-1.028568268,-3.512695312,0.099569947,-0.095115051,1.005412340
72.400173,1.364231110,-6.598026276,-2.261474609,0.071127564,-0.121970519,1.008830309
72.415830,0.647068024,-5.430728912,-2.559020996,0.036215454,-0.101340637,0.997111559
72.454308,0.372409821,8.836238861,2.278015137,0.091147095,-0.118064269,1.009684801
72.492783,0.761508942,-13.670475006,0.843688965,0.087851197,-0.191062316,1.021281481
72.507031,-1.763820648,-12.846500397,2.468750000,0.052939087,-0.088523254,1.008708239
72.522482,1.188755035,-6.025821686,4.078552246,0.024740845,-0.041404113,0.985636950
72.561006,-4.319667816,-8.299381256,2.781555176,0.056112915,-0.074363098,0.993937731
72.599464,-4.403591156,0.634639740,4.315063477,0.056601197,-0.045920715,0.932902575
72.613880,-2.526760101,-0.067264557,4.955932617,0.089926392,-0.029319152,0.930217028
72.629304,-1.626491547,-11.702091217,0.363037109,0.141806275,-0.098533019,0.930827379
72.630166,-1.626491547,-11.702091217,0.363037109,0.141806275,-0.098533019,0.930827379
72.630915,-1.626491547,-11.702091217,0.363037109,0.141806275,-0.098533019,0.930827379
72.631660,-1.626491547,-11.702091217,0.363037109,0.141806275,-0.098533019,0.930827379
72.632391,-1.626491547,-11.702091217,0.363037109,0.141806275,-0.098533019,0.930827379
72.633141,-1.626491547,-11.702091217,0.363037109,0.141806275,-0.098533019,0.930827379
72.633867,-1.626491547,-11.702091217,0.363037109,0.141806275,-0.098533019,0.930827379
72.634617,-1.626491547,-11.702091217,0.363037109,0.141806275,-0.098533019,0.930827379
72.635349,-1.626491547,-11.702091217,0.363037109,0.141806275,-0.098533019,0.930827379
72.636094,-1.626491547,-11.702091217,0.363037109,0.141806275,-0.098533019,0.930827379
72.636818,-1.626491547,-11.702091217,0.363037109,0.141806275,-0.098533019,0.930827379
72.637568,0.349521637,-17.904788971,-0.232055664,0.145468384,-0.041526183,0.927775621
72.638302,0.349521637,-17.904788971,-0.232055664,0.145468384,-0.041526183,0.927775621
72.639052,0.349521637,-17.904788971,-0.232055664,0.145468384,-0.041526183,0.927775621
72.639783,0.349521637,-17.904788971,-0.232055664,0.145468384,-0.041526183,0.927775621
72.640534,0.349521637,-17.904788971,-0.232055664,0.145468384,-0.041526183,0.927775621
72.694859,4.820346832,-7.010013580,6.962463379,0.076986939,-0.019431457,0.925212145
72.733390,5.346775055,-4.515201569,6.634399414,0.093588501,-0.064719543,0.956218004
72.747755,5.621433258,5.921810150,7.542297363,0.040609986,-0.039450988,0.943034410
72.763177,5.720615387,14.146297455,8.770629883,0.031576782,-0.021506652,0.945597887
72.818530,4.995822906,0.077693939,8.518859863,0.110800415,-0.029807433,0.961833239
72.857020,7.124423981,-6.292850494,9.060546875,0.047201782,-0.048972473,0.972087145
72.871394,5.980014801,-6.407291412,8.816406250,0.052450806,-0.068137512,0.978434801
72.886810,4.492282867,-9.504825592,8.228942871,0.053549439,-0.035544738,0.972087145
72.887635,4.492282867,-9.504825592,8.228942871,0.053549439,-0.035544738,0.972087145
72.888404,4.492282867,-9.504825592,8.228942871,0.053549439,-0.035544738,0.972087145
72.889146,4.492282867,-9.504825592,8.228942871,0.053549439,-0.035544738,0.972087145
72.927597,7.261753082,-8.627445221,4.711791992,-0.010049194,-0.019675598,0.954875231
72.966068,2.813816071,9.072750092,6.375000000,0.032309204,-0.064109191,0.954386950
72.980317,2.790927887,10.308712006,6.413146973,0.039267212,-0.034201965,0.935710192
72.995910,7.429599762,9.934871674,4.238769531,0.032797486,-0.000632629,0.931681871
73.034239,6.208896637,10.156124115,3.094360352,0.049765259,-0.065085754,0.961344957
73.072716,9.474277496,6.753414154,3.010437012,0.067831665,-0.033835754,0.911906481
73.087108,12.548923492,7.249324799,2.606079102,0.036215454,-0.043113098,0.930949450
73.102522,12.571811676,9.698360443,2.201721191,0.027304322,-0.051413879,0.953410387
73.141058,6.086826324,18.792598724,0.576660156,0.062094361,-0.015769348,0.929728746
73.141839,6.086826324,18.792598724,0.576660156,0.062094361,-0.015769348,0.929728746
73.142562,6.086826324,18.792598724,0.576660156,0.062094361,-0.015769348,0.929728746
73.143275,6.086826324,18.792598724,0.576660156,0.062094361,-0.015769348,0.929728746
73.143992,7.688999176,18.502681732,1.171752930,0.081259400,-0.021384582,0.915202379
73.144703,7.688999176,18.502681732,1.171752930,0.081259400,-0.021384582,0.915202379
73.145410,7.688999176,18.502681732,1.171752930,0.081259400,-0.021384582,0.915202379
73.146127,7.688999176,18.502681732,1.171752930,0.081259400,-0.021384582,0.915202379
73.146830,7.688999176,18.502681732,1.171752930,0.081259400,-0.021384582,0.915202379
73.147539,7.688999176,18.502681732,1.171752930,0.081259400,-0.021384582,0.915202379
73.148251,7.688999176,18.502681732,1.171752930,0.081259400,-0.021384582,0.915202379
73.148968,7.688999176,18.502681732,1.171752930,0.081259400,-0.021384582,0.915202379
73.149667,7.688999176,18.502681732,1.171752930,0.081259400,-0.021384582,0.915202379
73.150387,7.688999176,18.502681732,1.171752930,0.081259400,-0.021384582,0.915202379
73.151092,7.688999176,18.502681732,1.171752930,0.081259400,-0.021384582,0.915202379
73.151795,7.688999176,18.502681732,1.171752930,0.081259400,-0.021384582,0.915202379
73.190131,11.190891266,12.170284271,5.131408691,0.119101197,-0.021628723,0.943156481
73.204503,9.214878082,2.236812592,4.856750488,0.121542603,-0.066184387,0.967326403
73.219923,8.688449860,-2.203495026,5.467102051,0.106772095,-0.060691223,0.961344957
73.258465,12.159824371,-12.274295807,3.338500977,0.037802368,0.049660340,0.853068590
73.296951,16.424655914,-4.049808502,3.292724609,-0.013223022,-0.017478332,0.870280504
73.311197,18.278598785,-0.822574615,1.728698730,-0.028359741,0.013161317,0.858805895
73.326670,21.757602692,7.546871185,0.721618652,-0.019082397,-0.013694152,0.859782457
73.365225,27.174472809,9.301631927,1.911804199,0.036337525,0.007057801,0.928996325
73.415249,28.608798981,9.957759857,-2.345397949,0.003744751,0.062966004,0.960978746
73.429687,28.860569000,11.773555756,-0.705078125,0.018881470,0.065895692,0.983195543
73.445098,26.617527008,10.888545990,0.515625000,0.016195923,0.066261902,1.014933825
73.483623,26.289463043,7.516353607,-3.917053223,-0.007973999,0.122902527,1.064250231
73.522109,18.080234528,1.534908295,-3.245666504,0.020834595,0.110939637,1.071086168
73.536338,18.812656403,-0.380069733,-4.748657227,0.013144165,0.117409363,1.057658434
73.551931,20.323276520,0.352352142,-4.008605957,0.002646118,0.136818543,1.081462145
73.552717,20.323276520,0.352352142,-4.008605957,0.002646118,0.136818543,1.081462145
73.591069,11.770725250,-2.790958405,-4.153564453,0.041342407,0.098488465,1.169108629
73.641492,8.917331696,-16.310245514,-5.885437012,0.057577759,0.129250184,1.179728746
73.655754,7.803440094,-18.728763580,-4.878356934,0.058432251,0.127663270,1.203654528
73.671330,2.806186676,-23.458988190,-5.099609375,0.056357056,0.045021668,1.235881090
73.709651,-4.045009613,-20.475894928,-5.954101562,0.034384400,0.089577332,1.225016832
73.748277,-13.139247894,-17.782718658,-5.420043945,0.064779907,0.055763856,1.231486559
73.762685,-16.686916351,-12.510807037,-6.244018555,0.009970337,0.094093934,1.181926012
73.778101,-16.831874847,-6.590396881,-7.884338379,-0.012002319,0.108376160,1.160075426
73.816627,-20.982265472,17.564266205,-5.030944824,0.051596314,0.080177918,1.158610582
73.855116,-18.876552582,11.231868744,-7.800415039,0.077963501,0.111061707,1.072062731
73.869360,-18.327236176,5.380123138,-8.273437500,0.088827759,0.090798035,1.053996325
73.884974,-18.052577972,3.709285736,-7.846191406,0.092001587,0.069069520,1.044596910
73.923326,-18.159389496,-2.989322662,-3.238037109,0.137777954,0.086159363,0.940959215
73.961813,-5.570888519,-19.262821198,-2.200439453,0.072104126,0.036110535,0.940837145
73.976204,-6.028652191,-18.202335358,-0.941589355,0.049765259,0.018288270,0.944987535
73.991608,-5.258083344,-12.548954010,0.111267090,0.020346314,0.055885926,0.920573473
74.030154,4.789829254,-1.837284088,-0.583007812,-0.009927124,0.042214051,0.972087145
74.068740,0.509738922,10.987728119,-0.140502930,0.004599243,0.019142762,1.016764879
74.096551,1.493930817,11.651485443,-0.308349609,0.029013306,0.042946473,0.998210192
74.110828,6.048679352,9.889095306,1.080200195,0.038534790,0.056130067,1.029704332
74.149257,1.860141754,3.159969330,1.202270508,0.020346314,-0.004660949,1.079631090
74.187762,5.095005035,-5.873233795,-1.941040039,0.008383423,0.058571473,1.043009996
74.201975,5.194187164,-5.590946198,-2.475097656,0.006552368,0.035011902,1.052165270
74.217414,3.271579742,-0.357181549,-1.643493652,0.004721314,0.004128113,1.052287340
74.255984,1.905918121,10.323970795,-1.834228516,0.006186157,0.047096863,1.006999254
74.294481,4.507541656,20.707576752,-2.757385254,0.064901978,0.035744324,1.011882067
74.308849,6.498813629,18.144100189,-1.262023926,0.113485962,-0.001487121,1.020671129
74.324256,7.170200348,16.854732513,-1.864746094,0.114706665,0.045509949,1.025431871
74.362774,6.689548492,24.156063080,4.780456543,0.074911743,0.085549012,1.074748278
74.401273,3.172397614,19.471614838,9.899780273,0.101278931,0.070900574,1.125773668
74.415513,3.202915192,14.863460541,10.441467285,0.087362915,0.106789246,1.122111559
74.430988,4.484653473,5.616634369,9.846374512,0.061484009,0.147316590,1.108317614
74.469525,1.120090485,-0.227481842,11.852905273,-0.006753296,0.031227723,1.199992418
74.470296,1.120090485,-0.227481842,11.852905273,-0.006753296,0.031227723,1.199992418
74.471124,1.120090485,-0.227481842,11.852905273,-0.006753296,0.031227723,1.199992418
74.471801,1.120090485,-0.227481842,11.852905273,-0.006753296,0.031227723,1.199992418
74.510013,-2.648830414,1.489131927,12.890502930,-0.053994507,0.139259949,1.133586168
74.524381,-1.588344574,1.183956146,12.173339844,-0.065102905,0.164650574,1.125163317
74.539832,-0.909328461,3.594844818,11.471435547,-0.098916382,0.143654481,1.117961168
74.540698,-0.909328461,3.594844818,11.471435547,-0.098916382,0.143654481,1.117961168
74.541456,-0.909328461,3.594844818,11.471435547,-0.098916382,0.143654481,1.117961168
74.542209,-0.909328461,3.594844818,11.471435547,-0.098916382,0.143654481,1.117961168
74.542932,-0.909328461,3.594844818,11.471435547,-0.098916382,0.143654481,1.117961168
74.543683,-0.909328461,3.594844818,11.471435547,-0.098916382,0.143654481,1.117961168
74.544404,-0.909328461,3.594844818,11.471435547,-0.098916382,0.143654481,1.117961168
74.545154,-2.084255219,6.494014740,10.235473633,-0.112588257,0.128395692,1.112101793
74.545870,-2.084255219,6.494014740,10.235473633,-0.112588257,0.128395692,1.112101793
74.546618,-2.084255219,6.494014740,10.235473633,-0.112588257,0.128395692,1.112101793
74.547337,-2.084255219,6.494014740,10.235473633,-0.112588257,0.128395692,1.112101793
74.548085,-2.084255219,6.494014740,10.235473633,-0.112588257,0.128395692,1.112101793
74.599234,-5.662441254,16.877620697,7.839843750,-0.124184936,0.070290223,1.123210192
74.637624,-4.807949066,20.921199799,3.651306152,-0.139687866,0.130959168,1.086833239
74.652039,-5.746364594,23.118465424,3.430053711,-0.125649780,0.101174012,1.101237535
74.667483,-10.385036469,23.728816986,2.522155762,-0.071450561,0.092507020,1.126017809
74.706037,-12.948513031,5.303829193,2.377197266,-0.029946655,0.104836121,1.085978746
74.744517,-17.358303070,-7.200748444,0.736877441,-0.058755249,0.097023621,1.031901598
74.773755,-15.359401703,-5.239994049,2.422973633,-0.062417358,0.104225770,0.968180895
74.788032,-14.222621918,-5.018741608,2.369567871,-0.063027710,0.101662293,0.966349840
74.826466,-14.283657074,-4.446537018,1.484558105,-0.058999389,0.089211121,0.915446520
74.864959,-6.295681000,-1.287967682,0.141784668,-0.101113647,-0.018210754,0.896891832
74.879190,-9.820461273,1.565425873,0.324890137,-0.102822632,0.032570496,0.909587145
74.894817,-7.508754730,3.755062103,1.232788086,-0.073403686,0.053444520,0.914714098
74.933140,-6.181240082,-18.103153229,-3.878906250,-0.052163452,0.039284363,0.931437731
74.971613,-4.365444183,-16.607791901,-3.001525879,-0.059487671,-0.043723449,0.933512926
74.986003,-3.465175629,-16.508609772,-3.390625000,-0.061562866,0.032204285,0.936564684
75.001427,-2.397060394,-18.240482330,-5.465820312,-0.065957397,0.074318543,0.937052965
75.040112,0.898838043,-10.237247467,-9.929016113,-0.087075561,0.039650574,0.984294176
75.040915,0.898838043,-10.237247467,-9.929016113,-0.087075561,0.039650574,0.984294176
75.041613,0.708103180,-5.087406158,-9.440734863,-0.078408569,0.036598817,1.005900621
75.042323,0.708103180,-5.087406158,-9.440734863,-0.078408569,0.036598817,1.005900621
75.043016,0.708103180,-5.087406158,-9.440734863,-0.078408569,0.036598817,1.005900621
75.043723,0.708103180,-5.087406158,-9.440734863,-0.078408569,0.036598817,1.005900621
75.044421,0.708103180,-5.087406158,-9.440734863,-0.078408569,0.036598817,1.005900621
75.045128,0.708103180,-5.087406158,-9.440734863,-0.078408569,0.036598817,1.005900621
75.045818,0.708103180,-5.087406158,-9.440734863,-0.078408569,0.036598817,1.005900621
75.046532,0.708103180,-5.087406158,-9.440734863,-0.078408569,0.036598817,1.005900621
75.047232,0.708103180,-5.087406158,-9.440734863,-0.078408569,0.036598817,1.005900621
75.047951,0.708103180,-5.087406158,-9.440734863,-0.078408569,0.036598817,1.005900621
75.048639,0.708103180,-5.087406158,-9.440734863,-0.078408569,0.036598817,1.005900621
75.087042,-3.350734711,8.943050385,-10.234191895,-0.026894897,0.077492371,1.011637926
75.101273,-0.535488129,12.971370697,-10.546997070,-0.018105835,0.021340027,1.057048082
75.116918,-2.923488617,15.504329681,-8.921936035,-0.002358764,-0.007956848,1.089762926
75.155458,-11.338710785,8.363216400,-5.030944824,0.045614868,0.089699402,1.088542223
75.193956,-6.219387054,-7.284671783,-6.060913086,-0.014565796,0.046242371,1.132731676
75.208186,-7.760524750,-9.108097076,-7.167175293,-0.020913452,-0.001120910,1.151652575
75.223644,-13.520717621,-11.862308502,-7.563903809,-0.020547241,-0.011618957,1.123698473
75.262214,-11.323451996,-9.748966217,-5.961730957,-0.059731811,0.003273621,1.116984606
75.300696,-17.411708832,-15.287906647,-7.144287109,-0.027749389,0.031960145,1.085368395
75.314934,-17.648220062,-14.891178131,-7.067993164,-0.040566772,0.023537293,1.055217028
75.330519,-17.724514008,-8.307010651,-7.479980469,-0.074136108,0.056374207,0.989665270
75.369020,-13.032436371,0.146358490,-8.693054199,-0.000405639,0.031960145,0.991984606
75.369799,-13.963222504,-1.089603424,-7.693603516,0.023276001,0.040749207,0.980265856
75.370498,-13.963222504,-1.089603424,-7.693603516,0.023276001,0.040749207,0.980265856
75.371208,-13.963222504,-1.089603424,-7.693603516,0.023276001,0.040749207,0.980265856
75.371914,-13.963222504,-1.089603424,-7.693603516,0.023276001,0.040749207,0.980265856
75.372626,-13.963222504,-1.089603424,-7.693603516,0.023276001,0.040749207,0.980265856
75.373321,-13.963222504,-1.089603424,-7.693603516,0.023276001,0.040749207,0.980265856
75.425540,-6.196498871,-18.545658112,-6.274536133,-0.013833374,0.028542176,0.904582262
75.439800,-4.434108734,-20.994693756,-7.602050781,0.003134400,0.000221863,0.945719957
75.455365,-6.989955902,-22.802860260,-7.045104980,0.020590454,-0.055686340,0.946696520
75.507914,-3.091335297,-26.045352936,-4.863098145,-0.046548218,-0.035178527,0.874430895
75.546443,-4.945278168,-3.233463287,-5.435302734,0.020834595,-0.015403137,0.885417223
75.560659,-4.769802094,0.031917572,-1.429870605,0.030844361,0.004616395,0.863566637
75.576226,-2.778530121,-1.356632233,-2.803161621,0.007651001,0.033669129,0.853678942
75.614709,1.532077789,0.932186127,-10.249450684,-0.041177124,-0.025534973,0.899821520
75.653184,-1.252651215,12.513607025,-4.557922363,0.021689087,-0.071677551,0.920451403
75.667424,-0.855922699,13.093441010,-4.702880859,0.013266236,-0.074241027,0.911174059
75.682864,1.036167145,7.585018158,-8.998229980,0.032553345,0.006447449,0.901652575
75.721411,2.859592438,-7.940799713,-6.999328613,0.087973267,-0.066916808,0.977702379
75.759870,1.913547516,-11.999637604,-6.312683105,0.027670532,-0.007224426,0.993693590
75.774122,1.966953278,-13.762027740,-8.685424805,0.025717407,0.022194520,0.981730700
75.789712,2.989292145,-14.586002350,-7.472351074,0.045492798,0.040749207,0.972575426
75.790496,2.989292145,-14.586002350,-7.472351074,0.045492798,0.040749207,0.972575426
75.791208,2.989292145,-14.586002350,-7.472351074,0.045492798,0.040749207,0.972575426
75.791927,2.989292145,-14.586002350,-7.472351074,0.045492798,0.040749207,0.972575426
75.830322,2.523899078,-2.981693268,-4.588439941,0.015585572,0.015846863,0.995158434
75.868758,2.798557281,3.785579681,-5.023315430,0.074179322,0.011452332,1.055339098
75.882992,3.004550934,8.073299408,-5.091979980,0.082846314,-0.036765441,1.064250231
75.898427,0.540256500,16.038387299,-2.276733398,0.093344361,-0.062156066,1.075846910
75.936975,-4.251003265,17.808406830,-1.025512695,0.118368775,-0.011496887,1.087565660
75.975450,-7.119655609,14.756649017,1.782104492,0.116781861,-0.039695129,1.051554918
75.989701,-8.134365082,10.270565033,5.039855957,0.128744751,0.051735535,1.011393785
76.005302,-6.173610687,2.786128998,5.139038086,0.155844361,0.063576356,1.012736559
76.043799,-4.342556000,-25.564701080,2.751037598,0.098593384,0.023171082,0.981486559
76.082250,-6.974697113,-5.079776764,7.237121582,0.063437134,0.029762879,0.943766832
76.096478,-6.768703461,-0.547916412,7.137939453,0.123617798,0.021340027,0.941447496
76.111920,-7.310390472,-0.845462799,8.320495605,0.149862915,-0.004172668,0.937175035
76.112760,-7.310390472,-0.845462799,8.320495605,0.149862915,-0.004172668,0.937175035
76.113496,-7.310390472,-0.845462799,8.320495605,0.149862915,-0.004172668,0.937175035
76.114227,-7.310390472,-0.845462799,8.320495605,0.149862915,-0.004172668,0.937175035
76.114955,-7.775783539,-2.813846588,9.464904785,0.163901001,0.001320496,0.926554918
76.115685,-7.775783539,-2.813846588,9.464904785,0.163901001,0.001320496,0.926554918
76.116393,-7.775783539,-2.813846588,9.464904785,0.163901001,0.001320496,0.926554918
76.117129,-7.775783539,-2.813846588,9.464904785,0.163901001,0.001320496,0.926554918
76.117838,-7.775783539,-2.813846588,9.464904785,0.163901001,0.001320496,0.926554918
76.118694,-7.775783539,-2.813846588,9.464904785,0.163901001,0.001320496,0.926554918
76.119388,-7.775783539,-2.813846588,9.464904785,0.163901001,0.001320496,0.926554918
76.120098,-7.775783539,-2.813846588,9.464904785,0.163901001,0.001320496,0.926554918
76.120813,-7.775783539,-2.813846588,9.464904785,0.163901001,0.001320496,0.926554918
76.121532,-7.775783539,-2.813846588,9.464904785,0.163901001,0.001320496,0.926554918
76.122257,-7.775783539,-2.813846588,9.464904785,0.163901001,0.001320496,0.926554918
76.122972,-7.775783539,-2.813846588,9.464904785,0.163901001,0.001320496,0.926554918
76.123694,-7.775783539,-2.813846588,9.464904785,0.163901001,0.001320496,0.926554918
76.162089,-4.128932953,-12.266666412,12.066528320,0.102987915,-0.025657043,0.914347887
76.200374,-7.218837738,-17.546207428,11.776611328,0.105429322,-0.040915832,0.908244371
76.214771,-8.019924164,-14.471561432,15.148803711,0.084799439,-0.059592590,0.893473864
76.244473,-8.485317230,-9.764225006,14.362976074,0.068808228,-0.075461730,0.903727770
76.283124,-12.139797211,-9.649784088,13.752624512,0.076010376,-0.067771301,0.896891832
76.337278,-12.803554535,-6.849796295,12.303039551,0.045614868,-0.129294738,0.862712145
76.351547,-14.474391937,-7.269412994,11.830017090,0.048178345,-0.152610168,0.860270739
76.367012,-15.428066254,-7.963687897,11.196777344,0.049643189,-0.154685363,0.836589098
76.405569,-15.061855316,-3.851444244,9.457275391,0.012533814,-0.164573058,0.790690660
76.444045,-13.780117035,-1.471073151,6.626770020,0.048300415,-0.109885558,0.744548082
76.458441,-11.193752289,-1.562625885,6.222412109,0.053793579,-0.099265441,0.734782457
76.473825,-8.149623871,-2.447635651,5.551025391,0.062826782,-0.104270324,0.731608629
76.512360,-2.610683441,2.023189545,3.735229492,0.059164673,-0.156272277,0.770793200
76.550806,-3.205776215,9.194820404,3.536865234,0.081991822,-0.134543762,0.762126207
76.565050,1.471042633,13.581722260,4.658386230,0.110678345,-0.114402160,0.771403551
76.580487,2.569675446,13.467281342,5.428955078,0.131674439,-0.144431457,0.789958239
76.619017,9.047031403,-1.577884674,4.620239258,0.099325806,-0.091452941,0.818278551
76.657477,15.493869781,-3.645450592,4.078552246,0.025961548,-0.139548644,0.907756090
76.671867,13.281345367,-0.937015533,2.438232422,0.022299439,-0.189231262,0.935832262
76.687277,13.090610504,1.611202240,2.865478516,0.017660767,-0.195334777,0.944621325
76.725781,11.839389801,8.210628510,2.133056641,-0.033974975,-0.079245910,0.974650621
76.764248,9.008884430,1.168697357,-3.344848633,-0.042886108,-0.082541808,1.022258043
76.778468,8.818149567,0.436275482,-3.962829590,-0.044595093,-0.069114074,1.018718004
76.794073,9.565830231,0.741451263,-5.114868164,-0.048745483,-0.063254699,1.023722887
76.832406,4.904270172,-6.239444733,-11.691406250,-0.022134155,-0.109275207,1.076579332
76.870907,3.874301910,-10.756046295,-13.522460938,0.022055298,-0.041404113,1.048503160
76.885413,3.462314606,-11.755496979,-15.345886230,0.038778931,-0.021506652,1.055705309
76.900826,0.280857086,-13.662845612,-13.995483398,0.071371704,-0.079612121,1.065470934
76.939374,-0.031948090,-13.304264069,-12.950256348,0.103476197,-0.000998840,1.003581285
76.940152,-0.031948090,-13.304264069,-12.950256348,0.103476197,-0.000998840,1.003581285
76.940859,-0.031948090,-13.304264069,-12.950256348,0.103476197,-0.000998840,1.003581285
76.941576,-0.031948090,-13.304264069,-12.950256348,0.103476197,-0.000998840,1.003581285
76.942285,-0.031948090,-13.304264069,-12.950256348,0.103476197,-0.000998840,1.003581285
76.943008,-0.031948090,-13.304264069,-12.950256348,0.103476197,-0.000998840,1.003581285
76.943714,-0.031948090,-13.304264069,-12.950256348,0.103476197,-0.000998840,1.003581285
76.944455,-0.031948090,-13.304264069,-12.950256348,0.103476197,-0.000998840,1.003581285
76.945158,-0.031948090,-13.304264069,-12.950256348,0.103476197,-0.000998840,1.003581285
76.945877,-0.031948090,-13.304264069,-12.950256348,0.103476197,-0.000998840,1.003581285
76.946593,-0.031948090,-13.304264069,-12.950256348,0.103476197,-0.000998840,1.003581285
76.947321,-0.031948090,-13.304264069,-12.950256348,0.103476197,-0.000998840,1.003581285
76.948028,-0.031948090,-13.304264069,-12.950256348,0.103476197,-0.000998840,1.003581285
76.986443,-2.389431000,-5.919010162,-11.493041992,0.120077759,-0.094992980,1.032878160
77.000671,-4.075527191,2.488582611,-10.020568848,0.115072876,-0.093772277,0.999675035
77.016320,-4.289150238,6.280391693,-10.684326172,0.120321900,-0.082663879,0.985270739
77.054805,-3.457546234,15.832393646,-6.274536133,0.172812134,-0.089255676,0.954386950
77.112283,0.051975250,9.438961029,-3.054931641,0.162069947,-0.089377746,0.884074450
77.126550,1.265048981,4.502742767,-2.711608887,0.167807251,-0.071311340,0.882487535
77.142119,5.064487457,-4.828006744,-0.674560547,0.154867798,-0.058005676,0.890544176
77.180608,8.703708649,-5.346805573,0.485107422,0.077231079,-0.089255676,0.907634020
77.219073,11.656284332,8.111446381,1.270935059,0.073568970,-0.054953918,0.949626207
77.250571,10.794162750,13.230770111,1.721069336,0.087729126,-0.090354308,1.013591051
77.265081,10.679721832,14.512508392,2.278015137,0.085287720,-0.072165832,1.024455309
77.303529,9.115695953,20.272701263,2.079650879,0.037680298,-0.077536926,1.084391832
77.341849,4.354953766,18.769710541,2.400085449,0.021933228,-0.048850402,1.163981676
77.356255,2.264499664,16.663997650,-0.354125977,0.007406861,-0.084372863,1.178508043
77.371688,-2.900600433,14.916866302,-1.292541504,0.009970337,-0.146384582,1.189738512
77.410235,-8.103847504,-11.435062408,-3.993347168,0.071859986,0.007179871,1.132365465
77.448698,-9.027004242,-21.551639557,-8.136108398,-0.012124389,0.006813660,1.048136950
77.462932,-8.553981781,-15.142948151,-6.297424316,-0.007363647,-0.044700012,1.037394762
77.478515,-10.491847992,-5.461246490,-9.044006348,0.041830689,-0.071433410,1.016154528
77.516983,-7.577419281,1.191585541,-5.946472168,0.117758423,-0.044211730,0.944865465
77.517759,-7.577419281,1.191585541,-5.946472168,0.117758423,-0.044211730,0.944865465
77.518462,-7.577419281,1.191585541,-5.946472168,0.117758423,-0.044211730,0.944865465
77.519159,-7.577419281,1.191585541,-5.946472168,0.117758423,-0.044211730,0.944865465
77.519854,-7.577419281,1.191585541,-5.946472168,0.117758423,-0.044211730,0.944865465
77.520566,-7.577419281,1.191585541,-5.946472168,0.117758423,-0.044211730,0.944865465
77.521266,-7.577419281,1.191585541,-5.946472168,0.117758423,-0.044211730,0.944865465
77.521992,-7.577419281,1.191585541,-5.946472168,0.117758423,-0.044211730,0.944865465
77.522693,-7.577419281,1.191585541,-5.946472168,0.117758423,-0.044211730,0.944865465
77.523411,-7.577419281,1.191585541,-5.946472168,0.117758423,-0.044211730,0.944865465
77.524111,-7.577419281,1.191585541,-5.946472168,0.117758423,-0.044211730,0.944865465
77.524822,-7.577419281,1.191585541,-5.946472168,0.117758423,-0.044211730,0.944865465
77.525520,-7.577419281,1.191585541,-5.946472168,0.117758423,-0.044211730,0.944865465
77.526241,-7.043361664,0.260799408,-5.557373047,0.113363892,-0.035544738,0.934733629
77.564580,-4.647731781,2.130001068,-5.153015137,0.091391236,0.017311707,0.866130114
77.578822,-1.161098480,2.099483490,-5.534484863,0.125937134,-0.039084777,0.843425035
77.594314,-0.375270844,1.557796478,-4.390075684,0.143881470,-0.055564269,0.831462145
77.632855,7.826328278,-0.700504303,-1.208618164,0.139731079,-0.032492980,0.767985582
77.671310,17.622470856,-4.492313385,2.239868164,0.139731079,-0.054221496,0.821940660
77.685683,20.399570465,-4.141361237,2.712890625,0.103354126,-0.057883605,0.819499254
77.701092,21.711826324,-1.028568268,3.498718262,0.081137329,-0.064475402,0.824259996
77.739654,24.061679840,19.219844818,5.657836914,0.055136353,-0.047141418,0.901774645
77.778170,20.163059235,19.067256927,6.153747559,0.059164673,-0.069358215,0.970744371
77.792405,20.056247711,16.282527924,4.940673828,0.044516236,-0.061667785,0.973918200
77.808058,19.751071930,11.933773041,4.078552246,0.032187134,-0.038718566,0.994303942
77.862859,13.639926910,2.351253510,2.400085449,-0.004922241,-0.076560363,1.096354723
77.901413,10.900974274,4.899471283,-1.948669434,-0.044228882,0.081154481,1.052897692
77.915646,11.137485504,13.070552826,-1.757934570,-0.050576538,0.039162293,1.055461168
77.931118,10.084629059,17.953365326,-2.414062500,-0.045449585,0.039040223,1.066203356
77.969670,7.589817047,26.246517181,-1.109436035,0.015341431,0.098244324,1.061930895
78.008185,7.032871246,4.884212494,-3.794982910,0.007040650,0.095436707,1.092204332
78.022549,5.789279938,-0.837833405,-4.611328125,-0.017861694,0.051491395,1.095866442
78.037983,3.279209137,-0.189334869,-4.527404785,-0.032388061,0.026955262,1.084880114
78.076510,5.064487457,11.247127533,-5.359008789,0.001913697,0.111549988,1.014323473
78.115004,4.713535309,14.749019623,-0.171020508,0.041952759,0.089333192,0.991862535
78.129232,5.957126617,15.183895111,1.171752930,0.033896118,0.099220887,0.984660387
78.144714,8.741855621,11.537044525,2.339050293,0.033774048,0.069557801,1.004191637
78.183236,5.918979645,-4.019290924,3.491088867,-0.001015991,0.058815613,1.020304918
78.245197,9.863376617,0.062435150,6.130859375,-0.045571655,0.016091004,1.035807848
78.260752,5.774021149,0.504940033,5.421325684,-0.062417358,0.006569520,1.045085192
78.275187,1.593112946,4.357784271,3.094360352,-0.091103882,0.072243348,0.991374254
78.313438,3.683567047,14.108150482,3.071472168,-0.007607788,0.034157410,0.969157457
78.351989,4.080295563,-3.859073639,1.316711426,-0.014932007,0.054421082,0.959269762
78.366375,5.392551422,-3.775150299,0.820800781,-0.042153686,0.061379090,0.943278551
78.381786,6.491184235,2.160518646,1.621887207,-0.024209350,0.029030457,0.942668200
78.420302,4.889011383,-8.612186432,5.726501465,0.070028931,-0.058738098,1.006144762
78.470892,11.023044586,-4.980594635,6.573364258,-0.039956421,0.027321473,0.970134020
78.485189,9.680271149,0.016658783,9.197875977,-0.020303100,-0.032859191,0.999675035
78.500786,6.849765778,-1.516849518,8.907958984,-0.022256225,0.072731629,1.019816637
78.539263,11.915683746,-4.210025787,4.856750488,-0.115884155,0.098732606,1.015055895
78.577796,11.961460114,15.191524506,6.962463379,-0.100503296,-0.013327941,1.034343004
78.592034,11.068820953,25.231807709,8.122131348,-0.071206421,0.026344910,1.054606676
78.607474,10.595798492,25.109737396,8.412048340,-0.059243530,0.045265809,1.070842028
78.608304,10.595798492,25.109737396,8.412048340,-0.059243530,0.045265809,1.070842028
78.609049,9.550571442,21.546810150,6.703063965,-0.055825561,0.111427918,1.081340075
78.609770,9.550571442,21.546810150,6.703063965,-0.055825561,0.111427918,1.081340075
78.610495,9.550571442,21.546810150,6.703063965,-0.055825561,0.111427918,1.081340075
78.611214,9.550571442,21.546810150,6.703063965,-0.055825561,0.111427918,1.081340075
78.611939,9.550571442,21.546810150,6.703063965,-0.055825561,0.111427918,1.081340075
78.650369,10.633945465,-5.560428619,4.208251953,-0.025307983,0.153908387,1.110881090
78.688841,11.076450348,-10.427982330,4.376098633,-0.120156616,0.172096863,1.074137926
78.703221,10.656833649,-7.078678131,2.506896973,-0.132119507,0.123512879,1.065348864
78.718612,10.069370270,4.411190033,0.797912598,-0.119546264,0.082131043,1.055827379
78.757163,4.995822906,19.395320892,1.309082031,-0.055337280,0.114113465,1.031047106
78.757937,5.392551422,19.532649994,2.392456055,-0.034585327,0.171486512,1.017497301
78.758620,5.392551422,19.532649994,2.392456055,-0.034585327,0.171486512,1.017497301
78.759327,5.392551422,19.532649994,2.392456055,-0.034585327,0.171486512,1.017497301
78.760020,5.392551422,19.532649994,2.392456055,-0.034585327,0.171486512,1.017497301
78.760724,5.392551422,19.532649994,2.392456055,-0.034585327,0.171486512,1.017497301
78.761411,5.392551422,19.532649994,2.392456055,-0.034585327,0.171486512,1.017497301
78.762134,5.392551422,19.532649994,2.392456055,-0.034585327,0.171486512,1.017497301
78.762816,5.392551422,19.532649994,2.392456055,-0.034585327,0.171486512,1.017497301
78.763531,5.392551422,19.532649994,2.392456055,-0.034585327,0.171486512,1.017497301
78.764230,5.392551422,19.532649994,2.392456055,-0.034585327,0.171486512,1.017497301
78.802639,11.114597321,-3.080875397,-1.307800293,-0.016396850,0.201759949,1.053385973
78.816870,9.634494781,-6.109745026,-1.857116699,-0.034463257,0.149147645,1.053019762
78.832507,7.437229156,-1.997501373,-2.269104004,-0.064980835,0.206886902,1.011271715
78.871005,12.274265289,10.972469330,1.095458984,-0.035439819,0.188820496,1.019206285
78.909504,10.168552399,2.923458099,-0.743225098,-0.060220093,0.161354676,1.045207262
78.923736,10.862827301,2.809017181,-0.933959961,-0.068398803,0.176613465,1.036906481
78.939209,12.716770172,4.441707611,-2.147033691,-0.059731811,0.140968934,1.038615465
78.940050,12.716770172,4.441707611,-2.147033691,-0.059731811,0.140968934,1.038615465
78.940804,12.716770172,4.441707611,-2.147033691,-0.059731811,0.140968934,1.038615465
78.941548,12.716770172,4.441707611,-2.147033691,-0.059731811,0.140968934,1.038615465
78.942279,12.716770172,4.441707611,-2.147033691,-0.059731811,0.140968934,1.038615465
78.943024,12.716770172,4.441707611,-2.147033691,-0.059731811,0.140968934,1.038615465
78.943760,12.716770172,4.441707611,-2.147033691,-0.059731811,0.140968934,1.038615465
78.994499,10.298252106,8.798091888,-2.398803711,-0.036294311,0.097878113,1.118937731
79.032868,8.558750153,5.250423431,-0.109985352,0.023153931,0.134987488,1.134074450
79.047255,6.956577301,-3.180057526,-0.621154785,0.026816040,0.128029481,1.142375231
79.062721,5.873203278,-6.506473541,-0.956848145,0.011068970,0.132424012,1.138224840
79.101250,5.224704742,-5.308658600,0.286743164,-0.004189819,0.141213074,1.113322496
79.153315,4.377841949,5.814998627,2.209350586,0.032797486,0.118385926,1.134318590
79.167736,2.287387848,6.150691986,5.268737793,0.062948853,0.136208192,1.116740465
79.183173,2.905368805,4.106014252,5.818054199,0.066855103,0.170754090,1.099284410
79.221694,8.741855621,1.527278900,5.146667480,0.050985962,0.097633973,1.164836168
79.260179,3.042697906,2.229183197,12.722656250,0.048178345,0.245339051,1.180339098
79.274394,3.813266754,-3.698856354,11.326477051,0.031942993,0.229347840,1.166423082
79.290004,4.827976227,-10.717899323,9.533569336,-0.008340210,0.239357606,1.148844957
79.328499,3.233432770,-2.516300201,15.080139160,-0.042397827,0.285744309,1.115519762
79.366825,3.653049469,-1.982242584,11.463806152,-0.074258178,0.266579270,1.081828356
79.381234,2.722263336,1.046627045,12.463256836,-0.075967163,0.242531434,1.068034410
79.396692,2.073764801,7.615535736,13.043090820,-0.077920288,0.279518723,1.033854723
79.435249,0.074863434,14.062374115,12.867614746,-0.128823608,0.176003113,1.030314684
79.473783,-2.946376801,11.445491791,7.839843750,-0.190591186,0.199928895,1.015544176
79.488006,-3.457546234,7.142513275,4.421875000,-0.199258178,0.240822449,0.982829332
79.503588,0.929355621,2.938716888,-1.231506348,-0.218301147,0.280129075,0.923625231
79.542051,6.346225739,13.665645599,-1.139953613,-0.183266968,0.196144715,0.992961168
79.580379,-2.992153168,3.465145111,-4.893615723,-0.157754272,0.151589051,1.065470934
79.594757,-5.830287933,1.420467377,-7.067993164,-0.159829468,0.157204285,1.047526598
79.610232,-7.173061371,1.481502533,-7.678344727,-0.132851928,0.184181824,1.029948473
79.648754,-5.631923676,-8.619815826,-4.657104492,-0.076211303,0.158180848,1.013468981
79.687246,-5.113124847,-6.033451080,-7.617309570,-0.134805053,0.185890809,1.012858629
79.701462,-8.355617523,-0.349552155,-6.419494629,-0.118325561,0.130592957,1.015788317
79.717082,-11.445522308,8.622615814,-5.908325195,-0.087319702,0.141335145,1.004801989
79.755571,-6.188869476,6.646602631,-2.009704590,-0.012368530,0.242409363,0.983805895
79.807908,-10.064601898,-20.308048248,0.683471680,-0.030068725,0.126930848,1.066447496
79.822190,-11.811733246,-19.789249420,0.927612305,-0.083047241,0.222267762,1.035563707
79.837814,-9.957790375,-18.904239655,-0.071838379,-0.093057007,0.243996277,1.028483629
79.876143,-11.521816254,-12.205631256,0.370666504,-0.070596069,0.155007020,1.011515856
79.914662,-8.355617523,2.931087494,4.727050781,-0.025430053,0.177712098,1.025431871
79.929065,-9.187221527,0.527828217,4.803344727,-0.018594116,0.144997254,1.050456285
79.944483,-11.277675629,-8.169681549,3.086730957,-0.038735718,0.225441590,1.061442614
79.983024,-14.642238617,-6.536991119,1.629516602,-0.098550171,0.214211121,0.983683825
80.021508,-12.246608734,-6.071598053,2.934143066,0.004233032,0.175392762,0.973429918
80.035725,-12.292385101,-7.956058502,3.864929199,-0.007241577,0.189308777,0.963420153
80.051378,-11.270046234,-8.970767975,4.444763184,-0.055093139,0.179176942,0.942057848
80.089877,-6.257534027,-3.645450592,0.652954102,-0.060830444,0.318825364,0.907267809
80.128227,-5.303859711,-10.809452057,0.538513184,-0.046182007,0.232277527,0.895182848
80.142635,-3.465175629,-4.492313385,-0.590637207,-0.103921264,0.107887879,0.917765856
80.158082,-7.295131683,1.244991302,0.332519531,-0.112954468,0.054421082,0.915202379
80.196604,-7.974147797,12.902706146,-2.169921875,-0.051919311,0.072731629,0.926676989
80.235094,-10.133266449,3.831356049,-2.482727051,-0.055337280,0.095558777,0.862468004
80.249323,-5.769252777,2.236812592,-5.030944824,-0.032510132,0.122536317,0.898112535
80.264932,-6.692409515,-0.280887604,-4.878356934,-0.014565796,0.077126160,0.919352770
80.317471,-8.950710297,-0.097782135,-5.130126953,-0.056680053,0.090065613,0.888346910
80.356016,-3.655910492,6.936519623,-3.177001953,0.037680298,0.089577332,0.929728746
80.370252,-5.593776703,2.282588959,-5.122497559,0.051474243,0.038307801,0.946940660
80.385830,-5.792140961,0.916927338,-3.085449219,0.040243775,0.055397645,0.936686754
80.438541,-1.878261566,-24.954349518,-5.839660645,0.050985962,0.122902527,0.991008043
80.477099,0.021457672,-21.757633209,-3.161743164,-0.037148803,0.097756043,1.047648668
80.491323,-0.710964203,-17.576725006,-4.298522949,-0.047646850,0.080055848,1.068400621
80.506787,-3.678798676,-7.124454498,-4.107788086,-0.023354858,0.100197449,1.100749254
80.545308,-8.149623871,-0.502140045,-1.124694824,0.044516236,0.064430848,1.127604723
80.583774,-11.704921722,-13.487369537,-0.727966309,0.040609986,0.099220887,1.094889879
80.598170,-12.055873871,-25.213748932,-1.078918457,0.067953736,0.062233582,1.089640856
80.613569,-12.132167816,-30.134708405,0.324890137,0.067465454,0.057106629,1.089640856
80.652111,-16.358852386,-42.524845123,0.332519531,-0.047402710,0.063942567,1.016154528
80.652878,-16.358852386,-42.524845123,0.332519531,-0.047402710,0.063942567,1.016154528
80.653572,-16.358852386,-42.524845123,0.332519531,-0.047402710,0.063942567,1.016154528
80.654285,-16.358852386,-42.524845123,0.332519531,-0.047402710,0.063942567,1.016154528
80.654984,-16.358852386,-42.524845123,0.332519531,-0.047402710,0.063942567,1.016154528
80.655699,-15.618801117,-42.212039948,-2.688720703,-0.079629272,0.118630067,0.990641832
80.656383,-15.618801117,-42.212039948,-2.688720703,-0.079629272,0.118630067,0.990641832
80.657104,-15.618801117,-42.212039948,-2.688720703,-0.079629272,0.118630067,0.990641832
80.657788,-15.618801117,-42.212039948,-2.688720703,-0.079629272,0.118630067,0.990641832
80.658507,-15.618801117,-42.212039948,-2.688720703,-0.079629272,0.118630067,0.990641832
80.659204,-15.618801117,-42.212039948,-2.688720703,-0.079629272,0.118630067,0.990641832
80.659930,-15.618801117,-42.212039948,-2.688720703,-0.079629272,0.118630067,0.990641832
80.660612,-15.618801117,-42.212039948,-2.688720703,-0.079629272,0.118630067,0.990641832
80.661344,-15.618801117,-42.212039948,-2.688720703,-0.079629272,0.118630067,0.990641832
80.662033,-15.618801117,-42.212039948,-2.688720703,-0.079629272,0.118630067,0.990641832
80.715921,-17.152309418,2.595394135,1.614257812,-0.054238647,0.126808777,0.913981676
80.731848,-15.191555023,5.746334076,1.949951172,-0.034463257,0.152809754,0.900920153
80.746105,-11.109828949,1.687496185,-0.956848145,-0.017861694,0.133888856,0.902262926
80.784536,-8.309841156,-3.874332428,-6.274536133,-0.009072632,0.021217957,0.935832262
80.823011,-10.812282562,16.717403412,-2.055480957,0.028158814,0.025856629,0.972331285
80.837255,-12.895107269,10.766475677,-3.230407715,0.069296509,0.075050965,0.983683825
80.852847,-13.497829437,3.434627533,-4.527404785,0.087484986,0.073464051,0.980754137
80.891396,-12.002468109,-23.451358795,-8.158996582,0.074789673,-0.013938293,0.948649645
80.929714,-16.412258148,-14.853031158,-6.358459473,0.065146118,-0.049094543,0.912028551
80.944133,-15.878200531,-7.467777252,-5.809143066,0.075155884,-0.028464660,0.873088121
80.959566,-15.031337738,-4.004032135,-4.863098145,0.079062134,-0.004050598,0.860270739
80.998196,-10.339260101,8.614986420,-4.344299316,0.108236939,-0.006980285,0.858073473
81.036664,-10.522365570,19.097774506,2.987548828,0.156332642,0.017189637,0.883830309
81.050923,-9.126186371,15.946834564,4.048034668,0.158896118,0.021950379,0.885783434
81.066522,-5.265712738,3.022640228,1.598999023,0.139120728,0.026955262,0.894084215
81.120842,-5.929470062,-4.934818268,5.116149902,0.076742798,-0.087790832,0.961955309
81.159379,-3.892421722,2.038448334,5.665466309,0.056479126,-0.016623840,0.987712145
81.173601,-5.898952484,-0.898868561,3.552124023,0.059164673,-0.099021301,1.012126207
81.189208,-7.134914398,-1.448184967,2.430603027,0.051108032,-0.114280090,1.015666246
81.227539,-11.430263519,11.399715424,5.085632324,0.039755493,-0.093283996,1.019938707
81.228494,-11.430263519,11.399715424,5.085632324,0.039755493,-0.093283996,1.019938707
81.282885,-11.071681976,-9.802371979,0.752136230,0.057943970,0.000954285,0.928385973
81.297148,-11.025905609,-8.131534576,0.927612305,0.041830689,-0.007712707,0.927653551
81.312576,-12.864589691,3.747432709,2.537414551,0.035360962,-0.021506652,0.917155504
81.351119,-15.252590179,15.893428802,5.322143555,0.103232056,-0.062278137,0.868205309
81.389588,-12.414455414,-8.345157623,5.551025391,0.146933228,-0.074851379,0.781047106
81.403969,-10.262966156,-16.874820709,5.047485352,0.097006470,-0.076072082,0.737468004
81.419381,-8.752346039,-17.172367096,5.108520508,0.066610962,-0.057395324,0.719157457
81.457948,-0.817775726,-2.615482330,3.742858887,-0.006875366,-0.035422668,0.722209215
81.496422,6.010532379,16.076534271,4.780456543,0.039023072,-0.071189269,0.726115465
81.510648,10.183811188,16.625850677,5.566284180,0.062948853,-0.102073058,0.779704332
81.526234,10.824680328,13.230770111,4.688903809,0.072592407,-0.126731262,0.809733629
81.564549,12.739658356,-1.654178619,0.363037109,0.063925415,-0.117942199,0.877482653
81.565363,12.739658356,-1.654178619,0.363037109,0.063925415,-0.117942199,0.877482653
81.566082,12.739658356,-1.654178619,0.363037109,0.063925415,-0.117942199,0.877482653
81.566815,12.739658356,-1.654178619,0.363037109,0.063925415,-0.117942199,0.877482653
81.567522,12.739658356,-1.654178619,0.363037109,0.063925415,-0.117942199,0.877482653
81.568368,12.739658356,-1.654178619,0.363037109,0.063925415,-0.117942199,0.877482653
81.569044,12.739658356,-1.654178619,0.363037109,0.063925415,-0.117942199,0.877482653
81.607272,11.473178864,1.580684662,2.476379395,0.073935181,-0.176413879,1.006877184
81.621676,5.484104156,-0.715763092,3.185913086,0.082846314,-0.109153137,1.034343004
81.637100,4.293918610,-2.707035065,4.109069824,0.074423462,-0.058127746,1.028605700
81.675649,3.645420074,-8.375675201,3.773376465,0.022055298,-0.053122863,1.054118395
81.714098,-1.657009125,-2.874881744,0.805541992,0.013022095,-0.101828918,1.035319567
81.728324,-1.199245453,2.046077728,2.323791504,0.015097290,-0.111716613,1.025309801
81.743929,-0.871181488,7.775753021,3.399536133,0.020590454,-0.063742980,1.030436754
81.782429,-1.946926117,-8.146793365,-3.390625000,0.023642212,-0.067771301,1.002482653
81.820713,1.310825348,-1.989871979,-3.199890137,-0.009316772,-0.103171691,0.974284410
81.835121,-0.077724457,3.556697845,-3.184631348,-0.019570678,-0.098044738,0.974284410
81.850585,-0.794887543,13.062923431,-4.123046875,-0.022744507,-0.001120910,0.952189684
81.905465,4.942417145,12.574642181,-2.322509766,0.082602173,0.020363465,0.937785387
81.943800,11.068820953,-7.223636627,-1.529052734,0.089560181,-0.056418762,0.973429918
81.958235,11.503696442,-13.189823151,-2.284362793,0.041098267,-0.016257629,0.987101793
81.973681,11.816501617,-13.289005280,-3.253295898,0.026816040,-0.015769348,0.992961168
82.012242,9.436130524,-4.843265533,-2.040222168,0.079794556,-0.060691223,1.001994371
82.050681,7.490634918,-1.135379791,2.773925781,0.113119751,-0.082663879,1.025676012
82.064921,6.422519684,-4.148990631,2.728149414,0.104941040,-0.056174621,1.020671129
82.080531,7.460117340,-10.427982330,1.156494141,0.070883423,0.014382020,1.007365465
82.119025,5.400180817,-3.454715729,1.598999023,0.039633423,-0.087546691,1.018473864
82.157329,3.759860992,8.119075775,3.788635254,0.048788697,-0.028098449,1.006510973
82.171721,4.728794098,5.990474701,2.941772461,0.048300415,-0.023825988,1.005778551
82.187172,5.339145660,0.916927338,2.499267578,0.046591431,-0.022117004,1.019084215
82.225688,2.066135406,-3.256351471,3.185913086,-0.000771850,-0.000022277,1.030802965
82.226466,2.066135406,-3.256351471,3.185913086,-0.000771850,-0.000022277,1.030802965
82.227152,2.066135406,-3.256351471,3.185913086,-0.000771850,-0.000022277,1.030802965
82.227860,2.066135406,-3.256351471,3.185913086,-0.000771850,-0.000022277,1.030802965
82.228556,2.066135406,-3.256351471,3.185913086,-0.000771850,-0.000022277,1.030802965
82.266946,6.361484528,2.366512299,0.538513184,-0.031777710,0.010964051,1.033122301
82.281163,6.117343903,3.404109955,-0.140502930,-0.017739624,-0.045432433,1.062419176
82.308469,-0.039577484,7.173030853,-2.192810059,-0.007241577,-0.097556457,1.069499254
82.347003,3.080844879,12.147396088,-4.939392090,0.018515259,-0.007102355,1.067424059
82.385497,-4.609584808,7.203548431,-5.122497559,0.076498657,-0.016623840,1.086344957
82.399733,-5.342006683,6.288021088,-4.199340820,0.084555298,-0.005027160,1.066935778
82.415311,-5.166530609,4.373043060,-2.993896484,0.086020142,0.042824402,1.033000231
82.416081,-5.166530609,4.373043060,-2.993896484,0.086020142,0.042824402,1.033000231
82.416802,-5.166530609,4.373043060,-2.993896484,0.086020142,0.042824402,1.033000231
82.417526,-5.166530609,4.373043060,-2.993896484,0.086020142,0.042824402,1.033000231
82.418237,-5.166530609,4.373043060,-2.993896484,0.086020142,0.042824402,1.033000231
82.418956,-5.166530609,4.373043060,-2.993896484,0.086020142,0.042824402,1.033000231
82.419660,-5.166530609,4.373043060,-2.993896484,0.086020142,0.042824402,1.033000231
82.420379,-5.166530609,4.373043060,-2.993896484,0.086020142,0.042824402,1.033000231
82.421078,-5.166530609,4.373043060,-2.993896484,0.086020142,0.042824402,1.033000231
82.421792,-5.166530609,4.373043060,-2.993896484,0.086020142,0.042824402,1.033000231
82.422504,-5.166530609,4.373043060,-2.993896484,0.086020142,0.042824402,1.033000231
82.423216,-5.166530609,4.373043060,-2.993896484,0.086020142,0.042824402,1.033000231
82.423937,-5.166530609,4.373043060,-2.993896484,0.086020142,0.042824402,1.033000231
82.424654,-3.709316254,3.053157806,-2.345397949,0.086142212,0.069557801,1.024333239
82.425359,-3.709316254,3.053157806,-2.345397949,0.086142212,0.069557801,1.024333239
82.426070,-3.709316254,3.053157806,-2.345397949,0.086142212,0.069557801,1.024333239
82.426780,-3.709316254,3.053157806,-2.345397949,0.086142212,0.069557801,1.024333239
82.465196,-3.076076508,-7.299930573,-4.374816895,0.097006470,0.029274598,1.028361559
82.503665,-4.861354828,3.076045990,-1.078918457,0.088339478,0.037575379,1.024699450
82.517925,-5.937099457,14.344661713,0.973388672,0.096151978,0.068215027,1.000285387
82.533382,-6.272792816,18.823116302,1.759216309,0.108969361,0.059303895,0.987345934
82.571931,-4.136562347,12.040584564,6.336853027,0.182943970,0.027443543,0.985759020
82.610399,-1.779079437,-10.138065338,6.703063965,0.079062134,0.042946473,0.923136950
82.624775,3.103733063,-13.289005280,6.016418457,0.053793579,0.027931824,0.927775621
82.640196,2.630710602,-13.006717682,6.313964844,0.047690064,-0.012229308,0.942057848
82.678767,1.570224762,-4.492313385,8.083984375,-0.005532593,-0.006614074,0.915690660
82.729132,5.911350250,0.512569427,2.972290039,-0.019814819,-0.078147277,0.948527575
82.743427,3.492832184,1.374691010,1.904174805,-0.029824585,-0.093283996,0.947551012
82.759005,3.057956696,3.854244232,1.064941406,-0.039223999,-0.084983215,0.936442614
82.797495,5.178928375,7.218807220,-2.765014648,0.013632447,-0.058005676,0.959513903
82.835953,3.019809723,5.868404388,-1.765563965,0.033407837,-0.030783996,0.961344957
82.850176,3.599643707,5.334346771,-1.757934570,0.027060181,0.011208192,0.963542223
82.865611,4.377841949,2.152889252,-3.947570801,0.017660767,0.042946473,0.975871325
82.904190,4.766941071,0.276058197,-4.504516602,0.064779907,-0.037375793,1.003215075
82.942647,3.866672516,8.294551849,-2.124145508,0.049154907,0.060402527,1.012858629
82.956866,4.347324371,7.951229095,-1.162841797,0.054159790,0.076515809,1.016154528
82.972481,4.492282867,1.153438568,-3.154113770,0.068930298,0.062843934,1.023356676
83.010994,4.103183746,-6.315738678,-0.056579590,0.050375611,0.066017762,1.013835192
83.049448,4.469394684,-4.896671295,2.064392090,-0.002602905,0.071999207,1.025553942
83.063667,3.370761871,-5.896121979,-1.353576660,-0.026772827,0.037453309,1.030192614
83.079122,1.608371735,-5.285770416,-1.628234863,-0.034219116,0.028786317,1.020426989
83.079955,1.608371735,-5.285770416,-1.628234863,-0.034219116,0.028786317,1.020426989
83.080678,0.082492828,-3.363162994,-1.689270020,-0.039223999,0.044655457,0.997477770
83.081420,0.082492828,-3.363162994,-1.689270020,-0.039223999,0.044655457,0.997477770
83.131973,3.607273102,1.016109467,1.751586914,-0.011636108,0.072243348,0.972087145
83.170314,2.066135406,-4.736454010,-4.626586914,-0.074258178,0.028175965,0.931437731
83.184694,2.737522125,-2.218753815,-5.313232422,-0.078164428,0.063942567,0.903361559
83.200132,7.833957672,6.333797455,-4.634216309,-0.052773803,0.070412293,0.901774645
83.238680,5.491733551,8.286922455,-2.452209473,0.002524048,0.016701356,0.921183825
83.277162,9.558200836,-0.883609772,-5.534484863,-0.030434936,0.082741395,0.875529528
83.291384,12.083530426,-1.013309479,-6.442382812,-0.030679077,0.042458192,0.903483629
83.307173,11.938571930,0.123470306,-7.045104980,-0.029336303,0.033791199,0.918254137
83.345682,10.168552399,8.737056732,-5.435302734,-0.027505249,0.043800965,0.916667223
83.384179,12.541294098,5.433528900,-7.098510742,0.010458618,0.035133973,0.968058825
83.398412,13.250827789,1.603572845,-5.854919434,0.016684204,-0.000266418,0.996989489
83.413881,12.251377106,-0.715763092,-6.373718262,0.009726197,-0.031272277,1.009684801
83.414719,12.251377106,-0.715763092,-6.373718262,0.009726197,-0.031272277,1.009684801
83.415483,12.251377106,-0.715763092,-6.373718262,0.009726197,-0.031272277,1.009684801
83.416214,12.251377106,-0.715763092,-6.373718262,0.009726197,-0.031272277,1.009684801
83.416961,12.251377106,-0.715763092,-6.373718262,0.009726197,-0.031272277,1.009684801
83.417699,12.251377106,-0.715763092,-6.373718262,0.009726197,-0.031272277,1.009684801
83.418446,11.213779449,-2.523929596,-6.686523438,-0.007729858,-0.014060363,1.016886950
83.419283,11.213779449,-2.523929596,-6.686523438,-0.007729858,-0.014060363,1.016886950
83.420109,11.213779449,-2.523929596,-6.686523438,-0.007729858,-0.014060363,1.016886950
83.420927,11.213779449,-2.523929596,-6.686523438,-0.007729858,-0.014060363,1.016886950
83.421748,11.213779449,-2.523929596,-6.686523438,-0.007729858,-0.014060363,1.016886950
83.474610,9.161472321,2.809017181,-8.883789062,-0.002602905,0.096901551,1.035929918
83.513244,5.201816559,4.395931244,-5.648925781,0.012900025,0.091652527,1.075968981
83.527467,5.583286285,2.145259857,-7.785156250,0.015829712,0.121193543,1.048747301
83.542887,5.865573883,2.305477142,-8.418395996,0.027914673,0.093971863,1.042277575
83.581429,3.775119781,8.271663666,-2.833679199,0.074057251,0.015480652,1.090373278
83.619917,1.844882965,-2.028018951,-4.214599609,0.064047486,0.143532410,1.038005114
83.634150,3.294467926,-5.423099518,-4.901245117,0.072836548,0.137184754,1.031779528
83.649711,1.966953278,-6.804019928,-0.560119629,0.076254517,0.119606629,1.020915270
83.688210,4.019260406,-8.192569733,1.660034180,0.038412720,0.148293152,0.973551989
83.726661,5.758762360,-6.109745026,0.446960449,0.033041626,0.113258973,0.986857653
83.740916,5.468845367,-2.012760162,1.896545410,0.026693970,0.117531434,0.982585192
83.756355,6.170749664,5.555599213,3.193542480,0.011801392,0.201149598,0.969401598
83.794877,10.977268219,7.256954193,1.492187500,0.032187134,0.153175965,1.007731676
83.795667,10.153293610,6.600826263,1.446411133,0.033529907,0.126930848,1.020915270
83.796360,10.153293610,6.600826263,1.446411133,0.033529907,0.126930848,1.020915270
83.797071,10.153293610,6.600826263,1.446411133,0.033529907,0.126930848,1.020915270
83.835443,7.162570953,10.179012299,4.215881348,0.010092407,0.089211121,1.006633043
83.849804,8.032321930,10.964839935,4.704162598,0.010092407,0.126076356,1.006633043
83.865218,8.406162262,9.164302826,4.482910156,0.014731079,0.079567567,1.035197496
83.903775,4.454135895,4.319637299,5.093261719,-0.007729858,0.092751160,1.031535387
83.942245,5.125522614,1.962154388,4.063293457,-0.043374389,0.107765809,1.023478746
83.956490,1.959323883,-0.219852448,2.163574219,-0.058511108,0.073219910,1.017375231
83.971965,1.783847809,0.703304291,1.042053223,-0.079629272,0.098122254,1.006022692
84.010483,-1.985073090,23.164241791,-0.140502930,-0.132729858,0.131325379,0.982707262
84.048985,-3.419399261,30.007808685,-1.666381836,-0.000649780,0.063698426,0.994303942
84.063354,-3.137111664,27.879207611,-1.643493652,0.012655884,0.061501160,1.000041246
84.078768,-4.365444183,20.684688568,-1.620605469,0.033896118,0.057716981,1.011637926
84.130891,-6.349086761,-9.649784088,-0.392272949,0.028402954,0.094216004,0.998820543
84.183358,-5.738735199,-12.274295807,-2.269104004,-0.041299194,0.121071473,0.988688707
84.197760,-5.532741547,-7.414371490,-1.338317871,-0.033120483,0.102150574,0.985636950
84.213174,-4.228115082,-0.738651276,0.118896484,-0.007485718,0.103981629,1.001750231
84.251693,-4.426479340,-2.424747467,0.347778320,0.012167603,0.138649598,1.009928942
84.290187,-2.748012543,-7.689029694,0.706359863,-0.023110718,0.150856629,0.982218981
84.304417,-2.175807953,-3.538639069,1.667663574,-0.028970093,0.147072449,0.973185778
84.320009,-1.855373383,-1.104862213,2.827331543,-0.027749389,0.187111512,0.968791246
84.358505,2.325534821,-3.347904205,2.682373047,-0.000405639,0.102638856,0.970134020
84.396989,7.544040680,1.809566498,6.619140625,-0.011147827,0.112770692,0.941447496
84.411226,8.558750153,1.183956146,6.146118164,-0.004433960,0.082008973,0.958049059
84.426667,7.963657379,-2.104312897,5.909606934,-0.023232788,0.125588074,0.981730700
84.465204,10.466098785,-2.272159576,6.580993652,-0.067788452,0.160988465,1.020671129
84.503684,7.917881012,-5.606204987,4.521057129,-0.050332397,0.138283387,1.038615465
84.517932,6.781101227,-6.681949615,4.490539551,-0.050332397,0.128639832,1.034709215
84.533556,8.711338043,-6.300479889,4.971191406,-0.061440796,0.214211121,1.033854723
84.572043,8.642673492,-1.196414948,4.849121094,-0.066079468,0.102882996,1.116252184
84.610524,1.059055328,11.323421478,5.245849609,-0.063515991,0.071144715,1.109416246
84.624754,0.929355621,9.889095306,2.857849121,-0.041055053,0.111794129,1.101481676
84.640220,1.623630524,2.877681732,2.087280273,-0.012002319,0.107399598,1.089518785
84.678772,3.386020660,-4.271060944,1.324340820,-0.049355835,0.078224793,1.120402575
84.717264,-0.649929047,1.489131927,-1.231506348,-0.062539428,0.075295106,1.102580309
84.731513,-0.794887543,2.343624115,-1.117065430,-0.035806030,0.066872254,1.093425035
84.747120,-0.054836273,1.557796478,-1.582458496,-0.036538452,0.065651551,1.088908434
84.747886,-0.054836273,1.557796478,-1.582458496,-0.036538452,0.065651551,1.088908434
84.748592,-0.054836273,1.557796478,-1.582458496,-0.036538452,0.065651551,1.088908434
84.803230,-2.244472504,8.660762787,-1.124694824,-0.017251343,0.029640809,1.064860582
84.841807,-1.000881195,-2.966434479,-0.323608398,0.004965454,0.059792176,1.050700426
84.856039,0.448703766,-7.086307526,-0.315979004,0.002890259,0.079201356,1.037516832
84.871608,1.829624176,-12.281925201,-0.232055664,-0.008950561,0.045265809,1.017863512
84.910120,6.063938141,-8.688480377,0.019714355,-0.040810913,0.089089051,0.992961168
84.962814,7.650852203,11.178462982,3.025695801,-0.019326538,0.087624207,1.058268785
84.978410,4.721164703,13.841121674,3.758117676,-0.008096069,0.138039246,1.074870348
84.992858,5.255222321,12.002437592,3.285095215,0.000326782,0.173683777,1.080729723
85.031300,2.295017242,-0.593692780,3.765747070,0.010336548,0.166969910,1.106852770
85.069619,2.295017242,1.435726166,7.084533691,-0.044228882,0.187721863,1.084147692
85.084045,1.654148102,1.771419525,6.611511230,-0.052285522,0.135109559,1.096720934
85.099479,-1.603603363,1.603572845,5.100891113,-0.063760132,0.137673035,1.096965075
85.138075,-1.847743988,4.937618256,2.979919434,-0.070351928,0.163918152,1.075114489
85.176591,-6.288051605,5.143611908,2.499267578,-0.044350952,0.139137879,1.082560778
85.190803,-8.340358734,2.511470795,1.957580566,-0.045205444,0.147926942,1.051921129
85.206438,-8.782863617,1.481502533,1.728698730,-0.051553100,0.145973817,1.033244371
85.244938,-9.713649750,-1.684696198,0.477478027,-0.045937866,0.120461121,0.967936754
85.283438,-2.366542816,-13.914615631,-4.237487793,-0.030557007,0.142311707,0.913981676
85.297653,-0.581264496,-13.060123444,-5.412414551,-0.030434936,0.118874207,0.904704332
85.313105,-0.146389008,-9.405643463,-4.245117188,-0.021890014,0.112770692,0.900553942
85.351765,4.217624664,-2.264530182,-2.162292480,0.009237915,0.108376160,0.896403551
85.390279,6.521701813,5.853145599,-3.283813477,-0.005044311,0.099709168,0.918864489
85.421527,5.598545074,8.813350677,0.744506836,0.053305298,0.071510926,0.930461168
85.435781,7.742404938,2.389400482,0.050231934,0.058554322,0.122536317,0.910441637
85.490013,10.923862457,-1.333744049,-0.026062012,0.010092407,0.093361512,0.936076403
85.528601,10.366916656,8.386104584,3.124877930,-0.019204468,0.103737488,0.996745348
85.542992,10.595798492,10.629146576,2.964660645,-0.034829468,0.118019715,1.005412340
85.558428,9.420871735,16.740291595,-0.415161133,-0.060464233,0.136330262,1.032145739
85.596971,1.211643219,32.159297943,3.781005859,0.015097290,0.122902527,1.097453356
85.635461,4.629611969,8.653133392,1.743957520,0.036825806,0.162819520,1.115641832
85.649704,3.027439117,5.189388275,2.163574219,0.017660767,0.123146668,1.140177965
85.665357,-2.236843109,3.526180267,7.069274902,-0.011025757,0.158669129,1.176188707
85.703686,-10.827541351,-12.320072174,2.560302734,-0.029702514,0.206764832,1.115641832
85.742212,-8.691310883,-11.908084869,4.131958008,-0.059487671,0.219704285,1.082804918
85.756599,-12.841701508,-2.462894440,5.963012695,-0.098550171,0.178322449,1.087199450
85.772037,-14.741420746,3.671138763,5.772277832,-0.111855835,0.187233582,1.076945543
85.810597,-15.405178070,20.158260345,6.580993652,-0.083169311,0.217140809,0.977580309
85.849088,-10.423183441,7.638423920,3.994628906,-0.045205444,0.108498231,0.954753160
85.863321,-10.102748871,1.275508881,3.788635254,-0.065591186,0.126198426,0.906169176
85.878971,-8.943080902,0.771968842,4.009887695,-0.084756225,0.126198426,0.872599840
85.917480,-0.787258148,0.482051849,1.888916016,-0.082070678,0.104469910,0.870646715
85.955817,1.936435699,-2.440006256,3.735229492,-0.040078491,0.104591981,0.815348864
85.970233,4.629611969,-3.508121490,5.116149902,-0.051797241,0.119728699,0.815226793
85.985677,9.459018707,-5.461246490,4.940673828,-0.093423218,0.094582215,0.853801012
85.986526,9.459018707,-5.461246490,4.940673828,-0.093423218,0.094582215,0.853801012
85.987266,9.459018707,-5.461246490,4.940673828,-0.093423218,0.094582215,0.853801012
85.988007,9.459018707,-5.461246490,4.940673828,-0.093423218,0.094582215,0.853801012
85.988722,9.459018707,-5.461246490,4.940673828,-0.093423218,0.094582215,0.853801012
85.989466,9.459018707,-5.461246490,4.940673828,-0.093423218,0.094582215,0.853801012
85.990180,9.459018707,-5.461246490,4.940673828,-0.093423218,0.094582215,0.853801012
85.990921,9.459018707,-5.461246490,4.940673828,-0.093423218,0.094582215,0.853801012
85.991633,9.306430817,-6.132633209,3.224060059,-0.111245483,0.074928895,0.877116442
85.992376,9.306430817,-6.132633209,3.224060059,-0.111245483,0.074928895,0.877116442
86.030774,9.047031403,-4.286319733,2.728149414,-0.132973999,0.113869324,0.878947496
86.069273,16.661167145,-4.789859772,-0.804260254,-0.171304077,0.139504090,0.937297106
86.083515,13.723850250,-2.630741119,-4.634216309,-0.178750366,0.052834168,1.018351793
86.117422,10.374546051,4.579036713,-2.116516113,-0.080361694,0.126320496,0.988078356
86.156014,12.373447418,-4.789859772,-6.388977051,-0.121377319,0.176735535,1.045207262
86.194527,1.501560211,16.343563080,-6.152465820,-0.175698608,0.086403504,1.105509996
86.208770,-1.702785492,25.781124115,-3.848388672,-0.148476928,0.129128113,1.091593981
86.224358,-1.000881195,30.122249603,-4.054382324,-0.091958374,0.168068543,1.078654528
86.262837,-2.648830414,19.814937592,-7.205322266,-0.074990600,0.102760926,1.104655504
86.263619,-2.648830414,19.814937592,-7.205322266,-0.074990600,0.102760926,1.104655504
86.264315,-2.648830414,19.814937592,-7.205322266,-0.074990600,0.102760926,1.104655504
86.265034,-2.648830414,19.814937592,-7.205322266,-0.074990600,0.102760926,1.104655504
86.265729,-2.648830414,19.814937592,-7.205322266,-0.074990600,0.102760926,1.104655504
86.266455,-2.648830414,19.814937592,-7.205322266,-0.074990600,0.102760926,1.104655504
86.267136,-2.648830414,19.814937592,-7.205322266,-0.074990600,0.102760926,1.104655504
86.267865,-2.648830414,19.814937592,-7.205322266,-0.074990600,0.102760926,1.104655504
86.268547,-2.648830414,19.814937592,-7.205322266,-0.074990600,0.102760926,1.104655504
86.269266,-2.648830414,19.814937592,-7.205322266,-0.074990600,0.102760926,1.104655504
86.324485,-4.731655121,8.157222748,-3.924682617,-0.048623413,0.253395677,0.998576403
86.338729,-1.679897308,-0.105411530,-6.198242188,-0.043984741,0.254128098,1.005290270
86.354474,-2.671718597,-7.208377838,-6.732299805,-0.077309936,0.207863465,1.015910387
86.393003,-4.952907562,1.290767670,-1.803710938,-0.054726928,0.157692567,0.973796129
86.431616,-0.733852386,-8.398563385,-0.285461426,-0.036538452,0.214211121,0.972331285
86.445866,0.906467438,-11.305362701,-0.552490234,-0.061196655,0.231056824,0.975627184
86.461327,0.647068024,-11.244327545,-0.598266602,-0.099038452,0.205544129,0.972209215
86.499861,4.278659821,-13.205081940,1.370117188,-0.035317749,0.224953309,0.955485582
86.538468,1.554965973,-26.266605377,-1.696899414,-0.067910522,0.145729676,0.985514879
86.552891,2.180576324,-22.490055084,0.889465332,-0.076089233,0.173805848,0.984782457
86.568313,3.088474274,-16.188175201,1.751586914,-0.108804077,0.159401551,1.003703356
86.569145,3.088474274,-16.188175201,1.751586914,-0.108804077,0.159401551,1.003703356
86.569888,3.088474274,-16.188175201,1.751586914,-0.108804077,0.159401551,1.003703356
86.570625,3.088474274,-16.188175201,1.751586914,-0.108804077,0.159401551,1.003703356
86.571347,3.088474274,-16.188175201,1.751586914,-0.108804077,0.159401551,1.003703356
86.572081,3.088474274,-16.188175201,1.751586914,-0.108804077,0.159401551,1.003703356
86.572803,3.088474274,-16.188175201,1.751586914,-0.108804077,0.159401551,1.003703356
86.611258,-1.855373383,7.691829681,-4.420593262,-0.181313843,0.152687684,1.051066637
86.649780,-6.433010101,35.752742767,0.546142578,-0.057412475,0.125466004,1.056559801
86.664036,-6.997585297,31.762569427,0.996276855,-0.024209350,0.114723817,1.057170153
86.679638,-8.164882660,12.475460052,-1.223876953,0.016073853,0.085793152,1.046183825
86.717986,-7.272243500,-20.720035553,-3.115966797,-0.051186889,0.053688660,1.027629137
86.768229,-10.217189789,-30.088932037,-6.144836426,-0.077065796,0.113136902,1.001139879
86.782522,-10.591030121,-27.952701569,-5.877807617,-0.085000366,0.105446473,0.996257067
86.797978,-10.987758636,-19.995243073,-4.153564453,-0.104775757,0.133522645,0.985636950
86.836564,-11.300563812,-16.401798248,-8.670166016,-0.032143921,0.150978699,0.977702379
86.875082,-7.699489594,-8.718997955,-6.709411621,-0.027749389,0.149880067,0.967082262
86.889320,-5.128383636,2.282588959,-2.650573730,-0.021401733,0.199074402,1.013591051
86.904910,-5.013942719,4.495113373,-2.291992188,-0.009805053,0.191506043,1.048014879
86.943531,-9.965419769,-4.004032135,-4.191711426,0.044394165,0.137550965,1.058390856
86.982029,-8.538722992,-9.008914948,5.886718750,0.009848267,0.121437684,1.078044176
86.996263,-11.834621429,-23.291141510,0.012084961,-0.034829468,0.088478699,1.055583239
87.011704,-12.551784515,-27.105838776,-2.452209473,-0.061929077,0.098854676,1.029216051
87.050262,-10.850429535,1.115291595,3.040954590,-0.125527710,0.129128113,1.003215075
87.088777,-14.710903168,1.611202240,-0.964477539,-0.023110718,0.088356629,0.989176989
87.103160,-13.192653656,-4.026920319,-2.307250977,-0.016396850,0.112282410,0.970866442
87.118558,-9.995937347,-11.671573639,-1.666381836,-0.039101928,0.066261902,0.969401598
87.157105,-13.780117035,-11.251956940,-3.863647461,-0.058389038,-0.000876769,1.003337145
87.195585,-14.741420746,-9.794742584,-3.924682617,-0.015786499,0.021340027,0.963420153
87.209817,-14.031887054,-12.136966705,-4.344299316,-0.008706421,0.034889832,0.958415270
87.225253,-13.833522797,-16.882450104,-5.572631836,-0.001748413,0.006325379,0.959513903
87.226087,-13.833522797,-16.882450104,-5.572631836,-0.001748413,0.006325379,0.959513903
87.226961,-13.833522797,-16.882450104,-5.572631836,-0.001748413,0.006325379,0.959513903
87.227654,-13.833522797,-16.882450104,-5.572631836,-0.001748413,0.006325379,0.959513903
87.228387,-13.833522797,-16.882450104,-5.572631836,-0.001748413,0.006325379,0.959513903
87.229125,-13.833522797,-16.882450104,-5.572631836,-0.001748413,0.006325379,0.959513903
87.229869,-13.833522797,-16.882450104,-5.572631836,-0.001748413,0.006325379,0.959513903
87.280258,-17.693996429,-8.757144928,-3.749206543,0.003134400,0.007546082,0.890666246
87.318795,-15.786647797,-1.776248932,-0.727966309,0.013388306,-0.016135558,0.848551989
87.333019,-15.168666840,-2.813846588,-1.124694824,0.006918579,-0.015036926,0.824137926
87.348473,-14.276027679,-2.539188385,-0.804260254,-0.008096069,-0.017356262,0.817301989
87.387025,-11.521816254,5.982845306,-0.422790527,-0.024087280,-0.045066223,0.836344957
87.425526,-10.934352875,1.931636810,-0.506713867,0.000815064,0.038918152,0.836222887
87.455433,-6.829738617,-5.148441315,-0.163391113,-0.022866577,0.033913270,0.830851793
87.469721,-5.113124847,-6.033451080,-0.041320801,-0.030190796,0.016579285,0.844523668
87.508149,-4.266262054,0.283687592,0.729248047,-0.006265014,-0.019553527,0.920695543
87.546631,-3.983974457,-5.850345612,-1.315429688,0.028769165,-0.087302551,0.950480700
87.560947,-4.960536957,-7.505924225,-0.796630859,0.029257447,-0.124045715,0.958537340
87.576583,-8.225917816,-9.588748932,-1.460388184,0.013022095,-0.127951965,0.948649645
87.615087,-11.933803558,-2.256900787,-1.635864258,-0.006875366,-0.081076965,0.881144762
87.653580,-6.852626801,8.614986420,-0.262573242,0.012777954,0.062599793,0.841471910
87.667813,-5.097866058,7.096736908,-1.040771484,0.022787720,0.090920106,0.841227770
87.683291,-0.314235687,2.191036224,-3.634765625,0.038534790,0.066872254,0.853068590
87.721819,-2.839565277,5.273311615,-1.231506348,0.070273072,-0.065818176,0.894816637
87.760296,-4.014492035,-3.576786041,1.187011719,0.091635376,-0.071921691,0.867961168
87.774528,-3.732204437,-9.398014069,-0.453308105,0.083700806,-0.034446105,0.856120348
87.790129,-1.702785492,-16.134769440,-0.735595703,0.052572876,-0.028952941,0.842326403
87.828613,-1.519680023,-6.712467194,-0.354125977,-0.016274780,-0.037131652,0.868815660
87.867108,-6.761074066,19.898860931,0.752136230,0.006064087,-0.022239074,0.848796129
87.881332,-2.679347992,23.171871185,1.499816895,0.044882447,0.004372254,0.847697496
87.896807,-1.000881195,21.790950775,1.835510254,0.055624634,-0.007102355,0.862345934
87.897639,-1.000881195,21.790950775,1.835510254,0.055624634,-0.007102355,0.862345934
87.898376,-1.000881195,21.790950775,1.835510254,0.055624634,-0.007102355,0.862345934
87.899119,-1.000881195,21.790950775,1.835510254,0.055624634,-0.007102355,0.862345934
87.899836,-0.085353851,19.059627533,1.187011719,0.063315064,-0.036155090,0.874430895
87.938284,2.302646637,9.667842865,1.293823242,0.076864868,-0.073386535,0.905192614
87.976780,4.904270172,-0.204593658,2.491638184,0.055014282,-0.049704894,0.928874254
87.991154,7.719516754,-3.141910553,3.437683105,0.035483032,-0.086203918,0.949748278
88.006557,7.765293121,-4.324466705,2.682373047,0.025839478,-0.099021301,0.964030504
88.045088,6.514072418,-0.540287018,3.246948242,0.004355103,-0.066062316,0.987956285
88.083579,7.048130035,0.039546967,2.972290039,0.002401978,-0.066916808,1.010539293
88.097807,7.620334625,0.421016693,2.415344238,-0.006509155,-0.051169738,1.015300035
88.125768,8.856296539,3.198116302,3.445312500,-0.005288452,-0.046408996,1.070597887
88.164313,4.332065582,-2.714664459,0.591918945,0.000570923,-0.018210754,1.106608629
88.202798,2.676486969,-1.516849518,0.157043457,0.007651001,-0.056296691,1.106608629
88.217036,1.646518707,-0.845462799,1.454040527,0.012045532,-0.061057433,1.115885973
88.232449,-1.733303070,-0.761539459,1.881286621,-0.008096069,-0.008567199,1.108805895
88.270982,-4.876613617,2.229183197,0.446960449,-0.035561889,-0.008200988,1.087443590
88.309479,-11.712551117,9.568660736,6.359741211,0.002401978,-0.008200988,1.061198473
88.323717,-11.384487152,7.440059662,7.549926758,-0.000649780,0.034645692,1.026164293
88.339315,-8.576869965,-3.584415436,7.198974609,-0.009927124,0.096047059,0.985392809
88.377786,-6.539821625,-20.475894928,1.957580566,-0.085976928,-0.013572082,0.978923082
88.416252,-3.007411957,-2.295047760,0.935241699,-0.110024780,-0.004172668,0.932170153
88.430482,-2.763271332,4.426448822,0.927612305,-0.100503296,-0.035056457,0.937541246
88.445911,-3.396511078,12.536495209,1.133605957,-0.069009155,-0.016135558,0.936076403
88.498114,0.357151031,-0.082523346,-2.848937988,-0.038491577,-0.020285949,0.909465075
88.536471,4.850864410,-7.277042389,-6.839111328,-0.067788452,-0.049704894,0.929484606
88.550865,4.980564117,-5.186588287,-7.182434082,-0.072427124,-0.064353332,0.932658434
88.566315,4.286289215,1.893489838,-7.449462891,-0.068520874,-0.085227355,0.936808825
88.604883,5.560398102,12.353389740,-7.090881348,-0.024453491,-0.060080871,0.938029528
88.643383,7.193088531,5.982845306,-6.938293457,0.008993775,-0.076438293,0.977702379
88.657591,5.957126617,0.367610931,-7.968261719,-0.011514038,-0.048240051,0.985759020
88.673211,5.987644196,-0.479251862,-8.525207520,-0.023476928,-0.025779113,0.981852770
88.711714,6.300449371,8.561580658,-8.586242676,-0.015176147,0.016213074,0.977458239
88.750205,7.734775543,18.517940521,-3.321960449,0.049643189,0.013649598,0.990397692
88.764432,10.130405426,19.158809662,0.553771973,0.079428345,0.018532410,1.019816637
88.779912,10.397434235,17.381160736,3.704711914,0.086874634,0.005470887,1.043132067
88.832361,7.521152496,-10.351688385,1.156494141,0.025961548,0.020607606,1.008952379
88.870739,8.238315582,-1.074344635,4.917785645,0.004721314,0.009010926,1.034220934
88.885147,8.017063141,4.205196381,7.275268555,-0.002358764,0.029396668,1.043986559
88.900573,7.643222809,2.908199310,5.947753906,-0.001870483,0.019875184,1.043498278
88.939085,9.077548981,-4.889041901,1.476928711,-0.019082397,0.068215027,1.031535387
88.977583,7.315158844,3.480403900,2.415344238,-0.015542358,0.071144715,1.043132067
88.991812,6.292819977,3.991573334,1.850769043,-0.001870483,0.062477723,1.038859606
89.007417,5.430698395,3.106563568,1.736328125,0.029623657,0.059914246,1.022013903
89.045880,6.292819977,-4.492313385,3.422424316,0.024496704,0.059181824,0.996012926
89.084197,5.873203278,-3.057987213,2.827331543,0.007406861,0.021828309,0.994792223
89.098594,5.438327789,-0.196964264,3.796264648,0.008261353,0.040749207,0.988322496
89.114044,6.369113922,4.701107025,4.925415039,0.011679322,0.036232606,0.987712145
89.152575,5.522251129,2.175777435,6.146118164,0.023886353,0.004372254,1.006144762
89.153342,5.522251129,2.175777435,6.146118164,0.023886353,0.004372254,1.006144762
89.154032,5.522251129,2.175777435,6.146118164,0.023886353,0.004372254,1.006144762
89.154738,5.522251129,2.175777435,6.146118164,0.023886353,0.004372254,1.006144762
89.155430,5.522251129,2.175777435,6.146118164,0.023886353,0.004372254,1.006144762
89.156131,5.522251129,2.175777435,6.146118164,0.023886353,0.004372254,1.006144762
89.156813,5.522251129,2.175777435,6.146118164,0.023886353,0.004372254,1.006144762
89.157538,5.522251129,2.175777435,6.146118164,0.023886353,0.004372254,1.006144762
89.158229,5.522251129,2.175777435,6.146118164,0.023886353,0.004372254,1.006144762
89.158950,5.522251129,2.175777435,6.146118164,0.023886353,0.004372254,1.006144762
89.159640,5.522251129,2.175777435,6.146118164,0.023886353,0.004372254,1.006144762
89.160357,5.522251129,2.175777435,6.146118164,0.023886353,0.004372254,1.006144762
89.198713,7.833957672,-1.951725006,7.191345215,-0.007607788,-0.031272277,1.007243395
89.213105,7.063388824,-1.127750397,6.878540039,-0.033120483,-0.033835754,1.028117418
89.228534,6.308078766,-0.044376373,6.146118164,-0.043618530,-0.058738098,1.032634020
89.267098,5.140781403,4.632442474,5.535766602,-0.065713257,0.005470887,1.036662340
89.305571,5.056858063,-1.013309479,0.179931641,-0.069863647,0.044045106,1.023600817
89.319802,5.728244781,-1.814395905,-1.345947266,-0.072060913,0.039894715,1.023234606
89.335293,5.781650543,-1.646549225,-2.284362793,-0.063638061,0.037331238,1.034587145
89.373853,4.103183746,2.015560150,-5.122497559,-0.047524780,0.085426942,1.009318590
89.412376,3.881931305,-0.837833405,-6.533935547,-0.003213257,0.066383973,1.038981676
89.426750,3.691196442,-2.760440826,-6.495788574,0.000937134,0.075905457,1.033854723
89.442192,4.156589508,-5.827457428,-6.175354004,-0.004311889,0.085915223,1.012370348
89.494776,5.766391754,-3.691226959,-2.848937988,-0.009316772,0.064430848,1.036662340
89.533321,4.736423492,2.259700775,-3.062561035,-0.043862671,0.128517762,0.999308825
89.563222,7.795810699,13.024776459,-0.438049316,-0.015176147,0.141579285,1.019694567
89.577486,7.078647614,13.192623138,-0.438049316,0.003256470,0.104836121,1.030802965
89.615976,7.345676422,1.168697357,0.546142578,-0.018960327,0.146706238,0.989054918
89.654480,8.444309235,-6.460697174,-3.779724121,-0.065469116,0.078468934,0.958537340
89.668718,8.734226227,-0.204593658,-3.604248047,-0.079751343,0.110573426,0.927287340
89.684354,10.084629059,4.510372162,-2.955749512,-0.082314819,0.091530457,0.924601793
89.722826,12.609958649,16.679256439,-3.917053223,-0.035439819,0.061012879,0.959635973
89.761169,13.556003571,7.333248138,-4.107788086,-0.003091186,0.050270692,0.977580309
89.775572,13.540744781,3.823726654,-4.947021484,-0.005898803,0.073341981,0.977580309
89.791029,14.982700348,-1.364261627,-4.756286621,-0.005532593,0.107399598,0.977580309
89.829569,15.600681305,-4.545719147,-4.519775391,-0.012856811,0.059792176,0.997233629
89.868073,14.761447906,5.021541595,-1.002624512,-0.007851928,0.119606629,1.005656481
89.882310,15.181064606,3.610103607,-1.529052734,0.005453736,0.102028504,1.022624254
89.897954,13.693332672,-1.135379791,-1.338317871,0.011557251,0.076027527,1.048625231
89.936442,14.578342438,-4.377872467,-0.377014160,-0.033242553,0.115944520,1.039714098
89.974938,14.059543610,-1.516849518,1.171752930,-0.049966186,0.134865418,1.096232653
89.989170,12.793064117,-2.409488678,-0.773742676,-0.072182983,0.192604676,1.103190660
90.004643,13.853549957,-2.150089264,-2.330139160,-0.081948608,0.217995301,1.113444567
90.043186,8.574008942,9.759395599,-1.551940918,-0.027261108,0.160256043,1.144816637
90.081676,8.032321930,9.210079193,1.774475098,0.001181275,0.184181824,1.152995348
90.112892,4.812717438,1.344173431,1.293823242,-0.000893921,0.165749207,1.191935778
90.127182,0.120639801,-1.905948639,2.888366699,0.003500611,0.147438660,1.183634996
90.165599,-1.420497894,-4.995853424,5.406066895,-0.023476928,0.177834168,1.097819567
90.204082,0.036716461,-5.705387115,4.780456543,-0.059731811,0.204933777,1.104777575
90.218319,-2.137660980,-3.935367584,3.285095215,-0.082925171,0.238991395,1.086100817
90.249701,-3.404140472,4.922359467,2.445861816,-0.080849975,0.239113465,1.026042223
90.288335,-2.763271332,5.135982513,5.917236328,-0.012612671,0.200905457,1.003459215
90.326835,-1.580715179,-21.086246490,-0.109985352,-0.085610718,0.115090027,0.941691637
90.341088,-0.360012054,-20.964176178,-1.147583008,-0.113564819,0.141823426,0.929606676
90.356699,2.470493317,-12.503177643,-1.574829102,-0.149209350,0.144753113,0.946940660
90.395039,-1.092433929,7.821529388,-2.864196777,-0.129800171,0.180641785,0.957560778
90.395875,-1.092433929,7.821529388,-2.864196777,-0.129800171,0.180641785,0.957560778
90.396613,-1.092433929,7.821529388,-2.864196777,-0.129800171,0.180641785,0.957560778
90.397456,-1.092433929,7.821529388,-2.864196777,-0.129800171,0.180641785,0.957560778
90.398121,-1.092433929,7.821529388,-2.864196777,-0.129800171,0.180641785,0.957560778
90.436400,3.386020660,16.625850677,-6.144836426,-0.062783569,0.138161317,0.991130114
90.450845,2.485752106,17.121761322,-6.236389160,-0.040810913,0.125099793,1.006266832
90.466311,0.898838043,15.031307220,-4.618957520,-0.006997436,0.123879090,1.014079332
90.467167,0.898838043,15.031307220,-4.618957520,-0.006997436,0.123879090,1.014079332
90.467926,0.898838043,15.031307220,-4.618957520,-0.006997436,0.123879090,1.014079332
90.468685,0.898838043,15.031307220,-4.618957520,-0.006997436,0.123879090,1.014079332
90.469426,0.898838043,15.031307220,-4.618957520,-0.006997436,0.123879090,1.014079332
90.470189,0.898838043,15.031307220,-4.618957520,-0.006997436,0.123879090,1.014079332
90.508596,4.080295563,1.664608002,-5.412414551,0.028769165,0.185524598,1.003337145
90.547076,0.204563141,-12.144596100,-6.083801270,0.020468384,0.124367371,1.022013903
90.561322,-0.100612640,-10.633975983,-5.725219727,0.000326782,0.130470887,1.012126207
90.576935,-0.283718109,0.253170013,-2.078369141,-0.031411499,0.183571473,1.005046129
90.615451,-2.114772797,0.321834564,-2.261474609,-0.032754272,0.198097840,1.119181871
90.653965,-5.761623383,0.070064545,0.836059570,-0.030434936,0.186134949,1.067424059
90.685485,-5.189418793,-1.165897369,4.543945312,-0.035439819,0.182839051,1.103556871
90.700100,-6.806850433,-7.284671783,1.728698730,-0.038979858,0.178200379,1.108195543
90.738594,-8.622646332,-11.328250885,-3.360107422,-0.107339233,0.153053895,1.055339098
90.793310,-15.130519867,13.131587982,-1.345947266,-0.048135132,0.190163270,1.061320543
90.807603,-14.977931976,9.507625580,-1.315429688,-0.038857788,0.222756043,1.037883043
90.823386,-12.338161469,0.520198822,-1.513793945,-0.022622436,0.213844910,1.000163317
90.861925,-10.789394379,-13.441593170,-0.270202637,-0.048623413,0.096535340,0.968058825
90.900246,-3.976345062,-10.382205963,-2.513244629,-0.131142944,0.197975770,0.896159410
90.914640,-2.931118011,-4.965335846,-1.757934570,-0.131142944,0.130959168,0.920085192
90.930083,-6.562709808,5.883663177,-2.055480957,-0.114053100,0.100563660,0.948527575
90.968618,-8.119106293,13.368099213,-1.063659668,-0.059609741,0.106423035,0.932902575
90.969393,-8.119106293,13.368099213,-1.063659668,-0.059609741,0.106423035,0.932902575
90.970101,-7.928371429,11.788814545,-1.017883301,-0.046670288,0.131813660,0.924113512
90.970823,-7.928371429,11.788814545,-1.017883301,-0.046670288,0.131813660,0.924113512
90.971513,-7.928371429,11.788814545,-1.017883301,-0.046670288,0.131813660,0.924113512
90.972236,-7.928371429,11.788814545,-1.017883301,-0.046670288,0.131813660,0.924113512
90.972932,-7.928371429,11.788814545,-1.017883301,-0.046670288,0.131813660,0.924113512
90.973659,-7.928371429,11.788814545,-1.017883301,-0.046670288,0.131813660,0.924113512
90.974352,-7.928371429,11.788814545,-1.017883301,-0.046670288,0.131813660,0.924113512
90.975079,-7.928371429,11.788814545,-1.017883301,-0.046670288,0.131813660,0.924113512
91.013427,-3.633022308,-8.543521881,-2.673461914,-0.035073608,0.113869324,0.951945543
91.027658,-4.884243011,-13.685733795,-4.130676270,-0.047524780,0.100563660,0.951945543
91.043301,-6.623744965,-14.975101471,-3.238037109,-0.066933960,0.099098817,0.922526598
91.081777,-2.686977386,-9.901554108,-2.429321289,-0.059365600,0.081276551,0.914836168
91.120251,-4.319667816,2.572505951,0.507995605,-0.072549194,0.029884949,0.946086168
91.134480,-4.762172699,5.502193451,0.713989258,-0.070718139,0.044899598,0.957682848
91.149976,-4.373073578,5.814998627,0.752136230,-0.056069702,0.100441590,0.987345934
91.188524,-5.349636078,-3.263980865,-1.597717285,-0.047768921,0.158058777,1.019450426
91.226993,-4.060268402,4.319637299,1.820251465,-0.063149780,0.127297059,1.042033434
91.241390,-5.502223969,8.614986420,1.347229004,-0.055215210,0.078102723,1.087321520
91.256801,-7.592678070,8.721797943,1.141235352,-0.041543335,0.071877137,1.097087145
91.295378,-9.103298187,-0.578433990,0.401184082,-0.022378296,0.111916199,1.059733629
91.296139,-9.103298187,-0.578433990,0.401184082,-0.022378296,0.111916199,1.059733629
91.296826,-9.103298187,-0.578433990,0.401184082,-0.022378296,0.111916199,1.059733629
91.297547,-9.103298187,-0.578433990,0.401184082,-0.022378296,0.111916199,1.059733629
91.298233,-8.477687836,-2.905399323,0.073120117,-0.027505249,0.113258973,1.053630114
91.298955,-8.477687836,-2.905399323,0.073120117,-0.027505249,0.113258973,1.053630114
91.299631,-8.477687836,-2.905399323,0.073120117,-0.027505249,0.113258973,1.053630114
91.300353,-8.477687836,-2.905399323,0.073120117,-0.027505249,0.113258973,1.053630114
91.301035,-8.477687836,-2.905399323,0.073120117,-0.027505249,0.113258973,1.053630114
91.301750,-8.477687836,-2.905399323,0.073120117,-0.027505249,0.113258973,1.053630114
91.302441,-8.477687836,-2.905399323,0.073120117,-0.027505249,0.113258973,1.053630114
91.303155,-8.477687836,-2.905399323,0.073120117,-0.027505249,0.113258973,1.053630114
91.303832,-8.477687836,-2.905399323,0.073120117,-0.027505249,0.113258973,1.053630114
91.304556,-8.477687836,-2.905399323,0.073120117,-0.027505249,0.113258973,1.053630114
91.305239,-8.477687836,-2.905399323,0.073120117,-0.027505249,0.113258973,1.053630114
91.343623,-10.629177094,-2.378971100,0.599548340,-0.012612671,0.087868348,1.030436754
91.370947,-10.278224945,-8.635074615,2.148315430,0.000082642,0.141945496,0.955241442
91.385216,-7.707118988,-12.342960358,2.003356934,-0.001870483,0.168923035,0.941447496
91.423626,-0.360012054,-19.674808502,-1.216247559,-0.011636108,0.190651551,0.975260973
91.462094,-4.144191742,-2.264530182,1.759216309,0.014242798,0.121559754,0.998576403
91.476319,-4.586696625,0.771968842,2.041503906,0.030234009,0.087135926,1.000285387
91.491776,-6.455898285,3.106563568,3.422424316,0.050741822,0.084572449,0.997843981
91.542266,-5.898952484,-12.342960358,2.537414551,0.029257447,0.119362488,0.944743395
91.580619,-5.525112152,0.398128510,4.185363770,-0.033852905,0.070900574,0.963542223
91.595061,-6.722927094,5.166500092,5.383178711,-0.032143921,0.082008973,0.965495348
91.610494,-7.356166840,8.523433685,4.124328613,-0.015908569,0.083229676,0.967326403
91.649058,-7.630825043,5.319087982,2.667114258,-0.009438843,0.040627137,0.990153551
91.687541,-12.208461761,-1.951725006,1.904174805,0.005575806,-0.006492004,1.004679918
91.701763,-12.254238129,-4.721195221,1.560852051,0.000326782,-0.001731262,0.997111559
91.717431,-13.047695160,-9.542972565,0.286743164,-0.016763061,-0.005637512,0.992106676
91.755925,-15.450954437,-6.010562897,-1.231506348,-0.051308960,0.038551942,0.986857653
91.794390,-17.533779144,-1.303226471,-1.590087891,-0.014443725,0.025490418,0.968791246
91.808619,-17.640590668,-0.189334869,-0.903442383,0.008749634,0.010231629,0.953532457
91.824111,-17.533779144,-0.456363678,-0.850036621,0.013754517,0.020119324,0.951091051
91.874793,-14.573574066,-12.953311920,-1.674011230,0.022421509,0.039772645,0.967326403
91.913148,-12.223720551,-14.860660553,1.484558105,0.027670532,-0.026633605,0.955241442
91.927564,-11.460781097,-14.601261139,1.278564453,-0.008462280,-0.056174621,0.954997301
91.942995,-12.391567230,-13.807804108,0.515625000,-0.028848022,-0.053733215,0.949504137
91.981555,-10.156154633,-2.707035065,-1.597717285,-0.100015014,0.154518738,0.888102770
92.020042,-3.114223480,17.739742279,-2.688720703,-0.064492553,0.107521668,0.932414293
92.034260,-3.098964691,20.593135834,-1.376464844,0.010092407,-0.009177551,0.968913317
92.049839,-3.472805023,17.800777435,-1.086547852,0.036093384,-0.046775207,0.978068590
92.088144,-2.503871918,-3.271610260,-1.864746094,0.005331665,-0.000510558,0.997721910
92.126593,-3.816127777,-15.631229401,-6.816223145,-0.055825561,-0.003318176,0.979289293
92.140994,-4.067897797,-14.456302643,-6.778076172,-0.060952514,0.006813660,0.966838121
92.156402,-3.739833832,-7.475406647,-5.664184570,-0.049233764,-0.021140441,0.963420153
92.194950,-8.065700531,-1.257450104,-6.182983398,-0.004922241,-0.053122863,0.941813707
92.233404,-9.225368500,-0.601322174,-5.748107910,0.030111939,-0.057273254,0.882609606
92.247646,-9.332180023,0.100582123,-5.397155762,0.036093384,-0.065451965,0.873088121
92.263257,-9.690761566,0.253170013,-4.176452637,0.042563111,-0.068625793,0.856608629
92.301772,-8.920192719,-4.766971588,-4.870727539,0.039389282,-0.046408996,0.818400621
92.340081,-6.333827972,0.169246674,-3.337219238,0.020834595,-0.007956848,0.802287340
92.367847,-5.723476410,6.936519623,-1.529052734,0.027914673,0.002541199,0.808390856
92.382404,-4.281520844,6.593196869,-0.651672363,0.051474243,-0.000388488,0.804850817
92.420682,1.303195953,-5.323917389,0.973388672,0.057699829,-0.046164855,0.825602770
92.459230,1.684665680,-7.780582428,1.278564453,0.012533814,-0.050681457,0.877604723
92.473466,2.653598785,-4.103214264,1.896545410,0.006796509,-0.057639465,0.908488512
92.489115,3.096103668,-3.660709381,1.118347168,0.015829712,-0.068137512,0.923136950
92.527580,4.057407379,-6.285221100,0.836059570,0.019003540,-0.072532043,0.983927965
92.566028,-1.695156097,-1.883060455,1.042053223,0.001913697,-0.127951965,0.986735582
92.580263,-1.573085785,0.787227631,-0.171020508,-0.009194702,0.001320496,0.946452379
92.595718,1.120090485,2.801387787,-0.956848145,-0.017129272,0.045632020,0.938884020
92.634300,4.423618317,20.623653412,-1.452758789,0.000570923,0.002052918,1.019206285
92.672620,0.166416168,15.611141205,2.438232422,0.119711548,-0.016501769,0.998332262
92.701959,3.469944000,-17.866641998,-0.163391113,0.137777954,-0.029197082,0.992106676
92.716217,4.019260406,-26.258975983,-0.315979004,0.103842407,-0.020530090,0.987345934
92.754658,4.019260406,-23.924381256,1.103088379,-0.000039428,-0.005027160,0.964518785
92.793159,4.179477692,0.153987885,0.256225586,-0.018472046,-0.023459777,0.954509020
92.807529,3.958225250,7.348506927,0.805541992,-0.012856811,-0.028220519,0.955363512
92.822954,4.309177399,19.898860931,2.903625488,0.017294556,-0.043357238,0.963664293
92.861492,3.881931305,20.760982513,3.361389160,0.061239868,-0.075461730,0.986369371
92.899960,5.659580231,7.508724213,3.224060059,0.041098267,-0.075095519,0.998332262
92.914174,5.072116852,3.793209076,2.186462402,0.029013306,-0.079734191,0.998332262
92.929784,5.865573883,0.001399994,0.935241699,0.008139282,-0.041159973,0.999797106
92.968084,3.210544586,1.496761322,2.918884277,0.012167603,-0.079123840,1.045085192
93.006540,0.952243805,-4.637271881,0.706359863,-0.004189819,0.013527527,1.025676012
93.020920,2.295017242,-7.818729401,-1.941040039,0.002768189,-0.011985168,1.029338121
93.036334,1.921176910,-6.254703522,-2.169921875,0.004599243,-0.033103332,1.037638903
93.037168,1.593112946,-2.600223541,-1.483276367,0.003866822,-0.029685363,1.047648668
93.037936,1.593112946,-2.600223541,-1.483276367,0.003866822,-0.029685363,1.047648668
93.038678,1.593112946,-2.600223541,-1.483276367,0.003866822,-0.029685363,1.047648668
93.039408,1.593112946,-2.600223541,-1.483276367,0.003866822,-0.029685363,1.047648668
93.040145,1.593112946,-2.600223541,-1.483276367,0.003866822,-0.029685363,1.047648668
93.040867,1.593112946,-2.600223541,-1.483276367,0.003866822,-0.029685363,1.047648668
93.041609,1.593112946,-2.600223541,-1.483276367,0.003866822,-0.029685363,1.047648668
93.079999,-2.229213715,13.627498627,1.751586914,0.022665650,0.033180848,1.057170153
93.118471,0.143527985,1.786678314,-0.819519043,0.069418579,-0.033713683,1.071696520
93.132727,-0.199794769,-0.715763092,-0.590637207,0.068808228,-0.049094543,1.073283434
93.148345,-1.473903656,-3.897220612,0.164672852,0.055014282,-0.043601379,1.057658434
93.200655,2.707004547,-6.086856842,1.354858398,-0.012978882,0.037331238,1.065470934
93.239175,0.357151031,1.306026459,4.116699219,-0.025674194,0.047585145,1.047160387
93.253398,0.692844391,1.893489838,4.429504395,-0.028481811,0.027443543,1.048136950
93.268994,0.296115875,-1.501590729,1.347229004,-0.038613647,-0.003318176,1.065715075
93.307326,-4.220485687,4.380672455,0.332519531,-0.055947632,-0.023581848,1.052287340
93.345814,-7.646083832,8.485286713,-0.621154785,-0.016152710,-0.012595519,1.038493395
93.360173,-8.264064789,6.028621674,-0.743225098,-0.004800171,-0.028464660,1.030680895
93.375582,-9.332180023,-1.097232819,-1.178100586,0.008627564,-0.026267394,1.003459215
93.414167,-7.127285004,-13.166934967,-2.459838867,-0.012856811,-0.033225402,0.949626207
93.452635,-5.975246429,-9.062320709,-3.741577148,-0.027627319,-0.036643371,0.913249254
93.466852,-4.624843597,1.321285248,-1.910522461,-0.019936889,-0.040061340,0.901774645
93.482482,-4.083156586,5.273311615,-1.620605469,-0.005410522,-0.050925598,0.903483629
93.521004,-1.336574554,7.409542084,-1.384094238,0.046103150,-0.061057433,0.911906481
93.559324,-0.680446625,3.205745697,0.019714355,0.050741822,-0.072165832,0.921061754
93.573703,0.402927399,0.390499115,0.271484375,0.050375611,-0.069236144,0.918498278
93.589121,1.249790192,-0.471622467,0.607177734,0.048666626,-0.063987121,0.920939684
93.627644,0.990390778,-3.088504791,2.476379395,0.033041626,-0.044822082,0.959880114
93.666118,3.805637360,-2.554447174,2.812072754,0.030722290,-0.009543762,0.935466051
93.680332,5.033969879,-0.692874908,4.788085938,0.032675415,-0.044455871,0.953898668
93.696097,3.080844879,0.428646088,5.810424805,0.026571900,-0.049216613,0.979777575
93.696889,3.080844879,0.428646088,5.810424805,0.026571900,-0.049216613,0.979777575
93.697589,3.080844879,0.428646088,5.810424805,0.026571900,-0.049216613,0.979777575
93.698306,3.080844879,0.428646088,5.810424805,0.026571900,-0.049216613,0.979777575
93.699011,3.080844879,0.428646088,5.810424805,0.026571900,-0.049216613,0.979777575
93.751495,6.887912750,1.985042572,5.489990234,0.005453736,-0.050315246,0.967692614
93.790001,6.491184235,2.229183197,4.261657715,-0.022866577,-0.046408996,1.035685778
93.804223,5.453586578,2.259700775,2.239868164,-0.031045288,-0.058127746,1.031657457
93.819806,5.232334137,4.601924896,2.537414551,-0.026040405,-0.053244933,1.029338121
93.858130,3.736972809,9.286373138,6.024047852,-0.014809936,-0.025657043,1.064128160
93.858960,3.736972809,9.286373138,6.024047852,-0.014809936,-0.025657043,1.064128160
93.859666,3.736972809,9.286373138,6.024047852,-0.014809936,-0.025657043,1.064128160
93.860491,3.736972809,9.286373138,6.024047852,-0.014809936,-0.025657043,1.064128160
93.861158,3.736972809,9.286373138,6.024047852,-0.014809936,-0.025657043,1.064128160
93.861852,2.905368805,5.486934662,5.161926270,-0.014077514,-0.013450012,1.060099840
93.862554,2.905368805,5.486934662,5.161926270,-0.014077514,-0.013450012,1.060099840
93.863265,2.905368805,5.486934662,5.161926270,-0.014077514,-0.013450012,1.060099840
93.901631,5.697727203,-6.582767487,1.827880859,-0.034951538,-0.003196105,1.044963121
93.915866,5.156040192,-5.438358307,2.033874512,-0.044961303,-0.015281066,1.058024645
93.931326,1.860141754,-0.174076080,1.354858398,-0.058022827,-0.018821105,1.055217028
93.984220,2.066135406,16.663997650,1.202270508,0.013266236,-0.029685363,1.032389879
94.022786,-3.671169281,3.213375092,2.010986328,0.069052368,-0.008933410,1.033000231
94.037168,-3.579616547,-2.699405670,1.843139648,0.067221314,0.035256043,1.007365465
94.052583,-0.421047211,-13.540775299,1.629516602,0.059042603,0.037697449,0.983073473
94.091154,-0.634670258,-22.619754791,0.462219238,0.003012329,-0.020163879,0.957316637
94.129636,3.874301910,-7.269412994,1.629516602,0.000815064,0.004250184,0.908976793
94.143851,4.805088043,-5.507022858,1.240417480,0.014242798,0.010109559,0.919963121
94.159457,4.568576813,-3.546268463,0.416442871,0.023276001,-0.037742004,0.933512926
94.197936,2.890110016,6.318538666,1.782104492,0.012045532,-0.045188293,0.903971910
94.236260,6.178379059,9.187191010,2.300903320,0.066977173,-0.121360168,0.964274645
94.250669,4.049777985,5.341976166,3.483459473,0.057577759,-0.090598449,0.973551989
94.266136,4.103183746,2.809017181,3.346130371,0.051962525,-0.077048644,0.964396715
94.304670,7.841587067,-12.907535553,0.111267090,0.034262329,-0.047629699,0.983317614
94.343170,2.829074860,-7.620365143,0.454589844,-0.022866577,-0.047263488,1.009684801
94.357395,2.073764801,-2.333194733,1.522705078,-0.035561889,-0.006003723,1.001261950
94.373015,3.416538239,5.197017670,0.713989258,-0.035561889,0.061012879,1.004801989
94.411512,0.158786774,9.110897064,-1.811340332,0.013510376,-0.002219543,1.021403551
94.449836,4.255771637,13.162105560,2.606079102,0.030111939,0.032570496,1.012370348
94.464250,5.339145660,7.592647552,2.079650879,0.031576782,0.005715027,1.035441637
94.479681,3.347873688,-7.544071198,-2.620056152,0.014853150,-0.021384582,1.053141832
94.518238,3.874301910,-7.452518463,-2.314880371,-0.060464233,0.054299012,0.971720934
94.519014,3.874301910,-7.452518463,-2.314880371,-0.060464233,0.054299012,0.971720934
94.519714,3.874301910,-7.452518463,-2.314880371,-0.060464233,0.054299012,0.971720934
94.520447,3.874301910,-7.452518463,-2.314880371,-0.060464233,0.054299012,0.971720934
94.521138,3.874301910,-7.452518463,-2.314880371,-0.060464233,0.054299012,0.971720934
94.521859,3.874301910,-7.452518463,-2.314880371,-0.060464233,0.054299012,0.971720934
94.522548,3.874301910,-7.452518463,-2.314880371,-0.060464233,0.054299012,0.971720934
94.523279,3.874301910,-7.452518463,-2.314880371,-0.060464233,0.054299012,0.971720934
94.523975,3.874301910,-7.452518463,-2.314880371,-0.060464233,0.054299012,0.971720934
94.562377,4.850864410,5.288570404,-2.925231934,-0.038735718,0.045265809,0.979411364
94.576591,4.171848297,6.997554779,-3.039672852,-0.030190796,0.036842957,0.964152575
94.592205,5.987644196,8.637874603,-3.489807129,-0.014809936,0.083229676,0.922404528
94.646232,11.671543121,-5.445987701,-4.161193848,-0.013345093,0.020607606,0.982341051
94.684786,13.159275055,-0.349552155,-4.344299316,-0.042397827,0.048073426,0.927531481
94.716228,11.869907379,6.387203217,-4.985168457,0.000937134,0.006813660,0.971232653
94.730525,11.641025543,7.417171478,-5.496337891,0.006674439,0.022560731,0.960734606
94.768971,14.730930328,13.596981049,-1.559570312,0.064291626,0.028908387,0.972575426
94.807624,9.916782379,3.694026947,-1.040771484,0.073935181,0.020851746,1.000041246
94.821874,10.015964508,1.878231049,-0.529602051,0.065024048,0.043068543,0.979777575
94.837436,12.922763824,-0.601322174,0.591918945,0.062460572,0.066994324,0.977946520
94.875942,7.849216461,-5.522281647,2.651855469,0.055624634,-0.019309387,1.001994371
94.914282,7.406711578,6.066768646,4.704162598,-0.001504272,0.011208192,0.933512926
94.928687,12.228488922,11.620967865,4.940673828,0.028158814,0.055031434,0.959635973
94.944125,11.412143707,11.704891205,5.428955078,0.047812134,-0.032492980,0.986247301
94.944974,8.612155914,10.987728119,6.909057617,0.052450806,-0.045920715,0.997355700
94.945721,8.612155914,10.987728119,6.909057617,0.052450806,-0.045920715,0.997355700
94.946482,8.612155914,10.987728119,6.909057617,0.052450806,-0.045920715,0.997355700
94.947202,8.612155914,10.987728119,6.909057617,0.052450806,-0.045920715,0.997355700
94.947964,8.612155914,10.987728119,6.909057617,0.052450806,-0.045920715,0.997355700
94.948688,8.612155914,10.987728119,6.909057617,0.052450806,-0.045920715,0.997355700
94.949452,8.612155914,10.987728119,6.909057617,0.052450806,-0.045920715,0.997355700
94.987860,10.504245758,9.438961029,8.572265625,-0.005410522,0.062843934,0.959025621
95.026379,8.253574371,0.947444916,10.510131836,0.029745728,-0.001853332,1.054362535
95.040636,7.437229156,-2.340824127,11.089965820,0.007040650,0.075783387,1.041911364
95.056234,9.314060211,-4.774600983,10.655090332,-0.049722046,0.087746277,1.017009020
95.094726,11.457920074,0.344722748,10.006591797,-0.077554077,0.030251160,1.078776598
95.095513,11.457920074,0.344722748,10.006591797,-0.077554077,0.030251160,1.078776598
95.096215,11.457920074,0.344722748,10.006591797,-0.077554077,0.030251160,1.078776598
95.096946,11.457920074,0.344722748,10.006591797,-0.077554077,0.030251160,1.078776598
95.097652,11.457920074,0.344722748,10.006591797,-0.077554077,0.030251160,1.078776598
95.098380,11.457920074,0.344722748,10.006591797,-0.077554077,0.030251160,1.078776598
95.099080,11.457920074,0.344722748,10.006591797,-0.077554077,0.030251160,1.078776598
95.099812,11.457920074,0.344722748,10.006591797,-0.077554077,0.030251160,1.078776598
95.100517,11.457920074,0.344722748,10.006591797,-0.077554077,0.030251160,1.078776598
95.101242,11.457920074,0.344722748,10.006591797,-0.077554077,0.030251160,1.078776598
95.101961,11.457920074,0.344722748,10.006591797,-0.077554077,0.030251160,1.078776598
95.140366,7.406711578,5.929439545,9.617492676,-0.121865600,0.109352723,1.071574450
95.154607,10.183811188,6.226985931,7.412597656,-0.103555053,0.150856629,1.097697496
95.170191,9.222507477,3.861873627,6.115600586,-0.078530639,0.091408387,1.116496325
95.208512,7.101535797,-2.897769928,6.199523926,-0.086343139,0.147926942,1.081095934
95.247022,10.916233063,2.213924408,3.521606445,-0.065102905,0.070168152,1.124064684
95.278601,5.148410797,4.487483978,4.139587402,-0.066079468,0.117043152,1.101603746
95.292863,5.278110504,7.569759369,1.614257812,-0.086831421,0.186012879,1.068156481
95.331448,6.247043610,9.797542572,0.721618652,-0.034341186,0.125466004,1.125773668
95.369967,-1.985073090,2.236812592,-0.521972656,-0.019814819,0.176003113,1.075236559
95.384358,1.516819000,-2.195865631,-0.949218750,-0.009194702,0.203835145,1.059489489
95.399784,1.867771149,-3.996402740,-0.697448730,-0.009560913,0.144386902,1.075724840
95.438308,-6.349086761,-2.668888092,-0.598266602,-0.049966186,0.116432801,1.055827379
95.476796,-0.276088715,-1.997501373,-1.696899414,-0.002236694,0.089089051,1.025798082
95.491015,-0.489711761,-4.217655182,-1.620605469,0.002157837,0.079323426,1.041301012
95.506478,-1.321315765,-4.385501862,-1.033142090,0.000937134,0.043923035,1.037516832
95.545009,2.462863922,-1.387149811,-2.063110352,0.006674439,0.109963074,1.000285387
95.599732,0.196933746,4.640071869,2.888366699,0.051718384,0.025612488,1.045695543
95.613970,0.486850739,1.893489838,1.820251465,0.048178345,0.093605652,1.020426989
95.629420,2.890110016,0.413387299,2.049133301,0.051230103,0.101296082,1.024455309
95.667939,1.272678375,-2.401859283,4.505798340,0.022665650,0.070412293,1.052287340
95.706449,3.675937653,3.983943939,6.489440918,-0.025552124,0.179665223,1.083659410
95.720801,1.577854156,0.604122162,4.345581055,-0.028481811,0.111061707,1.135173082
95.736196,-0.779628754,-0.486881256,3.613159180,-0.041909546,0.115822449,1.135905504
95.774715,-0.833034515,3.228633881,3.658935547,-0.059121460,0.175392762,1.126872301
95.813220,-7.455348969,4.640071869,1.293823242,-0.062173218,0.127541199,1.135661364
95.827449,-9.141445160,7.066219330,2.247497559,-0.060464233,0.100685731,1.126384020
95.842923,-9.912014008,9.667842865,2.827331543,-0.055703491,0.159645692,1.110636950
95.881464,-10.781764984,7.913082123,2.644226074,-0.065713257,0.119850770,1.123942614
95.919981,-12.055873871,-4.293949127,0.599548340,-0.074258178,0.160378113,1.072673082
95.947283,-10.896205902,-11.114627838,-0.598266602,-0.078286499,0.116066590,1.056803942
95.961578,-13.154506683,-12.739688873,-1.582458496,-0.099404663,0.088844910,1.032389879
96.000045,-12.406826019,-1.509220123,-2.490356445,-0.098794311,0.124245301,0.967448473
96.038538,-11.849880219,9.339778900,0.141784668,-0.053262085,0.114357606,0.945597887
96.052773,-11.071681976,8.088558197,-0.857666016,-0.045937866,0.107521668,0.939250231
96.068404,-8.355617523,2.198665619,-0.384643555,-0.014687866,0.101418152,0.934855700
96.106897,-7.897853851,-11.320621490,-0.346496582,-0.006875366,-0.002829894,0.957072496
96.145393,-6.799221039,-20.163089752,-0.872924805,-0.081704468,0.056740418,0.943644762
96.159625,-5.097866058,-18.370182037,-3.680541992,-0.099648803,0.065407410,0.946818590
96.175096,-5.288600922,-15.036136627,-3.680541992,-0.094521850,0.038674012,0.953166246
96.213642,-9.225368500,1.985042572,-1.033142090,-0.072060913,0.022560731,0.932658434
96.252126,-4.937648773,6.066768646,-2.787902832,-0.028237671,-0.015281066,0.993205309
96.266353,-8.050441742,6.265132904,-1.086547852,-0.018227905,-0.020896301,1.041789293
96.281947,-9.950160980,5.761592865,-0.163391113,-0.020791382,-0.001975402,1.048625231
96.320442,-9.507656097,-1.463443756,-0.537231445,-0.074990600,0.092873231,1.038005114
96.358936,-9.110927582,3.755062103,-3.245666504,-0.083657593,-0.009543762,1.078898668
96.373170,-10.522365570,8.042781830,-2.765014648,-0.081216186,0.000466004,1.073283434
96.388644,-9.912014008,15.946834564,-1.170471191,-0.073403686,0.063698426,1.061686754
96.427201,-10.308742523,6.638973236,-4.527404785,-0.020058960,0.078224793,1.070719957
96.465702,-9.843349457,2.496212006,-1.124694824,-0.003335327,0.037697449,1.035197496
96.480093,-10.591030121,1.267879486,-0.926330566,-0.001015991,0.048439637,1.018473864
96.495505,-8.676052094,-2.943546295,-0.781372070,0.008505493,0.061623231,0.975993395
96.534036,-4.106044769,-11.656314850,-0.018432617,-0.011880249,0.095192567,0.962687731
96.584407,-2.755641937,2.969234467,-2.528503418,-0.084023803,0.090187684,0.948649645
96.598715,-3.091335297,4.861324310,-3.741577148,-0.068765014,0.072975770,0.936930895
96.614321,-1.100063324,9.347408295,-4.275634766,-0.049844116,0.015236512,0.922282457
96.652800,-0.802516937,15.824764252,-1.895263672,-0.038369507,-0.013205871,0.931559801
96.691313,-1.100063324,-7.055789948,-6.182983398,0.002279907,0.001320496,0.946086168
96.705548,-0.253200531,-12.106449127,-6.305053711,-0.029580444,-0.027121887,0.929484606
96.721009,-0.222682953,-10.344058990,-5.648925781,-0.051553100,-0.037497863,0.925944567
96.759578,1.936435699,7.150142670,-8.792236328,-0.050332397,-0.013694152,0.918009996
96.798053,0.776767731,21.264522552,-6.480529785,-0.016640991,-0.034568176,0.993815660
96.812285,-1.473903656,24.217098236,-5.572631836,-0.022866577,-0.016990051,0.995646715
96.827913,-3.304958344,29.366939545,-5.130126953,-0.016030639,0.036965027,0.959269762
96.866417,1.150608063,18.769710541,-3.695800781,0.078451782,-0.056784973,1.003581285
96.917004,1.486301422,6.135433197,1.682922363,0.004843384,0.092018738,0.969035387
96.931272,4.850864410,-0.799686432,-0.186279297,0.010092407,0.081276551,1.004313707
96.946909,4.889011383,-12.846500397,-1.414611816,-0.014077514,0.078713074,1.087809801
96.985233,-1.077175140,-3.759891510,2.010986328,-0.077432007,0.085060731,1.079875231
97.023753,-1.145839691,2.221553802,2.026245117,-0.067544311,0.037819520,1.106242418
97.038141,-2.404689789,-1.280338287,0.500366211,-0.062417358,0.020729676,1.105632067
97.053562,-5.273342133,-7.780582428,0.836059570,-0.070473999,-0.000876769,1.076945543
97.092100,-3.167629242,-26.670963287,-1.872375488,-0.076455444,0.017555848,1.040690660
97.130579,-2.435207367,-33.720523834,-5.053833008,-0.154214233,0.064064637,1.040568590
97.144820,-3.228664398,-27.967960358,-4.657104492,-0.169595093,0.063332215,1.032267809
97.160466,-3.381252289,-13.632328033,-4.992797852,-0.162881225,0.079567567,1.006755114
97.198980,-1.504421234,-2.012760162,-7.754638672,-0.087197632,0.027565613,1.027018785
97.249803,-2.084255219,7.127254486,-5.786254883,-0.017983764,0.037331238,0.973063707
97.264114,-0.009059906,5.258052826,-5.153015137,0.010702759,0.013039246,0.993083239
97.279575,-2.839565277,-5.125553131,-6.236389160,0.052450806,-0.025901183,1.010295153
97.318142,-0.291347504,-15.654117584,-5.206420898,0.020468384,0.011330262,0.976115465
97.356656,-1.664638519,-15.074283600,-5.656555176,0.003256470,-0.005149230,1.014567614
97.371061,-6.188869476,-12.686283112,-5.786254883,0.038168579,-0.050681457,1.005046129
97.386447,-6.967067719,-9.245426178,-3.588989258,0.050741822,-0.051413879,0.988444567
97.424981,-6.371974945,-6.407291412,5.581542969,0.058676392,0.010475770,0.963908434
97.463474,-5.982875824,-40.113956451,-0.521972656,0.077109009,-0.037253723,0.938029528
97.477720,-4.312038422,-41.464359283,0.576660156,0.048056275,-0.019797668,0.918254137
97.493328,0.013828278,-28.883487701,6.825134277,-0.037392944,0.004860535,0.939860582
97.531649,-4.098415375,-4.660160065,3.758117676,-0.091958374,0.014748231,0.999797106
97.570158,-4.281520844,6.646602631,2.590820312,-0.021890014,-0.025412902,1.030192614
97.584634,-5.029201508,10.537593842,3.697082520,-0.017373413,-0.050437316,1.053141832
97.600077,-9.118556976,12.895076752,3.506347656,-0.013223022,-0.037253723,1.080119371
97.600949,-9.118556976,12.895076752,3.506347656,-0.013223022,-0.037253723,1.080119371
97.601717,-9.118556976,12.895076752,3.506347656,-0.013223022,-0.037253723,1.080119371
97.602485,-9.118556976,12.895076752,3.506347656,-0.013223022,-0.037253723,1.080119371
97.640879,-11.941432953,-4.599124908,-3.779724121,0.034628540,-0.060569152,1.028727770
97.679376,-10.537624359,-21.727115631,-2.566650391,0.070639282,-0.016990051,0.997966051
97.693621,-10.720729828,-25.007755280,-2.627685547,0.063559204,-0.028464660,0.991374254
97.709252,-10.987758636,-28.425724030,-3.321960449,0.045614868,-0.054343566,0.965007067
97.747757,-7.699489594,-22.253543854,-3.947570801,0.032431275,0.008644715,0.927409410
97.786088,-7.058620453,-2.172977448,-3.352478027,0.033529907,0.027809754,0.938517809
97.800507,-8.332729340,12.750118256,-2.414062500,0.070639282,-0.011618957,0.948283434
97.815989,-9.400844574,17.899959564,-1.292541504,0.097616822,-0.021506652,0.945109606
97.854563,-11.781215668,4.739253998,0.752136230,0.180624634,-0.051658019,0.869303942
97.906617,-3.762722015,-19.720584869,-0.216796875,0.045004517,-0.059714660,0.745524645
97.921078,-3.579616547,-15.402347565,-0.445678711,0.023764282,-0.051291808,0.739176989
97.936481,-2.389431000,-3.744632721,-0.392272949,0.009848267,-0.041526183,0.726359606
97.975012,0.105381012,9.553401947,-0.514343262,0.053305298,-0.051902160,0.734538317
98.013512,4.309177399,8.004634857,-0.911071777,0.100424439,-0.103171691,0.768229723
98.027733,6.605625153,3.579586029,-2.116516113,0.105917603,-0.118064269,0.808879137
98.043295,6.956577301,1.481502533,-2.063110352,0.108359009,-0.127341613,0.834513903
98.081609,6.094455719,-5.682498932,-2.887084961,0.111654907,-0.108176574,0.901286364
98.120085,5.316257477,-5.964786530,-1.384094238,0.085653931,-0.059592590,0.940715075
98.149594,3.164768219,0.268428802,-1.445129395,0.093344361,-0.076438293,0.980143785
98.163844,2.546787262,3.602474213,-0.132873535,0.101767212,-0.085471496,0.994548082
98.202276,-1.641750336,7.623165131,2.667114258,0.126059204,-0.069968566,1.026896715
98.240789,-5.136013031,0.741451263,4.887268066,0.141562134,-0.071433410,1.044963121
98.255163,-6.104946136,-8.146793365,6.817504883,0.137289673,-0.069846496,1.030925035
98.270569,-5.517482758,-13.769657135,6.359741211,0.113852173,-0.058860168,1.016398668
98.309111,-3.106594086,-19.194156647,-0.506713867,-0.003701538,-0.129050598,0.973429918
98.309889,-3.106594086,-19.194156647,-0.506713867,-0.003701538,-0.129050598,0.973429918
98.310592,-3.106594086,-19.194156647,-0.506713867,-0.003701538,-0.129050598,0.973429918
98.311309,-3.106594086,-19.194156647,-0.506713867,-0.003701538,-0.129050598,0.973429918
98.312009,-3.106594086,-19.194156647,-0.506713867,-0.003701538,-0.129050598,0.973429918
98.312727,-3.106594086,-19.194156647,-0.506713867,-0.003701538,-0.129050598,0.973429918
98.313418,-3.396511078,-12.968570709,0.271484375,-0.021279663,-0.101584777,0.965495348
98.314144,-3.396511078,-12.968570709,0.271484375,-0.021279663,-0.101584777,0.965495348
98.314834,-3.396511078,-12.968570709,0.271484375,-0.021279663,-0.101584777,0.965495348
98.315552,-3.396511078,-12.968570709,0.271484375,-0.021279663,-0.101584777,0.965495348
98.316255,-3.396511078,-12.968570709,0.271484375,-0.021279663,-0.101584777,0.965495348
98.316974,-3.396511078,-12.968570709,0.271484375,-0.021279663,-0.101584777,0.965495348
98.317656,-3.396511078,-12.968570709,0.271484375,-0.021279663,-0.101584777,0.965495348
98.318389,-3.396511078,-12.968570709,0.271484375,-0.021279663,-0.101584777,0.965495348
98.319079,-3.396511078,-12.968570709,0.271484375,-0.021279663,-0.101584777,0.965495348
98.319791,-3.396511078,-12.968570709,0.271484375,-0.021279663,-0.101584777,0.965495348
98.358182,-3.503322601,13.322322845,0.950500488,-0.034829468,0.028908387,0.921427965
98.372423,-2.168178558,15.176265717,-0.880554199,-0.012246460,0.025002137,0.909343004
98.388029,1.799106598,16.419857025,-1.757934570,0.037436157,-0.003318176,0.899089098
98.426528,6.285190582,16.053646088,-1.025512695,0.049032837,-0.050925598,0.937175035
98.465025,5.873203278,4.144161224,-5.404785156,0.082724243,-0.088279113,0.950724840
98.479257,6.102085114,2.335994720,-4.306152344,0.093222290,-0.089621887,0.943766832
98.494708,6.803989410,-0.616580963,-1.681640625,0.095541626,-0.071067199,0.934367418
98.533218,10.023593903,-7.910282135,-4.466369629,0.043051392,-0.037986144,0.946452379
98.585751,7.086277008,8.866756439,-2.887084961,0.071127564,-0.082785949,0.985881090
98.600194,5.972385406,11.880367279,-1.986816406,0.080160767,-0.081321105,0.984538317
98.615598,6.384372711,13.658016205,-1.300170898,0.099936157,-0.058493957,0.983683825
98.668367,5.056858063,-0.929386139,-0.651672363,0.126669556,-0.093039855,1.031779528
98.706954,3.584384918,-6.384403229,1.019165039,0.079550415,-0.034568176,1.028239489
98.721378,3.538608551,-4.332096100,2.155944824,0.061606079,-0.027854308,1.036174059
98.736778,2.905368805,-3.126651764,2.438232422,0.056723267,-0.026511535,1.041911364
98.775309,1.089572906,6.188838959,2.316162109,0.057943970,-0.032248840,1.038981676
98.813803,0.105381012,13.894527435,5.222961426,0.086386353,-0.049094543,1.099650621
98.828051,-1.878261566,13.177364349,5.497619629,0.080893189,-0.047385558,1.094889879
98.843658,-3.098964691,9.316890717,4.872009277,0.071615845,-0.050559387,1.063029528
98.844460,-3.098964691,9.316890717,4.872009277,0.071615845,-0.050559387,1.063029528
98.845190,-3.098964691,9.316890717,4.872009277,0.071615845,-0.050559387,1.063029528
98.845931,-3.098964691,9.316890717,4.872009277,0.071615845,-0.050559387,1.063029528
98.846629,-3.098964691,9.316890717,4.872009277,0.071615845,-0.050559387,1.063029528
98.884881,-2.168178558,6.852596283,4.597351074,0.036215454,-0.038718566,1.040202379
98.923440,-3.030300140,6.532161713,2.560302734,0.066610962,0.030007020,0.973551989
98.937821,-0.688076019,5.708187103,2.850219727,0.076620728,0.050636902,0.958537340
98.968797,2.691745758,5.403011322,4.742309570,0.087973267,0.023781434,0.980632067
99.007423,2.287387848,4.807918549,6.275817871,0.102865845,-0.010398254,0.984294176
99.045911,4.293918610,-5.507022858,9.014770508,0.101034790,0.023537293,0.973551989
99.060280,4.194736481,-11.969120026,10.685607910,0.077719361,-0.006003723,0.995890856
99.075706,3.103733063,-15.402347565,9.503051758,0.058066040,0.000466004,0.992961168
99.114276,3.431797028,-15.493900299,7.458374023,0.007406861,0.006081238,0.940226793
99.152763,3.820896149,-0.631839752,5.398437500,-0.033852905,-0.017356262,0.920573473
99.167008,4.377841949,5.540340424,5.207702637,-0.039101928,-0.004660949,0.913981676
99.182627,6.140232086,16.335933685,4.788085938,-0.023598999,0.001442567,0.919474840
99.221075,6.514072418,17.800777435,1.850769043,0.041708618,-0.069114074,0.954264879
99.221954,6.514072418,17.800777435,1.850769043,0.041708618,-0.069114074,0.954264879
99.222650,6.514072418,17.800777435,1.850769043,0.041708618,-0.069114074,0.954264879
99.223507,6.514072418,17.800777435,1.850769043,0.041708618,-0.069114074,0.954264879
99.224193,6.514072418,17.800777435,1.850769043,0.041708618,-0.069114074,0.954264879
99.224885,6.514072418,17.800777435,1.850769043,0.041708618,-0.069114074,0.954264879
99.225609,6.514072418,17.800777435,1.850769043,0.041708618,-0.069114074,0.954264879
99.226323,6.514072418,17.800777435,1.850769043,0.041708618,-0.069114074,0.954264879
99.227039,6.514072418,17.800777435,1.850769043,0.041708618,-0.069114074,0.954264879
99.227753,6.857395172,16.496150970,1.721069336,0.045736939,-0.069602355,0.957072496
99.282064,5.545139313,8.683650970,-0.689819336,0.037314087,-0.067527160,1.004924059
99.296331,4.545688629,6.440608978,-1.376464844,0.044638306,-0.070212707,1.008830309
99.311937,3.614902496,3.114192963,-1.155212402,0.045248657,-0.075950012,1.013591051
99.350455,2.363681793,6.844966888,-2.681091309,0.002646118,-0.016135558,1.023478746
99.388767,0.921726227,15.298336029,-3.878906250,0.071005493,0.002541199,1.045207262
99.403172,0.044345856,15.611141205,-2.887084961,0.088461548,-0.008689269,1.050334215
99.418596,-0.321865082,14.993160248,-0.766113281,0.103842407,-0.010154113,1.053141832
99.419456,-0.321865082,14.993160248,-0.766113281,0.103842407,-0.010154113,1.053141832
99.420192,-0.321865082,14.993160248,-0.766113281,0.103842407,-0.010154113,1.053141832
99.420931,-0.321865082,14.993160248,-0.766113281,0.103842407,-0.010154113,1.053141832
99.421637,-0.321865082,14.993160248,-0.766113281,0.103842407,-0.010154113,1.053141832
99.422379,-0.321865082,14.993160248,-0.766113281,0.103842407,-0.010154113,1.053141832
99.423088,-0.321865082,14.993160248,-0.766113281,0.103842407,-0.010154113,1.053141832
99.423820,-0.321865082,14.993160248,-0.766113281,0.103842407,-0.010154113,1.053141832
99.424535,-0.321865082,14.993160248,-0.766113281,0.103842407,-0.010154113,1.053141832
99.425274,-0.321865082,14.993160248,-0.766113281,0.103842407,-0.010154113,1.053141832
99.425986,-0.459194183,13.551204681,0.485107422,0.103964478,0.013161317,1.054606676
99.426722,-0.459194183,13.551204681,0.485107422,0.103964478,0.013161317,1.054606676
99.427434,-0.459194183,13.551204681,0.485107422,0.103964478,0.013161317,1.054606676
99.465874,-0.817775726,-7.086307526,-0.567749023,0.078817993,0.051125184,1.055949450
99.504391,-0.596523285,-18.072635651,-0.232055664,0.050741822,0.019997254,1.022502184
99.518614,0.418186188,-13.083011627,1.400634766,0.006796509,0.049904481,1.010783434
99.534227,0.593662262,-8.307010651,1.629516602,-0.010903686,0.050881043,1.010295153
99.572703,-0.024318695,13.802974701,3.895446777,-0.008706421,0.050514832,0.990275621
99.611214,2.409458160,7.279842377,4.353210449,0.028036743,0.059792176,0.950114489
99.625428,8.245944977,-4.889041901,1.042053223,0.002768189,0.048683777,0.959391832
99.640907,9.275913239,-8.299381256,0.370666504,-0.011025757,-0.006614074,0.979777575
99.679432,5.079746246,-2.157718658,1.896545410,-0.050576538,0.051979676,0.943522692
99.717922,9.214878082,-0.845462799,1.850769043,-0.033364624,0.043923035,0.899333239
99.765711,13.319492340,-0.761539459,-0.682189941,-0.054360718,-0.006003723,0.862345934
99.781520,14.029026031,1.885860443,-0.003173828,-0.058511108,0.017555848,0.870524645
99.819996,13.350009918,4.716365814,-2.116516113,-0.044961303,0.022804871,0.892375231
99.858489,17.134189606,5.731075287,-3.222778320,-0.028603882,0.023049012,0.901652575
99.872717,17.286777496,7.150142670,-2.047851562,-0.023965210,0.004128113,0.918498278
99.888277,15.829563141,8.492916107,-1.117065430,-0.025674194,-0.009665832,0.943888903
99.926850,16.363620758,9.133785248,-3.718688965,-0.033608764,0.008400574,0.964884996
99.976860,12.945652008,5.464046478,0.614807129,0.026327759,-0.003440246,1.089640856
99.991285,11.541843414,2.160518646,0.462219238,0.011557251,0.013649598,1.082194567
100.006725,12.503147125,-3.668338776,-0.399902344,-0.030557007,0.097389832,1.070231676
100.045261,9.161472321,-10.710269928,-0.743225098,-0.035073608,0.066383973,1.138468981
100.083784,5.072116852,-3.523380280,-0.598266602,-0.068154663,0.105690613,1.113322496
100.098021,4.889011383,0.955074310,1.133605957,-0.074868530,0.116799012,1.124308825
