time,gyro x,gyro y,gyro z,accel x,accel y,accel z
44.074925,-6.863708496,11.632369995,-8.032569885,-0.007104553,-0.162904978,0.945660710
44.113289,-12.341613770,30.774520874,-5.736122131,-0.052148499,-0.204897165,0.909772038
44.151660,-5.795593262,35.573410034,-5.789527893,-0.047753967,-0.126894236,0.837262273
44.165953,-3.804321289,32.170700073,-9.970436096,-0.123559631,-0.165102243,0.902203679
44.181350,-1.530761719,33.849166870,-11.709938049,-0.142236382,-0.177187204,0.919415593
44.219705,-0.737304688,36.694931030,-15.379676819,-0.133203179,-0.165834665,0.927228093
44.258152,4.237060547,14.928268433,-15.272865295,-0.044702210,-0.140688181,0.944317937
44.272501,3.725891113,4.071640015,-13.739356995,-0.018823303,-0.287416697,0.940533757
44.287774,2.871398926,-2.039505005,-12.900123596,-0.022729553,-0.252748728,0.930646062
44.326218,11.172180176,-28.040481567,-12.511024475,-0.053002991,-0.219301462,0.943463445
44.364548,8.402709961,-24.019790649,-9.978065491,-0.102319397,-0.262270212,0.928448796
44.378813,8.524780273,-20.449234009,-11.442909241,-0.105615295,-0.232362986,0.924176335
44.394210,9.753112793,-13.788772583,-12.175331116,-0.087060608,-0.215761423,0.980816960
44.432545,3.695373535,8.580612183,-10.298500061,-0.118554749,-0.178163767,0.963605046
44.433239,3.695373535,8.580612183,-10.298500061,-0.118554749,-0.178163767,0.963605046
44.433877,3.695373535,8.580612183,-10.298500061,-0.118554749,-0.178163767,0.963605046
44.434509,3.695373535,8.580612183,-10.298500061,-0.118554749,-0.178163767,0.963605046
44.435125,3.695373535,8.580612183,-10.298500061,-0.118554749,-0.178163767,0.963605046
44.435747,3.695373535,8.580612183,-10.298500061,-0.118554749,-0.178163767,0.963605046
44.436362,3.695373535,8.580612183,-10.298500061,-0.118554749,-0.178163767,0.963605046
44.436988,3.695373535,8.580612183,-10.298500061,-0.118554749,-0.178163767,0.963605046
44.437591,3.695373535,8.580612183,-10.298500061,-0.118554749,-0.178163767,0.963605046
44.438225,3.695373535,8.580612183,-10.298500061,-0.118554749,-0.178163767,0.963605046
44.438843,3.695373535,8.580612183,-10.298500061,-0.118554749,-0.178163767,0.963605046
44.491251,5.083923340,21.268295288,-8.024940491,-0.089990295,-0.183168650,0.958233953
44.505472,5.679016113,21.069931030,-7.681617737,-0.089990295,-0.198305368,0.951275945
44.520945,7.510070801,16.751693726,-9.115943909,-0.086938538,-0.180971384,0.949566960
44.559302,10.020141602,2.660202026,-7.498512268,-0.076196350,-0.174867868,0.978375554
44.597645,13.354187012,-15.787673950,-7.010231018,-0.129907280,-0.115175478,0.958600163
44.611940,18.511657715,-19.587112427,-7.681617737,-0.138208061,-0.075502627,0.980939031
44.627324,18.328552246,-20.639968872,-6.697425842,-0.135156304,-0.107607119,0.997540593
44.665699,15.398864746,-16.306472778,-5.614051819,-0.152978569,-0.142641306,1.002423406
44.703973,11.568908691,-0.338150024,-5.415687561,-0.108667053,-0.103334658,1.045148015
44.734363,5.808715820,5.292343140,-3.378639221,-0.087060608,-0.193788767,1.017193913
44.748664,4.885559082,5.925582886,-3.607521057,-0.090112366,-0.165102243,1.009625554
44.786959,4.008178711,6.421493530,-3.432044983,-0.046289124,-0.059511416,1.016949773
44.825348,7.769470215,-8.165908813,2.595176697,-0.052636780,-0.114931338,1.040875554
44.839490,6.060485840,-9.272171021,3.213157654,-0.079126038,-0.079530947,1.035748601
44.854893,7.174377441,-7.669998169,4.098167419,-0.069238342,-0.058656923,1.045758367
44.893247,10.241394043,-8.249832153,7.226219177,-0.064843811,0.048642881,1.046246648
44.931580,10.294799805,4.086898804,8.324851990,-0.106103577,0.009824522,1.082989812
44.945839,8.509521484,7.108139038,9.103050232,-0.069970764,-0.043764345,1.103863835
44.961260,3.992919922,5.986618042,9.789695740,-0.049218811,0.027402647,1.081769109
44.999564,7.906799316,-6.296707153,5.700340271,-0.085961975,-0.082582705,1.046856999
45.037872,2.398376465,1.637863159,9.148826599,-0.010400452,0.116391905,1.066632390
45.052136,5.434875488,-3.351760864,10.041465759,-0.046411194,0.271054983,1.068585515
45.067567,12.728576660,-15.848709106,3.091087341,-0.044335999,0.146665335,1.103497624
45.105922,3.817443848,-14.078689575,4.868736267,-0.077294983,0.007383116,1.048077703
45.144256,-0.249023438,-4.572463989,6.753196716,0.000219665,0.035459287,1.093976140
45.158707,-1.233215332,-5.739761353,8.347740173,-0.017724670,0.062925108,1.069440007
45.173970,-2.270812988,-5.755020142,8.706321716,-0.019555725,0.009092100,1.055401921
45.212384,0.269775391,-14.292312622,9.759178162,-0.017724670,0.038022764,1.035748601
45.250688,0.300292969,-24.340225220,7.302513123,-0.079980530,-0.061830752,1.024029851
45.264979,-0.203247070,-22.791458130,6.905784607,-0.084252991,-0.076479189,1.032208562
45.280227,-2.843017578,-20.540786743,6.112327576,-0.087915100,-0.046816103,1.037091374
45.318626,-4.506225586,-14.521194458,2.053489685,-0.084863342,-0.103578798,1.032330632
45.372736,-7.054443359,10.350631714,0.931968689,-0.103051819,0.092588194,1.044415593
45.387104,-10.357971191,15.103744507,2.793540955,-0.079370178,0.035093077,1.038556218
45.402511,-7.161254883,18.804000854,3.220787048,-0.083276428,0.011655577,1.055646062
45.440865,-12.143249512,28.348373413,3.785362244,-0.071191467,0.040830381,1.048932195
45.479211,-7.191772461,14.127182007,7.470359802,-0.058374085,0.143491507,1.024518132
45.493531,-2.736206055,7.428573608,6.760826111,-0.062158264,0.081846006,1.020123601
45.508909,2.535705566,-6.006790161,11.765708923,-0.080835022,-0.042543642,1.096539617
45.547256,-3.682250977,-44.794631958,-0.426063538,-0.100244202,0.027402647,1.019635320
45.585643,0.986938477,-47.182632446,1.420249939,-0.134912163,0.095395811,0.902325749
45.599962,1.635437012,-42.810989380,1.580467224,-0.130883843,0.105283506,0.892193913
45.615160,2.779846191,-35.723281860,1.046409607,-0.106103577,0.074765928,0.870465398
45.653570,4.183654785,-32.541824341,-4.721412659,-0.101464905,-0.159487009,0.905377507
45.691909,1.849060059,-10.927749634,-13.914833069,-0.124414124,0.059262998,0.779889226
45.706206,5.656127930,16.988204956,-6.247291565,-0.075585999,0.088071592,0.817242742
45.721593,4.679565430,28.333114624,-1.486549377,-0.059594788,-0.006410830,0.864606023
45.759939,-5.795593262,40.578292847,-8.871803284,-0.070947327,-0.119203798,0.951886296
45.798309,-1.370544434,43.019699097,-9.794960022,-0.063012756,0.063413389,0.933697820
45.812465,-0.722045898,35.901473999,-7.757911682,-0.024926819,0.006284483,1.001690984
45.827840,-0.851745605,30.141281128,-7.094154358,-0.017602600,0.004575498,1.015118718
45.866202,-0.638122559,9.816574097,-3.020057678,-0.010644592,0.068540342,1.037579656
45.904541,-0.378723145,-11.683059692,-5.507240295,-0.058496155,0.053037412,1.059064031
45.918847,0.536804199,-12.278152466,-6.483802795,-0.074365295,0.097104795,1.037945867
45.934217,1.833801270,-1.665664673,-2.180824280,-0.063623108,0.039365537,1.026837468
45.972531,-2.301330566,30.461715698,4.678001404,-0.071679749,0.013608702,1.085553288
46.010845,-6.863708496,42.958663940,3.434410095,-0.061914124,0.045713194,1.048199773
46.042565,-1.416320801,33.658432007,8.561363220,0.005834900,0.057187803,1.044537663
46.056743,0.269775391,23.908065796,8.500328064,0.001562439,0.032041319,1.056134343
46.095030,3.382568359,-3.122879028,5.662193298,-0.040795960,0.100644834,1.019147038
46.133441,7.059936523,-18.877578735,11.758079529,-0.050927795,0.029966123,1.034527898
46.147606,6.823425293,-27.460647583,10.339012146,-0.074365295,-0.040712588,1.029889226
46.162998,6.045227051,-42.574478149,4.281272888,-0.117700256,-0.048525088,0.966534734
46.201318,12.301330566,-45.580459595,0.863304138,-0.180566460,-0.024721377,0.914898992
46.239691,8.814697266,-8.234573364,-1.486549377,-0.162377983,-0.079530947,0.930279851
46.253843,5.610351562,7.642196655,0.390281677,-0.151513726,-0.115785830,0.961285710
46.269340,0.353698730,22.511886597,1.992454529,-0.138208061,-0.107118838,0.980450749
46.307685,-8.252258301,48.848556519,0.313987732,-0.089624085,-0.072206728,0.960065007
46.362153,-12.578125000,48.116134644,3.998985291,-0.014062561,-0.068788759,1.033917546
46.376544,-11.120910645,41.860031128,4.548301697,-0.026635803,-0.022890322,1.029156804
46.392002,-7.489318848,21.840499878,4.571189880,-0.031274475,-0.056703798,1.044781804
46.430335,-0.180358887,-25.248123169,-0.632057190,-0.055200256,0.018369444,1.075421453
46.468683,2.505187988,-35.814834595,4.464378357,-0.115869202,0.045591123,1.055401921
46.483014,2.940063477,-37.928176880,4.258384705,-0.125512749,0.022275694,1.059552312
46.498239,4.801635742,-42.620254517,2.175559998,-0.146752983,0.025693662,1.074566960
46.536637,2.100830078,-36.448074341,-1.982460022,-0.163354546,0.064512022,1.094708562
46.574944,-7.184143066,0.073837280,2.999534607,-0.148828179,0.136777639,1.028790593
46.589243,-5.154724121,10.213302612,5.913963318,-0.141870171,0.122861631,0.990094304
46.604473,-2.057189941,10.472702026,6.264915466,-0.139062554,0.075620420,0.986188054
46.642902,3.733520508,-12.453628540,-0.853309631,-0.131738335,-0.075136416,1.034039617
46.681269,-0.744934082,-7.906509399,1.427879333,-0.161645561,0.091489561,0.957501531
46.695418,-0.432128906,-3.946853638,2.366294861,-0.152368218,0.098813780,0.937115788
46.710797,1.887207031,-3.656936646,3.800621033,-0.125268608,0.054013975,0.896710515
46.749105,10.340576172,-23.226333618,-0.952491760,-0.111596741,-0.046816103,0.949689031
46.787469,4.389648438,-28.894973755,-2.829322815,-0.123315491,-0.050600283,0.984723210
46.801712,2.947692871,-26.812149048,-3.821144104,-0.110131897,-0.094301455,0.971905828
46.817153,0.903015137,-17.839981079,-4.889259338,-0.115502991,-0.065981142,0.959088445
46.817866,0.903015137,-17.839981079,-4.889259338,-0.115502991,-0.065981142,0.959088445
46.818467,0.903015137,-17.839981079,-4.889259338,-0.115502991,-0.065981142,0.959088445
46.819113,0.903015137,-17.839981079,-4.889259338,-0.115502991,-0.065981142,0.959088445
46.819722,0.903015137,-17.839981079,-4.889259338,-0.115502991,-0.065981142,0.959088445
46.820362,0.903015137,-17.839981079,-4.889259338,-0.115502991,-0.065981142,0.959088445
46.820973,0.903015137,-17.839981079,-4.889259338,-0.115502991,-0.065981142,0.959088445
46.821615,0.903015137,-17.839981079,-4.889259338,-0.115502991,-0.065981142,0.959088445
46.822218,0.903015137,-17.839981079,-4.889259338,-0.115502991,-0.065981142,0.959088445
46.860507,-5.833740234,7.443832397,-3.256568909,-0.094751038,-0.038149111,0.947125554
46.898846,-9.862060547,36.496566772,1.549949646,-0.068627991,-0.009706728,0.979718328
46.913141,-9.747619629,40.288375854,3.533592224,-0.061425842,-0.015810244,1.004498601
46.928577,-11.487121582,37.335800171,1.893272400,-0.054956116,-0.041322939,1.035870671
46.966880,-5.299682617,4.910873413,2.015342712,-0.059472717,0.047300108,1.056012273
47.005226,-1.401062012,-18.847061157,3.022422791,-0.062158264,0.066587217,1.079815984
47.019400,-1.759643555,-20.754409790,4.845848083,-0.073510803,0.062925108,1.066632390
47.034809,0.857238770,-23.974014282,4.121055603,-0.107202210,0.033750303,1.056378484
47.073158,0.361328125,-24.874282837,-1.570472717,-0.118676819,0.076596983,1.044415593
47.127888,0.803833008,9.816574097,3.083457947,-0.105127014,0.016050108,1.011700749
47.142236,1.269226074,8.122848511,0.687828064,-0.087670960,-0.050966494,1.013653874
47.157492,2.390747070,5.216049194,-4.240760803,-0.075830139,0.004453428,0.990826726
47.195940,-6.222839355,25.914596558,-1.211891174,0.013037048,-0.034731142,1.024884343
47.234282,-4.559631348,18.895553589,6.783714294,0.010473572,0.018979795,0.844586492
47.248567,-1.286621094,8.901046753,7.020225525,0.020727478,-0.042909853,0.812970281
47.263793,2.451782227,-4.458023071,9.820213318,0.000952087,-0.030946963,0.802594304
47.302237,10.645751953,-26.865554810,10.110130310,-0.051538147,0.068418272,0.763898015
47.352451,16.825561523,-48.723770142,5.913963318,-0.073754944,-0.137880564,0.908185124
47.368070,9.844665527,-46.839309692,5.761375427,-0.078271545,-0.137392282,0.851300359
47.395518,20.304565430,-36.249710083,10.140647888,-0.117944397,-0.055605166,0.884869695
47.433964,10.088806152,-22.265029907,1.038780212,-0.114770569,-0.028749697,0.930279851
47.472310,6.823425293,0.493453979,-0.715980530,-0.116357483,-0.041567080,1.000592351
47.486634,3.947143555,8.984970093,-1.501808167,-0.124902405,0.047055967,1.024396062
47.501860,-0.073547363,17.720626831,-1.173744202,-0.112817444,0.123471983,1.038556218
47.540312,6.564025879,24.159835815,-8.108863831,-0.071557678,0.159604788,1.030011296
47.578673,-2.667541504,26.212142944,-1.112709045,-0.012719788,0.028989561,1.157208562
47.592969,-4.544372559,14.462875366,-5.697975159,0.002294861,0.080991514,1.082623601
47.608203,-1.271362305,9.801315308,-4.500160217,-0.031030335,0.172666311,1.044049382
47.646648,11.370544434,-3.397537231,-4.072914124,-0.078149475,0.196347952,1.103619695
47.647358,11.370544434,-3.397537231,-4.072914124,-0.078149475,0.196347952,1.103619695
47.647957,11.370544434,-3.397537231,-4.072914124,-0.078149475,0.196347952,1.103619695
47.648594,11.370544434,-3.397537231,-4.072914124,-0.078149475,0.196347952,1.103619695
47.649198,11.370544434,-3.397537231,-4.072914124,-0.078149475,0.196347952,1.103619695
47.649816,11.370544434,-3.397537231,-4.072914124,-0.078149475,0.196347952,1.103619695
47.650419,11.370544434,-3.397537231,-4.072914124,-0.078149475,0.196347952,1.103619695
47.651042,11.652832031,-12.720657349,-9.352455139,-0.057641663,0.103452452,1.104962468
47.651634,11.652832031,-12.720657349,-9.352455139,-0.057641663,0.103452452,1.104962468
47.652267,11.652832031,-12.720657349,-9.352455139,-0.057641663,0.103452452,1.104962468
47.652869,11.652832031,-12.720657349,-9.352455139,-0.057641663,0.103452452,1.104962468
47.653487,11.652832031,-12.720657349,-9.352455139,-0.057641663,0.103452452,1.104962468
47.654098,11.652832031,-12.720657349,-9.352455139,-0.057641663,0.103452452,1.104962468
47.654727,11.652832031,-12.720657349,-9.352455139,-0.057641663,0.103452452,1.104962468
47.692926,15.131835938,-15.696121216,-1.753578186,-0.070825256,0.173887014,1.037579656
47.707212,15.498046875,-13.842178345,-3.218421936,-0.087182678,0.092954405,1.086529851
47.722651,4.198913574,-11.293960571,-3.309974670,-0.087670960,0.049741514,1.119855046
47.761060,10.104064941,-7.471633911,-10.359535217,-0.091210999,0.128843069,0.995221257
47.799396,-1.263732910,8.252548218,-0.433692932,-0.115136780,0.060483702,1.061139226
47.813689,-2.255554199,3.140853882,-8.490333557,-0.063745178,0.080137022,1.011944890
47.829096,-2.270812988,1.531051636,-6.766090393,-0.036279358,0.033872373,0.987164617
47.867458,-6.573791504,11.327194214,-1.387367249,-0.062402405,0.003965147,1.030133367
47.905784,-4.040832520,2.957748413,-6.148109436,-0.045190491,0.105161436,0.960431218
47.920092,0.933532715,3.743576050,-2.638587952,-0.048364319,-0.008119814,1.032330632
47.935535,-3.842468262,4.292892456,-1.486549377,-0.051660217,-0.039858095,1.062970281
47.973935,-6.192321777,-1.650405884,1.565208435,0.007543884,-0.029726259,1.026593328
47.974614,-6.192321777,-1.650405884,1.565208435,0.007543884,-0.029726259,1.026593328
47.975219,-6.192321777,-1.650405884,1.565208435,0.007543884,-0.029726259,1.026593328
47.975834,-6.192321777,-1.650405884,1.565208435,0.007543884,-0.029726259,1.026593328
48.026285,-11.525268555,-6.266189575,6.592979431,-0.033715881,0.070371397,1.098614812
48.040640,-7.481689453,-10.729385376,1.656761169,-0.034692444,0.142881155,1.030255437
48.056047,-0.828857422,-11.293960571,-0.014076233,-0.055810608,0.212583303,1.049664617
48.094434,-12.074584961,-4.526687622,7.027854919,-0.058740295,0.094663389,1.130597234
48.132828,-3.445739746,-7.395339966,1.549949646,-0.116357483,0.321347952,1.004010320
48.146962,-0.371093750,-6.655288696,-0.006446838,-0.120385803,0.244077444,1.025982976
48.162361,-2.202148438,0.028060913,-4.782447815,-0.105737366,0.167661428,1.038067937
48.213239,1.520996094,11.632369995,1.961936951,-0.010400452,-0.047182314,1.026349187
48.251722,-14.630432129,5.330490112,8.111228943,-0.024804749,0.075864561,0.934064031
48.265875,-9.778137207,0.943588257,3.800621033,-0.042871155,0.125180960,0.892926335
48.281343,0.292663574,-5.503250122,1.801719666,-0.084130920,0.134458303,0.908551335
48.319675,-3.651733398,-3.740859985,0.375022888,-0.053002991,0.003843077,0.872174382
48.358047,7.006530762,-3.275466919,1.977195740,-0.055566467,-0.008486025,0.914288640
48.372336,4.938964844,-4.000259399,0.458946228,-0.056543030,-0.060732119,0.959820867
48.387719,-5.162353516,-5.022598267,0.687828064,-0.039697327,-0.080995791,0.966046453
48.388409,-5.162353516,-5.022598267,0.687828064,-0.039697327,-0.080995791,0.966046453
48.388999,-5.162353516,-5.022598267,0.687828064,-0.039697327,-0.080995791,0.966046453
48.389625,-5.162353516,-5.022598267,0.687828064,-0.039697327,-0.080995791,0.966046453
48.390211,-5.162353516,-5.022598267,0.687828064,-0.039697327,-0.080995791,0.966046453
48.390817,-5.162353516,-5.022598267,0.687828064,-0.039697327,-0.080995791,0.966046453
48.391403,-5.162353516,-5.022598267,0.687828064,-0.039697327,-0.080995791,0.966046453
48.392017,-5.162353516,-5.022598267,0.687828064,-0.039697327,-0.080995791,0.966046453
48.392595,-5.162353516,-5.022598267,0.687828064,-0.039697327,-0.080995791,0.966046453
48.393216,-5.162353516,-5.022598267,0.687828064,-0.039697327,-0.080995791,0.966046453
48.393798,-5.162353516,-5.022598267,0.687828064,-0.039697327,-0.080995791,0.966046453
48.394412,-5.162353516,-5.022598267,0.687828064,-0.039697327,-0.080995791,0.966046453
48.394992,-5.162353516,-5.022598267,0.687828064,-0.039697327,-0.080995791,0.966046453
48.395611,-5.162353516,-5.022598267,0.687828064,-0.039697327,-0.080995791,0.966046453
48.396190,-6.749267578,-6.105972290,0.138511658,-0.024316467,-0.038759463,0.933453679
48.396948,-6.749267578,-6.105972290,0.138511658,-0.024316467,-0.038759463,0.933453679
48.397536,-6.749267578,-6.105972290,0.138511658,-0.024316467,-0.038759463,0.933453679
48.398149,-6.749267578,-6.105972290,0.138511658,-0.024316467,-0.038759463,0.933453679
48.436401,2.390747070,-5.732131958,2.450218201,-0.063256897,-0.039003603,0.994488835
48.474726,-8.153076172,-0.032974243,0.222434998,-0.038232483,-0.032289736,1.007062078
48.488992,-9.633178711,2.736495972,5.357017517,0.006323181,-0.048036806,0.980084538
48.504398,-6.703491211,3.636764526,7.317771912,-0.045190491,0.118100889,0.975934148
48.542778,-7.954711914,-4.671646118,2.969017029,-0.055688538,0.001035459,1.093243718
48.581156,1.513366699,-8.890701294,2.419700623,-0.099511780,0.262632132,1.012311101
48.595434,-0.378723145,-10.164810181,-1.990089417,-0.070581116,-0.053774111,1.127667546
48.610686,-6.177062988,-9.211135864,-3.050575256,-0.067651428,-0.040712588,1.133648992
48.649164,-3.483886719,-1.200271606,0.771751404,-0.080835022,0.193174124,0.977276921
48.687555,-2.164001465,2.751754761,-1.967201233,-0.097558655,0.203061819,0.966778874
48.701705,4.313354492,0.081466675,-3.660926819,-0.072900452,0.216855764,0.944928288
48.716970,12.514953613,-4.587722778,-1.089820862,-0.049462952,0.084287412,1.004254460
48.755470,1.971130371,-6.540847778,4.212608337,-0.050439514,0.055722959,1.010235906
48.793866,4.771118164,-13.948989868,1.023521423,-0.135766655,0.163877249,0.959576726
48.808004,6.495361328,-13.437820435,-1.272926331,-0.146875054,0.100156553,0.986310124
48.823470,1.139526367,-10.714126587,-5.354652405,-0.121728577,0.003110655,1.016217351
48.875581,3.657226562,2.828048706,-4.400978088,-0.075952210,-0.091493838,1.015606999
48.914014,-5.368347168,2.904342651,-5.629310608,-0.010522522,-0.050966494,0.981427312
48.928416,-5.002136230,1.012252808,-4.744300842,-0.004174866,-0.041933291,0.963360906
48.943645,1.139526367,-1.238418579,-2.463111877,-0.040063538,0.004087217,0.987042546
48.996002,-6.207580566,-2.085281372,-0.052223206,0.018286072,-0.048891298,0.951275945
49.034495,-2.423400879,-2.176834106,-0.319252014,-0.037744202,-0.093691103,1.077374578
49.048657,-6.718750000,-2.138687134,-1.860389709,-0.047631897,-0.036440127,1.079815984
49.064045,-7.916564941,-0.307632446,1.122703552,-0.002099670,0.022641905,1.034283757
49.102444,5.907897949,-11.515213013,2.793540955,-0.022363342,0.046811827,1.060040593
49.140847,-2.774353027,-17.405105591,1.282920837,0.012304626,-0.096254580,1.100323796
49.155000,-6.108398438,-14.589859009,1.122703552,0.028173767,0.005063780,1.010235906
49.170613,-0.889892578,-11.812759399,4.693260193,-0.020776428,0.180845022,0.979596257
49.209005,3.413085938,-11.316848755,-3.874549866,-0.068750061,0.096982725,1.084088445
49.247434,1.955871582,9.709762573,1.610984802,-0.014550842,0.075864561,0.988873601
49.261742,3.191833496,20.871566772,4.418601990,-0.026879944,-0.008852236,1.030621648
49.277188,-1.240844727,22.633956909,0.787010193,-0.026635803,-0.045473330,1.037457585
49.315608,-4.429931641,29.775070190,1.931419373,-0.021875061,0.160947561,0.917584538
49.353770,-2.606506348,25.922225952,-2.486000061,-0.077417053,0.177793264,0.896588445
49.368191,5.427246094,29.706405640,1.931419373,-0.043603577,0.142270803,0.918194890
49.383464,0.697021484,26.166366577,-0.746498108,-0.024560608,0.000180967,0.933087468
49.384228,0.697021484,26.166366577,-0.746498108,-0.024560608,0.000180967,0.933087468
49.384857,0.697021484,26.166366577,-0.746498108,-0.024560608,0.000180967,0.933087468
49.385492,0.697021484,26.166366577,-0.746498108,-0.024560608,0.000180967,0.933087468
49.386109,0.697021484,26.166366577,-0.746498108,-0.024560608,0.000180967,0.933087468
49.386742,0.697021484,26.166366577,-0.746498108,-0.024560608,0.000180967,0.933087468
49.387354,0.697021484,26.166366577,-0.746498108,-0.024560608,0.000180967,0.933087468
49.387993,0.697021484,26.166366577,-0.746498108,-0.024560608,0.000180967,0.933087468
49.388598,0.697021484,26.166366577,-0.746498108,-0.024560608,0.000180967,0.933087468
49.389241,0.697021484,26.166366577,-0.746498108,-0.024560608,0.000180967,0.933087468
49.389858,-2.698059082,28.195785522,2.198448181,-0.035546936,-0.013612978,0.852521062
49.390497,-2.698059082,28.195785522,2.198448181,-0.035546936,-0.013612978,0.852521062
49.391108,-2.698059082,28.195785522,2.198448181,-0.035546936,-0.013612978,0.852521062
49.391751,-2.698059082,28.195785522,2.198448181,-0.035546936,-0.013612978,0.852521062
49.392364,-2.698059082,28.195785522,2.198448181,-0.035546936,-0.013612978,0.852521062
49.393002,-2.698059082,28.195785522,2.198448181,-0.035546936,-0.013612978,0.852521062
49.431292,4.168395996,24.976181030,-0.494728088,-0.023706116,-0.165590525,0.974957585
49.469682,-1.813049316,2.019332886,0.283470154,0.032690369,0.027036436,0.921856999
49.483837,3.931884766,-5.999160767,5.471458435,-0.020044006,0.135556936,0.924786687
49.499092,1.421813965,-18.511367798,-1.951942444,-0.077783264,-0.061220400,0.946026921
49.537535,-1.278991699,-23.562026978,2.473106384,-0.035669006,-0.015688173,0.996441960
49.575946,10.264282227,-38.912368774,2.564659119,-0.055444397,0.001645811,1.030255437
49.590103,-5.025024414,-38.813186646,-6.186256409,-0.105127014,-0.159853220,1.024762273
49.605495,0.964050293,-27.987075806,-6.933937073,-0.202172905,0.339292288,0.953106999
49.643831,4.038696289,-6.533218384,-1.562843323,-0.082177795,-0.013857119,1.042096257
49.682242,-5.383605957,25.624679565,-0.227699280,-0.065087952,-0.093569033,1.086041570
49.696409,-9.587402344,30.164169312,4.204978943,-0.035424866,-0.090517275,1.095318913
49.711858,-12.875671387,22.481369019,1.450767517,-0.054223694,0.150205374,1.005475163
49.764433,1.696472168,-9.317947388,-3.462562561,-0.083154358,0.208066702,1.031598210
49.817672,12.522583008,-25.332046509,0.260581970,-0.117822327,0.142759085,0.980328679
49.831838,10.516052246,-25.797439575,-5.598793030,-0.132592827,-0.027651064,0.995343328
49.847237,13.239746094,-12.583328247,-0.860939026,-0.106958069,0.080381162,0.977398992
49.885637,8.608703613,-8.379531860,-2.074012756,-0.065942444,0.011289366,0.987652898
49.924030,0.574951172,1.065658569,-0.265846252,-0.053735413,-0.132509470,1.050152898
49.938201,-1.027221680,-0.895095825,-2.951393127,-0.045312561,0.038388975,0.978863835
49.953474,1.322631836,-2.298904419,-1.654396057,-0.036035217,0.041929014,0.968365788
49.991947,-4.140014648,0.874923706,-9.436378479,-0.117700256,0.027890928,1.018902898
50.030362,-9.869689941,18.079208374,-3.180274963,-0.036157288,0.022153623,0.998639226
50.044527,-7.245178223,18.201278687,-1.005897522,-0.052270569,0.130185843,1.001446843
50.059935,-4.468078613,12.021469116,-2.821693420,-0.046411194,0.073301084,1.036114812
50.098324,-4.094238281,-0.017715454,4.815330505,-0.002099670,0.095029600,1.039410710
50.136710,-3.750915527,-14.505935669,-2.554664612,-0.065820374,-0.008608095,1.092389226
50.150857,-7.275695801,-12.087417603,-1.135597229,-0.067285217,0.009458311,1.081280828
50.166337,-7.313842773,-5.823684692,1.206626892,-0.061792053,0.075254209,1.040265203
50.204668,2.154235840,-8.478713989,-0.067481995,-0.053002991,0.047055967,1.104840398
50.205356,2.154235840,-8.478713989,-0.067481995,-0.053002991,0.047055967,1.104840398
50.205966,2.154235840,-8.478713989,-0.067481995,-0.053002991,0.047055967,1.104840398
50.206603,2.154235840,-8.478713989,-0.067481995,-0.053002991,0.047055967,1.104840398
50.207223,2.154235840,-8.478713989,-0.067481995,-0.053002991,0.047055967,1.104840398
50.207853,2.154235840,-8.478713989,-0.067481995,-0.053002991,0.047055967,1.104840398
50.208462,2.154235840,-8.478713989,-0.067481995,-0.053002991,0.047055967,1.104840398
50.209107,2.154235840,-8.478713989,-0.067481995,-0.053002991,0.047055967,1.104840398
50.209870,2.154235840,-8.478713989,-0.067481995,-0.053002991,0.047055967,1.104840398
50.210478,2.154235840,-8.478713989,-0.067481995,-0.053002991,0.047055967,1.104840398
50.211097,2.154235840,-8.478713989,-0.067481995,-0.053002991,0.047055967,1.104840398
50.211719,2.154235840,-8.478713989,-0.067481995,-0.053002991,0.047055967,1.104840398
50.249760,-6.917114258,-10.729385376,-0.128517151,-0.045068420,0.107846983,1.077618718
50.264171,-6.009216309,-10.904861450,0.214805603,-0.052880920,0.165708303,1.057477117
50.279431,-4.857177734,-10.363174438,0.184288025,-0.071069397,0.208066702,1.049542546
50.317881,-4.765625000,-0.956130981,-2.653846741,-0.042504944,0.055112608,1.050519109
50.356190,-10.830993652,16.057418823,1.084556580,-0.047631897,0.094541319,1.003888249
50.370512,-10.617370605,19.406723022,1.237144470,-0.052636780,0.094053037,1.006451726
50.385770,-16.003723145,23.099349976,-0.754127502,-0.037377991,0.050718077,0.998639226
50.386540,-16.003723145,23.099349976,-0.754127502,-0.037377991,0.050718077,0.998639226
50.387178,-16.003723145,23.099349976,-0.754127502,-0.037377991,0.050718077,0.998639226
50.387844,-16.003723145,23.099349976,-0.754127502,-0.037377991,0.050718077,0.998639226
50.426129,-15.347595215,19.330429077,2.740135193,-0.006860413,0.127256155,0.912823796
50.464521,-7.420654297,1.851486206,-1.272926331,-0.007714905,0.022886045,0.881085515
50.478696,-6.940002441,0.432418823,1.275291443,-0.002954163,-0.027284853,0.881329656
50.493963,-6.764526367,-0.559402466,3.129234314,-0.030542053,-0.028505556,0.862530828
50.532423,-4.750366211,-1.947952271,0.962486267,-0.061303772,-0.058168642,0.876202703
50.533143,-4.750366211,-1.947952271,0.962486267,-0.061303772,-0.058168642,0.876202703
50.533747,-4.750366211,-1.947952271,0.962486267,-0.061303772,-0.058168642,0.876202703
50.534384,-4.750366211,-1.947952271,0.962486267,-0.061303772,-0.058168642,0.876202703
50.534994,-4.750366211,-1.947952271,0.962486267,-0.061303772,-0.058168642,0.876202703
50.535611,-4.750366211,-1.947952271,0.962486267,-0.061303772,-0.058168642,0.876202703
50.536220,-4.750366211,-1.947952271,0.962486267,-0.061303772,-0.058168642,0.876202703
50.609063,0.323181152,-13.247085571,-1.341590881,-0.059960999,-0.022035830,0.920148015
50.623285,2.085571289,-12.377334595,-0.227699280,-0.041406311,-0.078432314,0.943585515
50.638564,-1.088256836,-12.217117310,1.038780212,-0.024316467,-0.116640322,0.947980046
50.677069,5.869750977,-6.571365356,0.542869568,-0.087915100,0.108335264,0.940167546
50.715462,2.924804688,1.981185913,-0.128517151,-0.081445374,0.126401663,0.937237859
50.729694,5.114440918,4.994796753,-0.075111389,-0.058252014,0.030210264,0.969098210
50.744981,4.839782715,5.696701050,-0.273475647,-0.004907288,-0.176698923,1.048932195
50.783418,5.473022461,-5.533767700,6.348838806,-0.000390686,0.013608702,1.020611882
50.784121,5.473022461,-5.533767700,6.348838806,-0.000390686,0.013608702,1.020611882
50.784720,5.473022461,-5.533767700,6.348838806,-0.000390686,0.013608702,1.020611882
50.785353,5.473022461,-5.533767700,6.348838806,-0.000390686,0.013608702,1.020611882
50.785948,5.473022461,-5.533767700,6.348838806,-0.000390686,0.013608702,1.020611882
50.786557,5.473022461,-5.533767700,6.348838806,-0.000390686,0.013608702,1.020611882
50.787162,5.473022461,-5.533767700,6.348838806,-0.000390686,0.013608702,1.020611882
50.787786,5.473022461,-5.533767700,6.348838806,-0.000390686,0.013608702,1.020611882
50.788379,5.473022461,-5.533767700,6.348838806,-0.000390686,0.013608702,1.020611882
50.826625,5.267028809,-31.244827271,2.656211853,-0.096582092,0.132871389,0.986676335
50.840787,13.201599121,-36.936355591,-0.403175354,-0.120141663,0.106748350,0.982770085
50.856220,14.246826172,-37.676406860,-1.791725159,-0.119043030,0.049375303,0.995221257
50.894420,13.895874023,-23.409439087,-3.485450745,-0.129785210,-0.068544619,1.050152898
50.932805,-1.149291992,5.719589233,0.146141052,-0.087426819,-0.058778994,1.025616765
50.963355,-2.247924805,16.805099487,1.855125427,-0.094018616,0.014341123,1.037335515
50.978862,-2.751464844,15.996383667,-0.380287170,-0.096337952,0.010556944,1.037091374
51.017278,-5.688781738,8.206771851,-4.294166565,-0.023461975,-0.149355173,1.061017156
51.055641,-4.307861328,-1.780105591,-5.957374573,-0.083886780,-0.034487002,1.068951726
51.069786,-11.021728516,-3.534866333,-6.598243713,-0.088647522,-0.087587588,1.087262273
51.085193,-14.081115723,-2.893997192,-8.024940491,-0.091333069,-0.058290713,1.068707585
51.123559,-13.554687500,9.465621948,-3.126869202,-0.141870171,0.161191702,0.990338445
51.161924,-16.697998047,19.360946655,-3.859291077,-0.046289124,-0.041322939,1.014264226
51.176054,-15.210266113,20.306991577,-2.051124573,-0.028344788,-0.016176455,1.004864812
51.191449,-11.845703125,13.654159546,-0.365028381,-0.008813538,0.020566709,1.013287663
51.229850,-5.429382324,-15.574050903,-2.211341858,0.002050720,-0.005922548,1.069684148
51.268245,-2.896423340,-33.632827759,6.196250916,-0.037500061,0.072324522,1.071881413
51.282394,-0.981445312,-37.020278931,4.395713806,-0.055810608,0.039487608,1.084942937
51.297943,-2.171630859,-36.913467407,-0.967750549,-0.093530335,0.022153623,1.090924382
51.298646,-2.171630859,-36.913467407,-0.967750549,-0.093530335,0.022153623,1.090924382
51.299436,-2.171630859,-36.913467407,-0.967750549,-0.093530335,0.022153623,1.090924382
51.300048,-2.171630859,-36.913467407,-0.967750549,-0.093530335,0.022153623,1.090924382
51.338235,-11.944885254,-7.433486938,2.892723083,-0.107202210,0.030210264,1.024884343
51.392865,-9.038085938,23.824142456,-0.525245667,-0.063501038,0.005918272,1.011578679
51.407359,-10.785217285,30.309127808,3.175010681,-0.009179749,-0.064882509,1.003277898
51.422634,-9.869689941,30.675338745,5.326499939,0.001684509,-0.042909853,0.999371648
51.461102,-8.732910156,6.879257202,6.898155212,0.021337830,-0.006410830,0.989728093
51.499446,-0.493164062,-31.878067017,-0.097999573,-0.050073303,0.060971983,0.915387273
51.513697,0.857238770,-36.905838013,-0.044593811,-0.051171936,0.039243467,0.895733953
51.529132,4.244689941,-40.072036743,-0.868568420,-0.072778381,0.003598936,0.872052312
51.567501,5.381469727,-28.116775513,-2.768287659,-0.065454163,-0.171449900,0.915997624
51.617711,-1.187438965,11.968063354,2.999534607,-0.075219788,-0.077699892,0.885724187
51.632025,-2.568359375,15.431808472,1.237144470,-0.067041077,-0.110658877,0.918805242
51.647422,-9.518737793,19.719528198,-2.020606995,-0.033593811,-0.105776064,0.929547429
51.685811,-5.772705078,15.904830933,1.473655701,-0.021997131,-0.028871767,0.920392156
51.686506,-5.772705078,15.904830933,1.473655701,-0.021997131,-0.028871767,0.920392156
51.687121,-5.772705078,15.904830933,1.473655701,-0.021997131,-0.028871767,0.920392156
51.687751,-5.772705078,15.904830933,1.473655701,-0.021997131,-0.028871767,0.920392156
51.688367,-5.772705078,15.904830933,1.473655701,-0.021997131,-0.028871767,0.920392156
51.688990,-5.772705078,15.904830933,1.473655701,-0.021997131,-0.028871767,0.920392156
51.689601,-5.772705078,15.904830933,1.473655701,-0.021997131,-0.028871767,0.920392156
51.690234,-5.772705078,15.904830933,1.473655701,-0.021997131,-0.028871767,0.920392156
51.690844,-5.772705078,15.904830933,1.473655701,-0.021997131,-0.028871767,0.920392156
51.691471,-5.772705078,15.904830933,1.473655701,-0.021997131,-0.028871767,0.920392156
51.692087,-5.772705078,15.904830933,1.473655701,-0.021997131,-0.028871767,0.920392156
51.692708,-5.772705078,15.904830933,1.473655701,-0.021997131,-0.028871767,0.920392156
51.693328,-5.772705078,15.904830933,1.473655701,-0.021997131,-0.028871767,0.920392156
51.693960,-5.772705078,15.904830933,1.473655701,-0.021997131,-0.028871767,0.920392156
51.694559,-5.772705078,15.904830933,1.473655701,-0.021997131,-0.028871767,0.920392156
51.695317,-3.583068848,10.999130249,-0.647315979,-0.032861389,-0.007265322,0.929181218
51.695933,-3.583068848,10.999130249,-0.647315979,-0.032861389,-0.007265322,0.929181218
51.734174,-1.423950195,0.440048218,-2.424964905,-0.010644592,-0.078066103,0.974103093
51.748420,-2.781982422,-3.244949341,0.787010193,-0.005883850,-0.059023134,0.974347234
51.763776,-2.225036621,-5.785537720,0.802268982,-0.025293030,-0.014345400,0.971783757
51.802185,0.147705078,-9.241653442,-1.600990295,-0.050927795,-0.052675478,1.001568913
51.840467,-6.749267578,8.595870972,6.791343689,-0.034082092,-0.121278994,1.029034734
51.854776,-5.902404785,9.953903198,5.578269958,-0.058862366,-0.073183291,1.026715398
51.869985,-7.588500977,8.107589722,3.854026794,-0.059472717,-0.108095400,1.025616765
51.870851,-7.588500977,8.107589722,3.854026794,-0.059472717,-0.108095400,1.025616765
51.871492,-7.588500977,8.107589722,3.854026794,-0.059472717,-0.108095400,1.025616765
51.872110,-7.588500977,8.107589722,3.854026794,-0.059472717,-0.108095400,1.025616765
51.872738,-7.588500977,8.107589722,3.854026794,-0.059472717,-0.108095400,1.025616765
51.873356,-7.588500977,8.107589722,3.854026794,-0.059472717,-0.108095400,1.025616765
51.873983,-11.166687012,6.467269897,4.769554138,-0.069726624,-0.075502627,0.999127507
51.874602,-11.166687012,6.467269897,4.769554138,-0.069726624,-0.075502627,0.999127507
51.875235,-11.166687012,6.467269897,4.769554138,-0.069726624,-0.075502627,0.999127507
51.875858,-11.166687012,6.467269897,4.769554138,-0.069726624,-0.075502627,0.999127507
51.876486,-11.166687012,6.467269897,4.769554138,-0.069726624,-0.075502627,0.999127507
51.877109,-11.166687012,6.467269897,4.769554138,-0.069726624,-0.075502627,0.999127507
51.877737,-11.166687012,6.467269897,4.769554138,-0.069726624,-0.075502627,0.999127507
51.878355,-11.166687012,6.467269897,4.769554138,-0.069726624,-0.075502627,0.999127507
51.878986,-11.166687012,6.467269897,4.769554138,-0.069726624,-0.075502627,0.999127507
51.879604,-11.166687012,6.467269897,4.769554138,-0.069726624,-0.075502627,0.999127507
51.917898,6.647949219,-9.005142212,-3.737220764,-0.131616265,0.111631162,0.906476140
51.956253,8.913879395,-4.755569458,-4.523048401,-0.090722717,-0.096620791,0.963971257
51.970537,8.158569336,-0.811172485,-2.531776428,-0.069360413,-0.148622751,0.975567937
51.985756,3.405456543,5.261825562,2.000083923,-0.062158264,-0.109194033,0.971417546
52.024142,4.465942383,3.171371460,-1.860389709,-0.098535217,-0.029604189,0.984723210
52.024816,4.465942383,3.171371460,-1.860389709,-0.098535217,-0.029604189,0.984723210
52.075100,3.580932617,12.204574585,2.846946716,-0.085717835,-0.011537783,0.954571843
52.089305,4.389648438,12.319015503,1.527061462,-0.093042053,-0.065614931,0.971783757
52.104886,3.573303223,13.875411987,-4.187355042,-0.088647522,-0.130922556,1.017804265
52.155515,3.176574707,10.243820190,5.021324158,-0.061059631,0.080259092,1.014142156
52.193902,-0.043029785,-17.641616821,-2.287635803,-0.050683655,-0.030458681,1.079693913
52.208228,-0.508422852,-17.145706177,3.876914978,-0.047753967,0.000425108,1.068951726
52.223449,3.191833496,-20.449234009,4.426231384,-0.060083069,0.009824522,1.087384343
52.261854,-8.671875000,-10.180068970,3.518333435,-0.067407288,-0.130068064,1.116803288
52.262552,-8.671875000,-10.180068970,3.518333435,-0.067407288,-0.130068064,1.116803288
52.263171,-8.671875000,-10.180068970,3.518333435,-0.067407288,-0.130068064,1.116803288
52.263810,-8.671875000,-10.180068970,3.518333435,-0.067407288,-0.130068064,1.116803288
52.264415,-8.671875000,-10.180068970,3.518333435,-0.067407288,-0.130068064,1.116803288
52.265043,-8.671875000,-10.180068970,3.518333435,-0.067407288,-0.130068064,1.116803288
52.265648,-8.671875000,-10.180068970,3.518333435,-0.067407288,-0.130068064,1.116803288
52.266280,-8.671875000,-10.180068970,3.518333435,-0.067407288,-0.130068064,1.116803288
52.266880,-8.671875000,-10.180068970,3.518333435,-0.067407288,-0.130068064,1.116803288
52.267510,-8.671875000,-10.180068970,3.518333435,-0.067407288,-0.130068064,1.116803288
52.268118,-8.671875000,-10.180068970,3.518333435,-0.067407288,-0.130068064,1.116803288
52.268744,-8.671875000,-10.180068970,3.518333435,-0.067407288,-0.130068064,1.116803288
52.269355,-8.671875000,-10.180068970,3.518333435,-0.067407288,-0.130068064,1.116803288
52.269984,-8.671875000,-10.180068970,3.518333435,-0.067407288,-0.130068064,1.116803288
52.270586,-8.671875000,-10.180068970,3.518333435,-0.067407288,-0.130068064,1.116803288
52.271222,-11.761779785,-1.513076782,7.668724060,-0.065820374,-0.105898134,1.101544499
52.271836,-11.761779785,-1.513076782,7.668724060,-0.065820374,-0.105898134,1.101544499
52.272462,-11.761779785,-1.513076782,7.668724060,-0.065820374,-0.105898134,1.101544499
52.310683,-14.927978516,14.928268433,13.085594177,-0.071435608,0.070005186,1.042706609
52.324819,-10.426635742,12.257980347,11.925926208,-0.060449280,0.056577452,1.045758367
52.340214,-9.091491699,8.489059448,9.385337830,-0.055810608,0.010068662,1.053937078
52.378553,-5.696411133,0.050949097,13.047447205,-0.043237366,0.038999327,1.036481023
52.416937,-0.065917969,-13.079238892,9.110679626,-0.050195374,-0.071108095,1.098248601
52.431085,-4.857177734,-9.348464966,9.865989685,-0.044580139,-0.118471377,1.104230046
52.446554,-7.489318848,-4.450393677,13.863792419,-0.043359436,-0.070741884,1.082623601
52.484728,-4.910583496,-0.170303345,13.993492126,-0.066919006,0.073667295,1.041363835
52.523123,-10.785217285,16.324447632,14.374961853,-0.063989319,-0.081972353,1.032940984
52.537286,-10.670776367,22.496627808,13.932456970,-0.055688538,-0.075868838,1.019879460
52.552763,-11.143798828,30.667709351,17.251243591,-0.016259827,-0.100038759,1.028546453
52.591101,-11.868591309,19.666122437,18.204917908,-0.001123108,-0.106264345,1.027691960
52.629426,-4.979248047,-16.741348267,15.885581970,-0.057519592,0.109800108,0.934552312
52.643744,-0.851745605,-26.690078735,14.291038513,-0.080102600,0.126401663,0.930157781
52.659177,2.413635254,-40.239883423,7.828941345,-0.118188538,-0.028139345,0.947857976
52.697591,1.910095215,-31.199050903,8.431663513,-0.118554749,-0.069277041,0.894391179
52.735893,2.871398926,1.332687378,6.814231873,-0.122583069,-0.143251657,0.911725163
52.750166,-1.820678711,17.941879272,6.608238220,-0.080102600,-0.227113962,0.954815984
52.765382,-5.925292969,25.227951050,8.652915955,-0.063501038,-0.203798532,0.953473210
52.803796,-4.338378906,31.476425171,11.689414978,-0.011377014,-0.134584665,0.935284734
52.842099,1.971130371,-2.062393188,5.311241150,-0.019677795,-0.099916689,0.968121648
52.856394,2.169494629,-9.104324341,6.325950623,-0.009545960,-0.146913767,0.981427312
52.883946,3.298645020,-24.691177368,7.096519470,-0.068750061,-0.029848330,0.976666570
52.936228,-5.009765625,-7.578445435,6.806602478,-0.078393616,-0.223451853,1.032940984
52.974624,-8.320922852,15.119003296,13.894309998,-0.102563538,-0.009828798,1.016705632
52.988928,-7.748718262,10.045455933,3.640403748,-0.086694397,-0.029115908,1.012433171
53.004369,-8.282775879,11.090682983,6.615867615,-0.068383850,-0.026674502,1.002179265
53.042782,-5.070800781,4.804061890,8.492698669,-0.029931702,-0.119447939,1.026715398
53.080914,-6.672973633,-5.732131958,9.576072693,-0.041528381,-0.121523134,1.031476140
53.095299,-8.793945312,-5.289627075,15.076866150,-0.035302795,-0.101991884,1.011822820
53.110702,-4.803771973,-9.729934692,17.869224548,-0.060205139,0.007016905,0.969098210
53.149155,2.184753418,-27.689529419,7.516136169,-0.096215881,-0.092836611,0.994366765
53.187439,-1.164550781,-4.999710083,17.815818787,-0.079126038,-0.154115915,1.002911687
53.201748,-2.545471191,-0.330520630,19.677391052,-0.091943420,-0.101381533,0.995587468
53.216968,1.055603027,-1.513076782,16.633262634,-0.123559631,0.071958311,0.980572820
53.255376,-1.576538086,-7.845474243,6.669273376,-0.085961975,-0.167299509,1.010602117
53.256081,-1.576538086,-7.845474243,6.669273376,-0.085961975,-0.167299509,1.010602117
53.256685,-1.576538086,-7.845474243,6.669273376,-0.085961975,-0.167299509,1.010602117
53.257318,-1.576538086,-7.845474243,6.669273376,-0.085961975,-0.167299509,1.010602117
53.257921,-1.576538086,-7.845474243,6.669273376,-0.085961975,-0.167299509,1.010602117
53.258534,-1.576538086,-7.845474243,6.669273376,-0.085961975,-0.167299509,1.010602117
53.259150,-1.576538086,-7.845474243,6.669273376,-0.085961975,-0.167299509,1.010602117
53.259775,-1.576538086,-7.845474243,6.669273376,-0.085961975,-0.167299509,1.010602117
53.260386,-1.576538086,-7.845474243,6.669273376,-0.085961975,-0.167299509,1.010602117
53.261008,-1.576538086,-7.845474243,6.669273376,-0.085961975,-0.167299509,1.010602117
53.261620,-1.576538086,-7.845474243,6.669273376,-0.085961975,-0.167299509,1.010602117
53.262246,-1.576538086,-7.845474243,6.669273376,-0.085961975,-0.167299509,1.010602117
53.300449,-6.497497559,13.600753784,15.938987732,-0.088647522,-0.135317087,0.980816960
53.314600,-4.994506836,12.319015503,9.621849060,-0.083520569,-0.102480166,0.965680242
53.329900,-4.078979492,13.036178589,9.522666931,-0.070581116,-0.123598330,0.966412663
53.368312,-7.992858887,13.944076538,17.899742126,-0.085473694,0.011533506,0.929669499
53.406671,2.589111328,-14.986587524,9.858360291,-0.075219788,-0.077211611,0.938946843
53.420811,1.742248535,-17.916275024,9.896507263,-0.070703186,-0.126039743,0.932355046
53.436221,2.276306152,-14.925552368,14.641990662,-0.069360413,-0.132265329,0.912823796
53.488467,3.428344727,-6.662918091,15.702476501,-0.077417053,-0.246034861,0.954693913
53.526911,0.803833008,12.525009155,28.641929626,-0.071801819,-0.128237009,0.930523992
53.541268,1.879577637,10.625289917,25.727500916,-0.082544006,-0.109682314,0.944440007
53.556510,1.360778809,2.660202026,22.912254333,-0.078881897,-0.087099306,0.952740788
53.594926,4.557495117,-10.317398071,22.126426697,-0.084619202,-0.064150088,0.958111882
53.633221,9.547119141,-15.596939087,18.800010681,-0.118188538,0.000791319,0.992413640
53.647509,11.500244141,-14.017654419,18.502464294,-0.117700256,-0.042055361,1.015362859
53.662744,7.464294434,-5.693984985,18.700828552,-0.090112366,-0.211366892,1.066022038
53.715257,3.336791992,19.147323608,26.391258240,-0.095361389,0.056211241,1.072369695
53.753727,-2.049560547,9.679244995,20.211448669,-0.016137756,-0.085024111,1.135235906
53.767855,-3.201599121,11.624740601,25.162925720,-0.012109436,-0.039125673,1.123395085
53.783254,-3.155822754,8.580612183,28.733482361,-0.024438538,-0.010927431,1.108624578
53.821602,3.100280762,-3.809524536,22.439231873,-0.009912170,-0.142397165,1.108746648
53.859971,-6.054992676,9.862350464,33.288230896,-0.000756897,-0.148012400,1.090802312
53.874110,-3.659362793,12.090133667,35.546531677,-0.023339905,-0.071840517,1.079938054
53.889564,-2.759094238,8.069442749,32.510032654,-0.021997131,-0.059023134,1.078839421
53.942807,-0.203247070,-21.616531372,32.418479919,-0.037500061,-0.058290713,1.070172429
53.981170,-0.615234375,-24.767471313,27.840843201,-0.097314514,-0.101869814,1.004620671
53.995477,0.162963867,-20.174575806,28.702964783,-0.097192444,-0.123476259,1.005108953
54.010713,-2.965087891,-5.899978638,33.066978455,-0.092187561,-0.182558298,1.010113835
54.049122,-5.398864746,7.420944214,30.717124939,-0.081445374,-0.091860048,0.973492742
54.087501,-3.728027344,15.904830933,25.513877869,-0.066919006,-0.118593447,0.993268132
54.101647,-3.583068848,21.787094116,31.586875916,-0.051294006,-0.133486032,1.007428288
54.116907,-3.872985840,21.237777710,28.969993591,-0.037622131,-0.197817087,1.023785710
54.117652,-3.872985840,21.237777710,28.969993591,-0.037622131,-0.197817087,1.023785710
54.155915,-4.391784668,14.432357788,31.914939880,0.006201111,-0.162538767,1.058819890
54.194271,-10.960693359,-3.374649048,34.524192810,0.002539001,-0.120912783,1.067975163
54.208416,-10.892028809,-8.585525513,34.554710388,-0.011010803,-0.064394228,1.049908757
54.223663,-9.122009277,-15.978408813,36.561241150,-0.035791077,-0.039125673,1.031842351
54.262097,-8.610839844,-21.067214966,37.873497009,-0.079858460,-0.007875673,0.959576726
54.300479,-5.261535645,-13.567520142,38.560142517,-0.069604553,-0.170229197,0.986798406
54.314760,-8.313293457,-10.332656860,40.940513611,-0.080835022,-0.171327829,0.987408757
54.330018,-7.817382812,-8.005691528,34.219017029,-0.103784241,-0.113466494,0.949200749
54.368547,-4.735107422,0.760482788,35.744895935,-0.113061585,-0.115663759,0.946026921
54.406886,-0.577087402,3.354476929,36.896934509,-0.099755920,-0.064272158,0.944928288
54.421167,2.032165527,-1.856399536,36.690940857,-0.094873108,-0.108095400,0.965924382
54.436568,3.634338379,-7.166458130,33.219566345,-0.089746155,-0.119325869,0.971417546
54.474862,1.940612793,-20.166946411,29.160728455,-0.090600647,-0.285951853,1.044903874
54.513233,-1.591796875,-12.262893677,30.091514587,-0.088403381,-0.250063181,1.011700749
54.527399,-5.459899902,-5.365921021,30.823936462,-0.103662170,-0.159242868,0.989117742
54.558562,-8.053894043,5.155014038,31.449546814,-0.086938538,-0.161806345,0.981793523
54.597083,-5.070800781,5.620407104,30.846824646,-0.092675842,-0.029360048,0.947003484
54.651308,-6.787414551,4.369186401,32.349815369,-0.066308655,-0.106508486,0.962506413
54.665662,-6.451721191,4.674362183,31.945457458,-0.061547913,-0.124574892,0.967999578
54.680912,-6.474609375,7.108139038,34.478416443,-0.055444397,-0.122011416,0.981793523
54.719349,-9.732360840,8.626388550,36.111106873,-0.039086975,-0.179140329,1.024762273
54.757734,-9.724731445,-0.254226685,37.789573669,-0.081811585,-0.057802431,0.996686101
54.771878,-9.549255371,-4.480911255,33.700218201,-0.082177795,-0.109071963,1.004742742
54.787322,-13.745422363,-2.283645630,33.715476990,-0.081079163,-0.134828806,0.980939031
54.825612,-8.404846191,17.964767456,42.809715271,-0.100244202,-0.036806338,0.927350163
54.826285,-8.404846191,17.964767456,42.809715271,-0.100244202,-0.036806338,0.927350163
54.826875,-8.404846191,17.964767456,42.809715271,-0.100244202,-0.036806338,0.927350163
54.827511,-8.404846191,17.964767456,42.809715271,-0.100244202,-0.036806338,0.927350163
54.828122,-8.404846191,17.964767456,42.809715271,-0.100244202,-0.036806338,0.927350163
54.828750,-8.404846191,17.964767456,42.809715271,-0.100244202,-0.036806338,0.927350163
54.829361,-8.404846191,17.964767456,42.809715271,-0.100244202,-0.036806338,0.927350163
54.867666,-5.467529297,16.591476440,42.588462830,-0.060083069,-0.191347361,0.958966374
54.881982,-5.101318359,15.027450562,44.228782654,-0.055322327,-0.220888376,0.960675359
54.897361,-4.849548340,8.412765503,43.221702576,-0.065210022,-0.224306345,0.954938054
54.935688,3.596191406,-8.692337036,42.763938904,-0.100854553,-0.126894236,0.921490788
54.973946,8.860473633,-17.344070435,43.130149841,-0.122949280,-0.144960642,0.921979070
54.988241,9.943847656,-16.123367310,40.971031189,-0.146875054,-0.128237009,0.925030828
55.003602,10.157470703,-15.329910278,38.888206482,-0.149682671,-0.113222353,0.930279851
55.058092,15.307312012,-16.817642212,31.510581970,-0.143090874,-0.240785837,0.958233953
55.096529,13.987426758,-13.521743774,30.282249451,-0.120752014,-0.134706736,0.982525945
55.110666,14.597778320,-15.764785767,29.069175720,-0.110498108,-0.164858103,1.004010320
55.125909,12.202148438,-14.803482056,29.603233337,-0.141381890,-0.261537790,1.053204656
55.164469,0.780944824,-1.154495239,29.153099060,-0.103784241,-0.185487986,1.052472234
55.202871,-0.256652832,-12.674880981,24.850120544,-0.145898491,-0.128359079,1.044293523
55.217001,-0.523681641,-14.254165649,21.493186951,-0.177880913,-0.169374704,1.047955632
55.232433,-7.077331543,-3.412796021,22.034873962,-0.178857476,-0.193178415,1.032574773
55.270751,-2.698059082,1.920150757,28.512229919,-0.134423882,-0.072450869,1.042218328
55.309095,-0.935668945,-21.601272583,19.074668884,-0.211816460,-0.047670595,1.045636296
55.323227,-1.698608398,-11.744094849,16.122093201,-0.237817436,-0.170351267,1.063824773
55.338689,-5.200500488,-3.252578735,13.779869080,-0.222070366,-0.212343454,1.067242742
55.376815,-8.816833496,17.743515015,21.744956970,-0.126733452,-0.128725290,1.078961492
55.415228,-8.122558594,-1.612258911,17.190208435,-0.098779358,-0.134096384,1.026715398
55.429534,-6.222839355,-5.632949829,15.908470154,-0.106469788,-0.148744822,1.011212468
55.444909,-1.629943848,-9.081436157,13.436546326,-0.153344780,-0.095522158,0.993268132
55.483276,1.498107910,-4.526687622,14.054527283,-0.121850647,-0.149477243,1.038190007
55.483979,1.498107910,-4.526687622,14.054527283,-0.121850647,-0.149477243,1.038190007
55.484587,1.498107910,-4.526687622,14.054527283,-0.121850647,-0.149477243,1.038190007
55.485207,1.498107910,-4.526687622,14.054527283,-0.121850647,-0.149477243,1.038190007
55.485806,1.498107910,-4.526687622,14.054527283,-0.121850647,-0.149477243,1.038190007
55.486428,1.498107910,-4.526687622,14.054527283,-0.121850647,-0.149477243,1.038190007
55.487020,1.498107910,-4.526687622,14.054527283,-0.121850647,-0.149477243,1.038190007
55.487640,1.498107910,-4.526687622,14.054527283,-0.121850647,-0.149477243,1.038190007
55.488245,1.498107910,-4.526687622,14.054527283,-0.121850647,-0.149477243,1.038190007
55.488862,1.498107910,-4.526687622,14.054527283,-0.121850647,-0.149477243,1.038190007
55.489459,1.498107910,-4.526687622,14.054527283,-0.121850647,-0.149477243,1.038190007
55.544064,-1.774902344,7.344650269,10.377159119,-0.122583069,-0.243105173,1.009503484
55.558275,-2.560729980,11.174606323,8.584251404,-0.102685608,-0.232485056,1.010113835
55.573570,-3.827209473,14.874862671,11.140098572,-0.073632874,-0.166933298,1.001813054
55.612036,-2.957458496,11.891769409,8.675804138,-0.070336975,-0.167543650,0.986920476
55.650490,2.329711914,-2.276016235,6.493797302,-0.101098694,-0.046205752,0.958233953
55.664628,5.129699707,-6.449295044,7.416954041,-0.093896545,-0.065126650,0.962750554
55.680093,5.991821289,-10.996414185,10.339012146,-0.085717835,-0.170717478,0.991803288
55.718218,4.671936035,-14.353347778,11.597862244,-0.082421936,-0.139223337,0.984845281
55.756637,3.481750488,-15.528274536,7.928123474,-0.076928772,-0.216982126,1.004010320
55.770956,0.933532715,-8.081985474,14.718284607,-0.082788147,-0.131654978,0.981549382
55.786373,2.184753418,-5.686355591,14.138450623,-0.093774475,-0.096010439,0.976056218
55.824708,1.726989746,3.018783569,14.474143982,-0.080835022,-0.149721384,1.047833562
55.863028,-5.406494141,17.613815308,17.632713318,-0.047998108,-0.179140329,1.046856999
55.877371,-6.375427246,20.741867065,20.150413513,-0.041162170,-0.213686228,1.046856999
55.892610,-7.809753418,19.215988159,14.725914001,-0.061181702,-0.156313181,1.044659734
55.931015,-7.725830078,12.364791870,15.420188904,-0.051660217,-0.111757509,1.046979070
55.969229,-3.438110352,-1.215530396,19.044151306,-0.031762756,-0.111879580,1.044049382
55.983611,-3.399963379,-5.587173462,18.685569763,-0.055932678,-0.087831728,1.048810124
55.998875,-2.637023926,-11.759353638,18.731346130,-0.073266663,-0.083925478,1.038067937
56.037273,-1.942749023,-14.978958130,20.974388123,-0.084130920,-0.147524118,1.009869695
56.087465,3.130798340,-14.299942017,19.852867126,-0.123803772,-0.130556345,1.022076726
56.101671,3.397827148,-14.071060181,17.144432068,-0.123315491,-0.106874697,1.020489812
56.117074,4.725341797,-14.872146606,14.039268494,-0.099267639,-0.156801462,1.027325749
56.155388,2.062683105,-9.668899536,10.491600037,-0.103051819,-0.218935251,1.020123601
56.193773,-7.542724609,20.368026733,5.814781189,-0.068750061,-0.295717478,0.996197820
56.207922,-9.694213867,33.811019897,10.392417908,-0.049218811,-0.261659861,0.992535710
56.223295,-10.899658203,37.419723511,10.598411560,-0.057031311,-0.227480173,0.990338445
56.261620,-6.230468750,30.789779663,5.311241150,-0.072534241,-0.135927439,1.029767156
56.300028,-7.351989746,8.344100952,5.807151794,-0.016015686,-0.199648142,1.013775945
56.314294,-6.535644531,1.462387085,6.806602478,-0.015649475,-0.183046579,1.009869695
56.329757,-2.812500000,-12.522293091,7.775535583,-0.047143616,-0.167177439,1.016217351
56.380078,-10.403747559,-14.711929321,8.553733826,-0.078271545,-0.216737986,1.010968328
56.418472,-13.562316895,-1.665664673,8.530845642,-0.105004944,-0.117250673,0.972516179
56.432784,-12.707824707,0.173019409,6.898155212,-0.100366272,-0.113588564,0.954693913
56.448018,-8.816833496,4.659103394,7.661094666,-0.071435608,-0.199159861,0.962994695
56.486448,-7.184143066,4.254745483,14.161338806,-0.072290100,-0.074037783,0.963605046
56.524876,-2.240295410,-20.876480103,8.309593201,-0.075830139,-0.166445017,1.018170476
56.539003,-1.103515625,-25.499893188,9.507408142,-0.078149475,-0.149477243,1.023419499
56.554245,-2.659912109,-33.136917114,10.834922791,-0.074243225,-0.191591501,1.023175359
56.592639,-1.896972656,-41.781021118,8.652915955,-0.073266663,-0.303163767,0.992779851
56.631068,1.307373047,-34.555984497,10.743370056,-0.121484436,-0.258730173,0.911114812
56.645205,2.406005859,-22.356582642,6.402244568,-0.149194390,-0.165102243,0.887799382
56.660630,4.687194824,-17.702651978,7.203330994,-0.117456116,-0.067934267,0.879010320
56.698938,13.926391602,-22.348953247,7.401695251,-0.081689514,-0.141664743,0.932965398
56.737301,15.742187500,-31.260086060,5.852928162,-0.084741272,-0.204042673,0.967877507
56.751449,14.262084961,-32.450271606,4.693260193,-0.077905335,-0.217958689,0.961651921
56.766851,15.917663574,-30.413223267,7.363548279,-0.095849670,-0.168642282,0.962140203
56.767522,15.917663574,-30.413223267,7.363548279,-0.095849670,-0.168642282,0.962140203
56.768146,15.917663574,-30.413223267,7.363548279,-0.095849670,-0.168642282,0.962140203
56.768785,15.917663574,-30.413223267,7.363548279,-0.095849670,-0.168642282,0.962140203
56.769394,15.917663574,-30.413223267,7.363548279,-0.095849670,-0.168642282,0.962140203
56.770021,15.917663574,-30.413223267,7.363548279,-0.095849670,-0.168642282,0.962140203
56.808258,5.061035156,-5.442214966,-0.998268127,-0.149194390,-0.251528025,0.982159734
56.846612,-3.003234863,24.449752808,-0.860939026,-0.094995178,-0.142763376,0.967267156
56.860867,-2.843017578,25.891708374,-1.272926331,-0.090234436,-0.118593447,0.961041570
56.876308,-1.286621094,25.334762573,-4.385719299,-0.088037170,-0.098695986,0.967267156
56.914658,-4.963989258,24.251388550,0.054588318,-0.061669983,-0.134096384,0.944317937
56.953019,2.726440430,3.613876343,-5.530128479,-0.043603577,-0.234194040,0.979596257
56.967278,0.605468750,0.081466675,-4.713783264,-0.034448303,-0.289613962,0.995221257
56.982648,-1.179809570,-2.497268677,-2.173194885,-0.038720764,-0.257509470,0.971905828
57.020987,-0.912780762,-4.511428833,2.549400330,-0.043359436,-0.217958689,0.974469304
57.059359,6.586914062,-9.813858032,2.557029724,-0.044946350,-0.107485048,0.976910710
57.073762,5.602722168,-13.193679810,4.998435974,-0.052880920,-0.141054392,0.996075749
57.089013,6.220703125,-14.994216919,4.487266541,-0.060327210,-0.120668642,0.994244695
57.127401,8.974914551,-23.462844849,-0.365028381,-0.075097717,-0.164613962,1.022320867
57.128117,8.974914551,-23.462844849,-0.365028381,-0.075097717,-0.164613962,1.022320867
57.128732,8.974914551,-23.462844849,-0.365028381,-0.075097717,-0.164613962,1.022320867
57.129383,8.974914551,-23.462844849,-0.365028381,-0.075097717,-0.164613962,1.022320867
57.179881,6.945495605,-8.005691528,-0.387916565,-0.073999085,-0.152651072,1.083844304
57.194281,5.625610352,-4.999710083,-0.166664124,-0.065210022,-0.161806345,1.087018132
57.209516,4.244689941,-2.024246216,-0.937232971,-0.061792053,-0.165468454,1.077984929
57.247897,1.955871582,13.532089233,1.198997498,-0.034814514,-0.174379587,1.102643132
57.298695,0.727539062,8.618759155,3.083457947,-0.015161194,-0.120424502,1.066144109
57.312999,0.231628418,-0.071121216,-0.426063538,-0.026635803,-0.062441103,1.051129460
57.328437,0.178222656,-4.084182739,0.512351990,-0.034448303,-0.031313173,1.039532781
57.366780,-1.355285645,-14.437271118,-2.882728577,-0.065698303,-0.051332705,0.973004460
57.405183,-0.462646484,-1.528335571,-5.041847229,-0.076928772,-0.125673532,0.910992742
57.419468,-0.447387695,11.388229370,-3.271827698,-0.074243225,-0.118105166,0.891217351
57.434703,0.864868164,17.621444702,-2.867469788,-0.069116272,-0.112734072,0.889142156
57.473094,1.925354004,30.820297241,2.679100037,0.000952087,-0.134218454,0.942608953
57.511421,3.916625977,4.071640015,-0.029335022,0.012670837,-0.124330752,0.962140203
57.525725,5.816345215,-3.595901489,-1.837501526,0.002050720,-0.134950876,0.976666570
57.541146,3.733520508,-14.223648071,-2.218971252,-0.008569397,-0.201235056,1.004620671
57.579449,1.437072754,-13.216567993,2.198448181,-0.032128967,-0.169740915,0.993268132
57.617857,-1.225585938,-8.989883423,-2.135047913,-0.071313538,-0.060243838,1.011090398
57.632087,-2.415771484,-5.686355591,0.016441345,-0.066796936,-0.049379580,1.005108953
57.647552,-2.514953613,1.050399780,3.457298279,-0.070336975,-0.022646181,0.999249578
57.685897,0.689392090,3.468917847,0.901451111,-0.063256897,-0.066713564,1.035138249
57.724269,-1.210327148,5.284713745,0.191917419,-0.013818420,-0.143495798,1.076886296
57.738558,-3.514404297,4.071640015,6.234397888,0.005346619,-0.142885447,1.082501531
57.753944,-4.819030762,-0.002456665,6.242027283,-0.013208069,-0.085390322,1.067975163
57.754644,-4.819030762,-0.002456665,6.242027283,-0.013208069,-0.085390322,1.067975163
57.755242,-4.819030762,-0.002456665,6.242027283,-0.013208069,-0.085390322,1.067975163
57.755876,-4.819030762,-0.002456665,6.242027283,-0.013208069,-0.085390322,1.067975163
57.756460,-2.583618164,-5.472732544,3.472557068,-0.029321350,-0.016176455,1.049054265
57.757079,-2.583618164,-5.472732544,3.472557068,-0.029321350,-0.016176455,1.049054265
57.757672,-2.583618164,-5.472732544,3.472557068,-0.029321350,-0.016176455,1.049054265
57.758296,-2.583618164,-5.472732544,3.472557068,-0.029321350,-0.016176455,1.049054265
57.758878,-2.583618164,-5.472732544,3.472557068,-0.029321350,-0.016176455,1.049054265
57.759508,-2.583618164,-5.472732544,3.472557068,-0.029321350,-0.016176455,1.049054265
57.760108,-2.583618164,-5.472732544,3.472557068,-0.029321350,-0.016176455,1.049054265
57.760726,-2.583618164,-5.472732544,3.472557068,-0.029321350,-0.016176455,1.049054265
57.761323,-2.583618164,-5.472732544,3.472557068,-0.029321350,-0.016176455,1.049054265
57.761948,-2.583618164,-5.472732544,3.472557068,-0.029321350,-0.016176455,1.049054265
57.762528,-2.583618164,-5.472732544,3.472557068,-0.029321350,-0.016176455,1.049054265
57.763155,-2.583618164,-5.472732544,3.472557068,-0.029321350,-0.016176455,1.049054265
57.763744,-2.583618164,-5.472732544,3.472557068,-0.029321350,-0.016176455,1.049054265
57.764364,-2.583618164,-5.472732544,3.472557068,-0.029321350,-0.016176455,1.049054265
57.764954,-2.583618164,-5.472732544,3.472557068,-0.029321350,-0.016176455,1.049054265
57.765715,-2.583618164,-5.472732544,3.472557068,-0.029321350,-0.016176455,1.049054265
57.803887,0.971679688,-20.014358521,6.409873962,-0.018335022,-0.106996767,1.046246648
57.842410,3.046875000,-17.855239868,8.271446228,-0.065332092,-0.054262392,1.006329656
57.856591,-0.386352539,-14.895034790,7.577171326,-0.092919983,-0.000429384,0.980206609
57.871965,0.498657227,-13.407302856,6.654014587,-0.100122131,0.047422178,0.957989812
57.910287,0.002746582,-5.228591919,6.020774841,-0.086938538,-0.094789736,0.930646062
57.962445,2.924804688,6.177352905,2.183189392,-0.073266663,-0.163881540,0.894391179
57.976890,5.160217285,9.793685913,4.754295349,-0.065087952,-0.092104189,0.873761296
57.992365,8.608703613,10.411666870,5.517234802,-0.064233460,-0.097963564,0.881940007
58.030719,9.745483398,0.317977905,1.672019958,-0.051294006,-0.150209665,0.963971257
58.082956,8.280639648,-15.726638794,2.373924255,-0.042016663,-0.131044626,0.979230046
58.097312,10.157470703,-19.541336060,-1.089820862,-0.066064514,-0.126528025,0.992413640
58.112564,9.791259766,-18.091751099,-0.693092346,-0.062768616,-0.174989939,1.014630437
58.150985,2.016906738,-2.649856567,5.639305115,-0.082788147,-0.068056338,0.997174382
58.203551,3.245239258,8.855270386,-0.128517151,-0.080224670,-0.073305361,1.064435124
58.219145,2.558593750,12.105392456,0.008811951,-0.073999085,-0.099062197,1.082013249
58.233458,-0.348205566,18.529342651,0.252952576,-0.053369202,-0.132509470,1.104596257
58.271713,-1.309509277,18.285202026,-0.708351135,-0.042627014,-0.040346377,1.129254460
58.310024,-6.367797852,1.691268921,2.991905212,0.015112244,-0.119081728,1.151959538
58.324324,-5.086059570,-8.257461548,0.146141052,-0.012353577,-0.030946963,1.102032781
58.339714,-4.010314941,-11.049819946,1.755943298,-0.015893616,-0.009828798,1.083478093
58.340409,-4.010314941,-11.049819946,1.755943298,-0.015893616,-0.009828798,1.083478093
58.341004,-4.010314941,-11.049819946,1.755943298,-0.015893616,-0.009828798,1.083478093
58.341636,-4.010314941,-11.049819946,1.755943298,-0.015893616,-0.009828798,1.083478093
58.342227,-4.010314941,-11.049819946,1.755943298,-0.015893616,-0.009828798,1.083478093
58.342852,-3.071899414,-12.926651001,3.411521912,-0.020288147,-0.012758486,1.067731023
58.343436,-3.071899414,-12.926651001,3.411521912,-0.020288147,-0.012758486,1.067731023
58.344066,-3.071899414,-12.926651001,3.411521912,-0.020288147,-0.012758486,1.067731023
58.344646,-3.071899414,-12.926651001,3.411521912,-0.020288147,-0.012758486,1.067731023
58.345273,-3.071899414,-12.926651001,3.411521912,-0.020288147,-0.012758486,1.067731023
58.383504,2.596740723,-11.408401489,5.990257263,-0.058252014,-0.037782900,1.027447820
58.421869,2.642517090,-7.311416626,4.807701111,-0.060571350,-0.023012392,1.001080632
58.436145,2.001647949,-7.090164185,4.822959900,-0.054711975,-0.059145205,1.001080632
58.451369,-0.058288574,-7.540298462,3.976097107,-0.060083069,-0.066713564,0.990582585
58.489785,-0.653381348,-4.305435181,-2.577552795,-0.080957092,-0.057558291,0.924176335
58.528187,1.963500977,10.365890503,-1.974830627,-0.075219788,-0.090028994,0.882916570
58.542335,3.725891113,15.805648804,-3.355751038,-0.069970764,-0.079164736,0.888775945
58.557557,3.634338379,18.422531128,-2.333412170,-0.062280335,-0.062074892,0.894391179
58.595994,5.350952148,13.944076538,-0.769386292,-0.014184631,-0.064394228,0.917462468
58.634401,6.533508301,-7.479263306,-4.996070862,-0.005639710,-0.168886423,0.989728093
58.648551,4.229431152,-9.104324341,-3.432044983,-0.005639710,-0.172182322,0.992169499
58.663942,2.177124023,-9.554458618,-2.531776428,-0.024804749,-0.143007517,0.983380437
58.702230,2.611999512,-0.834060669,-4.233131409,-0.071191467,0.006162412,1.006207585
58.702912,2.611999512,-0.834060669,-4.233131409,-0.071191467,0.006162412,1.006207585
58.703495,2.611999512,-0.834060669,-4.233131409,-0.071191467,0.006162412,1.006207585
58.704129,2.611999512,-0.834060669,-4.233131409,-0.071191467,0.006162412,1.006207585
58.742347,0.521545410,10.861801147,-0.563392639,-0.050439514,0.051938780,1.067853093
58.756515,0.452880859,9.366439819,-0.845680237,-0.041406311,0.028012998,1.085675359
58.771965,0.124816895,2.911972046,-6.285438538,-0.021142639,-0.030824892,1.115460515
58.810350,-5.192871094,-1.246047974,3.075828552,0.020727478,-0.118105166,1.122418523
58.848666,-1.469726562,-10.508132935,2.793540955,-0.007959045,-0.057314150,1.097394109
58.863092,-5.101318359,-15.032363892,5.624046326,-0.033715881,-0.035585634,1.071881413
58.893356,1.215820312,-17.000747681,2.358665466,-0.077783264,0.050596006,0.989239812
58.931918,1.154785156,-7.151199341,7.119407654,-0.099267639,0.090390928,0.959576726
58.986131,7.540588379,-13.506484985,3.594627380,-0.090112366,-0.030702822,0.955548406
59.000335,8.662109375,-14.368606567,2.091636658,-0.079614319,-0.111147158,0.971539617
59.015748,6.518249512,-13.590408325,3.655662537,-0.080590881,-0.125063181,0.973614812
59.054040,11.011962891,-14.620376587,-0.075111389,-0.114282288,-0.002626650,0.946637273
59.092426,5.717163086,-9.813858032,-1.150856018,-0.102807678,-0.060976259,0.964459538
59.106771,6.335144043,-7.235122681,-2.646217346,-0.104516663,-0.053407900,0.966290593
59.122013,3.008728027,-1.261306763,-2.760658264,-0.081201233,-0.092348330,0.985455632
59.160410,-1.431579590,6.078170776,-6.720314026,-0.067163147,-0.124086611,0.990582585
59.198746,-6.962890625,16.179489136,-4.599342346,-0.073632874,-0.040834658,0.979718328
59.213051,-7.245178223,16.873764038,-4.561195374,-0.059838928,-0.044496767,0.981305242
59.228444,-7.268066406,18.575119019,-2.020606995,-0.063134827,-0.014833681,0.987774968
59.266802,-3.773803711,8.405136108,-0.586280823,-0.026147522,-0.001894228,1.057232976
59.305153,-0.973815918,-9.386611938,-0.403175354,-0.023584045,-0.034853213,1.068219304
59.319438,-2.202148438,-16.169143677,-2.272377014,-0.026635803,-0.124208681,1.088971257
59.334967,-3.842468262,-15.184951782,-0.891456604,-0.040551819,-0.106020205,1.084332585
59.335674,-3.842468262,-15.184951782,-0.891456604,-0.040551819,-0.106020205,1.084332585
59.336273,-4.246826172,-12.659622192,-0.082740784,-0.051538147,-0.101991884,1.080548406
59.336897,-4.246826172,-12.659622192,-0.082740784,-0.051538147,-0.101991884,1.080548406
59.337483,-4.246826172,-12.659622192,-0.082740784,-0.051538147,-0.101991884,1.080548406
59.338096,-4.246826172,-12.659622192,-0.082740784,-0.051538147,-0.101991884,1.080548406
59.338684,-4.246826172,-12.659622192,-0.082740784,-0.051538147,-0.101991884,1.080548406
59.339300,-4.246826172,-12.659622192,-0.082740784,-0.051538147,-0.101991884,1.080548406
59.339883,-4.246826172,-12.659622192,-0.082740784,-0.051538147,-0.101991884,1.080548406
59.340493,-4.246826172,-12.659622192,-0.082740784,-0.051538147,-0.101991884,1.080548406
59.378710,-10.975952148,4.422592163,2.198448181,-0.062158264,-0.036318056,1.027447820
59.417061,-5.795593262,18.201278687,2.343406677,-0.064843811,0.041196592,0.978253484
59.431343,-5.139465332,19.696640015,1.801719666,-0.065087952,0.064634092,0.964337468
59.446604,0.231628418,19.475387573,1.038780212,-0.050317444,0.088071592,0.945538640
59.485027,5.343322754,12.509750366,4.830589294,0.008764587,-0.049745791,0.987408757
59.523426,2.200012207,-5.190444946,0.939598083,-0.009545960,-0.064394228,0.983502507
59.537595,2.444152832,-9.287429810,3.991355896,-0.039209045,0.028623350,0.940777898
59.552967,3.123168945,-12.522293091,1.572837830,-0.051049866,0.022153623,0.920880437
59.591319,8.852844238,-11.644912720,-2.302894592,-0.085107483,-0.001039736,0.865338445
59.629719,8.944396973,8.649276733,3.319969177,-0.071069397,0.002988584,0.870831609
59.643995,10.386352539,10.297225952,1.618614197,-0.056909241,-0.024355166,0.883404851
59.675319,9.875183105,5.772994995,0.046958923,-0.009790100,-0.102236025,0.957867742
59.713767,9.417419434,-7.212234497,2.106895447,0.003393494,-0.045229189,0.981061101
59.752113,8.868103027,-13.071609497,-1.044044495,-0.025537170,-0.077821963,1.010846257
59.766404,4.626159668,-7.036758423,-0.448951721,-0.047387756,-0.067690127,1.021466374
59.781802,3.054504395,-2.016616821,1.275291443,-0.054834045,-0.002260439,1.019879460
59.820174,-2.240295410,4.842208862,1.511802673,-0.061425842,0.107358702,1.019879460
59.858549,4.374389648,-2.245498657,-2.920875549,-0.068994202,0.086240537,1.026105046
59.872835,2.886657715,-0.078750610,0.802268982,-0.041406311,0.002622373,1.056134343
59.888083,1.315002441,1.462387085,4.243125916,-0.040795960,0.009092100,1.059186101
59.926489,3.672485352,-4.694534302,3.312339783,-0.046167053,0.032163389,1.046856999
59.964850,9.730224609,-13.529373169,1.717796326,-0.089502014,0.198911428,0.980694890
59.979135,13.346557617,-15.635086060,1.939048767,-0.084252991,0.169492483,0.994366765
59.994528,14.513854980,-21.730972290,0.161399841,-0.085229553,0.166562796,1.003399968
60.049022,13.766174316,-23.310256958,0.787010193,-0.089257874,0.017881162,1.078839421
60.087471,5.778198242,-9.111953735,-0.548133850,-0.078881897,-0.071718447,1.062604070
60.101621,0.841979980,2.995895386,3.136863708,-0.102319397,0.068784483,1.019269109
60.117038,2.398376465,7.939743042,2.534141541,-0.115014710,0.114438780,1.010357976
60.155411,-4.437561035,18.414901733,1.404991150,-0.075097717,0.012876280,1.013653874
60.193759,-1.996154785,7.207321167,-1.761207581,-0.072534241,0.088681944,1.013165593
60.208034,-2.453918457,2.187179565,-1.562843323,-0.068750061,0.096494444,1.008526921
60.223413,-0.340576172,-6.823135376,-2.409706116,-0.058496155,0.026059873,1.005353093
60.261766,-2.774353027,-13.369155884,1.824607849,-0.085229553,0.060239561,0.975445867
60.262615,-2.774353027,-13.369155884,1.824607849,-0.085229553,0.060239561,0.975445867
60.263221,-2.774353027,-13.369155884,1.824607849,-0.085229553,0.060239561,0.975445867
60.263828,-2.774353027,-13.369155884,1.824607849,-0.085229553,0.060239561,0.975445867
60.264435,-2.774353027,-13.369155884,1.824607849,-0.085229553,0.060239561,0.975445867
60.265043,-2.774353027,-13.369155884,1.824607849,-0.085229553,0.060239561,0.975445867
60.265658,-2.774353027,-13.369155884,1.824607849,-0.085229553,0.060239561,0.975445867
60.266262,-2.774353027,-13.369155884,1.824607849,-0.085229553,0.060239561,0.975445867
60.266885,-2.774353027,-13.369155884,1.824607849,-0.085229553,0.060239561,0.975445867
60.267487,-2.774353027,-13.369155884,1.824607849,-0.085229553,0.060239561,0.975445867
60.268104,-2.774353027,-13.369155884,1.824607849,-0.085229553,0.060239561,0.975445867
60.268713,-2.774353027,-13.369155884,1.824607849,-0.085229553,0.060239561,0.975445867
60.269334,-2.774353027,-13.369155884,1.824607849,-0.085229553,0.060239561,0.975445867
60.269930,-2.774353027,-13.369155884,1.824607849,-0.085229553,0.060239561,0.975445867
60.270550,-0.661010742,-14.345718384,1.122703552,-0.100732483,0.064512022,0.988507390
60.271162,-0.661010742,-14.345718384,1.122703552,-0.100732483,0.064512022,0.988507390
60.309376,-5.833740234,-17.359329224,-3.668556213,-0.102685608,-0.003481142,1.003644109
60.323661,-6.451721191,-12.865615845,-3.920326233,-0.103540100,0.035093077,0.971417546
60.339059,-6.291503906,-9.096694946,-2.615699768,-0.108667053,0.033017881,0.971661687
60.377414,-10.632629395,4.315780640,-7.788429260,-0.104272522,0.052671202,0.948956609
60.415848,-2.705688477,14.417098999,-5.522499084,-0.080590881,0.100034483,0.959820867
60.447610,-4.437561035,10.037826538,-6.590614319,-0.018212952,-0.078676455,1.027203679
60.461993,-4.445190430,5.277084351,-3.165016174,-0.018457092,0.017881162,1.000226140
60.500282,-0.683898926,-15.497756958,-2.936134338,-0.070825256,0.128110647,0.993512273
60.538654,4.687194824,-20.441604614,-9.146461487,-0.090234436,0.025571592,0.971417546
60.552941,3.374938965,-15.238357544,-9.001502991,-0.082299866,-0.050722353,0.971051335
60.568331,1.742248535,0.729965210,-8.780250549,-0.095117249,0.001157530,0.958722234
60.606637,-2.369995117,21.108078003,-7.147560120,-0.116113342,0.100400694,0.983380437
60.644995,1.276855469,18.796371460,-8.353004456,-0.085839905,0.169370413,0.950909734
60.659306,8.387451172,10.640548706,-15.906105042,-0.128930718,0.114682920,1.008038640
60.674723,6.625061035,7.108139038,-17.493019104,-0.116235413,0.026548155,1.052716374
60.713037,-0.661010742,10.396408081,-19.926795959,-0.066064514,-0.077089541,1.038800359
60.751419,1.635437012,18.872665405,-15.753517151,-0.078149475,-0.082948916,1.067486882
60.765735,0.002746582,13.883041382,-16.569862366,-0.079736389,-0.090028994,1.125958562
60.781148,-11.578674316,5.238937378,-9.642372131,-0.054834045,-0.070619814,1.109234929
60.819494,5.732421875,-39.965225220,-17.393836975,-0.117334045,0.072080381,1.067853093
60.857898,-4.124755859,-40.918899536,-20.682106018,-0.127710015,-0.058290713,1.086773992
60.872188,-7.977600098,-30.916763306,-23.916969299,-0.115136780,-0.026674502,1.066998601
60.887443,-13.287658691,-7.258010864,-21.155128479,-0.118798889,0.186948538,0.992657781
60.937683,-5.559082031,-8.059097290,-20.018348694,-0.096948303,0.074399717,1.051861882
60.976102,-0.416870117,-57.436538696,-30.501136780,-0.087793030,0.068418272,0.958722234
60.990269,2.024536133,-59.885574341,-31.653175354,-0.125878960,0.125791311,0.953839421
61.005685,-1.217956543,-51.943374634,-28.059730530,-0.164819390,0.136899710,0.913678288
61.044016,7.891540527,-26.972366333,-33.568153381,-0.292504936,0.281553030,0.820294499
61.082361,6.853942871,16.309188843,-40.884742737,-0.122949280,0.019468077,0.882794499
61.096641,9.173278809,38.571762085,-35.383949280,-0.112329163,0.221372366,0.899273992
61.112059,13.346557617,46.864913940,-35.620460510,-0.075708069,0.122007139,0.972638249
61.150403,5.450134277,51.923202515,-35.025367737,-0.034448303,0.015928037,1.024396062
61.188733,10.195617676,41.631149292,-30.089149475,-0.018945374,0.114682920,0.887433171
61.203088,24.584655762,41.837142944,-28.517494202,-0.120263733,0.386533499,0.887189031
61.218473,28.918151855,26.624130249,-35.048255920,-0.018823303,-0.118715517,1.069440007
61.268790,26.125793457,7.230209351,-29.669532776,-0.089257874,-0.001161806,1.226422429
61.307236,14.605407715,1.103805542,-28.631935120,-0.140893608,0.021177061,1.166363835
61.321521,11.507873535,-2.268386841,-28.166542053,-0.127587944,-0.001650088,1.163067937
61.336772,11.721496582,-7.624221802,-31.500587463,-0.141748101,0.032285459,1.174786687
61.375175,-0.973815918,-0.635696411,-32.965431213,-0.146875054,0.013242491,1.171246648
61.413571,-11.136169434,12.647079468,-24.245033264,-0.095971741,0.024228819,1.233014226
61.427696,-16.682739258,14.707015991,-20.643959045,-0.108544983,0.055600889,1.215069890
61.442960,-14.767761230,11.342453003,-23.031959534,-0.103173889,0.042051084,1.182110906
61.481416,-19.452209473,-4.541946411,-21.185646057,-0.079980530,0.052915342,1.160260320
61.519857,-22.374267578,-24.225784302,-16.730079651,-0.120629944,0.170102835,1.104230046
61.533991,-19.772644043,-25.705886841,-14.921913147,-0.136254936,0.107114561,1.064190984
61.549423,-20.184631348,-25.850845337,-12.984046936,-0.129174858,0.016416319,1.054547429
61.587761,-18.277282715,-27.979446411,-17.019996643,-0.139794976,-0.021547548,1.015484929
61.588466,-18.277282715,-27.979446411,-17.019996643,-0.139794976,-0.021547548,1.015484929
61.589100,-18.277282715,-27.979446411,-17.019996643,-0.139794976,-0.021547548,1.015484929
61.589749,-18.277282715,-27.979446411,-17.019996643,-0.139794976,-0.021547548,1.015484929
61.628008,-19.681091309,-15.711380005,-15.265235901,-0.107080139,0.054136045,0.960797429
61.642164,-20.779724121,-9.974075317,-15.135536194,-0.086084045,0.026914366,0.965558171
61.657691,-21.817321777,-7.891250610,-14.334449768,-0.076440491,0.004331358,0.949200749
61.658390,-21.817321777,-7.891250610,-14.334449768,-0.076440491,0.004331358,0.949200749
61.659002,-21.817321777,-7.891250610,-14.334449768,-0.076440491,0.004331358,0.949200749
61.659639,-21.817321777,-7.891250610,-14.334449768,-0.076440491,0.004331358,0.949200749
61.660246,-21.817321777,-7.891250610,-14.334449768,-0.076440491,0.004331358,0.949200749
61.660875,-21.817321777,-7.891250610,-14.334449768,-0.076440491,0.004331358,0.949200749
61.661477,-21.145935059,-5.114151001,-11.709938049,-0.071435608,-0.009340517,0.932843328
61.699755,-21.107788086,-2.443862915,-11.404762268,-0.051782288,-0.088197939,0.907330632
61.738052,-16.667480469,-12.453628540,-10.481605530,-0.022729553,-0.039613955,0.855939031
61.752378,-11.952514648,-24.630142212,-10.138282776,-0.029931702,-0.070375673,0.847272038
61.767769,-9.823913574,-28.887344360,-10.611305237,-0.054711975,-0.048525088,0.848858953
61.818276,-3.811950684,-30.314041138,-10.435829163,-0.115747131,-0.040590517,0.822125554
61.856892,1.864318848,-24.126602173,-13.914833069,-0.138818413,-0.126405954,0.883893132
61.871043,-0.035400391,-21.189285278,-17.996559143,-0.144311577,-0.168886423,0.891339421
61.886287,1.749877930,-18.923355103,-21.795997620,-0.150537163,-0.113710634,0.901715398
61.924693,-3.857727051,1.119064331,-24.687538147,-0.127954155,-0.064516298,0.933697820
61.963091,-6.734008789,8.901046753,-25.664100647,-0.056665100,-0.101991884,0.971173406
61.990930,-8.427734375,10.602401733,-26.190528870,-0.045434631,-0.103822939,0.979840398
62.005314,-9.640808105,11.792587280,-25.000343323,-0.038232483,-0.095888369,0.973126531
62.057329,-6.375427246,-4.732681274,-26.579627991,-0.012719788,-0.140810251,0.939435124
62.095779,-4.040832520,-6.510330200,-27.556190491,-0.084375061,-0.037172548,0.877789617
62.110051,2.352600098,-0.979019165,-25.656471252,-0.072412170,-0.055849306,0.904034734
62.125283,2.413635254,-0.322891235,-26.587257385,-0.067773499,-0.093569033,0.940777898
62.163688,-0.249023438,-3.611160278,-28.380165100,-0.094995178,-0.108339541,0.951642156
62.164461,-0.249023438,-3.611160278,-28.380165100,-0.094995178,-0.108339541,0.951642156
62.165166,-0.249023438,-3.611160278,-28.380165100,-0.094995178,-0.108339541,0.951642156
62.165873,-0.249023438,-3.611160278,-28.380165100,-0.094995178,-0.108339541,0.951642156
62.204220,2.856140137,-10.790420532,-29.333839417,-0.125390679,-0.018495791,0.954815984
62.218385,5.663757324,-20.548416138,-32.141456604,-0.135278374,-0.049379580,0.951520085
62.233643,6.876831055,-26.392532349,-34.338722229,-0.134668022,-0.078798525,0.947613835
62.234396,6.876831055,-26.392532349,-34.338722229,-0.134668022,-0.078798525,0.947613835
62.235058,6.876831055,-26.392532349,-34.338722229,-0.134668022,-0.078798525,0.947613835
62.235713,6.876831055,-26.392532349,-34.338722229,-0.134668022,-0.078798525,0.947613835
62.236359,6.876831055,-26.392532349,-34.338722229,-0.134668022,-0.078798525,0.947613835
62.237009,6.876831055,-26.392532349,-34.338722229,-0.134668022,-0.078798525,0.947613835
62.237657,8.929138184,-30.748916626,-35.773048401,-0.157861382,-0.029115908,0.944440007
62.238320,8.929138184,-30.748916626,-35.773048401,-0.157861382,-0.029115908,0.944440007
62.239056,8.929138184,-30.748916626,-35.773048401,-0.157861382,-0.029115908,0.944440007
62.239806,8.929138184,-30.748916626,-35.773048401,-0.157861382,-0.029115908,0.944440007
62.240414,8.929138184,-30.748916626,-35.773048401,-0.157861382,-0.029115908,0.944440007
62.241052,8.929138184,-30.748916626,-35.773048401,-0.157861382,-0.029115908,0.944440007
62.241699,8.929138184,-30.748916626,-35.773048401,-0.157861382,-0.029115908,0.944440007
62.279927,10.538940430,-19.724441528,-39.702186584,-0.231958061,0.059140928,1.035138249
62.318293,-1.454467773,11.418746948,-40.983924866,-0.173730522,0.036679991,1.013898015
62.332420,-1.050109863,12.105392456,-42.525062561,-0.146264702,0.002622373,1.006695867
62.347884,-0.386352539,10.564254761,-43.699989319,-0.108667053,-0.023866884,1.017682195
62.386040,0.353698730,2.644943237,-44.867286682,-0.093652405,0.027036436,0.957867742
62.424441,9.669189453,-5.571914673,-44.180641174,-0.099389710,0.052304991,0.937237859
62.438782,8.646850586,-2.230239868,-42.883644104,-0.096460022,-0.057436220,0.962140203
62.454164,8.852844238,1.241134644,-39.953956604,-0.110253967,0.037168272,0.965924382
62.492531,12.766723633,-6.403518677,-45.645484924,-0.136987358,-0.015688173,0.971295476
62.493237,12.766723633,-6.403518677,-45.645484924,-0.136987358,-0.015688173,0.971295476
62.493865,12.766723633,-6.403518677,-45.645484924,-0.136987358,-0.015688173,0.971295476
62.494501,12.766723633,-6.403518677,-45.645484924,-0.136987358,-0.015688173,0.971295476
62.495130,12.766723633,-6.403518677,-45.645484924,-0.136987358,-0.015688173,0.971295476
62.495757,12.766723633,-6.403518677,-45.645484924,-0.136987358,-0.015688173,0.971295476
62.533794,6.106262207,12.944625854,-43.524513245,-0.105371155,-0.035097353,1.004742742
62.548203,3.489379883,23.488449097,-40.175209045,-0.081323303,-0.067568056,1.012921453
62.563457,3.733520508,25.006698608,-40.808448792,-0.078515686,-0.047670595,1.021344304
62.601858,2.711181641,18.521713257,-39.717445374,-0.082788147,-0.065737002,1.040265203
62.640236,2.978210449,1.141952515,-41.830787659,-0.082788147,-0.056093447,1.051007390
62.654388,1.383666992,-3.458572388,-42.631874084,-0.089257874,-0.051943056,1.047467351
62.669620,3.069763184,-6.655288696,-44.508705139,-0.120263733,0.039365537,1.036725163
62.708024,-3.285522461,7.672714233,-41.167030334,-0.118676819,0.026548155,1.057965398
62.767130,-4.796142578,15.927719116,-39.770851135,-0.064843811,-0.028139345,1.078717351
62.781342,-6.756896973,17.125534058,-38.382301331,-0.059960999,-0.024843447,1.066388249
62.796798,-3.148193359,14.775680542,-39.152870178,-0.043725647,0.009214170,1.046124578
62.835100,-2.102966309,1.355575562,-36.764869690,-0.060083069,0.035947569,1.089459538
62.873421,-1.477355957,-1.398635864,-36.101112366,-0.092065491,0.019101866,1.038190007
62.887802,1.185302734,-1.070571899,-37.001380920,-0.082788147,-0.093813173,1.055279851
62.903029,-1.706237793,-1.268936157,-36.642799377,-0.069360413,-0.117861025,1.057599187
62.903759,-3.232116699,-1.810623169,-35.147438049,-0.067041077,-0.073305361,1.043316960
62.904396,-3.232116699,-1.810623169,-35.147438049,-0.067041077,-0.073305361,1.043316960
62.905016,-3.232116699,-1.810623169,-35.147438049,-0.067041077,-0.073305361,1.043316960
62.943257,4.038696289,-18.808914185,-36.535987854,-0.045678772,-0.003114931,1.005231023
62.981546,3.924255371,-18.503738403,-32.149085999,-0.105127014,0.013486631,1.035016179
63.011082,0.712280273,-6.281448364,-29.585609436,-0.126977593,-0.073549502,1.009137273
63.025272,0.285034180,-6.769729614,-32.812843323,-0.114160217,-0.120180361,1.010846257
63.063571,-3.972167969,-5.449844360,-38.107643127,-0.126733452,-0.127260447,1.011212468
63.101946,-7.702941895,-1.597000122,-37.695655823,-0.084008850,-0.093446963,0.974347234
63.116080,-5.131835938,-5.381179810,-41.273841858,-0.069238342,-0.064516298,0.953717351
63.131584,-5.581970215,-6.838394165,-41.189918518,-0.059716858,-0.070619814,0.952252507
63.169885,-1.004333496,-4.206253052,-40.083656311,-0.062646545,0.025937803,0.918316960
63.208240,3.741149902,6.352828979,-38.100013733,-0.073266663,0.064389952,0.932110906
63.222394,3.100280762,8.542465210,-36.711463928,-0.067163147,0.033384092,0.973248601
63.237846,2.734069824,9.046005249,-36.947975159,-0.070703186,0.021177061,0.987042546
63.276134,0.803833008,0.913070679,-37.245521545,-0.068261780,-0.000307314,0.983014226
63.314435,3.344421387,-20.334793091,-40.747413635,-0.071069397,0.030698545,0.997052312
63.328736,4.221801758,-23.943496704,-42.799720764,-0.083276428,0.057065733,0.986432195
63.344151,6.319885254,-24.401260376,-42.921791077,-0.081567444,0.041562803,0.996564031
63.382487,2.100830078,-0.536514282,-36.932716370,-0.091088928,0.050107725,1.029523015
63.420837,-1.027221680,11.693405151,-37.909278870,-0.041650452,-0.020204775,1.034772038
63.435168,-1.713867188,11.105941772,-36.978492737,-0.033349670,0.007261045,1.033063054
63.450528,1.170043945,3.903793335,-36.253700256,-0.039697327,0.046933897,1.023297429
63.488928,4.382019043,-15.047622681,-37.741432190,-0.045922913,-0.027528994,0.995831609
63.527218,9.821777344,-33.495498657,-42.799720764,-0.108911194,-0.051698916,0.992657781
63.541520,12.820129395,-29.268814087,-43.272743225,-0.150537163,0.039365537,0.985333562
63.571705,6.861572266,-15.368057251,-39.976844788,-0.136743218,-0.013490908,1.004864812
63.610133,4.931335449,-7.006240845,-42.753944397,-0.128076226,-0.075746767,1.012189031
63.648534,3.069763184,5.010055542,-43.539772034,-0.111596741,-0.056581728,1.005108953
63.662668,2.261047363,12.563156128,-43.059120178,-0.097924866,-0.008486025,1.024518132
63.678085,0.552062988,14.951156616,-40.922889709,-0.078149475,-0.041933291,1.039410710
63.716429,0.574951172,13.509201050,-41.128883362,-0.069116272,-0.048525088,1.005353093
63.754811,-0.271911621,10.922836304,-37.215003967,-0.037744202,-0.066469423,0.975812078
63.769093,-1.965637207,-1.574111938,-36.597023010,-0.041040100,-0.045595400,0.983868718
63.784514,0.895385742,-10.050369263,-37.848243713,-0.063134827,0.018369444,0.974469304
63.822787,0.018005371,-31.595779419,-37.070045471,-0.110376038,0.025815733,0.942975163
63.861140,7.586364746,-39.949966431,-41.052589417,-0.137109429,0.041318662,0.951275945
63.875294,8.326416016,-37.439895630,-39.305458069,-0.141259819,0.027524717,0.973248601
63.890739,4.114990234,-25.972915649,-35.139808655,-0.163232476,0.031675108,0.986676335
63.891450,4.114990234,-25.972915649,-35.139808655,-0.163232476,0.031675108,0.986676335
63.945405,2.268676758,-0.574661255,-36.215553284,-0.099389710,0.052304991,1.000348210
63.983842,-3.827209473,18.590377808,-30.340919495,-0.084375061,0.044004209,0.984601140
63.997994,-4.635925293,27.120040894,-30.630836487,-0.058252014,0.048764952,0.962018132
64.013257,-3.514404297,29.904769897,-29.890785217,-0.043847717,0.065854795,0.953229070
64.051645,7.235412598,17.117904663,-28.326759338,-0.027734436,0.108701475,0.945660710
64.052358,7.235412598,17.117904663,-28.326759338,-0.027734436,0.108701475,0.945660710
64.052975,7.235412598,17.117904663,-28.326759338,-0.027734436,0.108701475,0.945660710
64.053612,7.235412598,17.117904663,-28.326759338,-0.027734436,0.108701475,0.945660710
64.054217,7.235412598,17.117904663,-28.326759338,-0.027734436,0.108701475,0.945660710
64.054847,7.235412598,17.117904663,-28.326759338,-0.027734436,0.108701475,0.945660710
64.055446,7.235412598,17.117904663,-28.326759338,-0.027734436,0.108701475,0.945660710
64.056080,10.325317383,9.931015015,-31.943092346,-0.024926819,0.037778623,0.968487859
64.056674,10.325317383,9.931015015,-31.943092346,-0.024926819,0.037778623,0.968487859
64.057302,10.325317383,9.931015015,-31.943092346,-0.024926819,0.037778623,0.968487859
64.057901,10.325317383,9.931015015,-31.943092346,-0.024926819,0.037778623,0.968487859
64.058521,10.325317383,9.931015015,-31.943092346,-0.024926819,0.037778623,0.968487859
64.059124,10.325317383,9.931015015,-31.943092346,-0.024926819,0.037778623,0.968487859
64.059752,10.325317383,9.931015015,-31.943092346,-0.024926819,0.037778623,0.968487859
64.060353,10.325317383,9.931015015,-31.943092346,-0.024926819,0.037778623,0.968487859
64.060976,10.325317383,9.931015015,-31.943092346,-0.024926819,0.037778623,0.968487859
64.061574,10.325317383,9.931015015,-31.943092346,-0.024926819,0.037778623,0.968487859
64.062205,10.325317383,9.931015015,-31.943092346,-0.024926819,0.037778623,0.968487859
64.116355,7.670288086,-11.988235474,-31.927833557,-0.028955139,-0.055727236,1.047589421
64.130808,9.646301270,-17.443252563,-33.842811584,-0.050317444,0.036679991,1.028668523
64.146089,10.149841309,-25.782180786,-36.169776917,-0.043725647,-0.081850283,1.058087468
64.184519,6.274108887,-23.272109985,-35.818824768,-0.076318420,0.015317686,0.990460515
64.222831,5.930786133,-19.365859985,-37.581214905,-0.048242249,0.034726866,1.007062078
64.237127,2.489929199,-14.139724731,-36.429176331,-0.051538147,-0.003725283,1.014264226
64.252358,0.506286621,-9.958816528,-36.024818420,-0.061059631,0.016294248,1.001813054
64.290733,0.841979980,-5.442214966,-38.016090393,-0.034570374,0.034238584,1.000836492
64.329101,0.040893555,-10.492874146,-40.999183655,-0.049340881,0.023618467,1.049542546
64.343233,-1.851196289,-7.654739380,-37.352333069,-0.055566467,0.030576475,1.048688054
64.358494,-4.666442871,-10.645462036,-38.946876526,-0.031396545,-0.056337588,1.036725163
64.396881,-2.118225098,-31.801773071,-44.935951233,-0.023339905,-0.053163759,1.075665593
64.435255,-3.583068848,-27.330947876,-42.410621643,-0.052880920,0.035825498,1.023541570
64.449405,-3.697509766,-29.268814087,-43.814430237,-0.048486389,-0.006532900,1.022809148
64.464665,-1.294250488,-29.604507446,-43.143043518,-0.075097717,-0.008241884,1.026227117
64.503055,-2.438659668,-29.612136841,-44.905433655,-0.111840881,-0.052675478,1.007794499
64.541443,1.444702148,-34.304214478,-53.557167053,-0.139428765,-0.073549502,1.017560124
64.555594,0.803833008,-28.048110962,-54.175148010,-0.163598686,-0.014955752,1.001813054
64.570998,-0.043029785,-24.645401001,-55.052528381,-0.149682671,-0.072206728,1.009503484
64.609295,-2.286071777,-13.575149536,-64.024696350,-0.125634819,-0.034609072,0.991192937
64.647673,-10.632629395,18.102096558,-56.532630920,-0.076562561,0.043027647,0.968365788
64.661962,-10.518188477,20.795272827,-56.250343323,-0.057031311,0.003721006,0.958844304
64.677434,-7.458801270,19.399093628,-59.592018127,-0.037866272,0.024961241,0.947247624
64.715733,-5.383605957,17.857955933,-57.440528870,-0.041528381,-0.000063173,0.969220281
64.716413,-5.383605957,17.857955933,-57.440528870,-0.041528381,-0.000063173,0.969220281
64.770891,-4.170532227,8.656906128,-58.798561096,-0.006005920,-0.020082705,0.979718328
64.785271,-7.245178223,8.168624878,-56.250343323,-0.014306702,0.038511045,0.952618718
64.800513,-5.765075684,6.627487183,-54.625282288,-0.008569397,0.051572569,0.939435124
64.838898,1.444702148,-15.963150024,-60.126075745,-0.004296936,0.039365537,0.947735906
64.877277,-1.866455078,-11.454177856,-55.311927795,-0.033715881,0.028867491,0.924908757
64.891425,-0.821228027,-8.234573364,-54.968605042,-0.005395569,-0.063417666,0.927838445
64.906769,-1.080627441,-8.570266724,-55.395851135,-0.012109436,-0.026674502,0.916974187
64.945107,-0.828857422,4.453109741,-52.443275452,-0.027246155,0.010312803,0.964947820
64.983443,-1.790161133,12.143539429,-48.498878479,0.043676697,-0.008974306,0.972882390
64.997726,0.956420898,7.131027222,-49.032936096,0.038915955,0.027768858,0.982648015
65.012961,2.810363770,-2.588821411,-49.147377014,0.049414001,0.047666319,1.003522038
65.051325,4.320983887,-19.358230591,-45.286903381,0.056616150,0.048520811,0.963360906
65.052028,4.320983887,-19.358230591,-45.286903381,0.056616150,0.048520811,0.963360906
65.052637,4.320983887,-19.358230591,-45.286903381,0.056616150,0.048520811,0.963360906
65.090920,9.714965820,-16.977859497,-46.744117737,-0.022851624,0.029111631,1.016705632
65.105050,5.831604004,-7.128311157,-45.836219788,-0.043969788,0.036191709,1.009625554
65.120387,3.855590820,13.554977417,-38.641700745,-0.025781311,0.000547178,1.008160710
65.175070,5.320434570,10.312484741,-43.623695374,0.037695251,0.008481748,1.045025945
65.213459,7.777099609,-2.649856567,-39.694557190,0.060278259,0.084775694,1.034894109
65.227781,10.165100098,-7.662368774,-38.573036194,0.045873962,0.102353819,1.058697820
65.243169,6.556396484,-8.822036743,-36.329994202,-0.001001038,0.069638975,1.091534734
65.281526,-2.522583008,2.110885620,-32.027015686,-0.018701233,0.002744444,1.060773015
65.319845,-12.120361328,14.104293823,-32.576332092,-0.035669006,-0.020693056,1.046002507
65.334162,-12.173767090,19.887374878,-32.301673889,-0.041772522,0.036069639,1.018414617
65.349392,-14.149780273,21.893905640,-29.532203674,0.058935486,-0.113832705,1.025128484
65.387795,-3.796691895,-22.562576294,-35.353431702,0.089575134,-0.017763369,0.969830632
65.426184,-4.025573730,-27.605606079,-31.065711975,-0.007592835,0.057798155,0.922101140
65.440323,-0.973815918,-25.209976196,-27.098426819,0.001684509,-0.004701845,0.931988835
65.455554,-0.058288574,-25.408340454,-27.434120178,-0.012597717,0.012876280,0.947980046
65.505682,-2.133483887,-11.560989380,-23.863563538,-0.073754944,-0.001039736,0.945904851
65.544230,0.101928711,-5.549026489,-28.708229065,-0.067285217,-0.038881533,0.999615788
65.558409,-0.828857422,-1.253677368,-32.538185120,-0.089135803,0.003476866,1.035870671
65.573869,-4.666442871,3.026412964,-29.211769104,-0.079248108,-0.015932314,1.033795476
65.611984,-2.507324219,-1.894546509,-29.524574280,-0.011132874,-0.028871767,1.046734929
65.650449,-5.101318359,-19.129348755,-29.310951233,-0.047876038,-0.031435244,1.074322820
65.664729,-7.054443359,-17.283035278,-27.998695374,-0.067407288,-0.021913759,1.048565984
65.680134,-4.414672852,-14.574600220,-29.921302795,-0.032983460,-0.058534853,1.042950749
65.718463,-13.737792969,-0.437332153,-27.655372620,-0.044335999,0.000669248,1.105084538
65.756784,-27.661437988,14.821456909,-20.140419006,0.067358337,-0.074770205,1.079815984
65.771120,-24.937744141,10.198043823,-22.024879456,0.085913025,0.031308897,1.059308171
65.786357,-22.526855469,-12.316299438,-24.008522034,0.115331970,-0.007021181,1.053082585
65.824738,-18.475646973,-25.393081665,-17.599830627,0.024755798,-0.042421572,0.980206609
65.863079,-13.814086914,-21.738601685,-13.502845764,0.006567322,-0.007753603,0.934674382
65.877385,-12.707824707,-14.742446899,-10.893592834,-0.019677795,-0.044374697,0.949200749
65.892607,-13.669128418,-8.242202759,-7.887611389,-0.041528381,-0.034731142,0.938946843
65.930996,-10.663146973,15.248703003,-2.829322815,-0.043847717,-0.153383493,0.960187078
65.969414,-10.968322754,10.381149292,-5.446205139,-0.069360413,-0.165468454,1.026349187
65.996687,-7.069702148,9.335922241,-6.987342834,-0.060571350,-0.121767275,1.015973210
66.011049,-6.306762695,5.780624390,-7.887611389,-0.042504944,-0.118471377,1.036969304
66.061597,-13.791198730,-6.250930786,-6.201515198,-0.061303772,-0.079775088,1.066388249
66.100042,-8.450622559,7.810043335,-4.362831116,-0.067773499,-0.197084665,1.040021062
66.114378,-7.954711914,14.493392944,-3.996620178,-0.085473694,-0.190126657,1.053082585
66.129760,-8.877868652,17.087387085,-3.554115295,-0.084985413,-0.237367868,1.061627507
66.168112,-2.682800293,22.252487183,-7.681617737,-0.113916077,-0.209657907,1.048077703
66.206248,-7.428283691,31.423019409,-10.031471252,-0.079980530,-0.273622751,1.190533757
66.220638,-11.853332520,33.337997437,-9.344825745,-0.075097717,-0.251528025,1.188580632
66.235904,-14.523620605,29.088424683,-8.169898987,-0.063989319,-0.221864939,1.151593328
66.274329,-13.890380859,-2.642227173,-7.963905334,-0.039941467,-0.204775095,1.117047429
66.312707,0.033264160,-45.794082642,-14.189491272,-0.063134827,-0.184633493,1.019147038
66.326991,-0.134582520,-50.020767212,-13.907203674,-0.073999085,-0.175356150,1.023663640
66.342212,-0.630493164,-42.254043579,-9.794960022,-0.101098694,-0.132997751,1.022809148
66.380611,-6.825561523,-13.125015259,-0.616798401,-0.102563538,-0.199526072,1.022076726
66.419070,-16.675109863,21.703170776,-3.340492249,-0.107568420,-0.231142282,0.974347234
66.433205,-14.348144531,34.879135132,-1.097450256,-0.081445374,-0.153383493,0.917584538
66.448445,-11.197204590,36.054061890,-4.103431702,-0.062402405,-0.202455759,0.925641179
66.486875,-9.533996582,42.981552124,-4.782447815,-0.037622131,-0.075014345,0.882428288
66.525309,1.269226074,36.031173706,8.523216248,0.000219665,-0.082582705,0.847516179
66.539442,4.305725098,25.853561401,9.896507263,-0.008447327,-0.122987978,0.846661687
66.554869,17.718200684,0.653671265,5.288352966,-0.025781311,-0.153505564,0.900494695
66.593151,19.198303223,-41.170669556,1.549949646,-0.082910217,-0.124941103,0.923199773
66.631501,24.180297852,-65.302444458,1.816978455,-0.104394592,-0.091005556,0.942608953
66.645647,28.468017578,-67.125869751,-2.554664612,-0.114648499,-0.132509470,0.986798406
66.661076,22.318725586,-59.168411255,-0.937232971,-0.139917046,-0.146791697,0.983746648
66.699456,15.414123535,-12.003494263,-0.334510803,-0.166040093,-0.075624697,0.955304265
66.700184,15.414123535,-12.003494263,-0.334510803,-0.166040093,-0.075624697,0.955304265
66.700801,15.414123535,-12.003494263,-0.334510803,-0.166040093,-0.075624697,0.955304265
66.701444,15.414123535,-12.003494263,-0.334510803,-0.166040093,-0.075624697,0.955304265
66.739602,5.114440918,41.150497437,-10.084877014,-0.090112366,-0.254457712,1.113385320
66.753880,-0.790710449,54.990219116,-7.590065002,-0.060937561,-0.199526072,1.142926335
66.769289,-13.043518066,78.542160034,-0.128517151,-0.019067444,-0.134950876,1.113751531
66.807619,-15.248413086,83.455490112,7.523765564,-0.035180725,-0.046327822,1.027936101
66.845981,-11.868591309,48.177169800,-8.932838440,0.003027283,-0.185121775,1.098858953
66.860299,-14.737243652,46.697067261,7.653465271,0.041967712,-0.010439150,1.039410710
66.875731,-19.925231934,44.011520386,9.919395447,0.040747009,-0.086977236,0.985455632
66.876410,-19.925231934,44.011520386,9.919395447,0.040747009,-0.086977236,0.985455632
66.877018,-19.925231934,44.011520386,9.919395447,0.040747009,-0.086977236,0.985455632
66.877654,-19.925231934,44.011520386,9.919395447,0.040747009,-0.086977236,0.985455632
66.878257,-15.370483398,38.953231812,13.810386658,-0.018212952,0.057309873,0.924298406
66.878892,-15.370483398,38.953231812,13.810386658,-0.018212952,0.057309873,0.924298406
66.879490,-15.370483398,38.953231812,13.810386658,-0.018212952,0.057309873,0.924298406
66.880132,-15.370483398,38.953231812,13.810386658,-0.018212952,0.057309873,0.924298406
66.880730,-15.370483398,38.953231812,13.810386658,-0.018212952,0.057309873,0.924298406
66.881366,-15.370483398,38.953231812,13.810386658,-0.018212952,0.057309873,0.924298406
66.881970,-15.370483398,38.953231812,13.810386658,-0.018212952,0.057309873,0.924298406
66.946302,-2.926940918,-41.765762329,5.669822693,-0.005883850,-0.258241892,1.120587468
66.984659,10.241394043,-64.501358032,8.782615662,-0.152734429,-0.010561220,0.935284734
66.998985,15.955810547,-72.329116821,10.407676697,-0.181909233,-0.186708689,1.095196843
67.014250,13.361816406,-74.205947876,10.377159119,-0.179711968,-0.332582712,1.152569890
67.052654,4.526977539,-53.644729614,4.563560486,-0.300439507,-0.097841494,1.060528874
67.090963,-12.890930176,-8.432937622,0.893821716,-0.203881890,-0.298525095,1.072369695
67.105255,-16.072387695,1.058029175,2.335777283,-0.194726616,-0.197450876,1.020856023
67.120660,-6.505126953,12.311386108,-0.014076233,-0.248437554,-0.049257509,0.962018132
67.159018,-11.532897949,13.219284058,-1.974830627,-0.117334045,-0.170351267,1.020123601
67.197441,4.427795410,-30.268264771,-2.096900940,-0.200830132,0.018125303,0.962140203
67.211595,8.890991211,-43.291641235,-8.215675354,-0.209497124,-0.055727236,0.976056218
67.226973,7.067565918,-46.259475708,-16.646156311,-0.195825249,-0.302919626,1.016705632
67.265366,-3.605957031,-19.686294556,-4.355201721,-0.158960015,-0.144594431,0.941144109
67.303720,6.251220703,-17.168594360,-15.593299866,-0.191796929,-0.238344431,0.952374578
67.317974,-1.210327148,-5.846572876,-19.034156799,-0.146020561,-0.277406931,0.941632390
67.333201,-2.331848145,-0.414443970,-19.835243225,-0.106958069,-0.246889353,0.919171453
67.371636,3.886108398,2.515243530,-15.089759827,-0.135766655,-0.025331728,0.921246648
67.410000,-1.752014160,-1.864028931,-16.905555725,-0.049340881,-0.358095407,0.995709538
67.424263,-3.972167969,-1.093460083,-17.653236389,-0.082055725,-0.213442087,0.974103093
67.439662,-1.820678711,1.737045288,-20.193824768,-0.070336975,-0.167665720,0.974957585
67.478017,-7.954711914,20.093368530,-21.193275452,-0.013940491,-0.289125681,1.004498601
67.516445,-14.790649414,32.857345581,-11.374244690,-0.071801819,0.034482725,0.975201726
67.530601,-8.938903809,27.905868530,-15.112648010,-0.063134827,0.064023741,0.962262273
67.546039,-2.621765137,17.613815308,-13.464698792,0.002661072,-0.114687197,0.996075749
67.546752,-2.621765137,17.613815308,-13.464698792,0.002661072,-0.114687197,0.996075749
67.547388,-2.621765137,17.613815308,-13.464698792,0.002661072,-0.114687197,0.996075749
67.548033,-2.621765137,17.613815308,-13.464698792,0.002661072,-0.114687197,0.996075749
67.548651,-2.621765137,17.613815308,-13.464698792,0.002661072,-0.114687197,0.996075749
67.586956,0.567321777,1.721786499,-6.521949768,-0.001489319,-0.006899111,0.977032781
67.625294,10.256652832,-18.396926880,-12.869606018,0.025244080,-0.239687204,1.082257390
67.639627,6.731872559,-15.558792114,-8.993873596,0.016088806,-0.258363962,1.099469304
67.654871,1.559143066,-6.807876587,-8.238563538,-0.017602600,-0.246889353,1.119610906
67.707189,-1.370544434,16.080307007,-8.284339905,-0.056176819,0.023008116,0.979474187
67.745667,-9.976501465,39.723800659,-0.174293518,-0.034204163,0.003721006,0.990704656
67.759968,-7.344360352,39.975570679,2.618064880,-0.000512756,0.014341123,0.968243718
67.775208,-1.973266602,28.623031616,5.593528748,0.006933533,0.049009092,0.960187078
67.813626,4.511718750,-15.345169067,0.947227478,0.055029236,-0.153383493,1.016949773
67.852025,12.148742676,-43.299270630,2.816429138,-0.041284241,0.098813780,0.899762273
67.866314,17.115478516,-46.152664185,1.229515076,-0.048364319,0.023008116,0.927228093
67.881710,12.644653320,-44.565750122,-4.019508362,-0.042260803,-0.184511423,0.993878484
67.920046,5.663757324,-17.199111938,4.349937439,-0.025781311,-0.152284861,0.955914617
67.958413,1.955871582,7.573532104,6.524314880,-0.009790100,-0.075136416,0.940167546
67.972724,0.056152344,11.182235718,8.553733826,0.030248962,-0.176698923,0.971051335
67.988173,-1.965637207,10.854171753,11.307945251,0.029760681,-0.151430368,0.971051335
68.026547,5.511169434,-6.212783813,8.614768982,-0.017968811,-0.054506533,0.973736882
68.064897,1.658325195,-16.405654907,9.743919373,-0.007470764,-0.125063181,1.003399968
68.079183,1.070861816,-16.642166138,11.368980408,-0.013452210,-0.112978213,0.997418523
68.108776,5.358581543,-22.646499634,8.660545349,-0.058618225,-0.005190127,0.980328679
68.147236,-0.439758301,-19.182754517,5.257835388,-0.059960999,-0.137880564,1.018414617
68.185647,2.085571289,-2.184463501,6.425132751,-0.089013733,0.066221006,0.974225163
68.199801,4.244689941,1.904891968,5.067100525,-0.053857483,-0.074037783,1.027814031
68.215198,0.765686035,4.117416382,6.791343689,-0.031640686,-0.152284861,1.041852117
68.253545,5.701904297,-3.252578735,6.509056091,-0.026391663,-0.087465517,1.008404851
68.291912,6.106262207,-20.105911255,2.595176697,-0.036523499,-0.129213572,1.025738835
68.306067,6.838684082,-20.495010376,4.510154724,-0.041650452,-0.089052431,1.017071843
68.321531,7.746582031,-21.906448364,6.592979431,-0.080468811,0.059873350,0.993023992
68.359894,10.943298340,-19.388748169,1.527061462,-0.077539124,-0.104555361,1.042462468
68.398221,1.498107910,0.493453979,4.281272888,-0.058252014,-0.171449900,1.012311101
68.412490,-2.369995117,12.097763062,5.006065369,-0.049829163,-0.151918650,0.996686101
68.427903,-5.215759277,15.965866089,5.334129333,-0.057031311,-0.066469423,0.971661687
68.466238,-4.056091309,21.649765015,1.084556580,-0.001123108,-0.205141306,0.996441960
68.519538,-1.660461426,-5.396438599,4.616966248,0.013281189,-0.030092470,0.920880437
68.533878,0.658874512,-14.093948364,2.839317322,0.005712830,-0.051088564,0.918316960
68.549150,2.360229492,-22.425247192,5.120506287,-0.006616272,-0.116518252,0.926861882
68.587642,3.596191406,-28.025222778,-0.258216858,-0.069238342,-0.018373720,0.901959538
68.626016,5.213623047,-17.244888306,2.534141541,-0.067285217,-0.137758493,0.945416570
68.640286,3.092651367,-3.962112427,1.076927185,-0.069970764,-0.134340525,0.962872624
68.655720,3.649597168,3.766464233,0.245323181,-0.060449280,-0.161318064,0.983136296
68.694054,-0.973815918,26.379989624,7.210960388,-0.046289124,0.017392881,0.989972234
68.732444,0.567321777,13.066696167,6.707420349,0.034277283,-0.131410837,1.124127507
68.746601,1.475219727,1.157211304,7.096519470,0.029638611,-0.066713564,1.100567937
68.762028,4.374389648,-7.334304810,6.264915466,0.015356384,-0.023866884,1.097394109
68.800381,5.122070312,-22.570205688,-3.004798889,-0.032006897,-0.155946970,1.168561101
68.838873,-7.153625488,11.044906616,9.309043884,-0.045068420,-0.123720400,1.136944890
68.853026,-7.825012207,16.255783081,7.973899841,-0.062890686,-0.028017275,1.100690007
68.868468,-1.294250488,19.048141479,2.442588806,-0.052392639,0.123471983,1.067120671
68.869177,-1.294250488,19.048141479,2.442588806,-0.052392639,0.123471983,1.067120671
68.869799,-1.294250488,19.048141479,2.442588806,-0.052392639,0.123471983,1.067120671
68.870439,-1.294250488,19.048141479,2.442588806,-0.052392639,0.123471983,1.067120671
68.871044,-1.294250488,19.048141479,2.442588806,-0.052392639,0.123471983,1.067120671
68.871669,-1.294250488,19.048141479,2.442588806,-0.052392639,0.123471983,1.067120671
68.872294,-1.294250488,19.048141479,2.442588806,-0.052392639,0.123471983,1.067120671
68.872925,-1.294250488,19.048141479,2.442588806,-0.052392639,0.123471983,1.067120671
68.873537,-1.294250488,19.048141479,2.442588806,-0.052392639,0.123471983,1.067120671
68.874179,-1.294250488,19.048141479,2.442588806,-0.052392639,0.123471983,1.067120671
68.912447,-1.706237793,11.228012085,7.905235291,0.008520447,-0.022279970,1.106549382
68.950750,-1.385803223,-18.023086548,1.054039001,-0.019189514,-0.009950869,1.061627507
68.965056,-1.813049316,-23.493362427,-0.914344788,-0.018457092,-0.106386416,1.058453679
68.980430,-5.444641113,-21.952224731,-0.113258362,-0.031152405,-0.135317087,1.046490788
69.018804,-8.214111328,-5.892349243,2.137413025,-0.080957092,-0.010072939,0.934918523
69.057159,-8.290405273,9.938644409,-0.632057190,-0.070092835,-0.033266298,0.890240788
69.071307,-7.496948242,13.966964722,1.290550232,-0.062646545,-0.046938173,0.886822820
69.086701,-7.420654297,18.147872925,1.855125427,-0.039331116,-0.102846377,0.892560124
69.125095,-2.362365723,14.378952026,-0.204811096,0.002539001,-0.228945017,0.940655828
69.163433,-6.016845703,7.977890015,1.786460876,0.027685486,-0.222719431,0.952130437
69.194666,-1.774902344,-4.435134888,-2.859840393,-0.024682678,-0.175844431,0.966900945
69.209028,-1.530761719,-4.885269165,-4.431495667,-0.039086975,-0.161073923,0.982037663
69.263262,-5.841369629,7.420944214,-0.601539612,-0.061669983,0.041318662,0.951886296
69.317797,-7.580871582,5.574630737,-0.715980530,-0.048120178,-0.083315127,1.001568913
69.332125,-4.544372559,5.322860718,-1.051673889,-0.047876038,-0.055238955,0.995343328
69.347381,-3.758544922,3.522323608,1.717796326,-0.026635803,-0.175112009,1.026593328
69.385828,-2.263183594,-2.077651978,-1.181373596,-0.043359436,-0.118471377,0.962750554
69.424262,1.749877930,-3.954483032,0.207176208,-0.095605530,0.035215147,0.908307195
69.438418,7.128601074,-5.037857056,0.069847107,-0.094995178,0.042295225,0.911236882
69.453812,9.135131836,-8.432937622,0.848045349,-0.089013733,-0.013979189,0.947003484
69.454504,9.135131836,-8.432937622,0.848045349,-0.089013733,-0.013979189,0.947003484
69.492665,12.125854492,-9.096694946,2.053489685,-0.081201233,-0.105043642,0.978619695
69.493347,12.125854492,-9.096694946,2.053489685,-0.081201233,-0.105043642,0.978619695
69.493957,12.125854492,-9.096694946,2.053489685,-0.081201233,-0.105043642,0.978619695
69.494599,12.125854492,-9.096694946,2.053489685,-0.081201233,-0.105043642,0.978619695
69.495212,12.125854492,-9.096694946,2.053489685,-0.081201233,-0.105043642,0.978619695
69.495836,12.125854492,-9.096694946,2.053489685,-0.081201233,-0.105043642,0.978619695
69.496445,12.125854492,-9.096694946,2.053489685,-0.081201233,-0.105043642,0.978619695
69.497209,12.125854492,-9.096694946,2.053489685,-0.081201233,-0.105043642,0.978619695
69.497830,12.125854492,-9.096694946,2.053489685,-0.081201233,-0.105043642,0.978619695
69.498447,12.125854492,-9.096694946,2.053489685,-0.081201233,-0.105043642,0.978619695
69.499071,12.125854492,-9.096694946,2.053489685,-0.081201233,-0.105043642,0.978619695
69.499791,12.125854492,-9.096694946,2.053489685,-0.081201233,-0.105043642,0.978619695
69.500389,12.125854492,-9.096694946,2.053489685,-0.081201233,-0.105043642,0.978619695
69.500993,12.125854492,-9.096694946,2.053489685,-0.081201233,-0.105043642,0.978619695
69.501626,9.852294922,-9.012771606,0.634422302,-0.072412170,-0.176698923,0.992413640
69.502249,9.852294922,-9.012771606,0.634422302,-0.072412170,-0.176698923,0.992413640
69.502878,9.852294922,-9.012771606,0.634422302,-0.072412170,-0.176698923,0.992413640
69.503493,9.852294922,-9.012771606,0.634422302,-0.072412170,-0.176698923,0.992413640
69.541684,7.426147461,-1.871658325,3.083457947,-0.075585999,-0.140566111,0.956769109
69.556010,7.456665039,-1.200271606,1.366844177,-0.083398499,-0.156923532,0.967877507
69.571362,5.114440918,0.943588257,-1.852760315,-0.080712952,-0.132509470,0.971905828
69.609711,3.580932617,3.629135132,2.450218201,-0.078027405,-0.096864931,0.952374578
69.648049,4.534606934,-5.487991333,-0.845680237,-0.073877014,-0.086855166,0.951520085
69.662340,2.222900391,-9.409500122,-2.760658264,-0.082910217,-0.078310244,0.944195867
69.677715,2.604370117,-10.248733521,-3.363380432,-0.080346741,-0.083559267,0.940045476
69.716049,0.773315430,-7.570816040,-4.286537170,-0.083398499,-0.167665720,0.965924382
69.754448,-0.187988281,4.521774292,3.136863708,-0.105737366,-0.007875673,0.957379460
69.768744,1.421813965,0.493453979,-0.479469299,-0.103295960,-0.010805361,0.970074773
69.783981,4.809265137,-8.577896118,-3.813514709,-0.078271545,-0.047914736,0.995343328
69.784730,4.809265137,-8.577896118,-3.813514709,-0.078271545,-0.047914736,0.995343328
69.785357,4.809265137,-8.577896118,-3.813514709,-0.078271545,-0.047914736,0.995343328
69.786006,4.809265137,-8.577896118,-3.813514709,-0.078271545,-0.047914736,0.995343328
69.824257,10.538940430,-26.239944458,-3.714332581,-0.086572327,-0.127016306,1.063824773
69.824958,10.538940430,-26.239944458,-3.714332581,-0.086572327,-0.127016306,1.063824773
69.825571,10.538940430,-26.239944458,-3.714332581,-0.086572327,-0.127016306,1.063824773
69.826210,10.538940430,-26.239944458,-3.714332581,-0.086572327,-0.127016306,1.063824773
69.826816,10.538940430,-26.239944458,-3.714332581,-0.086572327,-0.127016306,1.063824773
69.881422,1.231079102,-5.686355591,-7.132301331,-0.092919983,-0.167177439,1.134991765
69.895764,-0.149841309,2.011703491,-7.361183167,-0.086328186,-0.146059275,1.141461492
69.911169,-5.955810547,21.100448608,-5.392799377,-0.076684631,-0.248598337,1.185284734
69.949555,-19.528503418,60.880111694,1.725425720,-0.049462952,-0.031557314,1.108868718
69.987898,-10.907287598,49.504684448,-4.271278381,-0.050561585,0.180234671,1.033673406
70.002182,-5.490417480,33.772872925,-3.134498596,0.014990173,-0.004701845,1.048688054
70.017578,-5.711669922,26.463912964,0.397911072,0.020727478,-0.048769228,1.050519109
70.055904,4.336242676,-14.483047485,2.274742126,-0.015283264,0.025571592,0.974469304
70.094241,5.419616699,-33.205581665,-3.782997131,-0.053979553,-0.132387400,0.958478093
70.108545,7.265930176,-29.215408325,0.710716248,-0.088037170,-0.038881533,0.903912663
70.123940,9.913330078,-26.415420532,0.497093201,-0.101831116,-0.023500673,0.899151921
70.162291,10.302429199,-8.631301880,-1.753578186,-0.104150452,-0.044374697,0.896954656
70.162990,10.302429199,-8.631301880,-1.753578186,-0.104150452,-0.044374697,0.896954656
70.213003,4.900817871,17.384933472,1.916160583,-0.091333069,0.007871397,0.914654851
70.227399,6.441955566,16.545700073,-0.944862366,-0.062890686,-0.111635439,0.967023015
70.242677,3.565673828,14.905380249,-1.997718811,-0.045678772,-0.178529978,0.986310124
70.281119,-1.355285645,7.817672729,1.565208435,-0.019677795,-0.189394236,1.004376531
70.319470,1.238708496,-12.331558228,3.045310974,-0.044335999,0.008970030,0.981793523
70.333620,5.076293945,-18.953872681,4.266014099,-0.066674866,0.056821592,0.988507390
70.349047,8.921508789,-34.411026001,-4.950294495,-0.088159241,-0.005678408,1.030133367
70.387376,4.977111816,-28.292251587,-2.501258850,-0.118432678,-0.053041689,1.102276921
70.425741,-3.094787598,3.453659058,-0.906715393,-0.100976624,-0.051820986,1.093121648
70.439887,-2.339477539,9.862350464,-2.638587952,-0.088647522,-0.106386416,1.112652898
70.455343,-11.693115234,21.451400757,0.085105896,-0.056176819,-0.188783884,1.127057195
70.493666,-14.256591797,25.533126831,1.153221130,-0.059716858,-0.021547548,1.027081609
70.532034,3.985290527,0.714706421,-3.546485901,-0.069970764,0.132993460,0.939190984
70.546355,10.340576172,-9.348464966,1.221885681,-0.070214905,0.075864561,0.971417546
70.561741,10.317687988,-13.735366821,3.655662537,-0.076318420,0.063413389,0.983380437
70.600106,13.911132812,-29.162002563,-0.509986877,-0.072045960,-0.132143259,1.009991765
70.638530,6.014709473,-16.138626099,-0.105628967,-0.097680725,-0.183656931,0.998761296
70.652875,3.817443848,-8.616043091,-0.090370178,-0.106469788,-0.158998728,0.991681218
70.668238,-1.088256836,7.306503296,-0.029335022,-0.102685608,-0.114076845,0.962018132
70.706626,-0.889892578,20.589279175,3.907432556,-0.097802795,0.000303037,0.941022038
70.745038,-2.812500000,8.107589722,-1.257667542,-0.065454163,-0.050722353,0.918316960
70.759328,-1.355285645,5.727218628,1.649131775,-0.084619202,-0.009462588,0.911358953
70.774580,3.359680176,-6.128860474,-6.628761292,-0.100854553,-0.117861025,0.963116765
70.775329,3.359680176,-6.128860474,-6.628761292,-0.100854553,-0.117861025,0.963116765
70.775953,3.359680176,-6.128860474,-6.628761292,-0.100854553,-0.117861025,0.963116765
70.776594,3.359680176,-6.128860474,-6.628761292,-0.100854553,-0.117861025,0.963116765
70.777192,3.359680176,-6.128860474,-6.628761292,-0.100854553,-0.117861025,0.963116765
70.777828,3.359680176,-6.128860474,-6.628761292,-0.100854553,-0.117861025,0.963116765
70.778424,3.359680176,-6.128860474,-6.628761292,-0.100854553,-0.117861025,0.963116765
70.779053,3.359680176,-6.128860474,-6.628761292,-0.100854553,-0.117861025,0.963116765
70.779644,3.359680176,-6.128860474,-6.628761292,-0.100854553,-0.117861025,0.963116765
70.780281,3.359680176,-6.128860474,-6.628761292,-0.100854553,-0.117861025,0.963116765
70.780877,3.359680176,-6.128860474,-6.628761292,-0.100854553,-0.117861025,0.963116765
70.819177,2.344970703,-8.875442505,-6.666908264,-0.108911194,-0.122865908,0.961529851
70.869507,-3.285522461,10.831283569,-3.561744690,-0.096460022,-0.024111025,0.983136296
70.883709,-0.851745605,12.540267944,0.184288025,-0.079248108,0.042661436,0.988141179
70.899130,1.482849121,11.250900269,0.092735291,-0.079980530,0.047788389,1.004620671
70.937446,2.299194336,0.501083374,2.984275818,-0.062890686,0.044248350,1.047589421
70.975828,5.625610352,-12.018753052,-0.662574768,-0.022729553,-0.092226259,1.103375554
70.989986,4.504089355,-8.768630981,3.312339783,-0.046289124,-0.072939150,1.108258367
71.005405,4.870300293,-2.535415649,-1.364479065,-0.064599670,-0.094545595,1.127057195
71.056011,-3.125305176,14.027999878,9.751548767,-0.046899475,0.085630186,1.042096257
71.094473,1.917724609,-2.131057739,7.249107361,-0.038598694,-0.015321963,1.064679265
71.108761,0.971679688,-5.037857056,7.165184021,-0.034936585,-0.048525088,1.057599187
71.124129,-1.904602051,-10.538650513,11.468162537,-0.038110413,0.003598936,1.016583562
71.162601,2.261047363,-30.710769653,5.570640564,-0.100488342,0.066221006,0.942853093
71.200947,7.182006836,-25.400711060,3.304710388,-0.120752014,0.019223936,0.878644109
71.215219,8.753662109,-18.717361450,4.723777771,-0.127587944,0.028623350,0.879132390
71.230448,9.447937012,-8.577896118,1.786460876,-0.127832085,-0.019838564,0.892804265
71.268842,10.218505859,3.621505737,0.008811951,-0.098779358,-0.051698916,0.914044499
71.307247,3.649597168,14.272140503,1.641502380,-0.065698303,-0.109194033,0.960675359
71.321401,1.597290039,11.922286987,-2.424964905,-0.055444397,-0.071108095,0.954815984
71.336635,1.726989746,11.395858765,-2.127418518,-0.050561585,-0.039369814,0.953839421
71.375073,-0.798339844,3.789352417,-2.516517639,-0.021630920,-0.102724306,0.987408757
71.413442,0.353698730,-2.642227173,0.054588318,-0.041772522,0.034238584,0.982770085
71.427599,1.070861816,-5.022598267,-0.372657776,-0.049829163,0.061338194,0.986554265
71.443010,2.482299805,-7.685256958,-1.616249084,-0.067163147,0.074887998,1.008648992
71.443693,2.482299805,-7.685256958,-1.616249084,-0.067163147,0.074887998,1.008648992
71.444310,2.482299805,-7.685256958,-1.616249084,-0.067163147,0.074887998,1.008648992
71.482554,-3.987426758,3.346847534,1.092185974,-0.070214905,0.084287412,1.018658757
71.520921,-2.751464844,10.304855347,0.397911072,-0.023584045,-0.082948916,1.070660710
71.535181,-7.619018555,11.754440308,3.388633728,-0.025903381,-0.049867861,1.052228093
71.550567,-3.384704590,10.396408081,-0.914344788,-0.049707092,0.076108702,0.995343328
71.588971,-0.287170410,9.290145874,1.481285095,-0.057031311,0.121396787,0.957623601
71.627288,8.318786621,10.350631714,6.455650330,-0.048486389,0.138364553,0.988263249
71.641600,9.631042480,5.452560425,7.424583435,-0.033349670,0.107480772,1.004742742
71.656955,10.355834961,2.210067749,8.759727478,-0.016381897,0.071958311,1.008771062
71.695329,10.699157715,-13.910842896,3.159751892,-0.049829163,0.001401670,1.019635320
71.733654,3.161315918,1.836227417,10.987510681,-0.074243225,-0.021791689,1.002667546
71.747947,4.763488770,6.741928101,9.156455994,-0.084497131,0.094907530,0.973248601
71.763323,5.457763672,8.077072144,8.111228943,-0.069238342,0.037046202,0.982648015
71.801702,-0.546569824,16.499923706,11.262168884,-0.060571350,0.087339170,0.976422429
71.802406,-0.546569824,16.499923706,11.262168884,-0.060571350,0.087339170,0.976422429
71.803010,-0.546569824,16.499923706,11.262168884,-0.060571350,0.087339170,0.976422429
71.803649,-0.546569824,16.499923706,11.262168884,-0.060571350,0.087339170,0.976422429
71.804258,-0.546569824,16.499923706,11.262168884,-0.060571350,0.087339170,0.976422429
71.804882,-0.546569824,16.499923706,11.262168884,-0.060571350,0.087339170,0.976422429
71.805487,-0.546569824,16.499923706,11.262168884,-0.060571350,0.087339170,0.976422429
71.806126,-0.546569824,16.499923706,11.262168884,-0.060571350,0.087339170,0.976422429
71.806721,-0.012512207,17.537521362,12.940635681,-0.058862366,0.119321592,0.972516179
71.807357,-0.012512207,17.537521362,12.940635681,-0.058862366,0.119321592,0.972516179
71.807965,-0.012512207,17.537521362,12.940635681,-0.058862366,0.119321592,0.972516179
71.858639,6.480102539,-2.993179321,13.421287537,-0.047021545,0.092710264,1.005231023
71.872838,6.960754395,-6.929946899,12.604942322,-0.031274475,-0.015321963,1.033917546
71.902036,-2.057189941,-7.700515747,18.479576111,-0.035058655,-0.068666689,1.044903874
71.940468,-0.195617676,-5.686355591,19.166221619,-0.076440491,0.028012998,1.030133367
71.978800,-10.312194824,10.343002319,22.019615173,-0.062158264,-0.048280947,1.059552312
71.993093,-13.241882324,16.164230347,24.964561462,-0.048730530,-0.009340517,1.041119695
72.008504,-14.309997559,22.267745972,31.579246521,-0.027490295,0.055600889,1.007916570
72.046891,-7.252807617,5.269454956,30.068626404,-0.031640686,0.114927061,1.008404851
72.085223,0.826721191,-13.163162231,30.785789490,-0.066430725,0.132261038,1.002179265
72.099570,1.421813965,-14.719558716,32.448997498,-0.070581116,0.102109678,1.007794499
72.114800,0.620727539,-12.064529419,33.631553650,-0.114160217,0.087217100,1.007184148
72.153240,0.155334473,3.644393921,29.946556091,-0.117456116,0.044004209,1.009259343
72.191599,-1.370544434,31.217025757,28.794517517,-0.141870171,0.211728811,0.962140203
72.205886,0.033264160,42.027877808,31.731834412,-0.083886780,0.058652647,1.007306218
72.221123,-1.843566895,47.536300659,34.272422791,-0.068994202,-0.002504580,1.031720281
72.259529,-5.871887207,43.134140015,40.040245056,-0.000634827,-0.013002627,1.060162663
72.297917,-6.718750000,10.739730835,38.262596130,-0.023217835,0.053647764,1.026227117
72.312061,-6.627197266,1.614974976,39.109458923,-0.039575256,0.079526670,1.006817937
72.327278,-2.522583008,-15.253616333,37.118186951,-0.085595764,0.159970999,0.961651921
72.365715,6.434326172,-28.803421021,34.623374939,-0.144555718,0.120054014,0.943463445
72.404084,1.086120605,-10.958267212,39.742698669,-0.153588921,0.103818662,0.956647038
72.418210,2.337341309,-6.434036255,39.002647400,-0.153466851,0.099790342,0.961896062
72.433450,1.505737305,0.623153687,36.446800232,-0.128442436,0.018369444,0.997906804
72.434185,1.505737305,0.623153687,36.446800232,-0.128442436,0.018369444,0.997906804
72.434945,1.505737305,0.623153687,36.446800232,-0.128442436,0.018369444,0.997906804
72.435654,1.505737305,0.623153687,36.446800232,-0.128442436,0.018369444,0.997906804
72.436266,1.505737305,0.623153687,36.446800232,-0.128442436,0.018369444,0.997906804
72.436878,1.505737305,0.623153687,36.446800232,-0.128442436,0.018369444,0.997906804
