time,gyro x,gyro y,gyro z,accel x,accel y,accel z
94.028354,2.989570618,12.945449829,1.000854492,-0.033229064,-0.120312013,0.944646597
94.066822,5.125801086,4.652297974,1.832458496,-0.030299377,-0.148632318,1.005071402
94.081118,4.706184387,-0.917160034,1.092407227,-0.034693908,-0.038891114,1.002629995
94.096657,5.179206848,-2.931320190,2.694580078,-0.036647033,-0.064281739,1.005559683
94.135076,2.264778137,-10.240280151,2.541992188,-0.065211490,-0.063183106,1.009221792
94.135885,2.264778137,-10.240280151,2.541992188,-0.065211490,-0.063183106,1.009221792
94.136599,2.264778137,-10.240280151,2.541992188,-0.065211490,-0.063183106,1.009221792
94.137337,2.264778137,-10.240280151,2.541992188,-0.065211490,-0.063183106,1.009221792
94.138052,2.264778137,-10.240280151,2.541992188,-0.065211490,-0.063183106,1.009221792
94.138952,2.264778137,-10.240280151,2.541992188,-0.065211490,-0.063183106,1.009221792
94.139619,2.264778137,-10.240280151,2.541992188,-0.065211490,-0.063183106,1.009221792
94.140322,2.524177551,-11.323654175,2.221557617,-0.068019107,-0.057445802,0.997503042
94.141012,2.524177551,-11.323654175,2.221557617,-0.068019107,-0.057445802,0.997503042
94.141651,2.524177551,-11.323654175,2.221557617,-0.068019107,-0.057445802,0.997503042
94.142315,2.524177551,-11.323654175,2.221557617,-0.068019107,-0.057445802,0.997503042
94.142962,2.524177551,-11.323654175,2.221557617,-0.068019107,-0.057445802,0.997503042
94.143615,2.524177551,-11.323654175,2.221557617,-0.068019107,-0.057445802,0.997503042
94.144257,2.524177551,-11.323654175,2.221557617,-0.068019107,-0.057445802,0.997503042
94.182644,2.142707825,-15.802108765,1.267883301,-0.089015201,-0.068065919,0.960637808
94.196928,4.500190735,-15.321456909,0.718566895,-0.107447818,-0.049389161,0.952459097
94.212263,6.338874817,-12.078964233,-0.853088379,-0.109400943,-0.100658692,0.963201284
94.250727,6.056587219,-1.428329468,-0.708129883,-0.084864810,-0.105663575,0.991521597
94.289249,7.323066711,6.460464478,-1.493957520,-0.067286685,-0.084911622,0.990789175
94.303414,7.483283997,8.261001587,-1.287963867,-0.058985900,-0.112621583,1.004461050
94.318793,6.117622375,10.114944458,-0.364807129,-0.046168517,-0.105297364,1.020452261
94.357293,5.354682922,7.604873657,-0.303771973,-0.039210510,-0.109081544,1.015935659
94.395780,3.844062805,-1.107894897,0.054809570,-0.040797424,-0.129955560,1.017156363
94.422765,5.240242004,-5.510055542,0.329467773,-0.052149963,-0.107494630,0.990911245
94.437276,5.347053528,-5.861007690,0.649902344,-0.055934142,-0.127270013,0.995183706
94.487578,3.912727356,-2.092086792,0.977966309,-0.095362857,-0.154735833,0.964544058
94.526062,7.002632141,10.946548462,1.016113281,-0.104884341,-0.151928216,0.971135855
94.540399,5.888740540,17.103469849,0.825378418,-0.095118716,-0.169018060,0.987981558
94.555762,5.789558411,18.400466919,0.962707520,-0.087794498,-0.156811029,0.996770620
94.594278,5.087654114,11.595046997,0.512573242,-0.063746646,-0.151195794,1.034856558
94.632746,2.371589661,-0.993453979,-0.822570801,-0.084864810,-0.151806146,1.029485464
94.647044,3.325263977,-0.405990601,-1.226928711,-0.095484927,-0.135814935,1.015935659
94.662391,3.790657043,-0.245773315,-1.165893555,-0.085231021,-0.140209466,1.025457144
94.700863,1.356880188,-4.541122437,-1.959350586,-0.077418521,-0.153393060,1.019963980
94.739367,1.951972961,-5.593978882,-1.669433594,-0.061671447,-0.176952630,1.007756948
94.753546,1.532356262,-5.098068237,-1.318481445,-0.058375549,-0.181225091,1.002263784
94.769126,0.242988586,-3.549301147,-0.792053223,-0.052027892,-0.178661615,0.980291128
94.807531,2.211372375,5.918777466,1.183959961,-0.048365783,-0.193798333,0.976140738
94.846030,-0.168998718,8.543289185,2.358886719,-0.026515197,-0.214306146,0.965276480
94.860198,-0.268180847,7.177627563,1.634094238,-0.027735900,-0.196483880,0.955388784
94.875780,3.294746399,6.078994751,2.000305176,-0.036036681,-0.115429200,0.944768667
94.876505,3.294746399,6.078994751,2.000305176,-0.036036681,-0.115429200,0.944768667
94.877158,3.294746399,6.078994751,2.000305176,-0.036036681,-0.115429200,0.944768667
94.877822,3.294746399,6.078994751,2.000305176,-0.036036681,-0.115429200,0.944768667
94.878458,3.294746399,6.078994751,2.000305176,-0.036036681,-0.115429200,0.944768667
94.916793,3.599922180,-0.772201538,3.518554688,-0.044825744,-0.138744622,1.029851675
94.955359,-2.679069519,-16.343795776,2.480957031,-0.084376529,-0.091991700,0.982000113
94.969673,1.044075012,-14.993392944,3.663513184,-0.108058169,-0.076244630,0.971624136
94.985192,-0.642021179,-8.027755737,2.000305176,-0.104273990,-0.150219232,0.983831167
95.023611,-1.908500671,2.432144165,4.571411133,-0.112086490,-0.110424317,0.933294058
95.062097,0.792304993,11.236465454,2.725097656,-0.074244693,-0.154003412,0.949895620
95.076425,7.284919739,3.393447876,0.352355957,-0.053126525,-0.083812989,0.964177847
95.091929,8.063117981,-4.007064819,-2.172973633,-0.043238830,-0.115429200,0.981633902
95.130375,9.154121399,-29.840194702,-7.246520996,-0.081324771,-0.093456544,0.996648550
95.131100,9.154121399,-29.840194702,-7.246520996,-0.081324771,-0.093456544,0.996648550
95.131720,9.154121399,-29.840194702,-7.246520996,-0.081324771,-0.093456544,0.996648550
95.132377,9.154121399,-29.840194702,-7.246520996,-0.081324771,-0.093456544,0.996648550
95.132986,9.154121399,-29.840194702,-7.246520996,-0.081324771,-0.093456544,0.996648550
95.133755,10.206977844,-29.298507690,-5.766418457,-0.105738834,-0.097606935,1.000310659
95.184205,4.683296204,-12.895309448,-10.351684570,-0.078517154,-0.134960443,1.002507925
95.198446,2.981941223,-11.415206909,-12.259033203,-0.078761294,-0.131542474,0.986272573
95.214042,6.048957825,-2.717697144,-12.693908691,-0.073878482,-0.068676271,0.973577261
95.252429,6.071846008,11.366165161,-9.741333008,-0.042384338,-0.096996583,1.048040152
95.290914,5.545417786,6.132400513,-17.073181152,0.001438904,-0.065136231,1.072820425
95.305096,4.561225891,3.034866333,-13.113525391,0.030979920,-0.105541505,1.109441519
95.320673,3.248970032,0.219619751,-12.541320801,0.029515076,-0.088085450,1.119085073
95.359085,2.516548157,-15.626632690,-13.388183594,0.052220155,-0.078808106,1.131170034
95.397538,-1.847465515,-16.526901245,-11.450317383,0.066502377,-0.049877442,1.106878042
95.411899,-3.480155945,-11.163436890,-9.855773926,0.062229920,-0.065990724,1.111028433
95.427253,-7.722099304,0.341690063,-5.896118164,0.079563901,-0.050365724,1.108098745
95.465729,-8.324821472,6.475723267,-0.326660156,0.070164487,-0.062450685,1.127629995
95.504245,-14.886100769,8.138931274,5.914184570,0.018528748,0.032642089,1.075505972
95.518535,-11.803825378,7.787979126,6.326171875,0.012913513,0.062915526,1.044255972
95.546337,-7.249076843,5.461013794,8.203002930,0.014378357,-0.068065919,1.003240347
95.584831,-5.524833679,-4.609786987,11.285278320,-0.026026916,-0.110668458,0.964299917
95.623286,-2.892692566,-27.147018433,8.241149902,-0.059840392,-0.100414552,0.939275503
95.637562,-2.633293152,-31.198226929,7.615539551,-0.068995669,-0.085399903,0.918279409
95.653060,0.456611633,-31.968795776,9.141418457,-0.111720279,-0.039501466,0.862127066
95.691465,8.978645325,-23.126327515,4.601928711,-0.139308169,-0.083080567,0.883977652
95.729977,2.859870911,-9.042465210,2.137634277,-0.109400943,-0.078197755,0.968328238
95.744154,2.226631165,-3.541671753,1.122924805,-0.099147037,-0.094188966,0.966985464
95.759669,-0.222404480,1.043594360,0.573608398,-0.085597232,-0.135082513,0.953679800
95.811704,-2.083976746,11.472976685,-1.806762695,-0.055445861,-0.070141114,0.984807730
95.850320,-4.052360535,4.568374634,-3.141906738,-0.049098205,-0.048534669,0.986028433
95.864651,-2.831657410,4.110610962,-3.782775879,-0.046290588,-0.065258302,0.981389761
95.880151,-1.763542175,3.080642700,-4.545715332,-0.035060119,-0.145946771,1.007268667
95.918581,-5.257804871,4.217422485,-4.194763184,-0.024684142,-0.122143067,1.003240347
95.972962,0.693122864,0.669754028,-2.851989746,-0.020533752,-0.082836427,1.083196402
95.987322,0.410835266,-0.322067261,-3.874328613,-0.012843323,-0.106273927,1.109197378
96.002850,-2.953727722,1.203811646,-3.019836426,0.007908630,-0.145092279,1.122625113
96.041255,-1.939018250,0.677383423,2.206298828,0.003636169,0.059985839,1.070867300
96.079748,3.889839172,-12.658798218,-0.555541992,-0.021388244,-0.014721192,1.099553823
96.094072,2.447883606,-12.551986694,-0.814941406,-0.022242736,-0.054638185,1.105169058
96.109406,-1.977165222,-6.105148315,1.031372070,-0.018458556,-0.086376466,1.085027456
96.147888,-3.136833191,6.056106567,4.594299316,-0.042018127,0.001636229,1.013860464
96.186343,-5.204399109,0.318801880,0.535461426,-0.061915588,-0.000072755,1.003240347
96.200649,-4.441459656,-1.519882202,-2.195861816,-0.058131408,0.001392089,0.946355581
96.216160,-3.304679871,-0.329696655,-2.249267578,-0.052516174,-0.017284669,0.924138784
96.254603,-2.328117371,14.868057251,-2.890136719,-0.021632385,-0.111522950,0.906560659
96.293084,-4.830558777,31.729019165,-1.455810547,0.057713319,-0.153270990,0.885930777
96.307393,-4.288871765,30.119216919,2.145263672,0.079685971,-0.086010255,0.885686636
96.322775,-4.571159363,27.731216431,0.810119629,0.091648862,-0.125805169,0.888860464
96.361243,-2.267082214,5.720413208,0.878784180,0.114109799,-0.086986817,0.887883902
96.361976,-2.267082214,5.720413208,0.878784180,0.114109799,-0.086986817,0.887883902
96.362602,-2.267082214,5.720413208,0.878784180,0.114109799,-0.086986817,0.887883902
96.363251,-2.267082214,5.720413208,0.878784180,0.114109799,-0.086986817,0.887883902
96.363869,-2.267082214,5.720413208,0.878784180,0.114109799,-0.086986817,0.887883902
96.364520,-2.267082214,5.720413208,0.878784180,0.114109799,-0.086986817,0.887883902
96.365136,-2.267082214,5.720413208,0.878784180,0.114109799,-0.086986817,0.887883902
96.365778,-2.267082214,5.720413208,0.878784180,0.114109799,-0.086986817,0.887883902
96.366404,-0.237663269,-1.107894897,0.108215332,0.111546323,-0.082104005,0.896672964
96.367167,-0.237663269,-1.107894897,0.108215332,0.111546323,-0.082104005,0.896672964
96.367769,-0.237663269,-1.107894897,0.108215332,0.111546323,-0.082104005,0.896672964
96.368402,-0.237663269,-1.107894897,0.108215332,0.111546323,-0.082104005,0.896672964
96.369041,-0.237663269,-1.107894897,0.108215332,0.111546323,-0.082104005,0.896672964
96.407405,0.983039856,-11.399948120,3.549072266,0.068211362,-0.093822755,0.915593863
96.421571,2.249519348,-10.728561401,3.892395020,0.062596127,-0.087353028,0.919744253
96.437157,4.774848938,-8.004867554,4.701110840,0.058934022,-0.089672364,0.950505972
96.475563,5.110542297,-4.388534546,9.202453613,0.049412537,-0.047313966,1.026677847
96.514003,5.987922668,-10.499679565,7.142517090,0.031712342,-0.043529786,1.062688589
96.528263,5.018989563,-9.011947632,6.585571289,0.031590272,-0.089184083,1.093694448
96.557833,-2.434928894,-0.261032104,14.207336426,0.009495544,-0.048168458,1.114690542
96.596330,-0.504692078,-13.734542847,7.920715332,-0.039210510,0.015918456,1.060369253
96.634842,2.013008118,-15.382492065,9.232971191,-0.056300353,0.028491698,1.020696402
96.649146,3.050605774,-15.596115112,9.774658203,-0.065577701,0.017627440,1.018499136
96.664478,5.766670227,-18.083297729,8.645507812,-0.106837466,0.016895019,1.020208120
96.703102,6.064216614,-15.390121460,4.487487793,-0.105860904,-0.055126466,1.029119253
96.757873,4.385749817,10.298049927,2.633544922,-0.055690002,-0.026317872,0.952092886
96.772247,4.805366516,13.517654419,1.794311523,-0.047389220,-0.059520997,0.954778433
96.787820,3.271858215,19.506729126,1.275512695,-0.023097228,-0.114818849,0.971868277
96.826297,-4.143913269,23.634231567,4.746887207,0.011936950,-0.106518067,0.970159292
96.864761,-2.404411316,-2.313339233,3.648254395,0.012425232,-0.071117677,0.938421011
96.879116,-1.778800964,-9.751998901,3.449890137,0.006687927,-0.079296388,0.937932730
96.894441,-1.870353699,-21.508895874,2.480957031,-0.016261291,-0.094311036,0.928045034
96.932950,0.937263489,-23.278915405,1.634094238,-0.048121642,-0.098217286,0.911687613
96.971359,2.478401184,-7.554733276,2.213928223,-0.050074767,-0.127147943,0.950261831
96.985692,1.761238098,6.651199341,4.594299316,-0.049098205,-0.132763177,0.998723745
97.001051,0.830451965,12.708938599,5.914184570,-0.048976135,-0.107494630,1.018865347
97.039572,0.235359192,23.336685181,4.647705078,-0.025050353,-0.083568849,1.081243277
97.078069,-1.115043640,18.934524536,5.334350586,0.026219178,-0.088573731,1.137395620
97.092239,-4.265983582,7.742202759,7.699462891,0.018162537,-0.029247560,1.137151480
97.107629,-3.945549011,0.822341919,6.967041016,0.004734802,0.018359862,1.120916128
97.108401,-3.945549011,0.822341919,6.967041016,0.004734802,0.018359862,1.120916128
97.109081,-3.945549011,0.822341919,6.967041016,0.004734802,0.018359862,1.120916128
97.109735,-3.945549011,0.822341919,6.967041016,0.004734802,0.018359862,1.120916128
97.110380,-3.945549011,0.822341919,6.967041016,0.004734802,0.018359862,1.120916128
97.111026,-3.945549011,0.822341919,6.967041016,0.004734802,0.018359862,1.120916128
97.111662,-2.824028015,-5.899154663,6.242248535,-0.005885315,0.041309081,1.100896597
97.112323,-2.824028015,-5.899154663,6.242248535,-0.005885315,0.041309081,1.100896597
97.112969,-2.824028015,-5.899154663,6.242248535,-0.005885315,0.041309081,1.100896597
97.113621,-2.824028015,-5.899154663,6.242248535,-0.005885315,0.041309081,1.100896597
97.114289,-2.824028015,-5.899154663,6.242248535,-0.005885315,0.041309081,1.100896597
97.115078,-2.824028015,-5.899154663,6.242248535,-0.005885315,0.041309081,1.100896597
97.115693,-2.824028015,-5.899154663,6.242248535,-0.005885315,0.041309081,1.100896597
97.116336,-2.824028015,-5.899154663,6.242248535,-0.005885315,0.041309081,1.100896597
97.116992,-2.824028015,-5.899154663,6.242248535,-0.005885315,0.041309081,1.100896597
97.155340,3.195564270,-18.998825073,6.669494629,-0.053981017,0.028369628,1.052800894
97.193808,2.852241516,-10.278427124,5.921813965,-0.066676334,-0.094433106,1.065984488
97.207981,-0.100334167,-5.944931030,5.959960938,-0.073268130,-0.085277833,1.055364370
97.223693,-2.328117371,-1.191818237,4.525634766,-0.088038638,-0.001171388,1.010930777
97.262158,1.951972961,1.829421997,0.886413574,-0.107569888,0.055957519,0.964544058
97.300594,-0.611503601,12.060440063,-2.188232422,-0.058985900,-0.083935060,0.945745230
97.314886,-0.771720886,15.402114868,-2.607849121,-0.047145080,-0.100170411,0.935125113
97.330451,-2.427299500,22.344863892,-1.684692383,-0.030299377,-0.131298333,0.917424917
97.368882,-4.189689636,23.588455200,-1.905944824,-0.015650939,-0.111522950,0.901311636
97.407285,-2.709587097,8.688247681,-3.347900391,-0.000270081,-0.116283692,0.902044058
97.421666,-1.870353699,-1.268112183,-5.186584473,0.001560974,-0.109325685,0.902898550
97.437029,-1.412590027,-5.548202515,-6.140258789,0.003392029,-0.112499513,0.902654409
97.437798,-1.412590027,-5.548202515,-6.140258789,0.003392029,-0.112499513,0.902654409
97.491779,3.523628235,-1.435958862,-5.072143555,-0.007106018,-0.080761231,0.955632925
97.530300,2.394477844,3.637588501,-3.134277344,-0.010279846,-0.049633302,1.055974722
97.544507,2.600471497,2.661026001,-3.576782227,-0.015040589,-0.040111817,1.072942495
97.560000,2.394477844,1.928604126,-4.789855957,-0.014308167,-0.044994630,1.107122183
97.598393,-2.984245300,4.934585571,0.283691406,0.004856872,-0.018871583,1.126653433
97.599121,-2.984245300,4.934585571,0.283691406,0.004856872,-0.018871583,1.126653433
97.599754,-2.984245300,4.934585571,0.283691406,0.004856872,-0.018871583,1.126653433
97.600427,-2.984245300,4.934585571,0.283691406,0.004856872,-0.018871583,1.126653433
97.601051,-2.984245300,4.934585571,0.283691406,0.004856872,-0.018871583,1.126653433
97.601709,-2.984245300,4.934585571,0.283691406,0.004856872,-0.018871583,1.126653433
97.602340,-2.984245300,4.934585571,0.283691406,0.004856872,-0.018871583,1.126653433
97.602999,-2.984245300,4.934585571,0.283691406,0.004856872,-0.018871583,1.126653433
97.603622,-2.984245300,4.934585571,0.283691406,0.004856872,-0.018871583,1.126653433
97.604289,-2.984245300,4.934585571,0.283691406,0.004856872,-0.018871583,1.126653433
97.604918,-2.984245300,4.934585571,0.283691406,0.004856872,-0.018871583,1.126653433
97.605583,-2.984245300,4.934585571,0.283691406,0.004856872,-0.018871583,1.126653433
97.661804,3.172676086,-5.731307983,0.413391113,-0.040675353,0.015552245,1.080999136
97.676199,4.355232239,-7.119857788,0.489685059,-0.043971252,-0.013988771,1.083684683
97.691559,4.599372864,-9.484970093,1.168701172,-0.053370666,-0.069774903,1.097478628
97.730039,-1.534660339,-15.702926636,3.312561035,-0.097804263,-0.109203614,1.092839956
97.768559,-5.028923035,-13.414108276,0.703308105,-0.149562076,-0.029857911,0.986394644
97.782731,-4.494865417,-11.407577515,-0.990417480,-0.149440005,-0.029979981,0.964666128
97.798125,-2.938468933,-5.197250366,-4.400756836,-0.139308169,-0.041210450,0.930486441
97.836604,-3.968437195,8.871353149,-5.239990234,-0.082423404,-0.108837403,0.910833120
97.875104,-5.593498230,17.301834106,-4.278686523,-0.043605041,-0.137279779,0.914251089
97.889263,-6.028373718,13.784683228,-4.148986816,-0.042628478,-0.127025872,0.921087027
97.904831,-6.241996765,9.763992310,-5.095031738,-0.044703674,-0.134228021,0.923040152
97.943240,-5.768974304,-5.731307983,-7.277038574,-0.039576720,-0.153759271,0.943547964
97.981693,-4.800041199,-13.589584351,-7.833984375,-0.038478088,-0.154613763,0.973088980
97.995853,-4.296501160,-11.285507202,-6.773498535,-0.039820861,-0.145458490,0.992254019
98.011419,-3.319938660,-8.447372437,-6.216552734,-0.039210510,-0.149730951,1.014837027
98.049804,-4.479606628,2.393997192,0.054809570,-0.018092345,-0.094799317,1.118596792
98.088240,-6.081779480,3.553665161,0.466796875,0.004856872,-0.123974122,1.094060659
98.102578,-8.141716003,3.210342407,0.253173828,-0.001734925,-0.086986817,1.092351675
98.118104,-7.661064148,-0.825607300,1.466247559,-0.017726135,0.033130370,1.058782339
98.156535,3.126899719,-8.653366089,-0.387695312,-0.006129456,0.019214354,1.012151480
98.195092,6.010810852,0.158584595,-0.441101074,-0.021388244,-0.091991700,1.015325308
98.209436,5.247871399,2.874649048,-1.120117188,-0.019313049,-0.117016114,1.025090933
98.225062,1.951972961,5.857742310,-0.769165039,-0.013209534,-0.077221192,1.035833120
98.263508,-1.191337585,3.889358521,-1.860168457,-0.003443909,0.009570800,0.985051870
98.264239,-0.344474792,3.462112427,-1.173522949,-0.001490784,0.018237792,0.969793081
98.264858,-0.344474792,3.462112427,-1.173522949,-0.001490784,0.018237792,0.969793081
98.303240,1.211921692,1.394546509,-2.234008789,0.010227966,-0.025341310,0.944768667
98.317589,0.075141907,1.669204712,-1.593139648,0.025364686,-0.091625489,0.920110464
98.332967,0.090400696,1.577651978,-0.746276855,0.028416444,-0.100658692,0.906072378
98.371454,0.807563782,-1.390182495,0.207397461,0.026341248,-0.145580560,0.891546011
98.409949,0.181953430,-4.586898804,0.482055664,0.020481873,-0.133129388,0.911809683
98.424245,-0.893791199,-4.373275757,0.451538086,0.022312928,-0.143139154,0.927922964
98.439570,-1.717765808,-3.617965698,0.604125977,0.022679139,-0.149364740,0.932805777
98.517679,-2.259452820,3.256118774,5.731079102,0.016575623,-0.084545411,0.991887808
98.556209,-1.664360046,-4.846298218,4.197570801,-0.024928283,-0.078563966,1.077092886
98.570496,-2.221305847,-6.318771362,3.823730469,-0.037013244,-0.057689942,1.086736441
98.585811,-2.083976746,-8.920394897,1.588317871,-0.046168517,-0.093944825,1.097844839
98.624268,-4.845817566,-17.579757690,0.581237793,-0.095973209,-0.020214356,1.109197378
98.662694,-1.496513367,-11.949264526,-5.133178711,-0.094996646,-0.064037599,1.056951284
98.676990,-2.640922546,-4.373275757,-4.377868652,-0.089015201,-0.058544435,1.039861441
98.692476,-2.618034363,10.580337524,-2.806213379,-0.090113834,-0.012035646,1.007512808
98.742538,1.944343567,22.741592407,-0.944641113,-0.050318908,-0.076610841,1.005071402
98.781088,-1.153190613,17.225540161,-2.607849121,-0.016871642,-0.064525880,0.912053823
98.795398,0.578681946,14.463699341,-3.271606445,-0.005274964,-0.057567872,0.881414175
98.810918,5.751411438,8.604324341,-3.546264648,0.015110779,-0.083324708,0.865789175
98.849365,6.521980286,1.028335571,-3.675964355,0.032688905,-0.153759271,0.908635855
98.887854,2.737800598,-2.763473511,1.161071777,0.016453553,-0.143261224,0.902044058
98.902030,3.783027649,-8.928024292,1.145812988,0.000706482,-0.115673341,0.895696402
98.917562,4.652778625,-12.445175171,0.703308105,-0.010279846,-0.116161622,0.898137808
98.955991,5.629341125,-18.823348999,-0.280883789,-0.040065002,-0.146312982,0.945012808
98.994410,5.156318665,-13.261520386,-0.280883789,-0.059474181,-0.132152826,1.027410269
99.008707,4.576484680,-10.965072632,-0.395324707,-0.067652896,-0.140453607,1.061467886
99.024212,0.036994934,-6.028854370,-1.326110840,-0.073756412,-0.125072747,1.105535269
99.062702,-2.480705261,6.529129028,-1.333740234,-0.053370666,-0.042553224,1.119939566
99.101208,-10.338981628,11.465347290,1.489135742,-0.029444885,-0.033886231,1.157048941
99.115517,-11.254508972,10.038650513,2.099487305,-0.030055236,0.039722167,1.114934683
99.131038,-5.112846375,5.728042603,1.557800293,-0.025416564,0.131519049,1.044011831
99.169464,5.797187805,-2.801620483,-0.441101074,-0.025172424,0.034717284,1.059514761
99.170200,5.797187805,-2.801620483,-0.441101074,-0.025172424,0.034717284,1.059514761
99.170814,5.797187805,-2.801620483,-0.441101074,-0.025172424,0.034717284,1.059514761
99.171466,5.797187805,-2.801620483,-0.441101074,-0.025172424,0.034717284,1.059514761
99.172081,5.797187805,-2.801620483,-0.441101074,-0.025172424,0.034717284,1.059514761
99.210486,0.265876770,0.334060669,-0.341918945,0.028172303,-0.304516107,1.087346792
99.224662,-4.052360535,-4.617416382,-1.150634766,0.010838318,-0.068554200,1.051458120
99.240189,-1.214225769,-7.646286011,-0.280883789,-0.000148010,-0.045849122,1.031804800
99.278644,-1.275260925,-11.926376343,-2.485778809,-0.027003478,-0.025707521,0.973455191
99.317088,-2.160270691,-4.975997925,-1.417663574,-0.025782775,-0.098095216,0.933660269
99.331382,-2.869804382,1.135147095,-0.555541992,-0.028468322,-0.095165528,0.910955191
99.346740,-2.709587097,3.706253052,1.656982422,-0.029322814,-0.104931153,0.912053823
99.347528,-3.495414734,4.530227661,1.412841797,-0.037013244,-0.120678224,0.912664175
99.348203,-3.495414734,4.530227661,1.412841797,-0.037013244,-0.120678224,0.912664175
99.348865,-3.495414734,4.530227661,1.412841797,-0.037013244,-0.120678224,0.912664175
99.349499,-3.495414734,4.530227661,1.412841797,-0.037013244,-0.120678224,0.912664175
99.350156,-3.495414734,4.530227661,1.412841797,-0.037013244,-0.120678224,0.912664175
99.350787,-3.495414734,4.530227661,1.412841797,-0.037013244,-0.120678224,0.912664175
99.351570,-3.495414734,4.530227661,1.412841797,-0.037013244,-0.120678224,0.912664175
99.352188,-3.495414734,4.530227661,1.412841797,-0.037013244,-0.120678224,0.912664175
99.352822,-3.495414734,4.530227661,1.412841797,-0.037013244,-0.120678224,0.912664175
99.353484,-3.495414734,4.530227661,1.412841797,-0.037013244,-0.120678224,0.912664175
99.354128,-3.495414734,4.530227661,1.412841797,-0.037013244,-0.120678224,0.912664175
99.406506,-2.007682800,2.928054810,-3.942993164,-0.034938049,-0.112865724,0.898259878
99.469368,-1.069267273,2.409255981,-6.987121582,-0.005641175,-0.092846192,0.924627066
99.485067,0.105659485,2.699172974,-5.972412109,0.001805115,-0.089672364,0.940618277
99.499205,-1.389701843,2.599990845,-3.942993164,0.006321716,-0.082348146,0.973943472
99.537592,1.578132629,-3.404342651,-5.026367188,-0.009425354,-0.021068849,1.032903433
99.576223,0.578681946,-4.052841187,-2.874877930,0.009739685,-0.094555177,1.103460073
99.590406,-2.564628601,-6.715499878,-2.470520020,0.009007263,-0.091381349,1.107244253
99.605909,-1.923759460,-12.323104858,-3.920104980,-0.028102111,0.027637206,1.054876089
99.644313,1.066963196,-8.928024292,-5.995300293,-0.044337463,0.002124511,1.046697378
99.682833,4.233161926,11.419570923,-4.087951660,-0.031153869,-0.060375489,1.036443472
99.697143,2.882759094,19.026077271,-0.883605957,-0.027247619,-0.079906739,1.038640738
99.712644,2.272407532,19.850051880,-1.493957520,-0.024562072,-0.075878419,1.027776480
99.751079,3.050605774,14.852798462,-0.776794434,0.008641052,-0.045971192,0.966375113
99.789555,5.736152649,0.158584595,-2.317932129,0.024754334,-0.079052247,0.918157339
99.803863,6.369392395,-3.114425659,-2.546813965,0.026097108,-0.090160646,0.911199331
99.819391,7.345954895,-6.082260132,-2.172973633,0.025975037,-0.130565912,0.916082144
99.857824,3.752510071,-3.480636597,1.412841797,-0.001246643,-0.107494630,0.924871206
99.896275,1.967231750,-3.030502319,2.130004883,-0.023219299,-0.132152826,0.947820425
99.910562,1.265327454,-4.075729370,1.695129395,-0.024195861,-0.133495599,0.949895620
99.926055,-0.161369324,-6.738388062,0.810119629,-0.032374572,-0.111278810,0.949895620
99.926777,-0.161369324,-6.738388062,0.810119629,-0.032374572,-0.111278810,0.949895620
99.927397,-0.161369324,-6.738388062,0.810119629,-0.032374572,-0.111278810,0.949895620
99.928028,-0.161369324,-6.738388062,0.810119629,-0.032374572,-0.111278810,0.949895620
99.928643,-0.161369324,-6.738388062,0.810119629,-0.032374572,-0.111278810,0.949895620
99.929283,-0.161369324,-6.738388062,0.810119629,-0.032374572,-0.111278810,0.949895620
99.929894,-0.161369324,-6.738388062,0.810119629,-0.032374572,-0.111278810,0.949895620
99.930530,-0.161369324,-6.738388062,0.810119629,-0.032374572,-0.111278810,0.949895620
99.931142,-0.161369324,-6.738388062,0.810119629,-0.032374572,-0.111278810,0.949895620
99.931774,-0.161369324,-6.738388062,0.810119629,-0.032374572,-0.111278810,0.949895620
99.932391,-0.161369324,-6.738388062,0.810119629,-0.032374572,-0.111278810,0.949895620
99.933024,-0.161369324,-6.738388062,0.810119629,-0.032374572,-0.111278810,0.949895620
99.933635,-0.001152039,-7.631027222,0.390502930,-0.035792541,-0.104442872,0.954656363
99.934276,-0.001152039,-7.631027222,0.390502930,-0.035792541,-0.104442872,0.954656363
99.934886,-0.001152039,-7.631027222,0.390502930,-0.035792541,-0.104442872,0.954656363
99.935519,-0.001152039,-7.631027222,0.390502930,-0.035792541,-0.104442872,0.954656363
99.936129,-0.001152039,-7.631027222,0.390502930,-0.035792541,-0.104442872,0.954656363
99.974490,0.593940735,-1.489364624,0.955078125,-0.042872619,-0.099437989,1.039983511
100.013044,-2.862174988,9.413040161,1.275512695,-0.025172424,-0.086986817,1.076848745
100.027216,-2.877433777,11.686599731,0.741455078,-0.018214416,-0.077465333,1.079290152
100.042693,-2.755363464,14.181411743,0.977966309,-0.004298401,-0.064892091,1.090154409
100.081129,-6.959159851,15.630996704,7.539245605,0.036839295,-0.020824708,1.122869253
100.119630,-1.374443054,-1.085006714,6.844970703,0.011814880,0.099902831,1.014226675
100.133799,3.973762512,-3.831588745,6.944152832,0.013768005,0.039722167,0.997136831
100.149311,5.942146301,-3.175460815,7.287475586,0.018528748,-0.009105958,1.005803823
100.187763,0.906745911,-0.444137573,8.973571777,0.023045350,-0.102733888,1.027898550
100.226245,4.370491028,-10.896408081,7.424804688,-0.018946838,0.053027831,0.972478628
100.255518,5.080024719,-17.045700073,5.448791504,-0.046656799,-0.002636231,0.975530386
100.269734,5.095283508,-17.335617065,4.563781738,-0.050929260,-0.025951661,0.973821402
100.321903,0.929634094,-1.672470093,3.922912598,-0.049220275,-0.103222169,0.932439566
100.360452,-0.672538757,4.949844360,1.840087891,-0.052027892,-0.112621583,0.941106558
100.374622,-1.244743347,9.191787720,2.328369141,-0.041285705,-0.118236817,0.954046011
100.389987,-2.221305847,10.435379028,2.999755859,-0.036891174,-0.128124505,0.965276480
100.428504,-6.043632507,1.829421997,0.993225098,-0.044581603,-0.079906739,0.977849722
100.467037,-4.571159363,-15.115463257,-3.248718262,-0.078761294,-0.070629396,1.025457144
100.481203,-4.380424500,-18.197738647,-3.195312500,-0.094386294,-0.033275880,1.027898550
100.496728,-3.472526550,-17.266952515,-5.621459961,-0.105860904,-0.019726075,1.028386831
100.535207,-4.334648132,-1.901351929,-7.460144043,-0.058497619,0.001636229,0.986394644
100.573669,3.577033997,18.240249634,-7.414367676,-0.040187072,0.062183104,0.946477652
100.587973,4.378120422,25.175369263,-5.766418457,-0.029933166,0.026538573,0.958684683
100.603536,6.766120911,37.893569946,-4.736450195,-0.004054260,-0.023144044,0.963079214
100.641940,11.404792786,38.130081177,5.235168457,0.070286557,-0.056713380,1.015569448
100.680436,13.449470520,-0.535690308,3.739807129,0.035984803,0.002246581,1.055242300
100.694618,12.114326477,-11.056625366,4.182312012,0.024998475,-0.026317872,1.068914175
100.710182,8.932868958,-32.067977905,2.793762207,-0.017481994,-0.029491700,1.053899527
100.748648,10.718147278,-50.348007202,0.413391113,-0.100123599,0.020557128,0.978826284
100.787078,9.810249329,-33.197128296,-1.410034180,-0.118312076,-0.046581544,1.000432730
100.801398,4.210273743,-13.162338257,-3.515747070,-0.107081607,-0.101757325,0.995427847
100.816763,1.608650208,-3.671371460,-3.401306152,-0.087794498,-0.094921388,0.982732534
100.855257,0.624458313,24.702346802,-3.935363770,-0.034083556,-0.012645997,0.947454214
100.893730,-6.722648621,40.334976196,-2.638366699,0.046971131,-0.065136231,0.995061636
100.908046,-5.395133972,38.267410278,4.029724121,0.069432065,-0.019726075,1.008733511
100.923384,-5.181510925,34.460342407,3.388854980,0.075535581,-0.055004396,1.024846792
100.924172,-5.181510925,34.460342407,3.388854980,0.075535581,-0.055004396,1.024846792
100.924854,-5.181510925,34.460342407,3.388854980,0.075535581,-0.055004396,1.024846792
100.925526,-5.181510925,34.460342407,3.388854980,0.075535581,-0.055004396,1.024846792
100.926170,-5.181510925,34.460342407,3.388854980,0.075535581,-0.055004396,1.024846792
100.926829,-5.181510925,34.460342407,3.388854980,0.075535581,-0.055004396,1.024846792
100.927473,-5.631645203,28.082168579,2.931091309,0.088841245,-0.058422364,1.045476675
100.928136,-5.631645203,28.082168579,2.931091309,0.088841245,-0.058422364,1.045476675
100.928779,-5.631645203,28.082168579,2.931091309,0.088841245,-0.058422364,1.045476675
100.929447,-5.631645203,28.082168579,2.931091309,0.088841245,-0.058422364,1.045476675
100.930089,-5.631645203,28.082168579,2.931091309,0.088841245,-0.058422364,1.045476675
100.930752,-5.631645203,28.082168579,2.931091309,0.088841245,-0.058422364,1.045476675
100.969102,-6.570060730,-4.655563354,5.731079102,0.077122495,0.003589354,1.056585073
101.007631,-2.305229187,-25.972091675,9.873840332,0.021336365,0.024341308,1.111150503
101.021808,-3.396232605,-29.885971069,11.643859863,-0.001490784,0.048511229,1.114202261
101.037323,-4.151542664,-34.990036011,12.963745117,-0.053614806,0.163745612,1.088933706
101.092215,2.623359680,-22.706710815,8.241149902,-0.089259341,0.059741698,1.047918081
101.130711,-3.853996277,15.676773071,10.278198242,-0.081324771,0.070850097,0.997014761
101.145078,-2.061088562,21.848953247,10.354492188,-0.084132388,0.132129401,0.984441519
101.160729,0.853340149,27.471817017,7.997009277,-0.075587466,0.064746581,1.001775503
101.199224,1.173774719,24.122512817,3.831359863,-0.036647033,-0.003734864,0.977117300
101.237729,2.104560852,12.388504028,0.367614746,0.013890075,-0.073314942,0.957097769
101.252062,1.799385071,7.940567017,0.222656250,0.021214295,-0.061596192,0.952092886
101.267413,2.745429993,-1.634323120,0.054809570,0.025852967,-0.040600099,0.952947378
101.305901,0.105659485,-17.778121948,0.512573242,0.019749451,-0.063183106,0.965764761
101.358592,-3.289421082,-19.258224487,2.274963379,-0.043238830,0.002124511,0.953557730
101.372954,-3.342826843,-18.266403198,2.610656738,-0.048854064,-0.005810060,0.958196402
101.388428,-3.297050476,-16.160690308,2.290222168,-0.064479068,0.012622558,0.973943472
101.426859,-1.771171570,-9.988510132,1.496765137,-0.091456607,0.025195800,1.007268667
101.465317,-2.419670105,-0.611984253,-5.201843262,-0.064112857,-0.050609864,1.013738394
101.479653,-2.610404968,3.690994263,-5.713012695,-0.049830627,-0.059765138,1.014959097
101.495138,-3.503044128,14.112747192,-2.378967285,-0.026881408,-0.020702638,1.033391714
101.533599,-5.730827332,15.402114868,-1.593139648,-0.026515197,0.075366698,1.064153433
101.572091,-4.372795105,3.668106079,-2.867248535,-0.024317931,0.106128417,1.032293081
101.586425,-1.633842468,-2.397262573,-2.058532715,-0.027491760,0.113452636,1.008977652
101.601926,-0.626762390,-4.190170288,-2.180603027,-0.030543517,0.091235839,1.001897573
101.640380,2.043525696,-4.358016968,-2.790954590,-0.025660705,0.013843261,0.993963003
101.641103,2.043525696,-4.358016968,-2.790954590,-0.025660705,0.013843261,0.993963003
101.641727,2.043525696,-4.358016968,-2.790954590,-0.025660705,0.013843261,0.993963003
101.642374,2.043525696,-4.358016968,-2.790954590,-0.025660705,0.013843261,0.993963003
101.642991,1.372138977,-2.412521362,-1.486328125,-0.024195861,0.005420409,0.996404409
101.643632,1.372138977,-2.412521362,-1.486328125,-0.024195861,0.005420409,0.996404409
101.644256,1.372138977,-2.412521362,-1.486328125,-0.024195861,0.005420409,0.996404409
101.644901,1.372138977,-2.412521362,-1.486328125,-0.024195861,0.005420409,0.996404409
101.683246,1.318733215,2.828872681,-0.174072266,-0.024440002,0.112720214,0.950872183
101.697559,2.959053040,2.439773560,-0.860717773,-0.021632385,0.127002448,0.940496206
101.712898,6.056587219,2.088821411,-1.402404785,-0.009181214,0.077197753,0.943914175
101.751394,3.706733704,1.791275024,0.230285645,0.002049255,-0.034008302,0.989446402
101.789859,0.700752258,-2.267562866,1.824829102,-0.010401917,0.006030761,0.931829214
101.804173,1.486579895,-5.876266479,1.481506348,-0.021754455,-0.004711427,0.924749136
101.819483,1.318733215,-7.959091187,1.641723633,-0.026515197,0.014575683,0.921575308
101.857980,2.646247864,-14.108383179,-0.494506836,-0.038478088,0.038257323,0.922185659
101.912038,5.255500793,-11.125289917,-3.454711914,-0.059962463,0.041431151,0.983587027
101.926400,4.477302551,-7.882797241,-4.332092285,-0.054469299,-0.013988771,1.012029409
101.941908,-0.596244812,4.339492798,-3.180053711,-0.039332580,-0.029979981,1.038152456
101.980398,-1.893241882,25.518692017,0.558349609,-0.009669495,0.074756347,1.031438589
102.018828,-2.808769226,27.738845825,-0.311401367,0.065403745,0.041919433,1.081243277
102.033176,-4.220207214,26.731765747,-0.196960449,0.111668393,0.029468261,1.079046011
102.048668,-5.402763367,24.542129517,1.077148438,0.127903745,0.051562987,1.073308706
102.087217,-4.288871765,11.221206665,7.317993164,0.121434018,0.057056151,1.047918081
102.125704,-3.243644714,-7.234298706,8.607360840,0.056370545,0.022998534,1.012151480
102.140060,-2.602775574,-8.775436401,9.721252441,0.035862733,0.051807128,1.002385855
102.155557,-2.434928894,-8.287155151,10.392639160,0.022679139,0.043628417,0.993963003
102.194000,1.883308411,-4.541122437,11.849853516,-0.014674378,0.015308104,0.993474722
102.232456,1.395027161,-4.899703979,10.255310059,-0.035060119,-0.020946778,1.022039175
102.246759,1.532356262,-4.068099976,10.003540039,-0.036647033,-0.024364747,1.023870230
102.262092,1.143257141,-3.228866577,11.216613770,-0.040675353,-0.053295411,1.046941519
102.300589,-4.777153015,-8.668624878,7.836791992,-0.065943912,-0.064647950,1.105535269
102.301313,-4.777153015,-8.668624878,7.836791992,-0.065943912,-0.064647950,1.105535269
102.301962,-4.777153015,-8.668624878,7.836791992,-0.065943912,-0.064647950,1.105535269
102.302617,-4.777153015,-8.668624878,7.836791992,-0.065943912,-0.064647950,1.105535269
102.303249,-4.777153015,-8.668624878,7.836791992,-0.065943912,-0.064647950,1.105535269
102.359699,-10.789115906,-7.127487183,5.212280273,-0.080714419,-0.046581544,1.135564566
102.374056,-14.908988953,-5.494796753,5.380126953,-0.092311099,-0.020458497,1.112004995
102.389532,-14.825065613,-2.053939819,3.381225586,-0.108424380,0.053149901,1.016057730
102.427994,-8.988578796,3.500259399,0.367614746,-0.095484927,-0.071728028,1.021672964
102.466455,-11.521537781,5.789077759,-1.379516602,-0.082057193,-0.093456544,0.955754995
102.480786,-7.279594421,4.308975220,-4.370239258,-0.067652896,-0.076366700,0.921453238
102.496291,-5.227287292,3.591812134,-5.255249023,-0.062648013,-0.080028810,0.925115347
102.497028,-5.227287292,3.591812134,-5.255249023,-0.062648013,-0.080028810,0.925115347
102.497654,-4.304130554,3.744400024,-4.652526855,-0.059596252,-0.072216310,0.934636831
102.498308,-4.304130554,3.744400024,-4.652526855,-0.059596252,-0.072216310,0.934636831
102.498925,-4.304130554,3.744400024,-4.652526855,-0.059596252,-0.072216310,0.934636831
102.499576,-4.304130554,3.744400024,-4.652526855,-0.059596252,-0.072216310,0.934636831
102.500199,-4.304130554,3.744400024,-4.652526855,-0.059596252,-0.072216310,0.934636831
102.500844,-4.304130554,3.744400024,-4.652526855,-0.059596252,-0.072216310,0.934636831
102.501470,-4.304130554,3.744400024,-4.652526855,-0.059596252,-0.072216310,0.934636831
102.502117,-4.304130554,3.744400024,-4.652526855,-0.059596252,-0.072216310,0.934636831
102.502741,-4.304130554,3.744400024,-4.652526855,-0.059596252,-0.072216310,0.934636831
102.503406,-4.304130554,3.744400024,-4.652526855,-0.059596252,-0.072216310,0.934636831
102.504028,-4.304130554,3.744400024,-4.652526855,-0.059596252,-0.072216310,0.934636831
102.504672,-4.304130554,3.744400024,-4.652526855,-0.059596252,-0.072216310,0.934636831
102.505299,-4.304130554,3.744400024,-4.652526855,-0.059596252,-0.072216310,0.934636831
102.505957,-4.304130554,3.744400024,-4.652526855,-0.059596252,-0.072216310,0.934636831
102.544272,-3.083427429,8.688247681,-3.813293457,-0.043238830,-0.057079591,0.928289175
102.582756,-5.601127625,16.195571899,-1.310852051,-0.029200744,-0.105907716,0.977361441
102.597063,-7.172782898,17.202651978,-2.104309082,-0.024440002,-0.032055177,0.945623159
102.612528,-5.364616394,16.630447388,-0.227478027,-0.021876525,0.005420409,0.945745230
102.650964,0.258247375,6.346023560,-0.807312012,-0.035548400,-0.004467286,0.990300894
102.705580,-6.447990417,-2.069198608,7.165405273,-0.042628478,-0.086010255,0.995061636
102.719960,0.349800110,-17.099105835,-2.928283691,-0.063868716,-0.050976075,0.967962027
102.735454,2.287666321,-21.722518921,-1.081970215,-0.058253478,-0.113109864,0.983709097
102.773898,-4.952629089,-18.701278687,1.946899414,-0.078517154,-0.123852052,0.986150503
102.812368,1.906196594,-8.973800659,-3.790405273,-0.089747623,-0.111156739,0.969671011
102.826549,-0.321586609,3.202713013,-2.714660645,-0.089015201,-0.168773919,1.000798941
102.842042,-2.556999207,9.535110474,-2.707031250,-0.076930240,-0.145336419,1.000921011
102.896713,2.562324524,12.296951294,-1.440551758,-0.031886291,-0.112987794,1.038152456
102.935286,-2.564628601,6.880081177,1.908752441,-0.026148986,-0.089794435,1.040349722
102.949598,-3.136833191,3.492630005,0.604125977,-0.028468322,-0.075512208,1.027898550
102.965151,0.632087708,-5.143844604,-0.364807129,-0.029689025,-0.057079591,1.034856558
