time,gyro x,gyro y,gyro z,accel x,accel y,accel z
16.412450,-23.686981201,3.130424500,-0.038398743,-0.047676880,-0.242944211,0.627995491
16.432922,2.237701416,-1.958381653,-0.679267883,-0.121895626,-0.105370969,0.859318733
16.433548,2.809906006,-1.889717102,-0.831855774,-0.120430782,-0.103906125,0.856877327
16.434175,3.282928467,-1.912605286,-0.671638489,-0.118477657,-0.102563351,0.858098030
16.434800,4.106903076,-2.103340149,-0.976814270,-0.120919064,-0.098412961,0.858586311
16.435427,4.343414307,-1.958381653,-0.923408508,-0.121163204,-0.092675656,0.862492561
16.436053,4.900360107,-2.202522278,-1.159919739,-0.125191525,-0.092431515,0.864567757
16.436678,5.014801025,-2.393257141,-1.228584290,-0.118477657,-0.094140500,0.868474007
16.437305,5.449676514,-2.507698059,-1.228584290,-0.117012814,-0.092187375,0.869572639
16.437930,5.739593506,-2.896797180,-1.396430969,-0.118233517,-0.090356320,0.874333382
16.438556,6.098175049,-3.079902649,-1.343025208,-0.116280392,-0.089745969,0.880070686
16.439181,6.388092041,-3.690254211,-1.472724915,-0.114937618,-0.088525265,0.883488655
16.439807,6.945037842,-3.797065735,-1.579536438,-0.112740353,-0.086694211,0.884587288
16.440432,7.219696045,-4.079353333,-1.472724915,-0.112618282,-0.087304562,0.888249397
16.441058,7.624053955,-4.537117004,-1.747383118,-0.108223751,-0.092553586,0.891423225
16.441684,8.211517334,-4.834663391,-1.823677063,-0.108223751,-0.089623898,0.890934944
16.442309,8.402252197,-5.239021301,-1.938117981,-0.103585079,-0.089013547,0.895695686
16.442936,8.943939209,-5.635749817,-1.892341614,-0.099556759,-0.089257687,0.901555061
16.443561,9.294891357,-6.047737122,-1.793159485,-0.101876095,-0.088769406,0.901188850
16.444188,9.668731689,-6.284248352,-1.884712219,-0.099678829,-0.086450070,0.903264046
16.444813,10.149383545,-6.658088684,-2.105964661,-0.103585079,-0.088647336,0.907902718
16.445438,10.408782959,-6.856452942,-1.945747375,-0.100411251,-0.085961789,0.911198616
16.446065,10.759735107,-7.306587219,-2.197517395,-0.102242306,-0.084985226,0.917180061
16.446691,11.454010010,-7.314216614,-2.098335266,-0.098946407,-0.078271359,0.916203499
16.447317,11.812591553,-7.977973938,-2.105964661,-0.100045040,-0.078149289,0.923283577
16.447944,12.171173096,-8.039009094,-2.426399231,-0.103218868,-0.079369992,0.927556038
16.448571,12.422943115,-8.161079407,-2.388252258,-0.102120236,-0.074120969,0.932560921
16.449196,12.781524658,-8.534919739,-2.327217102,-0.101387814,-0.068994015,0.938664436
16.449823,12.941741943,-8.687507629,-2.395881653,-0.103218868,-0.068871945,0.944401741
16.450450,13.101959229,-9.091865540,-2.525581360,-0.104805782,-0.063744992,0.946965218
16.451076,13.338470459,-9.274971008,-2.533210754,-0.105294064,-0.059838746,0.950871468
16.451701,13.437652588,-9.541999817,-2.472175598,-0.107613400,-0.056664918,0.954655647
16.452327,13.574981689,-9.450447083,-2.479804993,-0.105049923,-0.056176636,0.959416389
16.452953,13.651275635,-9.961616516,-2.487434387,-0.106270626,-0.053613160,0.959538460
16.453580,13.712310791,-9.801399231,-2.548469543,-0.107735470,-0.053857300,0.965519905
16.454206,13.834381104,-10.083686829,-2.617134094,-0.104683712,-0.049706910,0.971379280
16.454831,13.613128662,-9.999763489,-2.762092590,-0.104805782,-0.048242066,0.975285530
16.455457,13.887786865,-10.121833801,-2.723945618,-0.104195431,-0.048119996,0.978581429
16.456084,13.658905029,-10.282051086,-2.731575012,-0.104073361,-0.046044800,0.984318733
16.456710,13.559722900,-10.175239563,-2.693428040,-0.106270626,-0.044335816,0.987126350
16.457337,13.521575928,-10.259162903,-2.769721985,-0.108101681,-0.043237183,0.993962288
16.457962,13.170623779,-10.228645325,-2.830757141,-0.105782345,-0.044457886,0.995671272
16.458588,13.117218018,-9.992134094,-3.013862610,-0.106148556,-0.042626832,1.003483772
16.459214,12.972259521,-9.976875305,-3.166450500,-0.104805782,-0.042504761,1.010441780
16.459840,12.560272217,-9.831916809,-3.082527161,-0.102852657,-0.044702027,1.012639046
16.460467,12.255096436,-9.641181946,-2.876533508,-0.108345821,-0.047875855,1.020939827
16.461094,12.056732178,-9.702217102,-3.082527161,-0.111519650,-0.048119996,1.032414436
16.461721,11.820220947,-9.694587708,-3.135932922,-0.108712032,-0.046533082,1.032780647
16.474944,3.725433350,-5.857002258,-3.097785950,-0.113716915,-0.098901242,1.074528694
16.475762,3.069305420,-5.307685852,-3.090156555,-0.114083126,-0.110986203,1.077824593
16.476389,2.626800537,-5.193244934,-3.158821106,-0.115547970,-0.114282101,1.073674202
16.477014,2.611541748,-4.918586731,-2.731575012,-0.116402462,-0.119164914,1.073430061
16.477641,2.214813232,-4.415046692,-2.792610168,-0.118111446,-0.122827023,1.071354866
16.478266,2.031707764,-4.125129700,-2.952827454,-0.118843868,-0.121484250,1.067326546
16.478893,1.711273193,-3.873359680,-2.685798645,-0.117012814,-0.122338742,1.069767952
16.479519,1.322174072,-3.606330872,-2.868904114,-0.118721798,-0.127465695,1.069279671
16.480145,0.978851318,-3.369819641,-2.670539856,-0.119942501,-0.130883664,1.066716194
16.480771,0.368499756,-3.148567200,-2.464546204,-0.121895626,-0.130273312,1.062687874
16.481397,0.261688232,-2.995979309,-2.601875305,-0.121041134,-0.132104367,1.063176155
16.482024,-0.081634521,-3.049385071,-2.510322571,-0.122505978,-0.132104367,1.062321663
16.482649,-0.653839111,-2.797615051,-2.441658020,-0.127755001,-0.134057492,1.057560921
16.483274,-0.875091553,-2.675544739,-2.243293762,-0.126168087,-0.135766476,1.052556038
16.483900,-1.378631592,-2.828132629,-2.495063782,-0.127144650,-0.139550656,1.048893929
16.484527,-1.851654053,-2.980720520,-2.105964661,-0.127999142,-0.142968625,1.047673225
16.485153,-2.217864990,-2.583992004,-2.166999817,-0.124825314,-0.144311398,1.042180061
16.485779,-2.492523193,-2.629768372,-2.067817688,-0.127632931,-0.141259640,1.039006233
16.486405,-2.858734131,-2.492439270,-2.029670715,-0.122628048,-0.145410031,1.039128304
16.487031,-3.270721436,-2.606880188,-1.945747375,-0.125923946,-0.148339719,1.037297249
16.487657,-3.690338135,-2.637397766,-2.083076477,-0.124703243,-0.150292844,1.037297249
16.488282,-3.827667236,-2.461921692,-1.831306458,-0.124703243,-0.148950070,1.033268929
16.488909,-4.170989990,-2.454292297,-1.785530090,-0.122017696,-0.153588742,1.027043343
16.489534,-4.468536377,-2.370368958,-1.533760071,-0.122383907,-0.153954953,1.027775764
16.490161,-4.819488525,-2.614509583,-1.747383118,-0.120919064,-0.156030148,1.025456429
16.490788,-5.010223389,-2.400886536,-1.549018860,-0.120308712,-0.155419797,1.026432991
16.491414,-5.590057373,-2.255928040,-1.312507629,-0.121529415,-0.155786008,1.022526741
16.492040,-5.727386475,-2.660285950,-1.457466125,-0.119210079,-0.155297726,1.022770882
16.492666,-6.063079834,-2.362739563,-1.388801575,-0.118111446,-0.155175656,1.022038460
16.493291,-6.497955322,-2.545845032,-1.289619446,-0.118111446,-0.160912961,1.020817757
16.493918,-6.490325928,-2.744209290,-1.159919739,-0.116036251,-0.155663937,1.023137093
16.494545,-7.123565674,-2.622138977,-0.808967590,-0.117989376,-0.154199094,1.021183968
16.495170,-7.230377197,-2.507698059,-0.931037903,-0.112252071,-0.157739133,1.018986702
16.495795,-7.695770264,-2.759468079,-0.931037903,-0.115303829,-0.153466672,1.022282600
16.496422,-7.993316650,-2.706062317,-0.610603333,-0.113106564,-0.157861203,1.022282600
16.497049,-8.435821533,-2.873908997,-0.587715149,-0.113106564,-0.158105344,1.019841194
16.497674,-8.748626709,-2.683174133,-0.664009094,-0.112007931,-0.157250851,1.018132210
16.498300,-9.084320068,-2.698432922,-0.442756653,-0.111275509,-0.156274289,1.018254280
16.498925,-9.511566162,-2.736579895,-0.396980286,-0.110909298,-0.157372922,1.020573616
16.499551,-9.786224365,-2.545845032,-0.526679993,-0.111153439,-0.158349484,1.022160530
16.500176,-10.289764404,-2.851020813,-0.114692688,-0.110543087,-0.159326047,1.021672249
16.500803,-10.289764404,-2.683174133,-0.091804504,-0.107735470,-0.157861203,1.019108772
16.501428,-10.839080811,-2.629768372,-0.137580872,-0.112007931,-0.159203976,1.022282600
16.502055,-11.319732666,-2.667915344,0.114189148,-0.107247189,-0.155908078,1.020451546
16.502680,-11.457061768,-2.477180481,0.083671570,-0.108223751,-0.159203976,1.024357796
16.503306,-11.556243896,-2.210151672,0.396476746,-0.108589962,-0.159203976,1.025090218
16.503931,-11.869049072,-2.011787415,0.373588562,-0.108467892,-0.160424680,1.025944710
16.518531,-10.717010498,3.260124207,1.296745300,-0.109200314,-0.168115109,0.988591194
16.519258,-10.388946533,3.130424500,1.403556824,-0.112374142,-0.145654172,0.986027718
16.519883,-10.678863525,3.572929382,1.563774109,-0.124092892,-0.137719601,0.983830452
16.520509,-10.892486572,3.077018738,1.350151062,-0.128853634,-0.136010617,0.991276741
16.521135,-11.312103271,3.031242371,1.388298035,-0.133736446,-0.134423703,0.999211311
16.521761,-11.792755127,2.779472351,1.533256531,-0.134590939,-0.126855344,0.990056038
16.522386,-11.800384521,2.176750183,1.373039246,-0.138008907,-0.142114133,1.000065804
16.523012,-11.678314209,1.284111023,1.449333191,-0.145211056,-0.154321164,1.010075569
16.523638,-11.540985107,0.910270691,1.556144714,-0.137398556,-0.140649289,1.009099007
16.524264,-12.143707275,0.528800964,1.525627136,-0.132271603,-0.125878781,0.987858772
16.524890,-12.670135498,0.444877625,1.426445007,-0.126168087,-0.116113156,0.964543343
16.525515,-13.249969482,0.521171570,1.579032898,-0.116646603,-0.119653195,0.943669319
16.526140,-13.822174072,0.650871277,1.685844421,-0.113472775,-0.137353390,0.935002327
16.526767,-13.448333740,0.956047058,1.327262878,-0.108956173,-0.160058469,0.936833382
16.527392,-12.784576416,1.474845886,1.746879578,-0.106636837,-0.175561398,0.939396858
16.528019,-11.830902100,1.535881042,1.647697449,-0.105294064,-0.179345578,0.932682991
16.528644,-10.701751709,2.024162292,1.601921082,-0.099922970,-0.168847531,0.933781624
16.529270,-10.037994385,2.298820496,1.670585632,-0.106270626,-0.158105344,0.935368538
16.529896,-9.542083740,2.398002625,1.701103210,-0.112252071,-0.145898312,0.939640999
16.530523,-9.542083740,2.581108093,1.609550476,-0.112252071,-0.128930539,0.934758186
16.531148,-9.954071045,2.542961121,1.685844421,-0.120186642,-0.122582883,0.936100960
16.532853,-9.633636475,1.406181335,1.731620789,-0.137154415,-0.133813351,0.971867561
16.533480,-9.717559814,0.971305847,1.746879578,-0.139351681,-0.131616086,0.967106819
16.534106,-9.816741943,0.483024597,1.601921082,-0.144112423,-0.127709836,0.970402718
16.534733,-9.786224365,-0.211250305,1.487480164,-0.141548946,-0.124413937,0.971745491
16.535358,-9.824371338,-0.600349426,1.502738953,-0.138863400,-0.125024289,0.974797249
16.535983,-10.114288330,-1.065742493,1.571403503,-0.132271603,-0.122460812,0.972233772
16.536609,-10.289764404,-1.546394348,1.716362000,-0.123604611,-0.118066281,0.956486702
16.537235,-10.602569580,-1.187812805,1.495109558,-0.113350704,-0.116967648,0.941227913
16.537862,-10.831451416,-1.142036438,1.464591980,-0.106026486,-0.123559445,0.929387093
16.538487,-10.739898682,-0.875007629,1.571403503,-0.105294064,-0.140649289,0.923039436
16.539113,-9.923553467,-0.554573059,1.510368347,-0.107857540,-0.154443234,0.927800179
16.539738,-9.069061279,-0.112068176,1.624809265,-0.108712032,-0.161157101,0.935490608
16.540363,-8.229827881,0.109184265,1.540885925,-0.105416134,-0.147363156,0.937565804
16.540988,-7.421112061,0.574577332,1.380668640,-0.108467892,-0.128198117,0.935734749
16.541613,-7.054901123,0.528800964,1.304374695,-0.111397579,-0.118188351,0.939030647
16.542238,-7.070159912,0.627983093,1.357780457,-0.116402462,-0.108911008,0.945012093
16.542864,-7.062530518,0.528800964,1.456962585,-0.119576290,-0.107446164,0.950016975
16.543490,-7.108306885,0.269401550,1.434074402,-0.124947384,-0.102563351,0.952580452
16.544115,-7.436370850,0.063407898,1.212821960,-0.125191525,-0.104150265,0.956364632
16.544740,-7.466888428,-0.096809387,1.350151062,-0.124825314,-0.104028195,0.954899788
16.545366,-7.825469971,-0.394355774,1.319633484,-0.119820431,-0.100488156,0.947819710
16.545991,-8.016204834,-0.165473938,1.312004089,-0.118111446,-0.100488156,0.946354866
16.546618,-7.855987549,-0.623237610,1.266227722,-0.120064571,-0.108544797,0.944767952
16.547245,-7.970428467,-0.943672180,1.235710144,-0.123482540,-0.118676633,0.957219124
16.547870,-7.489776611,-1.210700989,1.220451355,-0.122628048,-0.112817258,0.962712288
16.548496,-7.077789307,-1.355659485,0.953422546,-0.122750118,-0.107202023,0.965764046
16.549121,-6.917572021,-1.706611633,1.174674988,-0.118599728,-0.103295773,0.966496468
16.562074,-6.909942627,-1.584541321,0.419364929,-0.109566525,-0.097070187,0.967839241
16.562756,-7.138824463,-1.790534973,0.449882507,-0.106758907,-0.102807492,0.963566780
16.563383,-7.207489014,-1.592170715,0.343070984,-0.103096798,-0.104516476,0.958806038
16.564010,-6.917572021,-1.904975891,0.419364929,-0.098824337,-0.108056515,0.953068733
16.564635,-6.566619873,-1.332771301,0.259147644,-0.098580196,-0.107446164,0.950383186
16.565260,-6.284332275,-1.409065247,0.259147644,-0.092476681,-0.112939328,0.949040413
16.565886,-5.925750732,-1.111518860,0.228630066,-0.092354611,-0.114526242,0.946110725
16.566511,-5.559539795,-0.913154602,0.243888855,-0.093453243,-0.114648312,0.947819710
16.567138,-5.017852783,-0.905525208,0.335441589,-0.098824337,-0.113793820,0.948430061
16.567763,-4.727935791,-0.623237610,0.182853699,-0.100289181,-0.112328976,0.948552132
16.568388,-4.384613037,-0.745307922,0.091300964,-0.102852657,-0.110375851,0.955754280
16.569015,-4.125213623,-0.745307922,0.091300964,-0.103707150,-0.110497922,0.956730843
16.569642,-3.842926025,-0.836860657,0.045524597,-0.106148556,-0.107934445,0.961003304
16.570267,-3.583526611,-1.073371887,0.007377625,-0.108834103,-0.117333859,0.980168343
16.570892,-1.889801025,-1.904975891,-0.053657532,-0.148629025,-0.195336789,1.069279671
16.571518,1.001739502,-3.980171204,-0.557197571,-0.121529415,-0.121850461,1.091252327
16.572145,-1.287078857,-2.767097473,-0.313056946,-0.096016720,-0.000268433,1.008854866
16.572771,-4.186248779,-2.728950500,-0.206245422,-0.081978634,0.033667114,0.932927132
16.573397,-6.360626221,-2.942573547,-0.175727844,-0.081490353,-0.045800660,0.913884163
16.574024,-7.039642334,-2.873908997,-0.107063293,-0.076485470,-0.114648312,0.933903694
16.574650,-6.177520752,-1.981269836,-0.389350891,-0.076973751,-0.163842648,0.954899788
16.575288,-3.766632080,-1.035224915,-0.587715149,-0.079537228,-0.189721555,0.957463264
16.575915,-1.241302490,-0.501167297,-0.381721497,-0.076851681,-0.176782101,0.949284554
16.576540,0.574493408,-0.272285461,-0.358833313,-0.073677853,-0.134911984,0.940129280
16.577165,1.551055908,0.055778503,-0.641120911,-0.085762814,-0.100976437,0.940251350
16.577792,1.421356201,0.345695496,-0.587715149,-0.097603634,-0.082543820,0.947087288
16.578419,1.322174072,0.307548523,-0.602973938,-0.103340939,-0.080102414,0.954655647
16.579044,1.337432861,0.421989441,-0.808967590,-0.111275509,-0.082787961,0.967595100
16.579669,1.009368896,0.040519714,-0.595344543,-0.111885861,-0.086083859,0.979557991
16.580294,0.948333740,-0.447761536,-0.526679993,-0.115181759,-0.089990109,0.989323616
16.580919,0.841522217,-0.798713684,-0.725044250,-0.120186642,-0.091332883,0.994206429
16.581544,0.704193115,-1.348030090,-0.854743958,-0.119820431,-0.089013547,0.998600960
16.582170,0.559234619,-2.011787415,-0.549568176,-0.117134884,-0.081567258,0.998600960
16.582796,0.383758545,-2.309333801,-0.908149719,-0.118599728,-0.079369992,0.995182991
16.583422,-0.119781494,-2.492439270,-1.083625793,-0.115670040,-0.077538937,0.996891975
16.584047,-0.234222412,-3.041755676,-1.030220032,-0.104073361,-0.090478390,0.996647835
16.584673,-0.417327881,-3.293525696,-1.312507629,-0.098702267,-0.097680539,0.995549202
16.585299,-0.409698486,-3.278266907,-1.243843079,-0.091866329,-0.106957883,0.998600960
16.585926,0.025177002,-3.194343567,-1.053108215,-0.086861446,-0.113549680,0.991765022
16.586551,0.429534912,-3.293525696,-1.091255188,-0.086251095,-0.113549680,0.983952522
16.587178,0.597381592,-2.866279602,-1.175178528,-0.085518673,-0.113427609,0.974553108
16.587803,1.177215576,-2.606880188,-1.190437317,-0.091133907,-0.115258664,0.974431038
16.588429,1.764678955,-2.240669250,-1.251472473,-0.084664181,-0.114770383,0.979191780
16.589054,2.024078369,-1.943122864,-1.365913391,-0.083931759,-0.111352414,0.982121468
16.589680,2.313995361,-1.698982239,-1.503242493,-0.084053829,-0.115746945,0.988591194
16.590305,2.725982666,-1.416694641,-1.449836731,-0.085518673,-0.112817258,0.994084358
16.590930,2.977752686,-1.325141907,-1.350654602,-0.089546993,-0.108911008,0.999699593
16.603572,-1.012420654,-0.852119446,-1.915229797,-0.090523556,-0.093896359,1.023381233
16.604304,-1.515960693,-0.791084290,-1.816047668,-0.093087032,-0.094628781,1.023381233
16.604929,-1.653289795,-0.798713684,-1.922859192,-0.096138790,-0.091088742,1.024479866
16.605556,-2.294158936,-0.707160950,-1.808418274,-0.092232540,-0.092431515,1.026310921
16.606182,-2.652740479,-0.684272766,-1.869453430,-0.095894650,-0.094262570,1.027409554
16.606808,-2.927398682,-0.669013977,-1.861824036,-0.094429806,-0.092431515,1.030583382
16.607434,-3.636932373,-0.478279114,-1.846565247,-0.090645626,-0.090478390,1.033757210
16.608060,-4.018402100,-0.516426086,-1.961006165,-0.100289181,-0.089868039,1.034733772
16.608687,-4.499053955,-0.669013977,-1.938117981,-0.097115353,-0.092431515,1.041081429
16.609313,-5.178070068,-0.401985168,-1.945747375,-0.094185665,-0.093041867,1.047429085
16.609938,-5.406951904,-0.592720032,-1.877082825,-0.095772579,-0.097070187,1.051457405
16.610563,-5.971527100,-0.607978821,-1.869453430,-0.094673946,-0.100244015,1.048161507
16.611190,-6.276702881,-0.684272766,-1.930488586,-0.095284298,-0.101464719,1.047307014
16.611817,-6.543731689,-0.325691223,-1.861824036,-0.099312618,-0.109643430,1.049626350
16.612442,-6.558990479,-0.455390930,-1.739753723,-0.094307736,-0.118920773,1.057194710
16.613068,-7.024383545,-0.043403625,-1.961006165,-0.072945431,-0.121362180,1.047184944
16.613693,-6.795501709,0.460136414,-1.747383118,-0.070504025,-0.130883664,1.037419319
16.614318,-6.322479248,1.055229187,-1.480354309,-0.084297970,-0.141625851,1.041203499
16.614944,-5.971527100,1.062858582,-1.518501282,-0.094673946,-0.143090695,1.057927132
16.615569,-5.757904053,1.413810730,-1.617683411,-0.101265743,-0.116235226,1.071599007
16.616194,-6.261444092,2.069938660,-1.777900696,-0.091378048,-0.100976437,1.057072639
16.616820,-7.230377197,2.657402039,-1.762641907,-0.085396603,-0.090600461,1.039738655
16.617446,-7.665252686,2.916801453,-1.739753723,-0.085884884,-0.117822140,1.046086311
16.618073,-7.726287842,2.886283875,-1.564277649,-0.091378048,-0.140161008,1.067936897
16.618698,-7.588958740,2.947319031,-1.373542786,-0.105171993,-0.147851437,1.090764046
16.619323,-7.230377197,2.558219910,-1.358283997,-0.125313595,-0.147119015,1.102726936
16.619949,-6.978607178,2.253044128,-1.503242493,-0.133370236,-0.137597531,1.108708382
16.620574,-7.184600830,1.856315613,-1.602424622,-0.128609493,-0.120629758,1.107609749
16.621200,-7.787322998,1.268852234,-1.755012512,-0.113838986,-0.103539914,1.096989632
16.621827,-8.908843994,0.978935242,-1.381172180,-0.103218868,-0.095971555,1.088444710
16.622452,-10.243988037,1.093376160,-1.457466125,-0.087960079,-0.096215695,1.067814827
16.623077,-11.418914795,1.802909851,-1.205696106,-0.076119259,-0.104394406,1.041691780
16.623703,-12.227630615,2.184379578,-1.289619446,-0.071968868,-0.125756711,1.021428108
16.624328,-12.242889404,2.756584167,-1.228584290,-0.077828243,-0.169335812,1.020573616
16.624953,-10.755157471,3.160942078,-1.106513977,-0.085274532,-0.198998898,1.042546272
16.625578,-9.084320068,3.359306335,-1.060737610,-0.091378048,-0.199731320,1.065861702
16.626205,-7.215118408,3.458488464,-1.152290344,-0.101143673,-0.177880734,1.082097054
16.626830,-6.558990479,3.656852722,-1.213325500,-0.098946407,-0.138085812,1.083928108
16.627456,-6.803131104,3.412712097,-1.182807922,-0.103707150,-0.100610226,1.089055061
16.628081,-8.321380615,3.183830261,-1.098884583,-0.093331173,-0.057397339,1.078557014
16.628707,-10.449981689,3.168571472,-0.953926086,-0.097481564,-0.055444214,1.059880257
16.629334,-12.181854248,3.153312683,-0.915779114,-0.109200314,-0.104150265,1.069890022
16.629959,-11.884307861,2.108085632,-1.030220032,-0.113716915,-0.141992062,1.093327522
16.630584,-12.631988525,2.581108093,-0.992073059,-0.097115353,-0.119164914,1.058171272
16.631211,-13.013458252,2.985466003,-0.885261536,-0.098091915,-0.122094601,1.044621468
16.632952,-10.549163818,1.947868347,-1.053108215,-0.097359493,-0.129174680,1.098698616
16.633578,-10.709381104,2.565849304,-0.953926086,-0.092964962,-0.109521359,1.084294319
16.646214,-21.375274658,-0.058662415,-0.366462708,-0.118477657,-0.186913937,1.017643929
16.646929,-19.986724854,0.040519714,-0.328315735,-0.099312618,-0.182641476,1.017643929
16.647554,-18.384552002,0.795829773,-0.290168762,-0.077828243,-0.166406125,1.012150764
16.648181,-17.255401611,1.421440125,-0.107063293,-0.076119259,-0.146020383,1.002629280
16.648808,-17.461395264,2.451408386,-0.076545715,-0.078682736,-0.130273312,0.975651741
16.649435,-17.484283447,3.443229675,-0.023139954,-0.084786251,-0.145165890,0.971867561
16.650060,-16.538238525,4.106987000,-0.099433899,-0.099190548,-0.186181515,1.005070686
16.650686,-14.226531982,4.274833679,-0.168098450,-0.124581173,-0.231835812,1.076725960
16.651313,-12.090301514,4.618156433,-0.389350891,-0.108223751,-0.181909055,1.079411507
16.651938,-12.425994873,5.861747742,-0.274909973,-0.108956173,-0.105859250,1.049015999
16.652565,-12.662506104,5.899894714,-0.198616028,-0.120430782,-0.092065305,1.053044319
16.653191,-12.578582764,4.923332214,0.007377625,-0.147164181,-0.123437375,1.104313850
16.653817,-12.555694580,4.023063660,-0.374092102,-0.155464962,-0.132104367,1.141545296
16.654442,-11.983489990,3.489006042,-0.404609680,-0.180123165,-0.143578976,1.190861702
16.655068,-10.312652588,2.169120789,-0.816596985,-0.179268673,-0.159203976,1.230656624
16.655694,-9.618377686,1.215446472,-0.953926086,-0.144722775,-0.097558469,1.190739632
16.656320,-11.800384521,1.162040710,-0.923408508,-0.107613400,-0.028588746,1.128972054
16.656946,-13.379669189,1.253593445,-0.801338196,-0.094307736,-0.055322144,1.090886116
16.657571,-15.637969971,2.542961121,-1.198066711,-0.071724728,-0.067162961,1.033879280
16.658197,-17.881011963,4.419792175,-0.885261536,-0.055855591,-0.051171754,0.943547249
16.658823,-19.673919678,7.502067566,-0.915779114,-0.023384888,-0.107202023,0.883610725
16.659450,-17.804718018,9.500968933,-0.625862122,-0.040352661,-0.217797726,0.896794319
16.660075,-13.867950439,11.423576355,-0.541938782,-0.051949341,-0.296655148,0.938542366
16.660702,-8.786773682,12.644279480,-0.839485168,-0.085762814,-0.299584836,0.991276741
16.661328,-4.254913330,13.376701355,-0.793708801,-0.089913204,-0.226098508,1.000187874
16.661953,-1.767730713,14.093864441,-1.037849426,-0.121163204,-0.146996945,1.016545296
16.662580,-0.829315186,13.544548035,-0.900520325,-0.123116329,-0.055200074,1.031071663
16.663207,-2.797698975,13.102043152,-1.098884583,-0.148751095,-0.006616089,1.043522835
16.663832,-5.231475830,11.423576355,-0.946296692,-0.195137814,-0.010278199,1.090397835
16.681812,-17.377471924,2.733695984,-1.014961243,-0.098336056,-0.069970578,1.035222054
16.682439,-17.751312256,2.184379578,-0.900520325,-0.086861446,-0.070214719,1.030339241
16.683066,-18.392181396,1.734245300,-0.755561829,-0.083321407,-0.079736203,1.019841194
16.683691,-19.216156006,2.481925964,-0.755561829,-0.072090939,-0.088036984,1.012516975
16.684316,-19.254302979,2.771842957,-0.137580872,-0.088082150,-0.106835812,1.044011116
16.684941,-17.804718018,2.840507507,0.037895203,-0.095650509,-0.141747922,1.057438850
16.685566,-16.645050049,3.107536316,0.060783386,-0.098946407,-0.129052609,1.088688850
16.686192,-15.210723877,3.382194519,0.167594910,-0.068550900,-0.112817258,1.077336311
16.686818,-16.919708252,4.602897644,-0.656379700,-0.056832153,-0.044457886,1.014714241
16.687444,-19.971466064,5.983818054,-1.228584290,-0.037422974,0.010595825,0.939030647
16.688070,-22.191619873,7.326591492,-0.786079407,-0.048409302,-0.024926636,0.955510139
16.688696,-21.985626221,8.112419128,-0.931037903,-0.077950314,-0.125878781,1.016911507
16.689321,-20.253753662,9.363639832,-1.205696106,-0.081368282,-0.140649289,1.043034554
16.689947,-20.230865479,10.912406921,-1.159919739,-0.117867306,-0.107568234,1.001286507
16.690572,-21.863555908,11.675346375,-0.969184875,-0.122383907,-0.080102414,0.940251350
16.691197,-15.477752686,7.189262390,-0.854743958,-0.284005016,-0.412133664,1.317570686
16.691822,-6.024932861,1.551139832,-1.457466125,-0.208931759,-0.293115109,1.451237679
16.692448,-7.588958740,3.122795105,-2.174629211,-0.156929806,0.030859496,1.413762093
16.693075,-12.143707275,2.329338074,-2.151741028,-0.116158321,0.227392703,1.230534554
16.705769,-84.218597412,36.249626160,0.045524597,0.104300663,0.833227634,-0.314387321
16.706533,-69.272613525,24.157035828,1.670585632,-0.239693478,-0.994164944,0.540471077
16.707159,-46.781158447,32.015312195,0.373588562,-0.211495236,-1.055932522,0.842961311
16.707785,-24.434661865,36.943901062,0.556694031,-0.148995236,-0.754785061,0.764592171
16.708410,-12.670135498,34.342277527,0.983940125,-0.167427853,-0.331689328,0.588688850
16.709036,-12.807464600,28.589714050,2.578483582,-0.215279415,0.121923953,0.537663460
16.709661,-21.375274658,21.959770203,2.074943542,-0.395333141,0.254858524,0.654484749
16.710287,-32.643890381,14.910209656,0.243888855,-0.514107525,0.208471805,0.833439827
16.710914,-42.752838135,9.745109558,-0.129951477,-0.472969860,0.103247195,0.966252327
16.711539,-50.214385986,3.855216980,0.289665222,-0.361031383,0.004248168,0.989567757
16.712165,-56.264495850,-3.018867493,0.823722839,-0.269844860,-0.092553586,0.958195686
16.712790,-61.269378662,-8.283149719,1.617179871,-0.214791134,-0.161157101,0.918156624
16.713417,-63.993072510,-10.877143860,1.777397156,-0.190132931,-0.239282101,0.865788460
16.714042,-64.061737061,-12.235176086,1.098381042,-0.147042111,-0.318749875,0.804631233
16.714667,-61.925506592,-11.868965149,0.884757996,-0.092232540,-0.391015500,0.760075569
16.715292,-57.874298096,-10.236274719,0.739799500,-0.041695435,-0.451440305,0.736393929
16.715918,-53.136444092,-8.084785461,0.709281921,-0.007271606,-0.487695187,0.723942757
16.716545,-48.497772217,-5.345832825,0.648246765,0.019217651,-0.487695187,0.743718147
16.717171,-43.576812744,-2.088081360,1.029716492,0.031790894,-0.480004758,0.768132210
16.717797,-38.671112061,0.902641296,1.487480164,0.021048706,-0.475610226,0.788762093
16.718423,-33.757781982,3.717887878,1.655326843,-0.012764771,-0.451562375,0.805119514
16.719050,-29.721832275,5.777824402,1.579032898,-0.056221802,-0.398217648,0.815495491
16.719677,-26.067352295,6.380546570,1.456962585,-0.102486446,-0.337304562,0.840764046
16.720303,-24.030303955,7.196891785,1.434074402,-0.140938595,-0.280786008,0.875676155
16.720929,-22.145843506,7.212150574,1.106010437,-0.166085079,-0.240258664,0.899479866
16.721555,-21.627044678,6.273735046,0.571952820,-0.173165157,-0.271142453,0.927922249
16.722180,-20.368194580,5.976188660,0.022636414,-0.187569454,-0.223412961,0.876408577
16.722806,-17.644500732,5.716789246,2.853141785,-0.153389767,-0.164330930,0.879094124
16.723433,-16.843414307,4.976737976,1.693473816,-0.152535275,-0.190698117,0.888737679
16.724059,-17.659759521,3.237236023,0.678764343,-0.205269650,-0.161523312,0.910832405
16.724684,-16.965484619,2.787101746,1.044975281,-0.217110470,-0.168237180,0.900456429
16.725311,-15.424346924,2.565849304,-0.343574524,-0.206856564,-0.190942258,0.896306038
16.725938,-13.951873779,2.207267761,-0.107063293,-0.182320431,-0.196313351,0.885441780
16.726563,-13.135528564,1.322257996,0.236259460,-0.144600704,-0.219872922,0.878117561
16.727188,-11.960601807,1.223075867,-0.358833313,-0.133248165,-0.180322140,0.873112679
16.727815,-10.381317139,2.359855652,0.137077332,-0.106880978,-0.168359250,0.855656624
16.728440,-8.954620361,3.694999695,0.015007019,-0.117012814,-0.198144406,0.837834358
16.729065,-7.344818115,4.290092468,-0.198616028,-0.118355587,-0.205346555,0.833195686
16.729690,-5.582427979,4.786003113,-0.694526672,-0.119210079,-0.195336789,0.839787483
16.730315,-3.804779053,6.159294128,-0.755561829,-0.122750118,-0.192895383,0.845402718
16.730941,-1.737213135,7.090080261,-1.213325500,-0.129830196,-0.205712765,0.848332405
16.731567,-0.096893311,7.532585144,-1.373542786,-0.138375118,-0.195336789,0.863102913
16.733302,2.336883545,7.387626648,-1.571907043,-0.153755978,-0.185082883,0.884343147
16.733929,3.160858154,7.334220886,-1.495613098,-0.159249142,-0.182397336,0.890202522
16.734556,3.885650635,6.662834167,-1.434577942,-0.163643673,-0.169457883,0.892765999
16.735181,4.267120361,6.388175964,-1.732124329,-0.169258907,-0.166528195,0.891789436
16.735806,4.915618896,5.877006531,-2.105964661,-0.173409298,-0.173486203,0.890202522
16.748402,23.737335205,-1.126777649,-3.067268372,-0.108467892,-0.167138547,0.863347054
16.749095,24.050140381,-1.904975891,-2.975715637,-0.103463009,-0.166284055,0.860417366
16.749721,24.355316162,-2.454292297,-2.899421692,-0.100655392,-0.161035031,0.863102913
16.750348,24.584197998,-2.606880188,-3.135932922,-0.095406368,-0.157983273,0.865422249
16.750973,24.492645264,-3.064643860,-3.113044739,-0.092598751,-0.154077023,0.868962288
16.751599,24.309539795,-3.339302063,-3.006233215,-0.093087032,-0.149072140,0.877140999
16.752226,24.111175537,-3.766548157,-2.868904114,-0.090401486,-0.149316281,0.883366585
16.752852,23.767852783,-3.995429993,-2.937568665,-0.090157345,-0.143945187,0.888737679
16.753478,23.600006104,-4.163276672,-2.830757141,-0.093575314,-0.143456906,0.894841194
16.754103,23.126983643,-4.674446106,-2.914680481,-0.095040157,-0.145776242,0.902897835
16.754728,22.547149658,-4.811775208,-2.937568665,-0.099800900,-0.147973508,0.906926155
16.755355,22.409820557,-5.155097961,-2.624763489,-0.097115353,-0.144555539,0.913884163
16.755980,21.601104736,-5.315315247,-2.609504700,-0.097359493,-0.140893430,0.920475960
16.756605,21.204376221,-5.574714661,-2.632392883,-0.100045040,-0.142724484,0.930485725
16.757231,20.304107666,-5.605232239,-2.388252258,-0.099922970,-0.141503781,0.936345100
16.757858,19.594573975,-5.925666809,-2.342475891,-0.100899532,-0.142114133,0.946965218
16.758484,18.984222412,-6.032478333,-2.395881653,-0.100411251,-0.141381711,0.959782600
16.759111,18.076324463,-5.948554993,-2.342475891,-0.102608517,-0.142236203,0.961735725
16.759736,17.397308350,-6.223213196,-2.060188293,-0.105171993,-0.143578976,0.967961311
16.760361,16.603851318,-6.223213196,-2.166999817,-0.106270626,-0.140527219,0.976628304
16.760986,15.627288818,-6.330024719,-1.892341614,-0.106880978,-0.143823117,0.978947639
16.761611,14.665985107,-6.497871399,-1.861824036,-0.106270626,-0.141625851,0.982975960
16.762238,13.590240479,-6.589424133,-1.716865540,-0.106270626,-0.141747922,0.991032600
16.762864,12.682342529,-6.742012024,-1.648200989,-0.108223751,-0.143578976,0.995549202
16.763490,11.804962158,-6.581794739,-1.426948547,-0.107857540,-0.145410031,1.005925179
16.764117,10.698699951,-6.688606262,-1.434577942,-0.107735470,-0.150170773,1.010197639
16.764744,9.531402588,-6.505500793,-1.304878235,-0.102974728,-0.150170773,1.017155647
16.765371,8.615875244,-6.513130188,-1.274360657,-0.102974728,-0.154687375,1.020695686
16.765996,7.746124268,-6.360542297,-1.167549133,-0.104927853,-0.158105344,1.029484749
16.766622,6.945037842,-6.352912903,-0.847114563,-0.102730587,-0.160668820,1.033146858
16.767249,5.731964111,-5.933296204,-0.862373352,-0.103707150,-0.157983273,1.040837288
16.767874,4.724884033,-5.864631653,-0.755561829,-0.106636837,-0.155053586,1.040593147
16.768500,3.862762451,-5.857002258,-0.435127258,-0.108834103,-0.158837765,1.045598030
16.769127,2.535247803,-5.361091614,-0.450386047,-0.111397579,-0.159203976,1.056096077
16.769753,1.512908936,-5.239021301,-0.480903625,-0.107125118,-0.163720578,1.059147835
16.770378,0.391387939,-5.361091614,-0.175727844,-0.107491329,-0.170800656,1.060368538
16.771010,-0.653839111,-5.055915833,0.037895203,-0.105294064,-0.175561398,1.057682991
16.771636,-1.187896729,-4.880439758,0.091300964,-0.107125118,-0.175927609,1.058659554
16.772332,-2.011871338,-4.682075500,-0.038398743,-0.108589962,-0.188989133,1.057560921
16.772959,-2.782440186,-4.216682434,0.335441589,-0.110421017,-0.185937375,1.060856819
16.773631,-3.629302979,-4.033576965,0.457511902,-0.108712032,-0.187646359,1.060368538
16.774376,-4.361724854,-3.652107239,0.549064636,-0.110543087,-0.190209836,1.058903694
16.775132,-5.704498291,-2.835762024,0.884757996,-0.114205196,-0.192651242,1.062565804
16.775904,-6.322479248,-2.835762024,0.922904968,-0.114449337,-0.193505734,1.059147835
16.776688,-6.795501709,-2.706062317,1.182304382,-0.117867306,-0.193139523,1.062565804
16.777471,-7.352447510,-2.118598938,1.250968933,-0.121529415,-0.191796750,1.059880257
16.778097,-8.206939697,-2.011787415,1.304374695,-0.125923946,-0.190331906,1.059269905
16.790826,-18.659210205,0.124443054,3.127799988,-0.138497189,-0.160790890,1.003483772
16.791608,-18.918609619,0.421989441,3.165946960,-0.136177853,-0.147607297,0.995427132
16.792234,-19.063568115,0.627983093,3.005729675,-0.135079220,-0.140283078,0.985417366
16.792861,-19.483184814,0.833976746,3.265129089,-0.137886837,-0.143578976,0.977238655
16.793486,-19.719696045,1.062858582,3.082023621,-0.133126095,-0.147973508,0.976628304
16.794113,-19.612884521,1.200187683,3.196464539,-0.130928829,-0.155541867,0.973942757
16.794739,-19.048309326,1.574028015,2.998100281,-0.134468868,-0.157861203,0.974431038
16.795365,-18.460845947,1.505363464,2.929435730,-0.137520626,-0.153710812,0.970280647
16.795990,-18.552398682,1.604545593,2.845512390,-0.141060665,-0.149438351,0.966374397
16.796615,-17.850494385,1.978385925,2.814994812,-0.143502071,-0.142480344,0.964299202
16.797241,-17.629241943,1.627433777,2.868400574,-0.143868282,-0.136132687,0.963444710
16.797868,-17.430877686,1.688468933,2.937065125,-0.144600704,-0.129052609,0.963566780
16.798493,-17.041778564,1.711357117,2.609001160,-0.142525509,-0.128198117,0.963932991
16.799120,-17.240142822,1.528251648,2.692924500,-0.141304806,-0.130029172,0.962468147
16.799747,-16.744232178,1.429069519,2.593742371,-0.143990353,-0.129052609,0.960026741
16.800372,-16.538238525,1.406181335,2.609001160,-0.146187618,-0.126489133,0.953068733
16.800998,-16.217803955,1.284111023,2.547966003,-0.145943478,-0.125512570,0.951481819
16.801624,-15.828704834,0.956047058,2.471672058,-0.143624142,-0.121606320,0.941960335
16.802249,-15.058135986,0.994194031,2.250419617,-0.144966915,-0.117455930,0.938054085
16.802876,-14.760589600,0.765312195,2.341972351,-0.144600704,-0.120507687,0.937321663
16.803502,-14.470672607,0.605094910,2.181755066,-0.144478634,-0.117822140,0.934147835
16.804127,-13.814544678,0.483024597,2.120719910,-0.141060665,-0.120019406,0.934269905
16.804752,-13.455963135,0.483024597,1.861320496,-0.142891720,-0.121118039,0.931706429
16.805377,-12.845611572,0.223625183,1.891838074,-0.138863400,-0.119286984,0.932927132
16.806010,-12.380218506,0.116813660,1.563774109,-0.137520626,-0.117578000,0.933293343
16.806635,-12.136077881,0.055778503,1.571403503,-0.140206173,-0.114526242,0.932072639
16.807262,-11.602020264,0.086296082,1.220451355,-0.139107540,-0.119531125,0.932805061
16.807887,-11.083221436,-0.134956360,1.235710144,-0.135079220,-0.118066281,0.930851936
16.808513,-10.495758057,-0.081550598,0.922904968,-0.136544064,-0.114892453,0.931584358
16.809138,-9.976959229,-0.073921204,0.976310730,-0.136055782,-0.113793820,0.931218147
16.809764,-9.343719482,0.002372742,1.037345886,-0.138863400,-0.111230344,0.930974007
16.810389,-9.114837646,-0.081550598,0.983940125,-0.139107540,-0.111962765,0.927922249
16.811014,-8.550262451,-0.272285461,0.800834656,-0.139107540,-0.110375851,0.928776741
16.811640,-8.046722412,-0.241767883,0.610099792,-0.140206173,-0.107446164,0.928898811
16.812266,-7.703399658,-0.325691223,0.541435242,-0.135689571,-0.106835812,0.929997444
16.812892,-7.512664795,-0.363838196,0.335441589,-0.136788204,-0.105981320,0.928410530
16.813638,-7.100677490,-0.447761536,0.358329773,-0.131661251,-0.104638547,0.926579475
16.814365,-6.734466553,-0.501167297,0.297294617,-0.131539181,-0.104516476,0.929875374
16.815078,-6.192779541,-0.669013977,0.068412781,-0.130074337,-0.105981320,0.929387093
16.815842,-5.872344971,-0.302803040,0.030265808,-0.130318478,-0.102319211,0.928288460
16.816617,-5.498504639,-0.562202454,-0.007881165,-0.126412228,-0.101098508,0.924992561
16.817297,-5.628204346,-0.554573059,-0.396980286,-0.122628048,-0.096215695,0.922062874
16.817922,-5.597686768,-0.516426086,-0.236763000,-0.120064571,-0.101098508,0.917790413
16.818547,-5.368804932,-0.638496399,-0.335945129,-0.125191525,-0.103295773,0.914372444
16.819173,-5.101776123,-0.638496399,-0.313056946,-0.129463986,-0.107079953,0.917302132
16.819798,-5.063629150,-0.348579407,-0.671638489,-0.124703243,-0.107202023,0.914860725
16.820425,-4.766082764,-0.936042786,-0.656379700,-0.148751095,-0.137719601,0.928044319
16.821050,-3.461456299,-2.004158020,-0.625862122,-0.208321407,-0.180200070,0.966862679
16.834782,-10.068511963,-6.330024719,-1.648200989,-0.098213986,-0.115380734,0.931096077
16.835477,-9.374237061,-6.253730774,-1.640571594,-0.092842892,-0.127709836,0.929387093
16.836103,-8.962249756,-6.268989563,-1.808418274,-0.089302853,-0.134667844,0.926945686
16.836729,-8.214569092,-5.651008606,-1.747383118,-0.090401486,-0.145287961,0.928166389
16.837354,-7.306671143,-5.223762512,-1.739753723,-0.086129025,-0.152245969,0.933049202
16.837979,-6.314849854,-4.758369446,-1.701606750,-0.086617306,-0.158593625,0.938298225
16.838605,-5.284881592,-4.315864563,-2.052558899,-0.091866329,-0.156884640,0.946354866
16.839231,-4.544830322,-3.858100891,-2.098335266,-0.098336056,-0.158227414,0.947697639
16.839856,-3.484344482,-3.667366028,-1.953376770,-0.101754025,-0.153222531,0.956608772
16.840482,-2.896881104,-3.652107239,-2.182258606,-0.108101681,-0.149316281,0.963200569
16.841107,-2.164459229,-3.331672668,-2.083076477,-0.111519650,-0.147485226,0.961979866
16.841733,-1.615142822,-3.446113586,-2.189888000,-0.120186642,-0.148095578,0.962346077
16.842359,-1.432037354,-3.537666321,-2.289070129,-0.116280392,-0.147119015,0.960392952
16.842985,-0.661468506,-3.766548157,-2.365364075,-0.119576290,-0.149682492,0.958439827
16.843610,-0.348663330,-3.446113586,-2.418769836,-0.122383907,-0.151879758,0.960148811
16.844237,0.170135498,-3.720771790,-2.609504700,-0.125923946,-0.154443234,0.958439827
16.844863,0.734710693,-3.827583313,-2.563728333,-0.126046017,-0.158227414,0.949284554
16.845489,1.367950439,-3.873359680,-2.571357727,-0.125679806,-0.161157101,0.946843147
16.846115,1.978302002,-4.010688782,-2.792610168,-0.126534298,-0.164941281,0.945866585
16.846742,2.397918701,-3.896247864,-2.723945618,-0.126778439,-0.167748898,0.941105843
16.847368,2.954864502,-3.957283020,-2.853645325,-0.124214962,-0.169213742,0.942570686
16.847994,3.649139404,-3.789436340,-2.670539856,-0.130684689,-0.169824094,0.940495491
16.848621,4.084014893,-4.025947571,-2.800239563,-0.132515743,-0.171166867,0.937932014
16.849247,4.572296143,-3.957283020,-2.975715637,-0.135689571,-0.169579953,0.940373421
16.849872,5.037689209,-3.896247864,-2.891792297,-0.137642696,-0.169702023,0.938786507
16.850497,5.373382568,-4.193794250,-2.990974426,-0.140084103,-0.169213742,0.940739632
16.851124,5.632781982,-4.300605774,-3.250373840,-0.142037228,-0.169824094,0.943303108
16.851750,5.998992920,-4.567634583,-3.158821106,-0.142647579,-0.173119992,0.944401741
16.852376,6.410980225,-4.605781555,-3.113044739,-0.146553829,-0.175439328,0.946232796
16.853008,6.838226318,-5.017768860,-3.097785950,-0.148018673,-0.178246945,0.944279671
16.853633,6.945037842,-5.193244934,-3.189338684,-0.150948361,-0.178613156,0.945866585
16.854258,7.151031494,-5.231391907,-3.311408997,-0.145455196,-0.181054562,0.946965218
16.854885,7.570648193,-5.536567688,-3.044380188,-0.146553829,-0.184716672,0.945622444
16.855510,7.898712158,-5.773078918,-3.143562317,-0.146309689,-0.186669797,0.949772835
16.856137,8.074188232,-6.017219543,-3.128303528,-0.143990353,-0.191308469,0.947453499
16.856764,8.676910400,-6.078254700,-3.364814758,-0.141793087,-0.192529172,0.950261116
16.857389,8.707427979,-6.139289856,-3.280891418,-0.140816525,-0.191674680,0.955510139
16.858016,9.188079834,-5.834114075,-3.097785950,-0.138008907,-0.194726437,0.954045296
16.858642,9.806060791,-6.040107727,-3.151191711,-0.136788204,-0.196313351,0.955143929
16.859268,9.821319580,-6.009590149,-3.311408997,-0.136055782,-0.194482297,0.955632210
16.859895,10.317230225,-6.337654114,-3.471626282,-0.136421993,-0.195580930,0.955998421
16.860520,10.576629639,-6.360542297,-3.525032043,-0.137398556,-0.195458859,0.958317757
16.861147,10.889434814,-6.276618958,-3.555549622,-0.137886837,-0.201318234,0.957097054
16.861774,11.248016357,-6.551277161,-3.296150208,-0.136177853,-0.198022336,0.958561897
16.862401,11.660003662,-6.642829895,-3.479255676,-0.136177853,-0.199609250,0.959660530
16.863026,11.690521240,-6.711494446,-3.288520813,-0.136421993,-0.200829953,0.963200569
16.863651,11.873626709,-6.543647766,-3.288520813,-0.132027462,-0.200585812,0.963078499
16.876294,6.082916260,-4.819404602,-2.189888000,-0.132393673,-0.203515500,0.998356819
16.877008,5.785369873,-4.605781555,-2.159370422,-0.131417111,-0.200341672,0.997624397
16.877634,4.808807373,-4.636299133,-1.869453430,-0.134346798,-0.197411984,0.998478889
16.878261,4.061126709,-4.453193665,-2.022041321,-0.126412228,-0.204369992,1.000554085
16.878886,3.328704834,-4.247200012,-1.938117981,-0.126778439,-0.202905148,1.000065804
16.879511,2.672576904,-4.064094543,-1.655830383,-0.127388790,-0.201562375,0.999211311
16.880136,1.779937744,-4.003059387,-1.777900696,-0.127632931,-0.200952023,0.998478889
16.880762,0.856781006,-3.758918762,-1.442207336,-0.126290157,-0.204247922,0.997624397
16.881387,0.391387939,-3.423225403,-1.167549133,-0.127266720,-0.202538937,0.989567757
16.882018,-0.524139404,-3.629219055,-1.091255188,-0.123848751,-0.203515500,0.992619514
16.882662,-1.210784912,-3.728401184,-1.060737610,-0.126656368,-0.202661008,0.993229866
16.883288,-2.004241943,-3.644477844,-0.664009094,-0.124337032,-0.203637570,0.991398811
16.883913,-2.629852295,-3.636848450,-0.839485168,-0.125557736,-0.204247922,0.990178108
16.884540,-3.102874756,-3.362190247,-0.793708801,-0.122505978,-0.208764523,0.994450569
16.885165,-3.873443604,-3.385078430,-0.465644836,-0.119088009,-0.205224484,0.992253304
16.885790,-4.422760010,-3.263008118,-0.480903625,-0.116524532,-0.209374875,0.994328499
16.886417,-5.025482178,-3.446113586,-0.221504211,-0.118355587,-0.213403195,0.992863655
16.887044,-5.605316162,-3.240119934,-0.252021790,-0.115303829,-0.211450070,0.992863655
16.887669,-6.429290771,-3.171455383,-0.023139954,-0.114083126,-0.210107297,0.995427132
16.888295,-6.742095947,-3.217231750,-0.107063293,-0.112862423,-0.209008664,0.996525764
16.888920,-7.169342041,-2.995979309,0.320182800,-0.110543087,-0.223412961,0.992741585
16.889546,-7.634735107,-3.209602356,0.404106140,-0.113350704,-0.224633664,0.998600960
16.890172,-8.023834229,-3.522407532,0.411735535,-0.117256954,-0.207910031,0.995182991
16.890797,-8.130645752,-3.110420227,0.388847351,-0.114083126,-0.215844601,0.990788460
16.891422,-8.374786377,-3.240119934,0.282035828,-0.117501095,-0.221093625,1.001652718
16.892047,-8.733367920,-3.316413879,0.465141296,-0.111397579,-0.212670773,1.002507210
16.892674,-8.794403076,-3.423225403,0.846611023,-0.109566525,-0.218163937,0.994816780
16.893299,-9.252166748,-3.499519348,0.686393738,-0.116890743,-0.223290890,1.000432014
16.893925,-9.275054932,-3.644477844,0.663505554,-0.121163204,-0.215966672,1.004948616
16.894550,-9.458160400,-3.736030579,0.930534363,-0.113228634,-0.216332883,1.005925179
16.895176,-9.358978271,-3.530036926,0.869499207,-0.121407345,-0.222070187,1.005681038
16.895802,-9.450531006,-3.797065735,0.739799500,-0.119576290,-0.218041867,1.006047249
16.896427,-9.290313721,-3.827583313,1.167045593,-0.118843868,-0.215722531,1.008976936
16.897053,-9.397125244,-3.880989075,1.136528015,-0.118233517,-0.216699094,1.008244514
16.897679,-9.290313721,-3.842842102,1.098381042,-0.118721798,-0.217919797,1.005803108
16.898305,-8.992767334,-4.071723938,1.312004089,-0.122139767,-0.217919797,1.003972054
16.898930,-8.672332764,-3.728401184,1.075492859,-0.121163204,-0.217187375,1.007145882
16.899555,-8.466339111,-3.865730286,1.243339539,-0.122750118,-0.213647336,1.006535530
16.900181,-8.084869385,-4.033576965,1.250968933,-0.121041134,-0.218041867,1.006047249
16.900808,-7.909393311,-3.674995422,1.075492859,-0.123238400,-0.212548703,1.007145882
16.901434,-7.665252686,-3.568183899,1.312004089,-0.120796993,-0.209985226,1.008244514
16.902059,-7.329559326,-3.591072083,1.441703796,-0.121895626,-0.207421750,1.007145882
16.902685,-7.054901123,-3.652107239,1.250968933,-0.123360470,-0.203637570,1.011296272
16.903310,-6.719207764,-3.621589661,1.395927429,-0.124459103,-0.201562375,1.010319710
16.903935,-6.520843506,-3.674995422,1.144157410,-0.122139767,-0.201562375,1.008610725
16.904561,-6.009674072,-3.644477844,1.212821960,-0.124459103,-0.201928586,1.010441780
16.905186,-5.941009521,-3.484260559,1.350151062,-0.125313595,-0.197289914,1.010807991
16.905813,-5.475616455,-3.217231750,1.151786804,-0.122628048,-0.201806515,1.010075569
16.936957,4.511260986,-1.126777649,1.495109558,-0.112618282,-0.187890500,0.979802132
16.937680,4.740142822,-1.248847961,1.479850769,-0.111885861,-0.190942258,0.981755257
16.938306,4.839324951,-0.905525208,1.571403503,-0.114083126,-0.191674680,0.978703499
16.938931,4.907989502,-1.294624329,1.525627136,-0.112374142,-0.193749875,0.979680061
16.939558,5.182647705,-1.035224915,1.708732605,-0.111031368,-0.188622922,0.979557991
16.940183,5.319976807,-0.951301575,1.304374695,-0.106880978,-0.189721555,0.978947639
16.940809,5.175018311,-1.119148254,1.571403503,-0.105171993,-0.187646359,0.982121468
16.941434,5.037689209,-0.913154602,1.624809265,-0.108223751,-0.189721555,0.981266975
16.942059,5.358123779,-0.745307922,1.731620789,-0.107003048,-0.191430539,0.980534554
16.942684,5.243682861,-0.844490051,1.723991394,-0.106514767,-0.188867062,0.976262093
16.943309,5.335235596,-0.707160950,1.762138367,-0.104805782,-0.188134640,0.976384163
16.943935,5.426788330,-0.905525208,1.914726257,-0.102852657,-0.187646359,0.978337288
16.944562,5.266571045,-0.806343079,1.777397156,-0.100289181,-0.185327023,0.978703499
16.945188,5.312347412,-0.844490051,1.876579285,-0.103218868,-0.183129758,0.974064827
16.945815,5.411529541,-0.722419739,1.853691101,-0.104561642,-0.183740109,0.974064827
16.946441,5.480194092,-0.623237610,2.090202332,-0.103096798,-0.186913937,0.975041389
16.947066,5.609893799,-0.745307922,1.846061707,-0.104683712,-0.181542844,0.974919319
16.947691,5.442047119,-0.760566711,1.754508972,-0.107247189,-0.182519406,0.972355843
16.948316,5.625152588,-0.882637024,2.006278992,-0.104805782,-0.177758664,0.971745491
16.948941,5.587005615,-0.981819153,2.097831726,-0.103096798,-0.178124875,0.970036507
16.949567,5.457305908,-0.966560364,1.998649597,-0.105904415,-0.176782101,0.968815804
16.950193,5.663299561,-1.073371887,2.036796570,-0.107247189,-0.172509640,0.964909554
16.950819,5.472564697,-1.157295227,2.151237488,-0.109078243,-0.168481320,0.958561897
16.951444,5.472564697,-1.378547668,2.158866882,-0.110421017,-0.171166867,0.955754280
16.952070,5.617523193,-1.348030090,2.067314148,-0.112862423,-0.170556515,0.951481819
16.952695,5.960845947,-1.470100403,2.151237488,-0.111031368,-0.173119992,0.951725960
16.953321,6.052398682,-1.248847961,2.036796570,-0.111397579,-0.171166867,0.953679085
16.953948,6.159210205,-1.584541321,2.227531433,-0.107003048,-0.171288937,0.953679085
16.954574,6.502532959,-1.531135559,2.151237488,-0.107613400,-0.168969601,0.954167366
16.955199,6.807708740,-1.729499817,1.998649597,-0.108101681,-0.171288937,0.954045296
16.955825,6.845855713,-1.584541321,2.242790222,-0.110543087,-0.173364133,0.957097054
16.956452,7.120513916,-1.760017395,2.135978699,-0.107003048,-0.172265500,0.959050179
16.957078,7.372283936,-1.859199524,2.113090515,-0.107857540,-0.170068234,0.961247444
16.957703,7.570648193,-2.179634094,2.311454773,-0.108101681,-0.170190305,0.960392952
16.958329,7.616424561,-2.019416809,2.143608093,-0.107247189,-0.165917844,0.961125374
16.958955,7.761383057,-2.263557434,2.212272644,-0.108223751,-0.169702023,0.963322639
16.959580,7.830047607,-2.233039856,2.151237488,-0.109810665,-0.169213742,0.963932991
16.960205,8.211517334,-2.515327454,1.945243835,-0.113228634,-0.169579953,0.964299202
16.960831,8.226776123,-2.828132629,1.945243835,-0.109200314,-0.169213742,0.965153694
16.961457,8.364105225,-2.988349915,2.189384460,-0.113228634,-0.172387570,0.968693733
16.962084,8.654022217,-2.973091125,2.067314148,-0.107613400,-0.170800656,0.971623421
16.962710,8.921051025,-3.194343567,2.174125671,-0.109688595,-0.174706906,0.972722054
16.963336,9.188079834,-3.163825989,2.090202332,-0.109688595,-0.175683469,0.969914436
16.963962,9.294891357,-3.346931458,1.922355652,-0.110054806,-0.175927609,0.972111702
16.964587,9.760284424,-3.423225403,1.991020203,-0.110298946,-0.178002805,0.973088264
16.965212,10.141754150,-3.263008118,2.059684753,-0.109566525,-0.181786984,0.975163460
16.965838,10.477447510,-3.209602356,1.876579285,-0.109810665,-0.181542844,0.978337288
16.966465,10.576629639,-3.194343567,2.105461121,-0.113716915,-0.181176633,0.984318733
16.979172,13.147735596,-2.263557434,2.197013855,-0.115547970,-0.164330930,0.982243538
16.979910,12.964630127,-2.233039856,2.242790222,-0.114083126,-0.161523312,0.978459358
16.980535,12.819671631,-2.332221985,2.341972351,-0.111397579,-0.159814328,0.977849007
16.981161,12.598419189,-2.179634094,2.113090515,-0.112252071,-0.157617062,0.979557991
16.981786,12.316131592,-2.149116516,2.265678406,-0.108956173,-0.156640500,0.978947639
16.982412,12.201690674,-2.500068665,2.143608093,-0.109932736,-0.153710812,0.976506233
16.983037,11.705780029,-2.248298645,2.189384460,-0.107857540,-0.154077023,0.977849007
16.983662,11.400604248,-2.156745911,2.059684753,-0.109078243,-0.154199094,0.979802132
16.984288,10.866546631,-2.400886536,2.326713562,-0.106758907,-0.151391476,0.981022835
16.984915,10.645294189,-2.286445618,2.319084167,-0.110909298,-0.149194211,0.979069710
16.985578,10.126495361,-2.301704407,2.189384460,-0.105416134,-0.150292844,0.980290413
16.986204,9.691619873,-2.362739563,2.486930847,-0.105782345,-0.148583859,0.982243538
16.986830,9.241485596,-2.408515930,2.341972351,-0.106758907,-0.146508664,0.979313850
16.987459,8.798980713,-2.515327454,2.448783875,-0.105171993,-0.143945187,0.982243538
16.988085,8.203887939,-2.812873840,2.456413269,-0.109444454,-0.142358273,0.980290413
16.988711,7.585906982,-2.934944153,2.647148132,-0.106880978,-0.142114133,0.981633186
16.989336,6.990814209,-2.973091125,2.654777527,-0.107369259,-0.139916867,0.980534554
16.989961,6.716156006,-2.973091125,2.448783875,-0.103463009,-0.139916867,0.985417366
16.990586,6.143951416,-3.018867493,2.753959656,-0.100411251,-0.139916867,0.988591194
16.991212,5.701446533,-3.163825989,2.685295105,-0.105782345,-0.141625851,0.986760139
16.991837,5.159759521,-3.224861145,2.593742371,-0.104561642,-0.137597531,0.991887093
16.992463,4.640960693,-3.194343567,2.639518738,-0.103585079,-0.138329953,0.996769905
16.993089,3.992462158,-3.331672668,2.731071472,-0.104439571,-0.137719601,0.997868538
16.993716,3.511810303,-3.148567200,2.677665710,-0.097115353,-0.140771359,1.002385139
16.994343,2.909088135,-3.247749329,2.761589050,-0.097603634,-0.141259640,1.008976936
16.994969,2.458953857,-3.263008118,2.723442078,-0.100289181,-0.140527219,1.009343147
16.995594,1.764678955,-3.301155090,2.814994812,-0.095040157,-0.139916867,1.010197639
16.996220,1.428985596,-3.118049622,2.738700867,-0.096138790,-0.141015500,1.011540413
16.996845,0.772857666,-3.301155090,2.814994812,-0.099190548,-0.140771359,1.016789436
16.997472,0.528717041,-3.179084778,2.746330261,-0.094673946,-0.141992062,1.018498421
16.998098,0.101470947,-2.942573547,2.967582703,-0.099922970,-0.142602414,1.022404671
16.998723,-0.310516357,-3.072273254,2.898918152,-0.097481564,-0.143578976,1.028264046
16.999348,-0.615692139,-2.889167786,3.043876648,-0.098824337,-0.144189328,1.029850960
16.999973,-0.775909424,-2.789985657,3.165946960,-0.098580196,-0.142724484,1.033268929
17.000599,-1.279449463,-2.881538391,3.005729675,-0.096016720,-0.148461789,1.038640022
17.001225,-1.683807373,-2.652656555,3.074394226,-0.096382931,-0.144799680,1.038517952
17.001850,-2.179718018,-2.454292297,3.204093933,-0.097603634,-0.146142453,1.043278694
17.002475,-2.324676514,-2.492439270,3.051506042,-0.100045040,-0.149316281,1.043644905
17.003102,-2.553558350,-2.278816223,3.158317566,-0.100655392,-0.147485226,1.046208382
17.003727,-2.904510498,-2.355110168,3.303276062,-0.100289181,-0.151025265,1.050236702
17.004352,-3.446197510,-2.080451965,3.295646667,-0.101998165,-0.150659055,1.050114632
17.004979,-3.560638428,-1.927864075,3.097282410,-0.098824337,-0.155053586,1.050969124
17.005606,-3.476715088,-2.072822571,3.303276062,-0.100899532,-0.153222531,1.053044319
17.006231,-3.644561768,-1.737129211,3.288017273,-0.101265743,-0.154077023,1.056462288
17.006857,-3.827667236,-1.653205872,3.349052429,-0.099312618,-0.157006711,1.058293343
17.007484,-3.766632080,-1.401435852,3.356681824,-0.104561642,-0.156518430,1.057682991
17.008109,-3.751373291,-1.340400696,3.295646667,-0.104561642,-0.155053586,1.059514046
17.008735,-3.659820557,-0.836860657,3.425346375,-0.110787228,-0.161157101,1.060124397
17.021300,0.017547607,2.588737488,3.188835144,-0.133492306,-0.168359250,1.007145882
17.022008,0.170135498,2.466667175,3.417716980,-0.136055782,-0.167382687,1.007634163
17.022633,0.406646729,2.619255066,3.410087585,-0.136055782,-0.168481320,1.001774788
17.023258,0.887298584,2.596366882,3.303276062,-0.139107540,-0.165185422,0.997990608
17.023884,0.902557373,2.916801453,3.417716980,-0.138741329,-0.164330930,0.991398811
17.024510,1.528167725,2.794731140,3.349052429,-0.136788204,-0.162133664,0.983098030
17.025136,1.978302002,2.809989929,3.333793640,-0.138863400,-0.162621945,0.980290413
17.025763,2.275848389,2.809989929,3.318534851,-0.135079220,-0.162866086,0.974797249
17.026388,2.657318115,2.878654480,3.082023621,-0.133614376,-0.166161984,0.968937874
17.027013,2.779388428,3.199089050,3.387199402,-0.135689571,-0.161645383,0.969182014
17.027639,3.473663330,3.275382996,3.242240906,-0.135567501,-0.166406125,0.959782600
17.028265,4.030609131,3.275382996,3.219352722,-0.131783321,-0.169457883,0.954777718
17.028891,4.503631592,3.588188171,3.013359070,-0.130684689,-0.165185422,0.952336311
17.029516,5.136871338,3.694999695,3.089653015,-0.131539181,-0.167504758,0.946965218
17.030143,5.472564697,3.717887878,3.028617859,-0.132149532,-0.167504758,0.943058968
17.030768,5.884552002,3.962028503,3.074394226,-0.133004025,-0.162377805,0.941349983
17.031393,6.586456299,4.084098816,2.967582703,-0.132759884,-0.161889523,0.939152718
17.032018,6.845855713,4.038322449,2.944694519,-0.135689571,-0.163476437,0.941472054
17.032643,7.295989990,4.091728210,3.020988464,-0.134835079,-0.158593625,0.937687874
17.033269,7.471466064,4.198539734,2.937065125,-0.132271603,-0.160302609,0.935002327
17.033896,7.593536377,4.076469421,2.769218445,-0.133492306,-0.161157101,0.930241585
17.034522,8.303070068,4.076469421,2.906547546,-0.132881954,-0.157494992,0.929387093
17.035148,8.783721924,4.221427917,2.784477234,-0.135811642,-0.159692258,0.927433968
17.036932,9.546661377,4.534233093,2.509819031,-0.131539181,-0.158105344,0.917180061
17.037558,9.775543213,4.305351257,2.647148132,-0.129830196,-0.157128781,0.915226936
17.038183,10.057830811,4.618156433,2.616630554,-0.130806759,-0.157250851,0.909855843
17.038808,10.363006592,4.572380066,2.341972351,-0.128609493,-0.151635617,0.911076546
17.039434,10.591888428,4.534233093,2.357231140,-0.128731564,-0.153466672,0.908757210
17.040060,10.980987549,4.747856140,2.349601746,-0.129952267,-0.152368039,0.902897835
17.040686,11.217498779,4.717338562,2.067314148,-0.131539181,-0.152612180,0.900944710
17.041312,11.331939697,4.602897644,2.166496277,-0.130562618,-0.149316281,0.903874397
17.041938,11.446380615,4.824150085,2.212272644,-0.133248165,-0.146874875,0.896550179
17.042563,11.553192139,4.557121277,2.143608093,-0.131050900,-0.146630734,0.895695686
17.043189,11.804962158,4.335868835,2.021537781,-0.131539181,-0.147973508,0.892277718
17.043814,12.064361572,4.137504578,2.135978699,-0.131417111,-0.146264523,0.890324593
17.044441,11.911773682,4.290092468,1.929985046,-0.131295040,-0.144311398,0.886906624
17.045067,12.125396729,3.847587585,2.090202332,-0.131539181,-0.141137570,0.888005257
17.045693,12.102508545,3.862846375,1.891838074,-0.127144650,-0.137963742,0.885685921
17.046319,12.018585205,3.916252136,1.655326843,-0.127022579,-0.136132687,0.884709358
17.046944,11.804962158,3.382194519,1.662956238,-0.124825314,-0.130517453,0.884099007
17.047570,11.667633057,3.405082703,1.586662292,-0.121773556,-0.128564328,0.880925179
17.048196,11.759185791,3.107536316,1.655326843,-0.124581173,-0.126489133,0.878727913
17.048822,11.446380615,2.985466003,1.525627136,-0.123970821,-0.120141476,0.874821663
17.049449,11.461639404,2.748954773,1.739250183,-0.128731564,-0.119897336,0.871525764
17.050075,11.156463623,2.451408386,1.525627136,-0.126656368,-0.112695187,0.866765022
17.050702,10.881805420,2.001274109,1.655326843,-0.136055782,-0.107690305,0.863835335
17.051328,10.683441162,1.543510437,1.601921082,-0.135689571,-0.105248898,0.857975960
17.051953,10.500335693,0.963676453,1.319633484,-0.137520626,-0.100732297,0.854313850
17.064584,3.992462158,-4.743110657,1.006828308,-0.106392696,-0.108544797,0.994328499
17.065297,3.679656982,-4.415046692,0.991569519,-0.104927853,-0.110253781,0.999089241
17.065924,3.145599365,-4.170906067,1.151786804,-0.109810665,-0.114404172,1.006657600
17.066550,2.558135986,-4.376899719,1.212821960,-0.109688595,-0.113427609,1.008488655
17.067176,1.985931396,-4.186164856,1.235710144,-0.108712032,-0.110864133,1.012639046
17.067803,1.573944092,-4.056465149,1.479850769,-0.111275509,-0.108911008,1.016179085
17.068429,0.910186768,-4.277717590,1.304374695,-0.110176876,-0.110131711,1.020451546
17.069055,0.315093994,-4.155647278,1.830802917,-0.117623165,-0.113915890,1.025456429
17.069682,-0.371551514,-3.903877258,1.640068054,-0.118843868,-0.112695187,1.021794319
17.070309,-0.867462158,-4.041206360,1.479850769,-0.116768673,-0.117578000,1.023625374
17.070935,-0.989532471,-3.728401184,1.708732605,-0.116158321,-0.112084836,1.021794319
17.071560,-1.447296143,-3.728401184,1.594291687,-0.113716915,-0.115014523,1.023747444
17.072186,-1.935577393,-3.392707825,1.678215027,-0.113472775,-0.114526242,1.020451546
17.072812,-2.622222900,-3.324043274,1.777397156,-0.113472775,-0.118066281,1.020085335
17.073438,-3.118133545,-3.285896301,1.785026550,-0.114205196,-0.118310422,1.020817757
17.074063,-3.461456299,-2.980720520,1.922355652,-0.112618282,-0.117944211,1.024846077
17.074688,-3.797149658,-2.896797180,1.907096863,-0.113106564,-0.123559445,1.020329475
17.075314,-4.094696045,-3.003608704,1.800285339,-0.110787228,-0.121972531,1.020207405
17.075941,-4.514312744,-2.751838684,1.754508972,-0.112374142,-0.123925656,1.019108772
17.076567,-4.766082764,-2.652656555,1.868949890,-0.115425900,-0.121728390,1.018986702
17.077193,-5.139923096,-2.706062317,2.006278992,-0.113961056,-0.123559445,1.015812874
17.077820,-5.529022217,-2.683174133,1.899467468,-0.119454220,-0.120995969,1.014470100
17.078447,-5.689239502,-2.477180481,2.113090515,-0.121773556,-0.123803586,1.010685921
17.079073,-5.834197998,-2.477180481,1.838432312,-0.120064571,-0.123681515,1.007267952
17.079700,-6.063079834,-2.606880188,1.907096863,-0.120674923,-0.121240109,1.000554085
17.080326,-6.322479248,-2.767097473,1.960502625,-0.117134884,-0.120141476,1.001286507
17.080952,-6.345367432,-2.583992004,2.158866882,-0.112862423,-0.119653195,0.998845100
17.081578,-6.520843506,-2.385627747,1.907096863,-0.119576290,-0.120507687,0.994328499
17.082203,-6.581878662,-2.393257141,2.029167175,-0.120064571,-0.122827023,0.993107796
17.082828,-6.734466553,-2.416145325,1.929985046,-0.119698361,-0.123315305,0.990178108
17.083455,-6.581878662,-2.362739563,1.777397156,-0.114693478,-0.121362180,0.989201546
17.084081,-6.749725342,-2.377998352,1.861320496,-0.120186642,-0.120019406,0.990788460
17.084708,-6.673431396,-2.316963196,1.769767761,-0.116768673,-0.117700070,0.991398811
17.085333,-6.528472900,-2.011787415,1.594291687,-0.113716915,-0.118798703,0.987736702
17.085958,-6.627655029,-2.080451965,1.701103210,-0.116280392,-0.119164914,0.987980843
17.086584,-6.742095947,-1.904975891,1.899467468,-0.119210079,-0.117822140,0.988102913
17.087209,-6.513214111,-1.775276184,1.495109558,-0.116646603,-0.113305539,0.991765022
17.087836,-6.551361084,-1.866828918,1.800285339,-0.116890743,-0.115502805,0.987492561
17.088461,-6.826019287,-1.843940735,1.708732605,-0.115547970,-0.111718625,0.984440804
17.089104,-6.558990479,-1.660835266,1.495109558,-0.120552853,-0.108911008,0.987736702
17.089729,-6.513214111,-1.904975891,1.617179871,-0.124825314,-0.119653195,0.994572639
17.090355,-6.444549561,-1.500617981,1.373039246,-0.105782345,-0.114526242,0.989445686
17.090981,-6.223297119,-1.393806458,1.144157410,-0.116402462,-0.111718625,0.986027718
17.091607,-6.070709229,-1.615058899,1.418815613,-0.124092892,-0.112451047,0.986027718
17.092234,-6.261444092,-1.454841614,1.479850769,-0.124947384,-0.105615109,0.989567757
17.092860,-6.520843506,-1.477729797,1.350151062,-0.125069454,-0.099633664,0.995427132
17.093485,-6.528472900,-1.286994934,1.296745300,-0.124214962,-0.104882687,0.994938850
17.094111,-6.589508057,-1.485359192,0.968681335,-0.122505978,-0.109399289,0.995305061
17.106662,-0.119781494,0.620353699,0.030265808,-0.127510861,-0.129540890,0.978459358
17.107503,0.254058838,0.727165222,-0.206245422,-0.117745236,-0.127343625,0.978947639
17.108180,0.940704346,1.093376160,-0.366462708,-0.108345821,-0.140771359,0.979191780
17.108918,1.818084717,1.223075867,-0.374092102,-0.109444454,-0.138574094,0.979191780
17.109675,2.420806885,1.322257996,-0.557197571,-0.119454220,-0.133080930,0.978581429
17.110430,2.878570557,1.444328308,-0.541938782,-0.117989376,-0.129785031,0.973698616
17.111176,3.084564209,1.497734070,-0.702156067,-0.112740353,-0.131982297,0.978459358
17.111883,3.977203369,1.673210144,-0.900520325,-0.106636837,-0.136743039,0.977238655
17.112614,4.618072510,1.741874695,-0.801338196,-0.103707150,-0.136132687,0.980046272
17.113368,5.159759521,2.192008972,-0.900520325,-0.104805782,-0.137963742,0.976750374
17.114098,5.403900146,2.192008972,-0.915779114,-0.107613400,-0.136010617,0.975773811
17.114724,5.922698975,2.146232605,-0.801338196,-0.106270626,-0.134179562,0.973820686
17.115351,5.922698975,2.192008972,-0.885261536,-0.105294064,-0.133447140,0.972844124
17.115976,6.243133545,2.405632019,-1.060737610,-0.099556759,-0.133569211,0.973576546
17.116601,6.494903564,2.512443542,-0.908149719,-0.094673946,-0.132104367,0.974308968
17.117228,6.876373291,2.718437195,-1.037849426,-0.091622189,-0.132592648,0.970890999
17.117854,7.181549072,2.878654480,-1.228584290,-0.092598751,-0.133813351,0.971867561
17.118480,7.494354248,2.901542664,-1.289619446,-0.084053829,-0.139428586,0.968205452
17.119105,7.799530029,3.054130554,-1.068367004,-0.084908321,-0.140893430,0.967106819
17.119731,7.952117920,3.397453308,-1.213325500,-0.088326290,-0.143701047,0.963078499
17.120356,8.318328857,3.397453308,-1.243843079,-0.086373165,-0.140771359,0.962834358
17.120983,8.654022217,3.611076355,-1.159919739,-0.080391720,-0.135644406,0.960881233
17.121609,9.050750732,3.962028503,-1.297248840,-0.077950314,-0.140283078,0.960148811
17.122235,9.088897705,4.168022156,-1.213325500,-0.078804806,-0.139794797,0.959904671
17.122861,9.027862549,4.259574890,-1.106513977,-0.077828243,-0.136498898,0.959294319
17.123486,9.432220459,4.564750671,-1.434577942,-0.072945431,-0.137109250,0.952702522
17.124112,9.401702881,4.648674011,-1.381172180,-0.077339962,-0.140527219,0.953557014
17.124738,9.828948975,4.831779480,-1.243843079,-0.076241329,-0.136987180,0.951603889
17.125363,10.202789307,4.961479187,-1.121772766,-0.080880001,-0.132592648,0.946232796
17.125989,10.301971436,4.991996765,-1.457466125,-0.085152462,-0.134911984,0.947697639
17.126616,10.485076904,4.892814636,-1.304878235,-0.082588986,-0.131738156,0.947209358
17.127242,10.584259033,5.007255554,-1.358283997,-0.079415157,-0.133080930,0.944157600
17.127869,10.622406006,4.999626160,-1.602424622,-0.081734493,-0.139916867,0.947087288
17.128495,10.843658447,4.915702820,-1.312507629,-0.085274532,-0.138085812,0.941594124
17.129120,11.103057861,4.969108582,-1.617683411,-0.086983517,-0.135888547,0.938542366
17.129745,11.171722412,5.030143738,-1.556648254,-0.080880001,-0.133203000,0.934880257
17.130372,11.248016357,4.847038269,-1.465095520,-0.084175900,-0.137231320,0.933659554
17.130999,11.232757568,4.679191589,-1.373542786,-0.080635861,-0.135034055,0.929509163
17.131624,11.484527588,4.946220398,-1.495613098,-0.083687618,-0.136254758,0.930485725
17.132249,11.804962158,4.740226746,-1.526130676,-0.086739376,-0.132836789,0.927922249
17.132874,11.751556396,4.847038269,-1.526130676,-0.085396603,-0.133569211,0.921208382
17.133499,12.056732178,4.732597351,-1.419319153,-0.087105587,-0.134667844,0.919011116
17.134124,12.209320068,4.923332214,-1.426948547,-0.088448361,-0.131860226,0.917546272
17.134751,12.453460693,4.641044617,-1.526130676,-0.089424923,-0.132348508,0.915226936
17.135377,12.659454346,4.862297058,-1.442207336,-0.097603634,-0.129907101,0.915715218
17.137108,12.812042236,4.862297058,-1.724494934,-0.097359493,-0.122094601,0.920720100
17.137733,12.682342529,4.625785828,-1.449836731,-0.095406368,-0.120263547,0.922917366
17.138359,12.560272217,4.709709167,-1.709236145,-0.105782345,-0.124658078,0.919255257
17.150999,8.417510986,2.970207214,-2.151741028,-0.132881954,-0.071801633,0.954899788
17.151720,7.501983643,2.672660828,-2.121223450,-0.135567501,-0.077294797,0.950139046
17.152345,6.998443604,2.710807800,-2.365364075,-0.135201290,-0.073388547,0.938298225
17.152971,6.388092041,2.085197449,-2.403511047,-0.132759884,-0.081933469,0.925724983
17.153597,6.204986572,2.016532898,-2.266181946,-0.125435665,-0.100976437,0.923771858
17.154222,6.197357178,2.031791687,-2.540840149,-0.116524532,-0.097314328,0.924748421
17.154848,6.327056885,1.848686218,-2.647651672,-0.107491329,-0.094384640,0.922673225
17.155474,6.372833252,1.741874695,-2.388252258,-0.107491329,-0.087914914,0.928532600
17.156101,6.418609619,1.749504089,-2.441658020,-0.117379025,-0.079858273,0.936833382
17.156727,5.754852295,1.352775574,-2.434028625,-0.120796993,-0.061547730,0.931706429
17.157352,4.717254639,1.169670105,-2.739204407,-0.117501095,-0.059350464,0.917302132
17.157979,4.320526123,1.047599792,-2.891792297,-0.117012814,-0.075097531,0.913395882
17.158604,4.053497314,0.811088562,-2.846015930,-0.105294064,-0.082177609,0.906804085
17.159231,4.358673096,0.917900085,-3.013862610,-0.107125118,-0.094628781,0.909611702
17.159856,4.534149170,0.940788269,-2.998603821,-0.103951290,-0.077172726,0.909977913
17.160482,4.358673096,1.162040710,-2.876533508,-0.104195431,-0.079980344,0.904973030
17.161108,4.427337646,0.895011902,-2.968086243,-0.114327267,-0.086328000,0.912907600
17.161735,4.595184326,0.635612488,-2.990974426,-0.117256954,-0.091088742,0.912785530
17.162360,4.488372803,0.765312195,-3.044380188,-0.107613400,-0.071801633,0.904240608
17.162986,3.870391846,1.169670105,-3.219856262,-0.103096798,-0.079492062,0.884099007
17.163613,3.832244873,1.413810730,-3.204597473,-0.101754025,-0.091943234,0.875920296
17.164238,4.412078857,1.436698914,-3.151191711,-0.104073361,-0.107568234,0.880436897
17.164863,5.083465576,1.459587097,-3.303779602,-0.110665157,-0.117578000,0.901555061
17.165490,6.159210205,1.093376160,-3.258003235,-0.112984493,-0.113183469,0.923405647
17.166116,6.800079346,0.803459167,-3.593696594,-0.111885861,-0.092187375,0.922795296
17.166742,6.555938721,0.917900085,-3.502143860,-0.114937618,-0.071313351,0.911808968
17.167369,5.937957764,0.460136414,-3.448738098,-0.118233517,-0.063989133,0.904118538
17.167996,5.297088623,0.208366394,-3.425849915,-0.122383907,-0.074731320,0.908146858
17.185932,12.720489502,-1.370918274,-4.509223938,-0.092232540,-0.134179562,0.882390022
17.186558,13.155364990,-1.325141907,-4.524482727,-0.092964962,-0.135156125,0.881901741
17.187183,13.697052002,-1.286994934,-4.501594543,-0.090279415,-0.132836789,0.880436897
17.187810,14.459991455,-0.783454895,-4.547370911,-0.098458126,-0.131738156,0.875554085
17.188435,14.864349365,-1.035224915,-4.577888489,-0.103585079,-0.127343625,0.883244514
17.189070,15.444183350,-0.867378235,-4.738105774,-0.109932736,-0.123071164,0.889348030
17.189756,15.528106689,-1.195442200,-4.814399719,-0.109444454,-0.114404172,0.893986702
17.190381,15.383148193,-1.462471008,-4.844917297,-0.114083126,-0.108300656,0.896550179
17.191010,15.306854248,-2.057563782,-5.020393372,-0.126046017,-0.121484250,0.893498421
17.191636,16.085052490,-2.576362610,-5.073799133,-0.134713009,-0.232446164,0.902287483
17.192261,18.831634521,-3.102790833,-5.470527649,-0.077950314,-0.249658078,0.897160530
17.192886,21.265411377,-1.904975891,-5.279792786,-0.026192505,-0.159936398,0.870060921
17.193513,21.540069580,-0.226509094,-5.272163391,0.007865112,-0.119164914,0.847355843
17.194139,21.334075928,0.734794617,-5.378974915,-0.014717896,-0.125146359,0.837468147
17.194764,21.242523193,0.238883972,-4.616035461,-0.093331173,-0.084496945,0.867375374
17.195389,20.410919189,0.055778503,-4.593147278,-0.124947384,-0.053002808,0.923649788
17.196016,18.701934814,-0.501167297,-5.523933411,-0.164742306,-0.059106324,0.969548225
17.196641,17.847442627,-1.973640442,-5.737556458,-0.124947384,-0.051171754,0.989567757
17.197266,16.863250732,-3.087532043,-6.096138000,-0.098580196,-0.062646359,0.990300179
17.197891,16.374969482,-4.628669739,-6.057991028,-0.113228634,-0.091332883,0.987004280
17.210539,45.595550537,-20.001899719,-10.528816223,0.007010620,0.002417114,1.360783577
17.211279,40.537261963,-18.849861145,-10.231269836,0.043875854,0.160009891,1.176091194
17.211904,31.748199463,-20.131599426,-10.238899231,0.063407108,0.217138797,1.052433968
17.212530,20.807647705,-19.444953918,-9.224189758,0.047904175,0.229712039,1.009343147
17.213155,11.461639404,-16.019355774,-8.857978821,0.001273315,0.081640750,0.987126350
17.213781,6.746673584,-11.708747864,-9.048713684,-0.063057736,-0.099755734,0.952214241
17.214471,8.386993408,-8.382331848,-8.766426086,-0.078438595,-0.230859250,0.958073616
17.215187,14.315032959,-5.185615540,-9.292854309,-0.012520630,-0.321191281,0.998356819
17.215813,22.402191162,-1.645576477,-9.941352844,0.034354370,-0.345117062,1.016667366
17.216438,30.329132080,1.589286804,-9.964241028,0.035819214,-0.337304562,1.013981819
17.217063,36.608123779,3.778923035,-9.903205872,0.050833862,-0.256127805,1.028019905
17.217690,40.552520752,6.357658386,-10.086311340,0.049979370,-0.133935422,1.027775764
17.218315,41.628265381,8.196342468,-9.903205872,0.000052612,-0.061303589,1.011540413
17.218941,41.101837158,9.188163757,-9.857429504,-0.005074341,-0.017480347,1.005070686
17.219567,39.499664307,10.569084167,-9.536994934,-0.007271606,-0.011376832,1.003972054
17.220192,38.210296631,11.919487000,-9.338630676,-0.003975708,-0.046533082,1.004216194
17.220819,38.088226318,12.300956726,-9.155525208,-0.053658325,-0.032739136,1.017643929
17.221445,37.737274170,12.552726746,-8.926643372,-0.089302853,-0.028466675,1.038395882
17.222072,37.432098389,12.026298523,-9.292854309,-0.115792111,-0.013940308,1.085881233
17.222698,36.264801025,10.981071472,-9.392036438,-0.158394650,0.083349735,1.124943733
17.223325,32.930755615,8.951652527,-9.117378235,-0.179879025,0.069311649,1.151432991
17.223950,30.611419678,6.853569031,-10.078681946,-0.177803829,0.063696414,1.176457405
17.224575,27.719879150,4.267204285,-9.590400696,-0.192086056,0.035009887,1.191716194
17.225200,25.972747803,1.520622253,-9.636177063,-0.186348751,-0.001244996,1.204533577
17.225826,24.431610107,-1.180183411,-9.308113098,-0.187691525,0.000097778,1.203801155
17.226451,23.027801514,-3.301155090,-8.873237610,-0.167671993,-0.033715699,1.193913460
17.227077,21.273040771,-5.078804016,-8.850349426,-0.149117306,-0.011376832,1.166935921
17.227702,19.197845459,-6.734382629,-8.850349426,-0.122139767,-0.016381714,1.133000374
17.228329,17.053985596,-7.619392395,-8.354438782,-0.091133907,0.018896606,1.108952522
17.228956,14.437103271,-8.115303040,-8.095039368,-0.056221802,0.036718871,1.088688850
17.229583,11.370086670,-7.764350891,-8.201850891,-0.030342896,0.056494262,1.055851936
17.230208,8.318328857,-7.161628723,-8.239997864,-0.021553833,0.050879028,1.028019905
17.230833,5.838775635,-6.009590149,-8.011116028,-0.009835083,0.021215942,1.015202522
17.231458,4.152679443,-4.697334290,-8.285774231,0.002127808,-0.001611207,1.011540413
17.232085,3.389739990,-3.163825989,-8.034004211,0.008597534,-0.045068238,1.006901741
17.232710,3.466033936,-1.737129211,-7.889045715,0.008963745,-0.060449097,1.006413460
17.233335,4.122161865,0.132072449,-7.637275696,0.010672729,-0.068749875,1.014348030
17.233962,4.633331299,1.741874695,-7.339729309,0.004935425,-0.057153199,1.024724007
17.234588,4.579925537,2.855766296,-7.148994446,-0.005440552,-0.045312379,1.036076546
17.235213,3.885650635,3.908622742,-7.026924133,-0.016671021,-0.023705933,1.049626350
17.235840,2.909088135,4.770744324,-6.637825012,-0.030220825,-0.013207886,1.061833382
17.237596,-1.134490967,5.419242859,-6.233467102,-0.070870236,-0.021264527,1.111515999
17.238221,-2.324676514,5.129325867,-6.279243469,-0.081490353,-0.027123902,1.130436897
17.238847,-3.476715088,4.709709167,-6.309761047,-0.084420040,-0.034570191,1.144963264
17.239472,-4.460906982,4.198539734,-6.202949524,-0.089058712,-0.037133668,1.159245491
17.240097,-5.544281006,3.900993347,-6.294502258,-0.092720821,-0.043481324,1.166081429
17.240723,-6.429290771,2.855766296,-6.378425598,-0.090523556,-0.051293824,1.171330452
17.253379,3.412628174,8.905876160,-7.759346008,-0.112374142,-0.153222531,1.094792366
17.254121,5.281829834,9.600151062,-7.934822083,-0.119210079,-0.146020383,1.101628304
17.254747,6.098175049,9.478080750,-8.056892395,-0.123848751,-0.141747922,1.105290413
17.255372,7.265472412,9.806144714,-8.278144836,-0.128121212,-0.150659055,1.109684944
17.255999,8.280181885,9.767997742,-8.171333313,-0.136544064,-0.155541867,1.113102913
17.256624,9.226226807,10.019767761,-8.423103333,-0.135445431,-0.160180539,1.117131233
17.257250,10.118865967,9.737480164,-8.568061829,-0.136421993,-0.164941281,1.117619514
17.257875,11.186981201,9.783256531,-8.751167297,-0.134590939,-0.162499875,1.122624397
17.258500,11.919403076,9.867179871,-8.781684875,-0.135445431,-0.164208859,1.126652718
17.259127,12.865447998,9.897697449,-8.896125793,-0.134102657,-0.162011594,1.125554085
17.259753,13.758087158,9.890068054,-8.934272766,-0.135445431,-0.160668820,1.122502327
17.260379,14.025115967,9.951103210,-9.033454895,-0.133736446,-0.157494992,1.122746468
17.261011,14.833831787,9.996879578,-9.247077942,-0.134224728,-0.160058469,1.122502327
17.261636,15.444183350,9.920585632,-9.170783997,-0.131905392,-0.160668820,1.117619514
17.262263,15.894317627,10.134208679,-9.300483704,-0.128609493,-0.161035031,1.113835335
17.262889,16.764068604,10.408866882,-9.392036438,-0.128609493,-0.160546750,1.108708382
17.263515,16.886138916,10.668266296,-9.323371887,-0.124703243,-0.158959836,1.107365608
17.264140,17.664337158,10.805595398,-9.544624329,-0.124581173,-0.160668820,1.104680061
17.264765,17.855072021,11.232841492,-9.567512512,-0.124459103,-0.156762570,1.101750374
17.265391,18.381500244,11.423576355,-9.536994934,-0.117745236,-0.155053586,1.098698616
17.266018,18.671417236,11.660087585,-9.590400696,-0.119088009,-0.155053586,1.095280647
17.266644,18.717193604,12.011039734,-9.689582825,-0.114815548,-0.151757687,1.093815804
17.267270,19.159698486,12.484062195,-9.727729797,-0.116402462,-0.151269406,1.092717171
17.267895,19.487762451,12.758720398,-9.559883118,-0.112252071,-0.149682492,1.090031624
17.268520,19.777679443,13.094413757,-9.773506165,-0.110787228,-0.150170773,1.090153694
17.269147,19.800567627,13.315666199,-9.582771301,-0.111275509,-0.148583859,1.085637093
17.269773,19.960784912,13.567436218,-9.567512512,-0.109078243,-0.144799680,1.080388069
17.270399,19.968414307,13.941276550,-9.552253723,-0.109200314,-0.142968625,1.079045296
17.271026,19.701385498,14.185417175,-9.460700989,-0.106880978,-0.136498898,1.077580452
17.271652,19.411468506,14.353263855,-9.468330383,-0.104561642,-0.134545773,1.073185921
17.272279,19.129180908,14.742362976,-9.353889465,-0.100777462,-0.135278195,1.073185921
17.272904,18.824005127,14.940727234,-9.338630676,-0.103463009,-0.134911984,1.070622444
17.273529,18.419647217,15.345085144,-9.331001282,-0.101021603,-0.135766476,1.066716194
17.274154,18.007659912,15.223014832,-9.262336731,-0.101387814,-0.135644406,1.062809944
17.274780,17.549896240,15.596855164,-9.231819153,-0.103463009,-0.133935422,1.059269905
17.275406,16.779327393,15.924919128,-9.247077942,-0.100655392,-0.134179562,1.058659554
17.276033,16.542816162,15.993583679,-8.819831848,-0.101631954,-0.130395383,1.051945686
17.276658,15.871429443,15.902030945,-9.010566711,-0.100411251,-0.128686398,1.051335335
17.277285,14.955902100,16.191947937,-8.980049133,-0.099678829,-0.121850461,1.046086311
17.277912,14.612579346,16.024101257,-8.766426086,-0.099800900,-0.118432492,1.042546272
17.278539,13.620758057,16.108024597,-8.583320618,-0.102852657,-0.117822140,1.035954475
17.279164,12.529754639,16.306388855,-8.789314270,-0.102974728,-0.117333859,1.033757210
17.279790,11.637115479,16.298759460,-8.659614563,-0.098824337,-0.114770383,1.027409554
17.280416,10.858917236,16.016471863,-8.484138489,-0.101754025,-0.116479367,1.020817757
17.281042,9.874725342,16.161430359,-8.255256653,-0.099556759,-0.114037961,1.015202522
17.281669,8.943939209,16.024101257,-8.308662415,-0.099312618,-0.113427609,1.013127327
17.282295,7.944488525,15.902030945,-7.972969055,-0.099800900,-0.115869015,1.006291389
17.282922,7.059478760,16.191947937,-7.789863586,-0.099312618,-0.114648312,0.998845100
17.295842,-8.779144287,13.292778015,-4.616035461,-0.124337032,-0.136376828,0.989445686
17.296543,-9.168243408,12.941825867,-4.638923645,-0.122017696,-0.144189328,0.994572639
17.297170,-9.610748291,12.712944031,-4.196418762,-0.119332150,-0.148950070,0.993718147
17.297797,-9.679412842,12.842643738,-4.402412415,-0.119942501,-0.152612180,0.995427132
17.298424,-10.129547119,12.262809753,-4.028572083,-0.116890743,-0.158715695,1.001896858
17.299050,-10.030364990,12.247550964,-4.211677551,-0.112252071,-0.163964719,0.998845100
17.299676,-9.976959229,12.178886414,-3.883613586,-0.113106564,-0.169702023,1.001408577
17.300302,-9.587860107,11.934745789,-3.746284485,-0.112007931,-0.172021359,1.000554085
17.300929,-9.786224365,12.011039734,-3.555549622,-0.107735470,-0.174340695,1.001286507
17.301554,-9.183502197,11.988151550,-3.715766907,-0.110909298,-0.175927609,1.000676155
17.302179,-9.008026123,11.934745789,-3.639472961,-0.109566525,-0.182397336,1.000065804
17.302805,-8.748626709,12.186515808,-3.319038391,-0.106270626,-0.180810422,1.002873421
17.303430,-8.489227295,12.125480652,-3.364814758,-0.110176876,-0.180566281,1.002018929
17.304055,-8.260345459,12.049186707,-3.418220520,-0.110909298,-0.183007687,0.999089241
17.304682,-7.482147217,12.270439148,-3.212226868,-0.113594845,-0.186059445,0.998845100
17.305308,-7.054901123,12.171257019,-3.334297180,-0.112740353,-0.185571164,1.001408577
17.305933,-6.703948975,12.262809753,-3.212226868,-0.116036251,-0.195458859,1.000432014
17.306558,-5.735015869,12.453544617,-3.128303528,-0.118599728,-0.194726437,0.998723030
17.307183,-5.055999756,12.293327332,-3.082527161,-0.121041134,-0.195580930,1.000187874
17.307808,-4.270172119,12.308586121,-3.052009583,-0.122628048,-0.198022336,1.002018929
17.308435,-3.446197510,12.445915222,-2.960456848,-0.123848751,-0.196435422,1.000554085
17.309060,-2.652740479,12.415397644,-2.983345032,-0.124825314,-0.198388547,1.001408577
17.309686,-1.889801025,12.423027039,-2.968086243,-0.126778439,-0.198144406,1.001408577
17.310313,-0.974273682,12.506950378,-2.784980774,-0.127388790,-0.198632687,1.000432014
17.310938,-0.501251221,12.514579773,-2.830757141,-0.123482540,-0.194726437,1.004094124
17.311563,0.460052490,12.506950378,-2.891792297,-0.123970821,-0.195580930,1.001896858
17.312188,1.406097412,12.506950378,-2.662910461,-0.123848751,-0.196801633,1.002751350
17.312815,2.169036865,12.361991882,-2.784980774,-0.128243282,-0.194360226,1.006047249
17.313440,2.924346924,12.453544617,-2.762092590,-0.128487423,-0.191796750,1.006413460
17.314065,3.404998779,12.743461609,-2.640022278,-0.130196407,-0.194848508,1.006169319
17.314691,4.190826416,12.178886414,-2.487434387,-0.131539181,-0.193139523,1.006657600
17.315316,5.091094971,12.491691589,-2.716316223,-0.133126095,-0.191674680,1.005314827
17.315942,5.846405029,12.293327332,-2.464546204,-0.129586056,-0.191918820,1.004582405
17.316569,6.319427490,12.453544617,-2.495063782,-0.128609493,-0.187402219,1.004582405
17.317195,7.067108154,12.461174011,-2.372993469,-0.130806759,-0.185693234,1.005558968
17.317822,7.433319092,12.514579773,-2.510322571,-0.129219845,-0.181786984,1.004826546
17.318447,8.325958252,12.514579773,-2.563728333,-0.127999142,-0.177758664,1.003849983
17.319073,8.829498291,12.567985535,-2.418769836,-0.130928829,-0.176415890,1.003361702
17.319698,9.424591064,12.453544617,-2.571357727,-0.126168087,-0.173974484,1.003117561
17.320324,9.622955322,12.461174011,-2.311958313,-0.127632931,-0.174462765,1.002018929
17.320950,10.233306885,12.567985535,-2.159370422,-0.125801876,-0.170312375,1.006779671
17.321575,10.652923584,12.766349792,-2.258552551,-0.123848751,-0.169457883,1.001652718
17.322201,10.950469971,12.979972839,-2.197517395,-0.122261837,-0.165795773,1.002873421
17.322826,11.202239990,12.773979187,-2.166999817,-0.123726681,-0.164208859,1.004948616
17.323451,11.667633057,13.010490417,-2.022041321,-0.124092892,-0.164330930,1.002751350
17.324078,11.820220947,13.300407410,-1.938117981,-0.126168087,-0.159814328,1.003849983
17.324705,11.850738525,13.163078308,-1.831306458,-0.126412228,-0.158959836,1.001530647
17.338546,9.607696533,13.948905945,-0.496162415,-0.145699337,-0.113915890,0.970646858
17.339257,9.127044678,13.895500183,-0.709785461,-0.153023556,-0.117333859,0.962346077
17.339883,8.936309814,13.849723816,-0.458015442,-0.150215939,-0.115869015,0.958073616
17.340510,8.470916748,13.628471375,-0.335945129,-0.144600704,-0.115746945,0.956486702
17.341135,8.287811279,13.750541687,-0.252021790,-0.151802853,-0.116723508,0.959538460
17.341762,8.158111572,13.681877136,-0.183357239,-0.152413204,-0.122460812,0.954045296
17.342389,7.997894287,13.575065613,-0.122322083,-0.147896603,-0.124169797,0.954777718
17.343015,7.707977295,13.628471375,-0.183357239,-0.147652462,-0.123315305,0.953679085
17.343641,7.852935791,13.636100769,-0.099433899,-0.148384884,-0.122704953,0.950139046
17.344266,7.639312744,13.430107117,0.091300964,-0.150704220,-0.119531125,0.948552132
17.344891,7.616424561,13.468254089,0.152336121,-0.149605587,-0.115991086,0.947819710
17.345516,7.753753662,13.620841980,0.121818542,-0.145943478,-0.118310422,0.945744514
17.346142,7.547760010,13.552177429,0.259147644,-0.146920040,-0.120385617,0.943913460
17.346768,7.257843018,13.605583191,0.251518250,-0.150704220,-0.118798703,0.942814827
17.347394,7.372283936,13.391960144,0.526176453,-0.150215939,-0.117700070,0.940495491
17.348020,7.311248779,13.369071960,0.251518250,-0.148995236,-0.118554562,0.939274788
17.348647,7.036590576,13.506401062,0.335441589,-0.154854611,-0.118066281,0.944767952
17.349273,7.059478760,13.376701355,0.533805847,-0.158150509,-0.118432492,0.943791389
17.349899,6.945037842,13.399589539,0.617729187,-0.158638790,-0.112939328,0.942326546
17.350524,7.013702393,12.957084656,0.823722839,-0.161446407,-0.114648312,0.941105843
17.351149,6.670379639,12.880790710,0.709281921,-0.161934689,-0.112206906,0.939274788
17.351775,6.525421143,12.842643738,0.716911316,-0.162911251,-0.113183469,0.938908577
17.352402,6.410980225,12.522209167,0.663505554,-0.161934689,-0.111962765,0.940251350
17.353028,6.372833252,12.293327332,0.808464050,-0.163277462,-0.114648312,0.939274788
17.353654,6.639862061,12.094963074,0.579582214,-0.160225704,-0.110009640,0.935124397
17.354280,6.418609619,12.316215515,0.724540710,-0.160225704,-0.109643430,0.937321663
17.354906,6.220245361,12.087333679,0.961051941,-0.159371212,-0.113183469,0.938054085
17.355531,6.067657471,11.965263367,1.022087097,-0.161202267,-0.112328976,0.937443733
17.356157,6.121063232,11.759269714,0.800834656,-0.162911251,-0.108666867,0.933415413
17.356784,5.953216553,11.576164246,1.189933777,-0.163399532,-0.108300656,0.932194710
17.357409,5.846405029,11.652458191,1.067863464,-0.163155392,-0.108300656,0.930851936
17.358035,5.640411377,11.461723328,0.800834656,-0.166207150,-0.106347531,0.933171272
17.358660,5.655670166,11.026847839,0.968681335,-0.174385861,-0.105126828,0.939640999
17.359286,5.770111084,10.836112976,1.022087097,-0.175606564,-0.111108273,0.944767952
17.359913,5.205535889,10.714042664,0.640617371,-0.172798946,-0.104150265,0.947697639
17.360538,4.915618896,10.141838074,0.640617371,-0.160836056,-0.093652219,0.941594124
17.361164,4.785919189,10.241020203,1.113639832,-0.154976681,-0.095483273,0.929387093
17.361789,4.717254639,10.187614441,1.128898621,-0.156441525,-0.105248898,0.919987679
17.362415,4.343414307,10.073173523,0.991569519,-0.159371212,-0.106469601,0.915715218
17.363041,4.015350342,10.195243835,1.083122253,-0.160469845,-0.103295773,0.910954475
17.363667,4.175567627,10.103691101,1.312004089,-0.156319454,-0.106347531,0.906071663
17.364293,4.099273682,10.317314148,1.380668640,-0.152535275,-0.105004758,0.904484749
17.364918,4.228973389,10.569084167,1.334892273,-0.150338009,-0.107812375,0.907414436
17.365545,4.045867920,10.706413269,1.350151062,-0.148506954,-0.106835812,0.904606819
17.366171,4.213714600,11.034477234,1.487480164,-0.147408321,-0.100732297,0.902165413
17.366797,4.114532471,10.874259949,1.418815613,-0.150948361,-0.092431515,0.900944710
17.367422,4.053497314,11.034477234,1.510368347,-0.152169064,-0.090478390,0.899113655
17.368047,4.099273682,11.080253601,1.609550476,-0.159615353,-0.088159055,0.901066780
17.380648,-2.156829834,6.128776550,2.265678406,-0.159493282,-0.085717648,0.901677132
17.381350,-2.118682861,6.121147156,2.135978699,-0.157540157,-0.082177609,0.901921272
17.381976,-2.103424072,6.144035339,2.227531433,-0.159005001,-0.085107297,0.901555061
17.382601,-1.943206787,6.029594421,2.280937195,-0.157051876,-0.082910031,0.901188850
17.383228,-1.943206787,6.067741394,2.250419617,-0.156685665,-0.086083859,0.902897835
17.383854,-2.057647705,5.907524109,2.311454773,-0.159371212,-0.086083859,0.904118538
17.384480,-1.897430420,5.976188660,2.334342957,-0.160469845,-0.086450070,0.902653694
17.385106,-1.828765869,5.953300476,2.387748718,-0.161812618,-0.085961789,0.903752327
17.385733,-1.660919189,5.609977722,2.258049011,-0.162056759,-0.085351437,0.905827522
17.386360,-1.622772217,5.587089539,2.334342957,-0.163277462,-0.085961789,0.912541389
17.386986,-1.393890381,5.259025574,2.319084167,-0.165963009,-0.089135617,0.909367561
17.387613,-1.340484619,4.999626160,2.349601746,-0.167183712,-0.087060422,0.908879280
17.388239,-0.974273682,4.969108582,2.525077820,-0.168770626,-0.088891476,0.913151741
17.388865,-0.829315186,4.755485535,2.280937195,-0.171700314,-0.089379758,0.914494514
17.389490,-0.493621826,4.587638855,2.341972351,-0.170845821,-0.088036984,0.915226936
17.390116,-0.157928467,4.274833679,2.280937195,-0.172066525,-0.090600461,0.915959358
17.390742,-0.226593018,4.068840027,2.158866882,-0.170601681,-0.087426633,0.915471077
17.391368,0.193023682,4.000175476,2.181755066,-0.169258907,-0.087182492,0.916447639
17.391994,0.582122803,3.633964539,2.242790222,-0.171334103,-0.085717648,0.918278694
17.392619,0.620269775,3.687370300,2.326713562,-0.174019650,-0.087914914,0.913395882
17.393245,0.887298584,3.481376648,1.975761414,-0.177925900,-0.088036984,0.911931038
17.393872,1.192474365,3.160942078,2.158866882,-0.173409298,-0.086694211,0.912785530
17.394497,1.665496826,3.214347839,2.105461121,-0.176949337,-0.086328000,0.910466194
17.395124,1.955413818,3.000724792,1.991020203,-0.179879025,-0.083642453,0.911931038
17.395750,2.397918701,2.863395691,1.952873230,-0.176094845,-0.083886594,0.908390999
17.396376,2.748870850,2.748954773,1.998649597,-0.180489376,-0.084863156,0.911931038
17.397010,2.916717529,2.657402039,2.029167175,-0.179756954,-0.080102414,0.909977913
17.397635,3.328704834,2.710807800,1.922355652,-0.188057736,-0.082665890,0.912907600
17.398262,3.801727295,2.466667175,1.907096863,-0.183541134,-0.080102414,0.911320686
17.398888,4.251861572,2.436149597,1.670585632,-0.183907345,-0.081445187,0.911686897
17.399513,4.442596436,2.481925964,1.762138367,-0.186470821,-0.077661008,0.912175179
17.400140,4.732513428,2.100456238,1.785026550,-0.190987423,-0.076806515,0.912175179
17.400767,5.213165283,1.955497742,1.594291687,-0.191719845,-0.077905148,0.912663460
17.401393,5.548858643,1.894462585,1.624809265,-0.188179806,-0.075463742,0.913395882
17.402018,5.869293213,1.787651062,1.785026550,-0.192696407,-0.074609250,0.912053108
17.402644,6.151580811,1.574028015,1.548515320,-0.190621212,-0.074120969,0.913517952
17.403269,6.540679932,1.429069519,1.540885925,-0.192696407,-0.074120969,0.917424202
17.403896,6.746673584,1.299369812,1.533256531,-0.195259884,-0.071557492,0.915593147
17.404523,7.212066650,0.971305847,1.495109558,-0.194893673,-0.073388547,0.914982796
17.405150,7.326507568,0.963676453,1.411186218,-0.192696407,-0.073388547,0.916935921
17.405775,7.486724854,0.620353699,1.289115906,-0.194527462,-0.073632687,0.917057991
17.406401,7.891082764,0.399101257,1.312004089,-0.196724728,-0.069604367,0.921086311
17.407027,7.906341553,0.360954285,1.250968933,-0.195137814,-0.070580930,0.919987679
17.407653,8.249664307,0.071037292,1.266227722,-0.192330196,-0.067162961,0.921330452
17.408279,8.463287354,-0.165473938,1.098381042,-0.191841915,-0.070214719,0.922429085
17.408906,8.715057373,-0.180732727,1.235710144,-0.193062618,-0.069604367,0.922307014
17.409532,9.043121338,-0.188362122,1.212821960,-0.191231564,-0.066430539,0.926701546
17.410159,9.188079834,-0.646125793,0.915275574,-0.191475704,-0.067162961,0.924138069
17.410786,9.279632568,-0.516426086,1.006828308,-0.186959103,-0.067407101,0.922795296
17.441981,9.279632568,-1.798164368,-0.915779114,-0.157906368,-0.066918820,0.953557014
17.442729,9.249114990,-1.729499817,-0.885261536,-0.156563595,-0.066308469,0.954777718
17.443355,9.127044678,-1.523506165,-0.946296692,-0.156441525,-0.064721555,0.949894905
17.443980,9.287261963,-1.515876770,-0.862373352,-0.160836056,-0.069848508,0.950261116
17.444606,9.004974365,-1.386177063,-0.969184875,-0.158516720,-0.068627805,0.949528694
17.445233,8.913421631,-1.546394348,-1.213325500,-0.162789181,-0.072656125,0.947331429
17.445859,8.982086182,-1.485359192,-1.045478821,-0.163155392,-0.074365109,0.944401741
17.446485,8.943939209,-1.439582825,-1.198066711,-0.161324337,-0.078149289,0.945256233
17.447111,8.943939209,-1.462471008,-1.114143372,-0.161324337,-0.076684445,0.943913460
17.447736,9.188079834,-1.386177063,-1.175178528,-0.161812618,-0.075952023,0.941472054
17.448363,9.050750732,-1.279365540,-1.274360657,-0.160225704,-0.078149289,0.943303108
17.448989,9.027862549,-1.264106750,-1.098884583,-0.159371212,-0.079492062,0.938542366
17.449616,8.989715576,-1.218330383,-1.205696106,-0.161080196,-0.082543820,0.940129280
17.450243,9.165191650,-1.203071594,-1.381172180,-0.160469845,-0.081567258,0.936711311
17.450870,9.073638916,-1.546394348,-1.129402161,-0.158150509,-0.082299680,0.936955452
17.451495,9.111785889,-1.500617981,-1.350654602,-0.156807736,-0.082421750,0.935002327
17.452120,9.218597412,-1.447212219,-1.343025208,-0.160347775,-0.087548703,0.934758186
17.452746,9.348297119,-1.416694641,-1.289619446,-0.158028439,-0.086083859,0.930974007
17.453371,9.447479248,-1.508247375,-1.281990051,-0.158272579,-0.085717648,0.928532600
17.453996,9.607696533,-1.630317688,-1.381172180,-0.157540157,-0.085839719,0.927800179
17.454621,9.508514404,-1.752388000,-1.419319153,-0.156929806,-0.089501828,0.923649788
17.455246,9.584808350,-1.805793762,-1.358283997,-0.154000118,-0.091088742,0.924626350
17.455872,9.836578369,-1.996528625,-1.419319153,-0.152535275,-0.087060422,0.920842171
17.456497,9.928131104,-1.889717102,-1.426948547,-0.150460079,-0.084741086,0.918766975
17.457124,10.027313232,-2.065193176,-1.472724915,-0.152901486,-0.087182492,0.918644905
17.457751,10.271453857,-2.225410461,-1.549018860,-0.148262814,-0.086083859,0.916569710
17.458377,10.195159912,-2.263557434,-1.655830383,-0.151436642,-0.088647336,0.915593147
17.459010,10.172271729,-2.248298645,-1.312507629,-0.149849728,-0.085107297,0.915593147
17.459636,10.553741455,-2.416145325,-1.571907043,-0.149239376,-0.086328000,0.914006233
17.460261,10.584259033,-2.507698059,-1.625312805,-0.150093868,-0.084863156,0.913151741
17.460887,10.492706299,-2.568733215,-1.411689758,-0.151070431,-0.085839719,0.915471077
17.461512,10.622406006,-2.782356262,-1.640571594,-0.150215939,-0.085229367,0.911808968
17.462139,10.530853271,-2.835762024,-1.755012512,-0.148384884,-0.083032101,0.908146858
17.462766,10.698699951,-2.965461731,-1.686347961,-0.148751095,-0.081201047,0.909123421
17.463392,10.385894775,-2.797615051,-1.716865540,-0.149361446,-0.079980344,0.908268929
17.464018,10.408782959,-3.041755676,-1.678718567,-0.150826290,-0.079858273,0.912053108
17.464644,10.469818115,-3.499519348,-1.617683411,-0.149727657,-0.080590695,0.911076546
17.465271,10.240936279,-3.339302063,-1.594795227,-0.152291134,-0.077538937,0.912053108
17.465896,10.324859619,-3.591072083,-1.602424622,-0.150215939,-0.074487180,0.907170296
17.466523,10.126495361,-3.758918762,-1.777900696,-0.151070431,-0.076196164,0.909245491
17.467149,9.958648682,-3.858100891,-1.732124329,-0.150215939,-0.075585812,0.911686897
17.467776,9.439849854,-3.873359680,-1.716865540,-0.147652462,-0.075463742,0.908757210
17.468403,9.394073486,-4.247200012,-1.800788879,-0.153511837,-0.074487180,0.910710335
17.469028,9.142303467,-4.239570618,-1.831306458,-0.149483517,-0.074365109,0.909123421
17.469653,9.020233154,-4.323493958,-1.632942200,-0.152291134,-0.072045773,0.912785530
17.470279,8.676910400,-4.209053040,-1.724494934,-0.153511837,-0.076318234,0.910466194
17.470904,8.448028564,-4.407417297,-1.693977356,-0.151558712,-0.070703000,0.910222054
17.483551,3.054046631,-6.810676575,-1.884712219,-0.156075314,-0.087304562,0.903264046
17.484267,3.069305420,-7.253181458,-1.793159485,-0.153755978,-0.089745969,0.903996468
17.484894,3.054046631,-7.565986633,-1.976264954,-0.149971798,-0.089745969,0.903019905
17.485520,2.718353271,-7.718574524,-1.732124329,-0.152169064,-0.087182492,0.903996468
17.486146,2.718353271,-7.962715149,-1.777900696,-0.151558712,-0.093041867,0.902775764
17.486773,2.603912354,-8.328926086,-1.800788879,-0.149117306,-0.094384640,0.906071663
17.487398,2.695465088,-8.382331848,-1.976264954,-0.149117306,-0.093774289,0.902897835
17.488024,2.733612061,-8.634101868,-1.907600403,-0.146187618,-0.097436398,0.904362679
17.488650,2.886199951,-8.603584290,-1.709236145,-0.144966915,-0.100610226,0.904484749
17.489275,2.687835693,-8.794319153,-1.739753723,-0.148873165,-0.100244015,0.902287483
17.489900,2.787017822,-9.236824036,-1.747383118,-0.149361446,-0.102075070,0.903752327
17.490525,2.901458740,-9.191047668,-1.800788879,-0.149849728,-0.100854367,0.900334358
17.491150,3.069305420,-9.541999817,-1.877082825,-0.151436642,-0.104516476,0.900334358
17.491776,3.275299072,-9.854804993,-1.968635559,-0.148018673,-0.104760617,0.897160530
17.492403,3.206634521,-9.854804993,-1.915229797,-0.151436642,-0.106835812,0.900212288
17.493028,3.626251221,-10.030281067,-1.953376770,-0.147774532,-0.106347531,0.896183968
17.493655,3.809356689,-10.182868958,-1.899971008,-0.148629025,-0.106591672,0.900090218
17.494281,4.015350342,-10.510932922,-1.991523743,-0.144722775,-0.107079953,0.900822639
17.494907,4.213714600,-10.663520813,-1.945747375,-0.147774532,-0.106591672,0.903630257
17.495534,4.358673096,-10.816108704,-1.991523743,-0.148018673,-0.108666867,0.907902718
17.496160,4.763031006,-11.136543274,-1.907600403,-0.146187618,-0.107446164,0.912541389
17.496786,4.633331299,-11.250984192,-1.976264954,-0.147164181,-0.110742062,0.915715218
17.497411,4.885101318,-11.518013000,-1.968635559,-0.145333126,-0.110864133,0.914006233
17.498038,5.098724365,-11.716377258,-1.892341614,-0.145088986,-0.109521359,0.918766975
17.498663,5.350494385,-11.754524231,-1.892341614,-0.142891720,-0.111352414,0.920475960
17.499288,5.449676514,-11.823188782,-1.877082825,-0.143380001,-0.107812375,0.921208382
17.499914,5.594635010,-12.143623352,-2.289070129,-0.143013790,-0.111718625,0.924260139
17.500540,5.792999268,-12.113105774,-1.961006165,-0.144234493,-0.111474484,0.925480843
17.501167,5.907440186,-12.525093079,-2.090705872,-0.139962032,-0.112573117,0.929631233
17.501792,6.296539307,-12.486946106,-1.945747375,-0.138253048,-0.113671750,0.930119514
17.502419,6.555938721,-12.486946106,-2.029670715,-0.139473751,-0.114892453,0.933049202
17.503045,6.365203857,-12.914192200,-1.991523743,-0.139107540,-0.113671750,0.934880257
17.503672,6.716156006,-12.837898254,-2.105964661,-0.136666134,-0.110131711,0.940983772
17.504297,6.906890869,-12.883674622,-2.197517395,-0.137764767,-0.115746945,0.940129280
17.504922,7.028961182,-12.982856750,-1.938117981,-0.131783321,-0.111230344,0.940861702
17.505547,7.212066650,-12.998115540,-2.029670715,-0.129952267,-0.113549680,0.945012093
17.506173,7.639312744,-13.104927063,-2.044929504,-0.128975704,-0.114404172,0.944279671
17.506799,7.425689697,-12.860786438,-2.029670715,-0.131783321,-0.115624875,0.948796272
17.507424,7.624053955,-13.013374329,-2.052558899,-0.131905392,-0.116723508,0.949284554
17.508050,7.601165771,-12.959968567,-2.060188293,-0.128853634,-0.114648312,0.951603889
17.508675,7.921600342,-12.807380676,-2.189888000,-0.127755001,-0.115624875,0.951481819
17.509300,8.051300049,-12.929450989,-2.067817688,-0.126290157,-0.112451047,0.954411507
17.509926,8.226776123,-12.921821594,-2.044929504,-0.127877071,-0.111474484,0.956120491
17.510553,8.226776123,-12.853157043,-2.258552551,-0.127632931,-0.112695187,0.950261116
17.511179,8.547210693,-12.914192200,-2.121223450,-0.128121212,-0.115258664,0.953679085
17.511805,8.661651611,-12.868415833,-2.121223450,-0.129219845,-0.112817258,0.952824593
17.512432,8.440399170,-12.815010071,-2.205146790,-0.130440548,-0.114160031,0.955265999
17.525060,10.363006592,-13.104927063,-2.144111633,-0.134346798,-0.120751828,0.964055061
17.525785,10.233306885,-12.975227356,-2.136482239,-0.135689571,-0.120385617,0.965764046
17.526412,10.500335693,-13.211738586,-2.182258606,-0.135689571,-0.116479367,0.967595100
17.527037,10.500335693,-13.127815247,-2.075447083,-0.138497189,-0.121118039,0.963078499
17.527664,10.363006592,-13.082038879,-2.144111633,-0.133858517,-0.121850461,0.966496468
17.528289,10.668182373,-13.104927063,-2.037300110,-0.138741329,-0.124413937,0.968449593
17.528915,10.668182373,-13.051521301,-2.083076477,-0.136055782,-0.123193234,0.970158577
17.529542,10.637664795,-13.150703430,-2.182258606,-0.137764767,-0.124291867,0.973210335
17.530169,10.713958740,-13.143074036,-2.220405579,-0.137764767,-0.126244992,0.971989632
17.530795,11.011505127,-13.021003723,-2.083076477,-0.137642696,-0.128686398,0.971989632
17.531422,11.148834229,-13.051521301,-2.060188293,-0.137886837,-0.126489133,0.972355843
17.532047,11.011505127,-13.158332825,-1.976264954,-0.136910275,-0.126733273,0.977360725
17.532674,11.385345459,-13.089668274,-2.075447083,-0.141060665,-0.129418820,0.976872444
17.533301,11.301422119,-13.028633118,-1.930488586,-0.140572384,-0.127221555,0.980778694
17.533926,11.423492432,-13.021003723,-2.083076477,-0.137520626,-0.131494015,0.976262093
17.534552,11.537933350,-12.998115540,-1.976264954,-0.139229611,-0.132836789,0.979191780
17.535177,11.904144287,-12.929450989,-2.006782532,-0.136544064,-0.128686398,0.982975960
17.535804,11.652374268,-12.769233704,-2.098335266,-0.137154415,-0.130273312,0.985051155
17.536430,11.736297607,-12.967597961,-1.991523743,-0.134102657,-0.126611203,0.983830452
17.537056,11.835479736,-12.570869446,-2.235664368,-0.135079220,-0.128930539,0.984440804
17.537681,12.010955811,-12.563240051,-1.968635559,-0.134346798,-0.127953976,0.986393929
17.538308,11.957550049,-12.685310364,-1.693977356,-0.137398556,-0.128686398,0.987858772
17.538933,11.881256104,-12.364875793,-1.938117981,-0.132393673,-0.128442258,0.988102913
17.539559,12.079620361,-12.395393372,-1.953376770,-0.134713009,-0.126122922,0.989689827
17.540184,12.232208252,-12.319099426,-1.755012512,-0.134346798,-0.128564328,0.990178108
17.541954,11.957550049,-11.891853333,-1.907600403,-0.129463986,-0.130761594,0.988347054
17.542581,11.934661865,-11.685859680,-1.953376770,-0.129952267,-0.129662961,0.989689827
17.543207,11.827850342,-11.739265442,-2.067817688,-0.128121212,-0.128442258,0.989933968
17.543833,11.644744873,-11.479866028,-1.869453430,-0.128121212,-0.121484250,0.988957405
17.544459,11.682891846,-11.456977844,-1.961006165,-0.130806759,-0.123803586,0.993474007
17.545085,11.652374268,-11.395942688,-1.877082825,-0.128243282,-0.126855344,0.991765022
17.545710,11.499786377,-11.266242981,-1.808418274,-0.128365353,-0.124536008,0.990788460
17.546337,11.110687256,-11.113655090,-1.739753723,-0.130440548,-0.127099484,0.987736702
17.546962,11.202239990,-10.961067200,-1.480354309,-0.130440548,-0.125512570,0.986638069
17.547589,10.782623291,-10.877143860,-1.541389465,-0.129708126,-0.125146359,0.987126350
17.548214,10.698699951,-10.831367493,-1.632942200,-0.130074337,-0.123925656,0.983830452
17.548841,10.538482666,-10.671150208,-1.709236145,-0.127999142,-0.122827023,0.984684944
17.549466,10.416412354,-10.716926575,-1.472724915,-0.128609493,-0.122094601,0.981755257
17.550093,10.034942627,-10.686408997,-1.419319153,-0.128731564,-0.122094601,0.980046272
17.550719,9.874725342,-10.411750793,-1.556648254,-0.131783321,-0.119409055,0.981999397
17.551344,9.584808350,-10.549079895,-1.304878235,-0.127632931,-0.118432492,0.979313850
17.551971,9.287261963,-10.503303528,-1.358283997,-0.125679806,-0.118432492,0.978093147
17.552596,8.997344971,-10.251533508,-1.373542786,-0.129830196,-0.117822140,0.978825569
17.553222,8.638763428,-10.510932922,-1.312507629,-0.132149532,-0.114404172,0.977360725
17.553848,8.310699463,-10.289680481,-1.205696106,-0.127144650,-0.113061398,0.975529671
17.554474,7.959747314,-10.358345032,-1.083625793,-0.133248165,-0.114160031,0.973576546
17.555101,7.593536377,-10.358345032,-1.068367004,-0.135201290,-0.113305539,0.973820686
17.567674,0.788116455,-12.120735168,-0.091804504,-0.130928829,-0.124902219,0.977482796
17.568373,0.444793701,-12.250434875,-0.038398743,-0.131050900,-0.124413937,0.982975960
17.568998,0.482940674,-12.212287903,-0.160469055,-0.132881954,-0.129052609,0.985295296
17.569625,0.231170654,-12.464057922,0.030265808,-0.128731564,-0.126855344,0.985295296
17.570251,0.154876709,-12.341987610,-0.091804504,-0.127510861,-0.130273312,0.985539436
17.570878,-0.012969971,-12.448799133,0.091300964,-0.132027462,-0.129907101,0.985905647
17.571505,-0.157928467,-12.227546692,0.106559753,-0.128243282,-0.132592648,0.989079475
17.572132,0.086212158,-12.403022766,-0.007881165,-0.130074337,-0.134911984,0.991642952
17.572758,0.017547607,-12.570869446,0.076042175,-0.129708126,-0.134301633,0.995182991
17.573385,-0.020599365,-12.479316711,0.304924011,-0.128121212,-0.138452023,0.994694710
17.574010,0.032806396,-12.349617004,0.312553406,-0.131905392,-0.136132687,0.995182991
17.574635,0.139617920,-12.349617004,0.320182800,-0.131905392,-0.140038937,0.999333382
17.575260,0.055694580,-12.433540344,0.320182800,-0.132759884,-0.143212765,1.001408577
17.575885,0.162506104,-12.288581848,0.304924011,-0.129952267,-0.142236203,1.003361702
17.576510,0.215911865,-12.395393372,0.396476746,-0.131295040,-0.142846555,1.007390022
17.577135,0.254058838,-12.280952454,0.465141296,-0.130074337,-0.144433469,1.007023811
17.577760,0.727081299,-12.372505188,0.426994324,-0.126900509,-0.145287961,1.011052132
17.578386,0.627899170,-12.135993958,0.434623718,-0.132149532,-0.147119015,1.010563850
17.579013,0.841522217,-12.151252747,0.434623718,-0.131661251,-0.149560422,1.012639046
17.579638,0.910186768,-12.135993958,0.541435242,-0.134346798,-0.148950070,1.016057014
17.580264,1.322174072,-12.013923645,0.533805847,-0.131783321,-0.147485226,1.017521858
17.580891,1.535797119,-12.105476379,0.594841003,-0.132637814,-0.150414914,1.017155647
17.581517,1.711273193,-11.907112122,0.602470398,-0.130928829,-0.148828000,1.016667366
17.582143,1.940155029,-11.670600891,0.472770691,-0.132881954,-0.151513547,1.018620491
17.582769,2.054595947,-11.960517883,0.686393738,-0.133980587,-0.155419797,1.023747444
17.583395,2.489471436,-11.655342102,0.732170105,-0.134346798,-0.150659055,1.021306038
17.584021,2.985382080,-11.701118469,0.686393738,-0.134468868,-0.154565305,1.026188850
17.584646,3.260040283,-11.548530579,0.480400085,-0.131661251,-0.157250851,1.026921272
17.585271,3.618621826,-11.281501770,0.846611023,-0.133004025,-0.155297726,1.026310921
17.585898,3.572845459,-11.334907532,0.709281921,-0.131661251,-0.156518430,1.027531624
17.586524,3.839874268,-11.304389954,0.556694031,-0.130440548,-0.158471555,1.026799202
17.587150,4.190826416,-11.174690247,0.823722839,-0.131539181,-0.161035031,1.028752327
17.587776,4.450225830,-11.067878723,0.694023132,-0.129708126,-0.158105344,1.029118538
17.588401,4.946136475,-11.006843567,0.762687683,-0.126290157,-0.162744015,1.031315804
17.589028,5.258941650,-10.900032043,0.800834656,-0.129708126,-0.160058469,1.030949593
17.589654,5.503082275,-10.732185364,0.755058289,-0.127022579,-0.160912961,1.029362679
17.590279,5.564117432,-10.678779602,0.892387390,-0.127144650,-0.162255734,1.029973030
17.590905,6.319427490,-10.541450500,1.014457703,-0.132027462,-0.160912961,1.028752327
17.591531,6.327056885,-10.381233215,1.052604675,-0.125801876,-0.162255734,1.028752327
17.592158,6.754302979,-10.564338684,0.777946472,-0.124214962,-0.162621945,1.030217171
17.592785,7.089996338,-10.571968079,0.900016785,-0.122261837,-0.160546750,1.032292366
17.593411,7.280731201,-10.449897766,1.060234070,-0.119576290,-0.161157101,1.037419319
17.594037,7.685089111,-10.327827454,1.075492859,-0.115792111,-0.159692258,1.036320686
17.594663,7.624053955,-10.335456848,0.861869812,-0.113228634,-0.156762570,1.032658577
17.595288,8.013153076,-10.159980774,1.060234070,-0.111031368,-0.157494992,1.032658577
17.595914,8.211517334,-9.877693176,1.075492859,-0.108712032,-0.156030148,1.033146858
17.596540,8.379364014,-10.221015930,1.060234070,-0.107979611,-0.157983273,1.034855843
17.609174,9.500885010,-8.603584290,2.258049011,-0.097359493,-0.147119015,1.026432991
17.609903,9.584808350,-8.534919739,2.341972351,-0.099068478,-0.149804562,1.026188850
17.610528,9.546661377,-8.656990051,2.586112976,-0.098213986,-0.146752805,1.023137093
17.611155,9.226226807,-8.634101868,2.563224792,-0.098091915,-0.148828000,1.025822639
17.611781,9.127044678,-8.428108215,2.723442078,-0.103829220,-0.144677609,1.026799202
17.612406,9.134674072,-8.473884583,2.647148132,-0.101387814,-0.144311398,1.027165413
17.613032,8.974456787,-8.527290344,2.883659363,-0.107857540,-0.145165890,1.024113655
17.613658,8.867645264,-8.534919739,2.822624207,-0.109200314,-0.145165890,1.027775764
17.614283,8.638763428,-8.405220032,2.853141785,-0.112252071,-0.144799680,1.027775764
17.614910,8.470916748,-8.306037903,2.982841492,-0.113472775,-0.140527219,1.028630257
17.615537,8.455657959,-8.206855774,2.982841492,-0.115181759,-0.142846555,1.027775764
17.616164,7.952117920,-8.313667297,3.318534851,-0.116158321,-0.140161008,1.030949593
17.616789,7.891082764,-8.397590637,3.020988464,-0.120552853,-0.141625851,1.032414436
17.617415,7.662200928,-8.389961243,3.219352722,-0.121651486,-0.142236203,1.031682014
17.618041,7.662200928,-8.588325500,3.448234558,-0.124947384,-0.141503781,1.036564827
17.618668,7.265472412,-8.313667297,3.501640320,-0.128609493,-0.140649289,1.039372444
17.619294,7.204437256,-8.374702454,3.494010925,-0.130928829,-0.144189328,1.037175179
17.619920,6.960296631,-8.466255188,3.585563660,-0.133492306,-0.142846555,1.035710335
17.620546,6.731414795,-8.489143372,3.654228210,-0.132637814,-0.142114133,1.038029671
17.621213,6.853485107,-8.435737610,3.959403992,-0.135445431,-0.147363156,1.043766975
17.621838,6.441497803,-8.527290344,3.928886414,-0.139351681,-0.145410031,1.041569710
17.622463,6.586456299,-8.321296692,4.066215515,-0.136055782,-0.146264523,1.044255257
17.623208,6.288909912,-8.328926086,4.142509460,-0.136421993,-0.149804562,1.043644905
17.623991,6.204986572,-8.382331848,4.325614929,-0.139473751,-0.147973508,1.046208382
17.624767,6.098175049,-8.367073059,4.264579773,-0.137764767,-0.152734250,1.051457405
17.625394,5.892181396,-8.092414856,4.241691589,-0.137276486,-0.150903195,1.052678108
17.626068,5.854034424,-8.092414856,4.310356140,-0.136055782,-0.152001828,1.054265022
17.626693,6.311798096,-7.970344543,4.615531921,-0.137642696,-0.155297726,1.053898811
17.627320,6.113433838,-7.871162415,4.699455261,-0.137520626,-0.156152219,1.055851936
17.627947,6.143951416,-7.688056946,4.630790710,-0.134590939,-0.157739133,1.057194710
17.628646,6.189727783,-7.756721497,4.783378601,-0.135811642,-0.161279172,1.056584358
17.629272,6.502532959,-7.550727844,4.729972839,-0.136055782,-0.159570187,1.058293343
17.629899,6.319427490,-7.428657532,4.729972839,-0.138985470,-0.161279172,1.059636116
17.630525,6.655120850,-7.352363586,5.035148621,-0.137642696,-0.165063351,1.058903694
17.631152,6.754302979,-6.940376282,5.035148621,-0.138985470,-0.164575070,1.057316780
17.631778,7.044219971,-7.146369934,4.974113464,-0.138497189,-0.165917844,1.058659554
17.632404,6.998443604,-6.970893860,5.370841980,-0.135445431,-0.165795773,1.060246468
17.633030,7.494354248,-6.932746887,5.218254089,-0.135445431,-0.169579953,1.062687874
17.633655,7.463836670,-6.619941711,5.279289246,-0.131783321,-0.167993039,1.062565804
17.634280,7.608795166,-6.619941711,5.424247742,-0.130074337,-0.169824094,1.061955452
17.634905,8.104705811,-6.406318665,5.347953796,-0.129830196,-0.170678586,1.057927132
17.635532,8.165740967,-6.314765930,5.332695007,-0.125435665,-0.171166867,1.066105843
17.636211,8.577728271,-6.185066223,5.714164734,-0.121163204,-0.170190305,1.065617561
17.636949,8.722686768,-6.307136536,5.721794128,-0.124092892,-0.169702023,1.064274788
17.637702,9.279632568,-5.803596497,5.782829285,-0.112252071,-0.169213742,1.066349983
17.638503,9.622955322,-5.750190735,6.011711121,-0.112862423,-0.173852414,1.065495491
17.639297,9.729766846,-5.322944641,5.752311707,-0.109932736,-0.169579953,1.066716194
17.640066,10.095977783,-5.193244934,5.988822937,-0.107491329,-0.169457883,1.064763069
17.642036,10.652923584,-4.453193665,6.339775085,-0.101754025,-0.164575070,1.061223030
17.654625,7.715606689,-2.126228333,8.323417664,-0.111763790,-0.122216672,1.034855843
17.655326,7.158660889,-2.057563782,8.277641296,-0.115059689,-0.117822140,1.034977913
17.655953,6.670379639,-2.210151672,8.369194031,-0.117745236,-0.115624875,1.031193733
17.656579,6.243133545,-2.263557434,8.537040710,-0.117989376,-0.116479367,1.031804085
17.657205,5.915069580,-2.126228333,8.529411316,-0.119698361,-0.114282101,1.029484749
17.657832,5.327606201,-2.286445618,8.819328308,-0.120552853,-0.110009640,1.029118538
17.658458,4.969024658,-2.393257141,8.712516785,-0.115792111,-0.108788937,1.029850960
17.659083,4.503631592,-2.507698059,8.987174988,-0.113472775,-0.108544797,1.031437874
17.659708,4.015350342,-2.393257141,9.025321960,-0.115547970,-0.108178586,1.033757210
17.660334,3.588104248,-2.583992004,9.132133484,-0.111763790,-0.107568234,1.033024788
17.660960,2.771759033,-2.606880188,9.109245300,-0.111031368,-0.109399289,1.035710335
17.661586,2.474212646,-2.698432922,9.330497742,-0.114083126,-0.107079953,1.034855843
17.662212,2.123260498,-2.767097473,9.277091980,-0.115914181,-0.104516476,1.032780647
17.662837,1.581573486,-2.873908997,9.437309265,-0.116646603,-0.108300656,1.035099983
17.663462,1.253509521,-2.904426575,9.437309265,-0.119576290,-0.108544797,1.030949593
17.664089,0.940704346,-2.873908997,9.780632019,-0.121041134,-0.107324094,1.030461311
17.664714,0.566864014,-3.240119934,9.765373230,-0.120552853,-0.108544797,1.027043343
17.665341,0.101470947,-3.217231750,9.956108093,-0.122628048,-0.109155148,1.029728889
17.665966,-0.196075439,-3.041755676,9.841667175,-0.120674923,-0.112695187,1.028630257
17.666593,-0.310516357,-3.400337219,10.200248718,-0.118233517,-0.109887570,1.027897835
17.667219,-0.585174561,-3.392707825,10.238395691,-0.122261837,-0.106225461,1.032414436
17.667844,-0.928497314,-3.385078430,10.329948425,-0.119454220,-0.103906125,1.030583382
17.668469,-1.226043701,-3.652107239,10.459648132,-0.118843868,-0.104028195,1.034855843
17.669095,-0.943756104,-3.751289368,10.452018738,-0.120796993,-0.105004758,1.032780647
17.669720,-1.424407959,-3.484260559,10.413871765,-0.122750118,-0.103661984,1.040471077
17.670347,-1.576995850,-3.629219055,10.368095398,-0.115547970,-0.108911008,1.042546272
17.670973,-1.729583740,-3.774177551,10.535942078,-0.118965939,-0.109399289,1.041569710
17.671599,-1.889801025,-3.858100891,10.680900574,-0.122139767,-0.112451047,1.044011116
17.672224,-1.668548584,-3.652107239,10.841117859,-0.123116329,-0.111596555,1.049992561
17.672850,-1.622772217,-3.743659973,10.894523621,-0.120064571,-0.113793820,1.050236702
17.690756,11.103057861,-0.455390930,11.474357605,-0.090279415,-0.120751828,1.087956429
17.691383,11.743927002,-0.325691223,11.428581238,-0.091744259,-0.120873898,1.088200569
17.692011,12.239837646,-0.112068176,11.520133972,-0.089424923,-0.119042844,1.086491585
17.692636,12.804412842,-0.020515442,11.306510925,-0.090401486,-0.114404172,1.088566780
17.693261,13.208770752,0.177848816,11.718498230,-0.091378048,-0.110864133,1.084294319
17.693887,13.719940186,0.345695496,11.489616394,-0.091133907,-0.109643430,1.081852913
17.694512,14.337921143,0.376213074,11.390434265,-0.088814571,-0.108056515,1.082341194
17.695139,14.498138428,0.681388855,11.443840027,-0.087960079,-0.108911008,1.080265999
17.695765,15.009307861,0.528800964,11.573539734,-0.086006954,-0.104394406,1.080143929
17.696392,15.558624268,0.887382507,11.672721863,-0.086373165,-0.102319211,1.078312874
17.697017,16.146087646,0.956047058,11.405693054,-0.088936642,-0.097314328,1.078068733
17.697643,16.374969482,1.360404968,11.443840027,-0.086861446,-0.099999875,1.077702522
17.698269,16.657257080,1.192558289,11.558280945,-0.084297970,-0.096215695,1.077946663
17.698896,17.046356201,1.749504089,11.535392761,-0.084053829,-0.093896359,1.075261116
17.699521,17.290496826,1.474845886,11.420951843,-0.082833126,-0.091454953,1.075016975
17.700146,17.687225342,1.894462585,11.398063660,-0.085274532,-0.086450070,1.076481819
17.700772,17.893218994,2.146232605,11.573539734,-0.086129025,-0.086694211,1.073063850
17.713508,19.686126709,3.702629089,11.207328796,-0.108101681,-0.058862183,1.042912483
17.714282,19.403839111,3.603446960,11.550651550,-0.110787228,-0.055566285,1.039860725
17.714908,19.258880615,3.458488464,11.344657898,-0.113716915,-0.053246949,1.041447639
17.715533,19.327545166,3.801811218,11.405693054,-0.115914181,-0.050927613,1.039128304
17.716158,19.396209717,3.740776062,11.275993347,-0.112740353,-0.050195191,1.036686897
17.716785,19.014739990,3.504264832,11.275993347,-0.113228634,-0.048486207,1.037297249
17.717412,19.060516357,3.771293640,11.329399109,-0.118111446,-0.049828980,1.034245491
17.718038,18.900299072,3.641593933,11.169181824,-0.117989376,-0.047997925,1.032780647
17.718664,18.923187256,3.672111511,11.237846375,-0.118721798,-0.046533082,1.032536507
17.719289,18.610382080,3.542411804,11.436210632,-0.115181759,-0.046044800,1.026555061
17.719914,18.579864502,3.656852722,11.298881531,-0.115303829,-0.046044800,1.031193733
17.720539,18.412017822,3.603446960,11.359916687,-0.113961056,-0.039941285,1.030217171
17.721165,18.221282959,3.572929382,11.237846375,-0.116768673,-0.040795777,1.027165413
17.721790,17.885589600,3.649223328,11.253105164,-0.116768673,-0.041406129,1.029850960
17.722416,17.961883545,3.283012390,11.337028503,-0.118599728,-0.036401246,1.028019905
17.723041,17.603302002,3.397453308,11.199699402,-0.118721798,-0.036035035,1.025334358
17.723667,17.534637451,3.321159363,11.176811218,-0.121041134,-0.031030152,1.023869514
17.724292,17.038726807,3.420341492,11.176811218,-0.120796993,-0.029565308,1.027165413
17.724917,16.748809814,3.260124207,11.092887878,-0.116646603,-0.026269410,1.026188850
17.725543,16.458892822,3.122795105,10.947929382,-0.116158321,-0.025903199,1.026188850
17.726170,16.115570068,3.366935730,11.047111511,-0.117134884,-0.019677613,1.024724007
17.726797,15.932464600,3.328788757,10.917411804,-0.114815548,-0.016992066,1.026066780
17.727422,15.474700928,3.290641785,11.016593933,-0.115547970,-0.013452027,1.021550179
17.728048,14.910125732,3.588188171,11.077629089,-0.118965939,-0.012963746,1.023503304
17.728673,14.360809326,3.481376648,11.184440613,-0.118233517,-0.012597535,1.023991585
17.729300,13.780975342,3.336418152,10.795341492,-0.117867306,-0.011865113,1.024479866
17.729926,13.491058350,3.336418152,11.024223328,-0.119698361,-0.007958863,1.022160530
17.730552,12.987518311,3.466117859,10.894523621,-0.120308712,-0.008813355,1.022038460
17.731178,12.590789795,3.489006042,10.757194519,-0.122139767,-0.001122925,1.019963264
17.731804,11.682891846,3.130424500,10.673271179,-0.122261837,-0.002831910,1.019841194
17.732429,11.164093018,3.359306335,10.749565125,-0.126534298,0.001684692,1.017643929
17.733055,10.614776611,3.290641785,10.726676941,-0.130318478,0.003271606,1.017399788
17.733682,9.622955322,3.412712097,10.589347839,-0.130196407,0.004004028,1.016545296
17.734309,9.066009521,3.283012390,10.673271179,-0.131783321,0.008032348,1.015202522
17.734936,8.478546143,3.176200867,10.726676941,-0.135933712,0.009375121,1.016789436
17.735561,7.898712158,3.313529968,10.535942078,-0.133126095,0.013281371,1.016789436
17.736186,7.364654541,3.038871765,10.390983582,-0.135689571,0.014013793,1.019963264
17.736812,6.510162354,3.206718445,10.665641785,-0.133980587,0.011816528,1.023869514
17.737438,5.838775635,3.138053894,10.574089050,-0.133370236,0.017065551,1.023259163
17.738064,4.366302490,2.977836609,10.566459656,-0.136788204,0.016699340,1.027653694
17.738691,4.366302490,2.977836609,10.566459656,-0.136788204,0.016699340,1.027653694
17.739317,2.985382080,3.046501160,10.528312683,-0.131539181,0.018042114,1.032902718
17.739942,1.978302002,2.993095398,10.337577820,-0.130074337,0.016577270,1.034733772
17.740568,1.390838623,2.916801453,10.421501160,-0.131661251,0.018164184,1.035344124
17.742337,-0.035858154,2.977836609,10.329948425,-0.125557736,0.017675903,1.039738655
17.742962,-0.585174561,2.970207214,10.513053894,-0.125435665,0.014135864,1.044743538
17.743588,-1.050567627,2.962577820,10.459648132,-0.123238400,0.015844848,1.043278694
17.744215,-1.744842529,3.115165710,10.314689636,-0.125801876,0.011450317,1.046696663
17.756842,-0.867462158,6.945121765,9.574638367,-0.111031368,-0.053369019,1.066349983
17.757549,-0.012969971,6.823051453,9.231315613,-0.113228634,-0.056909058,1.065007210
17.758174,0.582122803,6.891716003,9.254203796,-0.106392696,-0.059228394,1.065983772
17.758801,1.543426514,7.227409363,9.338127136,-0.108345821,-0.060815308,1.065373421
17.759427,2.138519287,7.418144226,9.139762878,-0.107735470,-0.065453976,1.060856819
17.760052,2.909088135,7.303703308,8.994804382,-0.106392696,-0.064355344,1.063054085
17.760679,3.755950928,7.654655457,8.865104675,-0.103585079,-0.065331906,1.060246468
17.761305,4.549407959,7.715690613,8.903251648,-0.103707150,-0.069970578,1.056706429
17.761931,5.541229248,7.990348816,8.781181335,-0.102486446,-0.071923703,1.053166389
17.762557,6.288909912,8.028495789,8.643852234,-0.099678829,-0.072045773,1.056584358
17.763182,7.250213623,8.081901550,8.567558289,-0.098458126,-0.074975461,1.054997444
17.763808,8.081817627,8.150566101,8.758293152,-0.099312618,-0.073876828,1.049870491
17.764433,9.310150146,8.226860046,8.445487976,-0.094185665,-0.073510617,1.051091194
