time,gyro x,gyro y,gyro z,accel x,accel y,accel z
88.209141,-1.429710388,6.874038696,1.740051270,-0.306387931,0.870518565,0.364672780
88.218917,-1.437339783,5.180313110,1.175476074,-0.196768805,0.959263682,0.303759694
88.219543,-3.596458435,7.385208130,1.427246094,-0.172476813,0.975376964,0.300585866
88.220168,-4.679832458,9.880020142,2.106262207,-0.201407477,0.963658214,0.305712819
88.220794,-5.549583435,11.642410278,2.296997070,-0.254752189,0.949131846,0.298266530
88.221420,-5.915794373,11.474563599,2.190185547,-0.329703361,0.909092784,0.313037038
88.222046,-5.763206482,10.040237427,2.007080078,-0.403555900,0.868687510,0.336718678
88.222672,-4.923973083,7.476760864,2.136779785,-0.429068595,0.857212901,0.340624928
88.223298,-3.939781189,4.432632446,1.579833984,-0.419302970,0.856968760,0.334033132
88.223923,-3.070030212,2.296401978,1.198364258,-0.393668205,0.867833018,0.325244069
88.224548,-2.604637146,0.289871216,1.083923340,-0.357413322,0.874546885,0.320239186
88.225175,-1.711997986,-0.656173706,1.030517578,-0.301138908,0.898960948,0.303149343
88.225800,-2.253684998,-0.167892456,0.916076660,-0.260489494,0.926182628,0.277026296
88.226427,-3.115806580,0.930740356,0.992370605,-0.239005134,0.931065440,0.263476491
88.227053,-4.008445740,2.769424438,1.030517578,-0.238150641,0.910435557,0.263110280
88.227678,-4.046592712,4.165603638,0.916076660,-0.255362540,0.897007823,0.264453053
88.228304,-4.183921814,4.478408813,1.152587891,-0.285880119,0.876744151,0.267504811
88.228929,-3.802452087,4.348709106,1.465393066,-0.320792228,0.864903331,0.274706960
88.229554,-3.268394470,3.425552368,1.450134277,-0.349234611,0.848179698,0.283984303
88.230181,-2.009544373,2.242996216,1.434875488,-0.364981681,0.845372081,0.291064382
88.230806,-0.880393982,0.419570923,1.358581543,-0.362662345,0.863072276,0.285937428
88.231431,-0.765953064,-0.579879761,0.931335449,-0.348868400,0.882237315,0.278735280
88.232058,-0.346336365,-1.075790405,0.702453613,-0.327628165,0.897251964,0.273486257
88.232684,-0.071678162,-1.136825562,0.588012695,-0.306265861,0.905918956,0.269335866
88.233310,0.096168518,-1.060531616,0.191284180,-0.297598869,0.911656260,0.265917897
88.233936,0.103797913,-0.854537964,0.343872070,-0.298697501,0.901646495,0.267871022
88.234561,0.592079163,-1.014755249,0.519348145,-0.308951408,0.886875987,0.281176686
88.235188,1.133766174,-1.579330444,0.687194824,-0.325675040,0.872593760,0.291796803
88.235815,1.545753479,-2.464340210,0.748229980,-0.337393790,0.863316417,0.304370046
88.236441,1.934852600,-3.173873901,0.504089355,-0.339835197,0.858799815,0.313037038
88.237067,2.163734436,-3.974960327,0.702453613,-0.330191642,0.860020518,0.315844655
88.238819,2.491798401,-4.592941284,0.542236328,-0.298331290,0.877964854,0.319750905
88.239444,2.331581116,-4.753158569,0.687194824,-0.290274650,0.877842784,0.325121999
88.240070,2.499427795,-4.478500366,0.649047852,-0.293814689,0.876255870,0.327441335
88.240696,2.323951721,-4.493759155,0.618530273,-0.303580314,0.871006846,0.332812428
88.241322,2.629127502,-4.676864624,0.664306641,-0.311514884,0.864659190,0.335375905
88.241949,3.056373596,-4.875228882,0.725341797,-0.318717033,0.862950206,0.340014577
88.242575,3.254737854,-5.294845581,0.542236328,-0.318839103,0.858189464,0.347582936
88.243200,3.567543030,-5.744979858,0.626159668,-0.318961173,0.857823253,0.349536061
88.243825,3.826942444,-6.225631714,0.343872070,-0.309317619,0.856114268,0.349902272
88.244451,4.040565491,-6.408737183,0.534606934,-0.303458244,0.861119151,0.355639577
88.245078,4.330482483,-6.469772339,0.626159668,-0.296866447,0.861607432,0.356249928
88.245703,4.132118225,-6.332443237,0.450683594,-0.291373283,0.862828135,0.357348561
88.246329,4.277076721,-6.088302612,0.572753906,-0.291495353,0.863682628,0.354663014
88.246955,4.338111877,-6.492660522,0.496459961,-0.294425040,0.862339854,0.358447194
88.247580,4.330482483,-6.210372925,0.450683594,-0.296866447,0.857457042,0.358691335
88.248207,4.338111877,-6.324813843,0.717712402,-0.302603751,0.856724620,0.361376882
88.248832,4.566993713,-6.790206909,0.565124512,-0.299429923,0.860508800,0.358080983
88.249459,4.307594299,-6.507919312,0.389648438,-0.300040275,0.861729503,0.355029225
88.265222,2.941932678,-9.254501343,-0.548767090,-0.244864509,0.895176768,0.390673757
88.265948,2.362098694,-8.468673706,-0.632690430,-0.258048087,0.869908214,0.388110280
88.266575,2.674903870,-8.232162476,-0.472473145,-0.276602775,0.847325206,0.385546803
88.267201,3.033485413,-8.308456421,-0.167297363,-0.295523673,0.831700206,0.382617116
88.267827,3.216590881,-8.407638550,-0.304626465,-0.305533439,0.829625010,0.384570241
88.268452,3.407325745,-8.766220093,-0.228332520,-0.299063712,0.830235362,0.387255788
88.269078,3.582801819,-8.560226440,-0.556396484,-0.293448478,0.836216807,0.399706960
88.269705,3.872718811,-8.438156128,-0.663208008,-0.285513908,0.841709971,0.407153249
88.270330,3.994789124,-8.598373413,-0.762390137,-0.285147697,0.851231456,0.417040944
88.270956,3.773536682,-8.537338257,-0.502990723,-0.283316642,0.851475596,0.418505788
88.271582,4.086341858,-8.445785522,-0.365661621,-0.284781486,0.852208018,0.424853444
88.272209,4.658546448,-8.606002808,-0.464843750,-0.292227775,0.850376964,0.430712819
88.272835,4.620399475,-8.613632202,-0.678466797,-0.292593986,0.843785167,0.438403249
88.273461,4.948463440,-8.544967651,-0.640319824,-0.289176017,0.844883800,0.441332936
88.274088,4.956092834,-8.422897339,-0.472473145,-0.285269767,0.848423839,0.442431569
88.274714,4.727210999,-8.453414917,-0.663208008,-0.278311759,0.849522471,0.449389577
88.275340,5.139198303,-8.216903687,-0.693725586,-0.281241447,0.852452159,0.451953053
88.275966,5.192604065,-8.049057007,-0.586914062,-0.281241447,0.854527354,0.452929616
88.276591,5.200233459,-8.125350952,-0.602172852,-0.281607658,0.858189464,0.447924733
88.277218,5.474891663,-7.568405151,-0.731872559,-0.278922111,0.855137706,0.449389577
88.277845,5.215492249,-7.263229370,-0.625061035,-0.271719962,0.855381846,0.447680593
88.278472,5.619850159,-6.805465698,-0.670837402,-0.272086173,0.856358409,0.448290944
88.279097,5.734291077,-6.500289917,-0.602172852,-0.273062736,0.849278331,0.451342702
88.279724,5.970802307,-6.332443237,-0.792907715,-0.279532462,0.855137706,0.457690358
88.280351,6.108131409,-6.294296265,-0.464843750,-0.278555900,0.855381846,0.457446218
88.280977,5.947914124,-6.073043823,-0.602172852,-0.279166251,0.858067393,0.464648366
88.281603,5.947914124,-5.622909546,-0.586914062,-0.282218009,0.864292979,0.461840749
88.282228,5.978431702,-5.622909546,-0.632690430,-0.282095939,0.859532237,0.461840749
88.282854,6.138648987,-5.424545288,-0.808166504,-0.282462150,0.861851573,0.463305593
88.283480,6.466712952,-5.516098022,-0.663208008,-0.289053947,0.856846690,0.466967702
88.285229,7.366981506,-6.309555054,-0.434326172,-0.303092033,0.860142589,0.484789968
88.285855,7.923927307,-6.645248413,-0.525878906,-0.302115470,0.872837901,0.495654225
88.286482,7.466163635,-6.958053589,-0.655578613,-0.280142814,0.898960948,0.484301686
88.287108,6.596412659,-6.469772339,-0.708984375,-0.258170158,0.900303721,0.467455983
88.287735,5.757179260,-5.279586792,-0.953125000,-0.253531486,0.886387706,0.458911061
88.288361,6.230201721,-4.791305542,-1.052307129,-0.256705314,0.866856456,0.454394460
88.288987,6.749000549,-4.524276733,-0.586914062,-0.262076408,0.865635753,0.448657155
88.289613,7.115211487,-4.097030640,-0.716613770,-0.256094962,0.871983409,0.433886647
88.290238,7.077064514,-3.562973022,-1.082824707,-0.259390861,0.865879893,0.431445241
88.290863,7.008399963,-2.716110229,-1.220153809,-0.261343986,0.862095714,0.438769460
88.291489,7.450904846,-2.037094116,-1.212524414,-0.263541251,0.863682628,0.439501882
88.292116,7.626380920,-2.067611694,-0.998901367,-0.265860587,0.871250987,0.439501882
88.292741,7.733192444,-1.968429565,-1.212524414,-0.270499259,0.886631846,0.448657155
88.293366,7.740821838,-1.991317749,-1.075195312,-0.276968986,0.894810557,0.448901296
88.293991,7.511940002,-1.663253784,-1.090454102,-0.280386955,0.896031260,0.451586843
88.294618,7.183876038,-1.899765015,-1.433776855,-0.279776603,0.895787120,0.448535085
88.295244,7.061805725,-1.625106812,-1.258300781,-0.278677970,0.892002940,0.444140553
88.295870,6.817665100,-1.762435913,-1.456665039,-0.275382072,0.888096690,0.441943288
88.311513,9.182777405,0.991775513,-1.853393555,-0.339224845,0.852208018,0.409594655
88.312249,7.443275452,0.755264282,-1.723693848,-0.289664298,0.897984385,0.370043874
88.312874,5.093421936,2.540542603,-2.433227539,-0.258292228,0.897129893,0.365161061
88.313499,3.933753967,4.569961548,-2.997802734,-0.247672126,0.877842784,0.347582936
88.314125,3.971900940,5.844070435,-2.936767578,-0.252188712,0.845250010,0.329272389
88.314751,4.940834045,6.011917114,-2.295898438,-0.281241447,0.824742198,0.327319264
88.315376,6.062355042,5.180313110,-1.738952637,-0.324698478,0.825840831,0.340014577
88.316011,6.756629944,4.608108521,-1.616882324,-0.342886955,0.823887706,0.358080983
88.316637,6.916847229,3.921463013,-2.082275391,-0.341055900,0.839512706,0.371996999
88.317263,6.543006897,3.578140259,-2.211975098,-0.326895744,0.852085948,0.381762624
88.317889,5.810585022,2.944900513,-2.189086914,-0.312735587,0.849034190,0.392138600
88.318514,5.673255920,2.250625610,-1.952575684,-0.298819572,0.852208018,0.389575124
88.319139,5.696144104,1.975967407,-1.716064453,-0.307242423,0.853672862,0.382250905
88.319765,5.642738342,1.167251587,-1.578735352,-0.317252189,0.842076182,0.377856374
88.320390,5.696144104,0.785781860,-1.471923828,-0.303214103,0.838047862,0.365771413
88.321016,5.223121643,0.801040649,-1.754211426,-0.283682853,0.839390635,0.346606374
88.321642,4.719581604,1.441909790,-1.624511719,-0.259757072,0.840000987,0.323046803
88.322267,3.987159729,2.578689575,-1.563476562,-0.255362540,0.824742198,0.313281178
88.322894,4.750099182,3.181411743,-1.517700195,-0.266470939,0.804722667,0.315844655
88.323520,5.535926819,2.830459595,-0.991271973,-0.290274650,0.791783214,0.334399343
88.324146,6.352272034,2.342178345,-0.708984375,-0.308341056,0.804844737,0.348193288
88.324771,6.436195374,2.006484985,-0.922607422,-0.311270744,0.819737315,0.367236257
88.325397,5.886878967,1.495315552,-1.037048340,-0.303580314,0.831089854,0.384081960
88.326022,5.673255920,1.151992798,-0.800537109,-0.290640861,0.844395518,0.390673757
88.326648,5.040016174,1.007034302,-0.701354980,-0.280631095,0.852208018,0.382128835
88.327274,4.292335510,1.037551880,-0.518249512,-0.274527580,0.849034190,0.372851491
88.327901,3.994789124,0.564529419,-0.174926758,-0.280020744,0.835728526,0.370043874
88.328526,4.460182190,0.320388794,-0.251220703,-0.286612540,0.832310557,0.360522389
88.329152,4.170265198,0.488235474,0.107360840,-0.285025626,0.823765635,0.357470632
88.329778,4.444923401,-0.145004272,0.206542969,-0.289298087,0.816685557,0.367846608
88.331530,4.025306702,-0.396774292,0.427795410,-0.255728751,0.831944346,0.369433522
88.332156,4.063453674,-0.381515503,0.549865723,-0.261221915,0.824864268,0.379321218
88.332782,4.551734924,-0.419662476,0.877929688,-0.280020744,0.813633800,0.393847585
88.333407,5.223121643,-1.342819214,1.129699707,-0.288077384,0.820103526,0.397509694
88.334032,5.017127991,-1.632736206,1.152587891,-0.275382072,0.829502940,0.399462819
88.334657,4.917945862,-1.792953491,1.274658203,-0.279776603,0.817540050,0.423144460
88.335282,5.673255920,-2.601669312,1.320434570,-0.276358634,0.819004893,0.435717702
88.335908,5.925025940,-3.143356323,1.793457031,-0.279776603,0.820225596,0.452685475
88.336533,5.871620178,-3.631637573,2.045227051,-0.251090080,0.853184581,0.440600514
88.337159,5.390968323,-3.509567261,1.755310059,-0.265006095,0.826451182,0.456591725
88.337785,6.626930237,-4.318283081,2.289367676,-0.282584220,0.817784190,0.482958913
88.338410,6.672706604,-4.737899780,2.396179199,-0.251944572,0.850621104,0.447924733
88.339036,6.260719299,-4.631088257,2.182556152,-0.235831305,0.836216807,0.463793874
88.339663,5.642738342,-3.479049683,2.220703125,-0.182364509,0.885655284,0.408251882
88.340290,4.414405823,-1.098678589,2.029968262,-0.172232673,0.842686534,0.401782155
88.340915,5.261268616,0.190689087,2.487731934,-0.188345954,0.827061534,0.398974538
88.341540,5.955543518,0.892593384,2.617431641,-0.219595954,0.813145518,0.397509694
88.342165,6.871070862,1.472427368,2.846313477,-0.229605719,0.826695323,0.405322194
88.342792,7.130470276,1.869155884,2.670837402,-0.254508048,0.821934581,0.433154225
88.357107,7.695045471,2.090408325,3.265930176,-0.186881110,0.738560557,0.433032155
88.357839,10.128822327,2.777053833,3.365112305,-0.208243415,0.766026378,0.492846608
88.358466,11.349525452,3.311111450,3.067565918,-0.239249274,0.793858409,0.590014577
88.359092,11.982765198,3.333999634,3.067565918,-0.245963141,0.874180675,0.673754811
88.359718,11.486854553,2.815200806,3.006530762,-0.235953376,0.942173839,0.719042897
88.360343,9.907569885,2.578689575,2.831054688,-0.244010016,0.941685557,0.745654225
88.360968,10.907020569,0.465347290,3.304077148,-0.339102775,0.885533214,0.829638600
88.361594,11.174049377,-2.456710815,3.464294434,-0.275137931,0.966221690,0.745776296
88.362221,8.633460999,-1.777694702,2.686096191,-0.229117438,0.910191417,0.689257741
88.362847,8.770790100,-0.961349487,1.808715820,-0.196280524,0.899083018,0.669970632
88.363474,9.190406799,0.106765747,1.907897949,-0.181876227,0.900669932,0.622485280
88.364101,8.854713440,1.708938599,2.487731934,-0.174674079,0.907872081,0.563159108
88.364726,8.740272522,4.333450317,1.396728516,-0.123648681,0.896031260,0.558398366
88.365351,9.419288635,7.293655396,1.022888184,-0.140616462,0.883091807,0.562426686
88.365978,9.365882874,10.276748657,1.045776367,-0.125357673,0.886509776,0.549243093
88.366604,8.946266174,13.435317993,0.572753906,-0.130362555,0.901890635,0.510790944
88.367230,8.946266174,15.556289673,0.114990234,-0.201651618,0.850254893,0.556445241
88.367856,10.388221741,16.036941528,0.610900879,-0.250113517,0.861607432,0.585620046
88.368482,12.295570374,14.518692017,1.091552734,-0.314566642,0.884190440,0.684863210
88.369107,12.799110413,12.420608521,0.977111816,-0.287589103,0.927769542,0.673266530
88.369732,12.402381897,11.802627563,1.007629395,-0.251456290,0.928746104,0.678637624
88.370358,12.112464905,12.092544556,0.824523926,-0.240592048,0.916905284,0.636645436
88.370983,13.035621643,11.398269653,0.435424805,-0.244376227,0.886387706,0.647753835
88.371609,12.478675842,13.153030396,0.275207520,-0.086417235,0.895176768,0.484301686
88.372234,13.546791077,17.341567993,0.565124512,-0.106925048,0.839390635,0.448535085
88.372859,15.667762756,19.821121216,0.916076660,-0.164542243,0.765538096,0.381518483
88.373486,17.903175354,21.705581665,0.206542969,-0.174796149,0.795689464,0.364916921
88.374111,19.490089417,24.314834595,0.000549316,-0.229605719,0.804112315,0.427538991
88.374737,22.351112366,24.383499146,-0.495361328,-0.300772697,0.762242198,0.513232350
88.375363,26.150550842,22.026016235,-0.945495605,-0.356436759,0.831456065,0.626513600
88.377131,22.747840881,21.484329224,-1.738952637,-0.261466056,0.979893565,0.529345632
88.377756,21.916236877,21.781875610,-1.647399902,-0.182730719,0.943394542,0.430712819
88.378382,23.854103088,22.964431763,-2.036499023,-0.252188712,0.855625987,0.359301686
88.379010,25.997962952,23.475601196,-2.349304199,-0.199210212,0.926182628,0.251635671
88.379636,24.960365295,26.977493286,-3.928588867,-0.205191657,0.841465831,0.250414968
88.380261,26.882972717,28.800918579,-4.409240723,-0.206900641,0.942295909,0.255541921
88.380887,24.319496155,30.555679321,-4.912780762,-0.219962165,0.974278331,0.236376882
88.381514,24.006690979,31.417800903,-5.958007812,-0.291861564,0.923252940,0.305346608
88.382140,26.364173889,28.228713989,-5.172180176,-0.427359611,0.935826182,0.373950124
88.382767,24.517860413,25.833084106,-5.996154785,-0.355948478,1.016514659,0.297534108
88.383394,22.816505432,25.321914673,-7.270263672,-0.326529533,0.975865245,0.272265553
88.384020,24.227943420,22.880508423,-7.049011230,-0.380606681,0.927403331,0.279589772
88.384646,25.517311096,20.545913696,-7.171081543,-0.369132072,0.923619151,0.267504811
88.385273,26.783790588,17.875625610,-7.773803711,-0.427481681,0.875523448,0.325488210
88.385898,28.431739807,14.015151978,-8.132385254,-0.436270744,0.904820323,0.339282155
88.386523,27.806129456,12.329055786,-8.613037109,-0.324454337,0.981114268,0.239550710
88.387148,26.829566956,12.886001587,-9.635375977,-0.291739494,0.945103526,0.194140553
88.387774,28.103675842,12.878372192,-9.604858398,-0.326285392,0.893833995,0.174853444
88.401767,30.247535706,-14.091537476,-18.119262695,-0.296256095,1.016514659,0.339160085
88.402576,30.644264221,-19.996688843,-16.372131348,-0.515738547,0.739292979,0.084155202
88.403203,33.459510803,-23.300216675,-16.852783203,-0.404410392,0.760167003,0.041186452
88.403829,36.396827698,-23.872421265,-17.218994141,-0.284171134,0.887120128,0.077807546
88.404454,37.052955627,-23.819015503,-17.600463867,-0.285269767,0.963902354,0.145434499
88.405080,36.053504944,-23.925827026,-17.646240234,-0.287711173,0.920689464,0.206469655
88.405705,36.595191956,-23.490951538,-17.936157227,-0.239859626,0.823033214,0.242480397
88.406331,38.868751526,-21.621749878,-18.325256348,-0.220572516,0.796299815,0.259081960
88.406958,39.326515198,-20.561264038,-18.279479980,-0.253165275,0.832798839,0.247241139
88.407583,39.555397034,-20.477340698,-18.477844238,-0.255728751,0.838292003,0.250537038
88.408208,40.478553772,-19.081161499,-18.752502441,-0.208365485,0.838169932,0.298754811
88.408834,41.516151428,-16.983078003,-18.966125488,-0.196158454,0.878697276,0.338183522
88.409459,40.898170471,-15.792892456,-18.943237305,-0.221427009,0.901646495,0.344164968
88.410084,40.036048889,-15.075729370,-18.897460938,-0.245474860,0.876744151,0.335986257
88.410710,40.409889221,-14.427230835,-19.057678223,-0.246329352,0.852085948,0.337695241
88.411335,40.631141663,-13.206527710,-19.118713379,-0.242789313,0.857823253,0.336474538
88.411962,40.577735901,-13.160751343,-18.836425781,-0.256827384,0.858189464,0.313403249
88.412589,40.539588928,-12.825057983,-18.699096680,-0.252310783,0.851475596,0.303881764
88.413214,41.546669006,-12.336776733,-18.821166992,-0.243521735,0.849156260,0.309863210
88.413840,42.042579651,-11.596725464,-19.172119141,-0.256705314,0.869419932,0.313891530
88.414465,41.966285706,-11.695907593,-18.950866699,-0.281607658,0.873814464,0.301196218
88.415092,42.065467834,-12.008712769,-18.798278809,-0.298941642,0.862217784,0.289355397
88.415717,42.439308167,-12.550399780,-18.966125488,-0.301138908,0.863072276,0.288378835
88.416343,42.706336975,-12.901351929,-18.996643066,-0.295279533,0.882237315,0.288012624
88.416968,42.340126038,-13.237045288,-19.088195801,-0.294058830,0.891880870,0.286303639
88.417594,42.355384827,-13.587997437,-19.050048828,-0.298209220,0.885655284,0.287036061
88.418221,42.477455139,-13.961837769,-19.011901855,-0.305899650,0.880894542,0.280200124
88.418848,42.569007874,-14.457748413,-18.905090332,-0.315054923,0.884556651,0.262499928
88.419474,43.003883362,-14.801071167,-19.324707031,-0.317374259,0.880894542,0.250659108
88.420099,43.309059143,-15.174911499,-19.301818848,-0.305411369,0.873448253,0.244555593
88.421872,44.560279846,-15.785263062,-19.881652832,-0.298453361,0.879063487,0.236743093
88.422497,45.117225647,-16.037033081,-19.660400391,-0.301260978,0.880772471,0.231249928
88.423123,45.910682678,-16.510055542,-19.637512207,-0.292960197,0.879795909,0.233569264
88.423748,46.353187561,-16.326950073,-19.912170410,-0.274649650,0.881626964,0.236010671
88.424373,47.047462463,-16.258285522,-19.957946777,-0.270987540,0.888462901,0.237963796
88.424999,47.482337952,-16.197250366,-19.812988281,-0.273062736,0.891758800,0.248583913
88.425624,47.917213440,-16.250656128,-19.942687988,-0.272452384,0.896031260,0.257250905
88.426250,48.359718323,-16.433761597,-20.186828613,-0.276724845,0.905552745,0.260424733
88.426876,48.893775940,-16.532943726,-20.049499512,-0.274283439,0.911900401,0.258105397
88.427501,49.382057190,-16.655014038,-20.179199219,-0.261832267,0.911045909,0.255053639
88.428126,49.992408752,-16.708419800,-20.270751953,-0.264884025,0.904454112,0.248095632
88.428752,50.907936096,-16.838119507,-20.438598633,-0.273062736,0.921299815,0.272875905
88.429378,50.923194885,-16.998336792,-20.591186523,-0.272818595,0.927525401,0.277880788
88.430009,51.380958557,-16.891525269,-20.881103516,-0.271842033,0.935093760,0.288745046
88.430634,51.449623108,-16.899154663,-20.903991699,-0.269034415,0.936436534,0.301074147
88.431261,51.586952209,-16.891525269,-21.171020508,-0.268912345,0.942417979,0.301562428
88.431886,51.495399475,-17.189071655,-21.148132324,-0.273306876,0.942295909,0.308520436
88.445826,51.312294006,-16.296432495,-22.963928223,-0.280020744,0.949498057,0.350390553
88.446552,51.228370667,-16.189620972,-22.933410645,-0.282462150,0.948765635,0.352587819
88.447178,51.075782776,-16.540573120,-22.834228516,-0.283316642,0.945225596,0.352343678
88.447803,50.915565491,-16.243026733,-22.849487305,-0.280020744,0.939976573,0.352465749
88.448429,50.801124573,-16.227767944,-22.773193359,-0.279532462,0.938145518,0.356249928
88.449054,50.648536682,-16.304061890,-22.719787598,-0.278800040,0.937413096,0.357348561
88.449681,50.511207581,-16.113327026,-22.727416992,-0.275870353,0.933262706,0.353808522
88.450307,50.282325745,-15.983627319,-22.406982422,-0.274161369,0.931797862,0.353198171
88.450933,50.457801819,-15.861557007,-22.597717285,-0.271964103,0.926060557,0.354418874
88.451558,50.137367249,-15.785263062,-22.399353027,-0.269278556,0.925083995,0.354907155
88.452185,49.847450256,-15.678451538,-22.506164551,-0.265738517,0.921543956,0.352954030
88.452811,49.916114807,-15.220687866,-22.284912109,-0.262198478,0.915440440,0.353564382
88.453436,49.671974182,-15.052841187,-22.048400879,-0.260977775,0.914952159,0.354174733
88.454062,49.389686584,-14.816329956,-22.010253906,-0.259146720,0.909214854,0.350512624
88.454687,49.176063538,-14.526412964,-21.872924805,-0.254874259,0.906285167,0.343310475
88.455313,48.710670471,-13.992355347,-21.789001465,-0.249991462,0.901280284,0.340624928
88.455939,48.413124084,-13.610885620,-21.575378418,-0.244620368,0.897618175,0.333422780
88.456566,47.734107971,-12.901351929,-21.636413574,-0.239981696,0.895787120,0.330004811
88.457193,47.528114319,-12.374923706,-21.544860840,-0.241812751,0.889561534,0.322802663
88.457818,47.039833069,-12.023971558,-21.087097168,-0.244620368,0.886021495,0.318652272
88.458443,46.681251526,-11.550949097,-21.293090820,-0.245963141,0.881504893,0.314135671
88.459070,46.261634827,-11.428878784,-20.759033203,-0.251334220,0.876255870,0.314013600
88.459697,45.750465393,-11.108444214,-20.774291992,-0.250113517,0.875767589,0.312182546
88.460332,45.376625061,-10.871932983,-20.522521973,-0.254019767,0.872471690,0.307421803
88.468843,38.182106018,-12.252853394,-16.105102539,-0.303702384,0.787999034,0.295336843
88.469468,37.899818420,-12.535140991,-15.784667969,-0.305289298,0.783360362,0.293627858
88.470093,37.754859924,-13.038681030,-15.593933105,-0.305167228,0.779087901,0.291796803
88.470720,37.274208069,-13.206527710,-14.991210938,-0.310050040,0.776402354,0.287768483
88.471345,37.136878967,-13.526962280,-14.617370605,-0.312857658,0.768711925,0.286791921
88.471971,36.999549866,-13.793991089,-14.441894531,-0.311026603,0.766880870,0.287280202
88.472598,36.793556213,-14.175460815,-14.174865723,-0.309073478,0.762730479,0.290454030
88.473224,36.549415588,-14.114425659,-13.480590820,-0.311026603,0.764683604,0.288622975
88.473851,36.213722229,-14.312789917,-13.503479004,-0.307242423,0.759800792,0.294116139
88.474478,36.228981018,-14.450119019,-13.106750488,-0.310782462,0.757481456,0.295703053
88.475104,36.114540100,-14.297531128,-12.710021973,-0.311881095,0.760655284,0.297045827
88.475730,35.847511292,-14.030502319,-12.328552246,-0.318839103,0.762730479,0.301562428
88.476357,35.603370667,-13.923690796,-11.962341309,-0.319083244,0.760533214,0.305102468
88.476984,35.336341858,-14.122055054,-11.771606445,-0.316641837,0.761021495,0.306689382
88.477611,35.176124573,-13.687179565,-11.657165527,-0.315421134,0.764561534,0.309008718
88.478238,34.893836975,-13.343856812,-11.176513672,-0.313468009,0.770542979,0.317187428
88.478863,34.214820862,-13.092086792,-10.886596680,-0.320303947,0.779698253,0.327685475
88.479490,33.558692932,-12.832687378,-10.596679688,-0.321158439,0.784947276,0.340624928
88.480115,32.925453186,-12.451217651,-10.177062988,-0.319449455,0.791905284,0.341479421
88.480740,31.948890686,-12.313888550,-9.955810547,-0.323599845,0.792881846,0.345996022
88.481366,31.163063049,-11.978195190,-9.925292969,-0.318839103,0.790562510,0.345751882
88.481992,30.415382385,-11.451766968,-9.391235352,-0.320426017,0.789952159,0.339892507
88.482618,29.820289612,-11.062667847,-9.246276855,-0.316641837,0.793980479,0.338915944
88.496669,10.998573303,17.341567993,-7.476257324,-0.443228751,0.787388682,0.355639577
88.497451,11.578407288,18.684341431,-10.566162109,-0.461417228,0.890904307,0.330859303
88.498076,11.196937561,17.600967407,-12.320922852,-0.381094962,0.907383800,0.321459889
88.498701,11.097755432,16.776992798,-11.367248535,-0.317252189,0.900914073,0.346606374
88.499326,12.310829163,14.709426880,-9.589599609,-0.361441642,0.946812510,0.346362233
88.499951,11.967506409,12.016250610,-8.933471680,-0.396964103,0.942540050,0.339160085
88.500577,12.158241272,10.169937134,-9.681152344,-0.455313712,0.935582042,0.331591725
88.501203,11.700477600,7.987930298,-11.298583984,-0.460074455,0.939732432,0.311450124
88.501828,12.448158264,5.111648560,-11.733459473,-0.412833244,0.918492198,0.298632741
88.502455,13.249244690,3.303482056,-11.916564941,-0.361319572,0.918125987,0.272875905
88.503081,14.157142639,2.075149536,-11.596130371,-0.343375236,0.924717784,0.242846608
88.503707,15.141334534,1.319839478,-11.573242188,-0.347525626,0.903843760,0.228076100
88.504334,16.667213440,0.701858521,-11.802124023,-0.368765861,0.894688487,0.220263600
88.504960,18.254127502,-0.579879761,-12.648986816,-0.387442619,0.898350596,0.206469655
88.505585,20.138587952,-1.937911987,-12.778686523,-0.394278556,0.895420909,0.197680593
88.506212,22.015419006,-3.654525757,-13.053344727,-0.388541251,0.884312510,0.198657155
88.506837,24.815406799,-4.974411011,-13.656066895,-0.396597892,0.880894542,0.201098561
88.507463,27.211036682,-6.591842651,-13.709472656,-0.397452384,0.883458018,0.201464772
88.508089,29.118385315,-7.705734253,-14.289306641,-0.371329337,0.886143565,0.199633718
88.508715,31.552162170,-7.904098511,-14.609741211,-0.346671134,0.896275401,0.198535085
88.509340,33.184852600,-7.988021851,-14.808105469,-0.333365470,0.916417003,0.208056569
88.509965,34.748878479,-7.759140015,-14.991210938,-0.338980705,0.928624034,0.216357350
88.510591,36.106910706,-7.705734253,-15.410827637,-0.352164298,0.943882823,0.232104421
88.511217,36.602821350,-7.499740601,-15.777038574,-0.356558830,0.951207042,0.244189382
88.511844,37.434425354,-7.492111206,-16.494201660,-0.357047111,0.963169932,0.251757741
88.512469,37.884559631,-7.469223022,-16.837524414,-0.349234611,0.962681651,0.255419850
88.513096,38.395729065,-7.225082397,-17.234252930,-0.351920158,0.962193370,0.262866139
88.513723,38.838233948,-7.301376343,-17.470764160,-0.351920158,0.972081065,0.265185475
88.514349,39.295997620,-7.354782104,-17.669128418,-0.354605705,0.977085948,0.263232350
88.514975,39.433326721,-7.141159058,-18.172668457,-0.355582267,0.975499034,0.268115163
88.516752,41.058387756,-7.194564819,-19.477294922,-0.353262931,0.979161143,0.265795827
88.517379,41.638221741,-6.950424194,-19.767211914,-0.351309806,0.972813487,0.262377858
88.518010,42.286720276,-6.645248413,-20.278381348,-0.353751212,0.970982432,0.265307546
88.518636,43.003883362,-6.782577515,-20.682739258,-0.357169181,0.969517589,0.262011647
88.519263,43.713417053,-7.011459351,-21.216796875,-0.359488517,0.976841807,0.254809499
88.519889,44.293251038,-7.019088745,-21.430419922,-0.356558830,0.993443370,0.260668874
88.520515,44.392433167,-6.973312378,-21.933959961,-0.352286369,1.010411143,0.262377858
88.521140,44.354286194,-6.629989624,-22.300170898,-0.347281486,1.010777354,0.267748952
88.521766,44.285621643,-6.446884155,-22.803710938,-0.345694572,1.005528331,0.271777272
88.522398,44.674720764,-6.103561401,-23.017333984,-0.345816642,0.993809581,0.272753835
88.523024,44.789161682,-6.103561401,-23.650573730,-0.350699455,0.998326182,0.267871022
88.523651,45.208778381,-6.187484741,-23.871826172,-0.353629142,0.996373057,0.263842702
88.524276,45.529212952,-6.111190796,-24.505065918,-0.349356681,0.990147471,0.258227468
88.524902,46.063270569,-6.179855347,-24.581359863,-0.345206290,0.990879893,0.252612233
88.525527,46.589698792,-6.179855347,-25.130676270,-0.336295158,0.986729503,0.249560475
88.526154,47.085609436,-6.141708374,-25.519775391,-0.338126212,0.980992198,0.246020436
88.526781,47.543373108,-6.111190796,-25.725769043,-0.339224845,0.977452159,0.237109303
88.540698,54.035987854,-9.201095581,-29.158996582,-0.284903556,0.974644542,0.205615163
88.541428,53.746070862,-9.254501343,-29.242919922,-0.286246330,0.981236339,0.209277272
88.542053,53.410377502,-9.468124390,-28.983520508,-0.280386955,0.989537120,0.214160085
88.542678,52.716102600,-9.620712280,-29.128479004,-0.277701408,0.983677745,0.219653249
88.543303,52.227821350,-9.529159546,-29.242919922,-0.280386955,0.974644542,0.221728444
88.543929,51.716651917,-9.704635620,-28.998779297,-0.283804923,0.964878917,0.219287038
88.544554,51.312294006,-10.009811401,-28.716491699,-0.276480705,0.966465831,0.221972585
88.545180,51.213111877,-10.025070190,-28.838562012,-0.281973869,0.946934581,0.220507741
88.545806,51.243629456,-10.490463257,-28.899597168,-0.293570548,0.934727550,0.226000905
88.546431,51.174964905,-10.681198120,-28.838562012,-0.285635978,0.928257823,0.218066335
88.547058,51.380958557,-10.757492065,-28.685974121,-0.276602775,0.912388682,0.216113210
88.547683,51.991310120,-10.688827515,-28.434204102,-0.291373283,0.899449229,0.223925710
88.548308,52.212562561,-11.016891479,-27.839111328,-0.281851798,0.929234385,0.228930593
88.548933,52.243080139,-11.138961792,-27.808593750,-0.280753165,0.929844737,0.246020436
88.549558,51.449623108,-11.100814819,-27.358459473,-0.280020744,0.972447276,0.260913014
88.550183,49.900856018,-10.971115112,-27.335571289,-0.281973869,0.992588878,0.291430593
88.550810,47.917213440,-10.711715698,-27.121948242,-0.283316642,0.995030284,0.310351491
88.551436,46.032752991,-10.528610229,-27.099060059,-0.295889884,0.997593760,0.325610280
88.552063,43.721046448,-10.673568726,-26.969360352,-0.281119376,1.011875987,0.329028249
88.552689,41.043128967,-10.238693237,-26.542114258,-0.280386955,1.006260753,0.332446218
88.553315,38.494911194,-9.735153198,-26.542114258,-0.293936759,0.973667979,0.335742116
88.553941,37.197914124,-9.872482300,-26.473449707,-0.309683830,0.905552745,0.311083913
88.554567,37.342872620,-9.887741089,-26.320861816,-0.312003165,0.874791026,0.279589772
88.555193,37.571754456,-10.208175659,-25.885986328,-0.311514884,0.869175792,0.252368093
88.555820,37.907447815,-10.391281128,-25.702880859,-0.307364494,0.902256846,0.239916921
88.556445,38.128700256,-10.459945679,-25.519775391,-0.301505119,0.887608409,0.243212819
88.557071,38.830604553,-10.452316284,-25.435852051,-0.303580314,0.894932628,0.256030202
88.557696,38.906898499,-10.322616577,-24.993347168,-0.304556876,0.886265635,0.266528249
88.558323,39.097633362,-10.246322632,-24.909423828,-0.308951408,0.879063487,0.278979421
88.558948,38.853492737,-10.467575073,-24.695800781,-0.319327384,0.862950206,0.291552663
88.560717,39.769020081,-9.941146851,-23.658203125,-0.287711173,0.872837901,0.307177663
88.561343,39.746131897,-9.300277710,-23.452209473,-0.312979728,0.854649425,0.316821218
88.561970,40.280189514,-9.643600464,-23.063110352,-0.333365470,0.840733409,0.328173757
88.562595,41.371192932,-9.681747437,-23.009704590,-0.321280509,0.831089854,0.314379811
88.563220,42.157020569,-9.498641968,-22.811340332,-0.292227775,0.859654307,0.313891530
88.563845,42.584266663,-8.979843140,-22.422241211,-0.272330314,0.890049815,0.319506764
88.564470,42.691078186,-7.934616089,-22.117065430,-0.284903556,0.916050792,0.325488210
88.565096,41.516151428,-7.637069702,-21.712707520,-0.324332267,0.948277354,0.343066335
88.565723,39.761390686,-7.881210327,-21.773742676,-0.341300040,0.938633800,0.370043874
88.566348,37.487831116,-8.056686401,-21.926330566,-0.330313712,0.932042003,0.389575124
88.566975,35.771217346,-8.216903687,-22.025512695,-0.294180900,0.923375010,0.410449147
88.567600,33.940162659,-7.431076050,-21.277832031,-0.288565665,0.877598643,0.416308522
88.568227,32.566871643,-6.736801147,-20.850585938,-0.275748283,0.883213878,0.392504811
88.568853,31.605567932,-5.714462280,-20.575927734,-0.271719962,0.857701182,0.370654225
88.569478,30.804481506,-4.707382202,-20.263122559,-0.287222892,0.848545909,0.360888600
88.570104,30.499305725,-4.089401245,-19.629882812,-0.300650626,0.849766612,0.347094655
88.570729,29.934730530,-3.326461792,-19.431518555,-0.314932853,0.831700206,0.336230397
88.584769,47.688331604,-13.435409546,-12.343811035,-0.311270744,0.878331065,0.302050710
88.585532,46.795692444,-12.359664917,-12.580322266,-0.267081290,0.915806651,0.295458913
88.586159,46.398963928,-10.932968140,-12.771057129,-0.285635978,0.871250987,0.351000905
88.586784,46.925392151,-10.582015991,-12.694763184,-0.312125236,0.834996104,0.388354421
88.587411,49.107398987,-11.901901245,-12.290405273,-0.365958244,0.780064464,0.422412038
88.588038,50.724830627,-13.443038940,-11.863159180,-0.335440665,0.858921885,0.370043874
88.588663,50.167884827,-12.191818237,-12.442993164,-0.252188712,0.952305675,0.328539968
88.589288,47.856178284,-8.606002808,-12.999938965,-0.169180915,1.032017589,0.333056569
88.589913,44.026222229,-4.554794312,-12.938903809,-0.136832282,1.049229503,0.349658132
88.590539,40.173377991,-0.824020386,-12.351440430,-0.215079352,0.979283214,0.370165944
88.591164,39.128150940,0.572158813,-12.343811035,-0.354117423,0.877720714,0.391650319
88.591789,39.250221252,-0.480697632,-12.542175293,-0.426138908,0.840611339,0.375048757
88.592414,40.211524963,-2.258346558,-12.832092285,-0.441153556,0.791050792,0.350268483
88.593041,42.370643616,-4.837081909,-12.984680176,-0.456168205,0.727452159,0.354785085
88.593667,47.116127014,-8.758590698,-12.381958008,-0.491080314,0.580113292,0.376391530
88.594292,55.027809143,-13.778732300,-11.321472168,-0.526846945,0.542393565,0.370898366
88.594917,62.039222717,-17.967269897,-11.123107910,-0.432852775,0.695347667,0.315600514
88.595542,63.031044006,-17.105148315,-10.970520020,-0.146475837,1.055088878,0.208422780
88.596168,54.753150940,-8.239791870,-11.306213379,0.078988038,1.228306651,0.180834889
88.596793,46.551551819,2.944900513,-11.832641602,0.008553467,1.128453135,0.299487233
88.597420,39.715614319,9.498550415,-10.703491211,-0.132559821,1.100254893,0.384570241
88.598046,34.542884827,12.313796997,-9.742187500,-0.325430900,1.016270518,0.435473561
88.598673,31.491127014,9.986831665,-10.032104492,-0.546500266,0.940098643,0.478686452
88.599299,30.163612366,5.027725220,-11.207031250,-0.613150656,0.844273448,0.456835866
88.599924,30.682411194,0.122024536,-11.886047363,-0.526236594,0.828038096,0.376635671
88.600549,31.727638245,-3.746078491,-11.435913086,-0.389761955,0.866978526,0.306567311
88.601176,33.047523499,-5.043075562,-10.421203613,-0.324698478,0.808018565,0.251147389
88.601802,34.100379944,-4.447982788,-9.810852051,-0.275992423,0.857945323,0.192431569
88.602428,35.534706116,-2.899215698,-10.093139648,-0.338858634,0.763218760,0.182421803
88.603054,39.006080627,-3.067062378,-10.222839355,-0.376944572,0.732457042,0.171801686
88.604824,44.415321350,-1.213119507,-10.116027832,-0.297354728,0.863438487,0.142626882
88.605451,43.812599182,0.953628540,-9.940551758,-0.262442619,0.907627940,0.183764577
88.606076,43.240394592,1.800491333,-9.116577148,-0.380728751,0.772251964,0.243212819
88.606702,44.987525940,0.175430298,-9.070800781,-0.461661369,0.791905284,0.258715749
88.607329,45.857276917,-2.311752319,-9.009765625,-0.465079337,0.826817393,0.251391530
88.607954,46.292152405,-4.028366089,-9.246276855,-0.446524650,0.810337901,0.235034108
88.608581,46.398963928,-5.615280151,-9.002136230,-0.412589103,0.794224620,0.217822194
88.609208,48.542823792,-6.988571167,-8.841918945,-0.431632072,0.675694346,0.200732350
88.609833,52.410926819,-8.789108276,-8.429931641,-0.455557853,0.635167003,0.151415944
88.610460,56.698646545,-11.192367554,-8.101867676,-0.452139884,0.636021495,0.121142507
88.611086,60.437049866,-12.626693726,-7.720397949,-0.403677970,0.691197276,0.093554616
88.611711,62.016334534,-12.580917358,-7.552551270,-0.335806876,0.777500987,0.079516530
88.612338,61.917152405,-11.436508179,-7.468627930,-0.316763908,0.802281260,0.105151296
88.612963,61.596717834,-9.819076538,-6.965087891,-0.315299064,0.818516612,0.129809499
88.613588,59.819068909,-8.323715210,-6.698059082,-0.325552970,0.846836925,0.148608327
88.614213,57.583656311,-7.354782104,-6.537841797,-0.368521720,0.846714854,0.178027272
88.614839,55.897560120,-7.324264526,-6.369995117,-0.396475822,0.832310557,0.205737233
88.628773,44.613685608,-14.717147827,1.877380371,-0.390372306,0.735630870,0.164843678
88.629495,44.781532288,-14.579818726,2.449584961,-0.387686759,0.734898448,0.185229421
88.630120,43.827857971,-14.366195679,2.480102539,-0.371573478,0.787876964,0.231616139
88.630747,40.997352600,-13.710067749,2.922607422,-0.358145744,0.820713878,0.246996999
88.631372,38.349952698,-13.000534058,3.372741699,-0.359488517,0.820835948,0.234057546
88.631997,36.503639221,-12.710617065,4.204345703,-0.377432853,0.771153331,0.205371022
88.632622,36.091651917,-13.114974976,4.395080566,-0.394888908,0.718907237,0.179247975
88.633248,36.724891663,-13.496444702,5.005432129,-0.414664298,0.720616221,0.152636647
88.633873,36.816444397,-13.908432007,5.669189453,-0.390982658,0.712559581,0.157519460
88.634499,36.862220764,-13.511703491,5.714965820,-0.373160392,0.737217784,0.176440358
88.635125,36.381568909,-13.069198608,6.279541016,-0.387808830,0.717564464,0.201708913
88.635752,36.160316467,-13.259933472,6.653381348,-0.386466056,0.717686534,0.219775319
88.636378,36.145057678,-13.275192261,7.179809570,-0.392935783,0.743809581,0.228564382
88.637008,35.237159729,-13.069198608,7.767272949,-0.372916251,0.794590831,0.226000905
88.637633,33.764686584,-12.306259155,8.202148438,-0.351676017,0.823155284,0.226733327
88.638258,32.521095276,-11.528060913,8.553100586,-0.376090080,0.765538096,0.226611257
88.638883,32.063331604,-11.032150269,8.797241211,-0.381827384,0.749302745,0.219042897
88.639508,31.796302795,-10.749862671,9.316040039,-0.374014884,0.754063487,0.222827077
88.640134,31.399574280,-10.589645386,9.743286133,-0.381339103,0.756749034,0.236254811
88.640759,31.262245178,-10.749862671,10.201049805,-0.407340080,0.730137706,0.257617116
88.641385,31.498756409,-11.230514526,10.490966797,-0.422598869,0.729527354,0.283984303
88.642010,31.422462463,-11.909530640,11.032653809,-0.427115470,0.729405284,0.298510671
88.642637,31.735267639,-12.702987671,11.307312012,-0.420767814,0.756138682,0.320971608
88.643263,31.246986389,-13.473556519,11.726928711,-0.418692619,0.751744151,0.314013600
88.643888,30.781593323,-13.816879272,12.199951172,-0.415762931,0.745762706,0.306201100
88.644515,31.086769104,-14.549301147,12.482238770,-0.420157462,0.720616221,0.331835866
88.645140,31.224098206,-15.350387573,12.993408203,-0.398795158,0.790318370,0.343188405
88.645765,28.996315002,-14.785812378,13.817382812,-0.328970939,0.840245128,0.277514577
88.646390,26.554908752,-12.397811890,13.817382812,-0.309927970,0.807652354,0.217333913
88.647016,25.891151428,-10.200546265,14.053894043,-0.330801994,0.781163096,0.195239186
88.648807,25.433387756,-6.454513550,15.083862305,-0.369376212,0.803135753,0.268603444
88.649432,25.112953186,-6.820724487,15.793395996,-0.414908439,0.808384776,0.331469655
88.650058,24.708595276,-8.117721558,16.068054199,-0.450186759,0.762730479,0.355883718
88.650683,24.601783752,-9.994552612,16.243530273,-0.444937736,0.803379893,0.356982350
88.651310,24.144020081,-10.665939331,16.830993652,-0.412833244,0.819126964,0.343676686
88.651935,23.693885803,-11.398361206,17.036987305,-0.390006095,0.819981456,0.296435475
88.652561,23.243751526,-11.467025757,17.334533691,-0.384390861,0.793614268,0.266284108
88.653186,24.250831604,-11.940048218,17.647338867,-0.409415275,0.744542003,0.301928639
88.653811,27.195777893,-13.504074097,18.112731934,-0.474112540,0.613926768,0.388354421
88.654436,35.702552795,-18.737838745,18.433166504,-0.644766867,0.252232432,0.549121022
88.655062,44.560279846,-24.688766479,19.005371094,-0.603140891,0.521885753,0.587206960
88.655689,41.180458069,-27.137802124,19.386840820,-0.375235587,0.965245128,0.548388600
88.656314,34.100379944,-24.658248901,19.325805664,-0.229727790,1.077427745,0.391039968
88.656940,30.583229065,-19.645736694,20.531250000,-0.160758063,0.949742198,0.208911061
88.657567,28.088417053,-15.464828491,20.149780273,-0.144034430,0.854283214,0.103808522
88.658193,28.599586487,-10.078475952,19.287658691,-0.200186774,0.662754893,0.056811452
88.658819,30.476417542,-5.233810425,19.814086914,-0.272330314,0.767613292,0.104663014
88.672863,2.407875061,-6.309555054,21.401000977,-0.454337150,0.793003917,0.210742116
88.673632,5.688514709,-6.324813843,20.058227539,-0.444937736,0.637852550,0.177050710
88.674258,8.236732483,-4.737899780,19.714904785,-0.300650626,0.742466807,0.170214772
88.674884,8.038368225,-1.709030151,20.569396973,-0.217276618,0.860508800,0.182421803
88.675509,7.687416077,1.243545532,21.378112793,-0.283682853,0.814000010,0.214404225
88.676135,8.862342834,3.173782349,21.614624023,-0.311392814,0.861241221,0.253344655
88.676760,9.251441956,4.569961548,22.347045898,-0.292960197,0.978550792,0.315722585
88.677385,8.419837952,5.828811646,22.270751953,-0.342886955,0.933262706,0.370410085
88.678010,10.075416565,4.898025513,22.102905273,-0.670035422,0.643101573,0.345629811
88.678635,14.622535706,0.633193970,20.111633301,-0.534781516,0.667515635,0.340624928
88.679261,17.842140198,-0.381515503,19.096923828,-0.329337150,0.755406260,0.381762624
88.679888,19.306983948,1.022293091,20.966125488,-0.223380134,0.832188487,0.408740163
88.680513,19.818153381,2.632095337,21.439147949,-0.242301032,0.829869151,0.435229421
88.681139,20.497169495,3.929092407,21.477294922,-0.322501212,0.833165050,0.459277272
88.681766,21.664466858,4.287673950,21.759582520,-0.397452384,0.825352550,0.496508718
88.682392,24.029579163,3.021194458,21.454406738,-0.414908439,0.801182628,0.513842702
88.683018,26.409950256,1.525833130,20.912719727,-0.384390861,0.820958018,0.476733327
88.683645,27.943458557,0.251724243,21.004272461,-0.349234611,0.892002940,0.431933522
88.684270,26.181068420,2.952529907,20.966125488,-0.234000251,0.889927745,0.383349538
88.684895,24.227943420,7.499649048,19.157958984,-0.177847907,0.894932628,0.334033132
88.685522,23.442115784,12.031509399,18.654418945,-0.154288337,0.863804698,0.281542897
88.686147,24.044837952,16.105606079,18.982482910,-0.174185798,0.840245128,0.252734303
88.686773,25.532569885,19.081069946,19.066406250,-0.219595954,0.842442393,0.242114186
88.687400,25.677528381,21.392776489,18.646789551,-0.263419181,0.849400401,0.238085866
88.688026,25.090065002,23.529006958,18.234802246,-0.290030509,0.857823253,0.241747975
88.688652,24.624671936,25.260879517,17.563415527,-0.304434806,0.874302745,0.251635671
88.689278,24.487342834,26.107742310,17.242980957,-0.310416251,0.897374034,0.259570241
88.689905,23.777809143,26.145889282,17.143798828,-0.310660392,0.942295909,0.259814382
88.690532,21.740760803,26.939346313,17.807556152,-0.201773688,1.123082042,0.212084889
88.691158,17.147865295,29.273941040,17.708374023,-0.253897697,1.086583018,0.195727468
88.692968,14.698829651,26.740982056,15.358520508,-0.447623283,0.907750010,0.149462819
88.693593,15.240516663,24.238540649,15.152526855,-0.445303947,0.924351573,0.145922780
88.694219,15.835609436,21.118118286,14.839721680,-0.435538322,0.924351573,0.156298757
88.694844,16.659584045,18.211318970,14.496398926,-0.445181876,0.915928721,0.163867116
88.695471,17.186012268,15.792800903,14.259887695,-0.395133048,0.931553721,0.149096608
88.696098,16.781654358,14.945938110,13.474060059,-0.361075431,0.947789073,0.129321218
88.696723,15.904273987,14.610244751,13.092590332,-0.340079337,0.958409190,0.115893483
88.697348,15.141334534,14.648391724,12.795043945,-0.338004142,0.952061534,0.113452077
88.697973,14.691200256,14.182998657,12.688232422,-0.342642814,0.936558604,0.116747975
88.698599,14.508094788,13.633682251,12.650085449,-0.357657462,0.912388682,0.122729421
88.699226,14.302101135,12.954666138,12.405944824,-0.367667228,0.894200206,0.130175710
88.699853,14.431800842,12.466384888,11.917663574,-0.375113517,0.882969737,0.130297780
88.700480,14.904823303,11.398269653,11.726928711,-0.380728751,0.880162120,0.136767507
88.701105,15.667762756,10.276748657,11.581970215,-0.384390861,0.883458018,0.142260671
88.701730,16.941871643,8.926345825,11.070800781,-0.396231681,0.873448253,0.153246999
88.702355,17.910804749,7.354690552,11.101318359,-0.398428947,0.882359385,0.155444264
88.702980,18.978919983,6.423904419,10.857177734,-0.378043205,0.896275401,0.144702077
88.703605,19.421424866,6.507827759,10.017944336,-0.359000236,0.887974620,0.143481374
88.724233,45.780982971,5.157424927,5.913330078,-0.396964103,0.886265635,0.183032155
88.724971,46.231117249,3.517105103,5.882812500,-0.384512931,0.917881846,0.167285085
88.725597,45.658912659,2.899124146,5.470825195,-0.362540275,0.944493175,0.148120046
88.726223,44.804420471,3.082229614,5.211425781,-0.343619376,0.958775401,0.133349538
88.726849,43.835487366,3.684951782,4.829956055,-0.327750236,0.955357432,0.118090749
88.727476,42.767372131,4.234268188,4.524780273,-0.325797111,0.932286143,0.109912038
88.728103,42.012062073,4.547073364,4.372192383,-0.324454337,0.904454112,0.101000905
88.728728,41.889991760,5.126907349,4.379821777,-0.332633048,0.871861339,0.095751882
88.729353,41.912879944,4.844619751,4.448486328,-0.342276603,0.853550792,0.092944264
88.729978,42.301979065,4.409744263,4.761291504,-0.353873283,0.839634776,0.086718678
88.730604,42.698707581,3.616287231,5.318237305,-0.361929923,0.836216807,0.083422780
88.731229,43.606605530,2.838088989,5.425048828,-0.364981681,0.839756846,0.078295827
88.731854,44.224586487,1.953079224,5.547119141,-0.367911369,0.856480479,0.077075124
88.732480,44.705238342,1.396133423,5.508972168,-0.361441642,0.871495128,0.065478444
88.733107,45.269813538,1.106216431,5.142761230,-0.358878165,0.880894542,0.052050710
88.733734,45.384254456,0.953628540,5.234313965,-0.358756095,0.881382823,0.049609303
88.734361,45.445289612,0.740005493,5.020690918,-0.365592033,0.872959971,0.046923757
88.734987,45.750465393,0.274612427,5.081726074,-0.373282462,0.860020518,0.047167897
88.735614,45.994606018,-0.267074585,4.982543945,-0.373648673,0.848545909,0.044970632
88.736240,46.589698792,-0.900314331,5.127502441,-0.384635001,0.841099620,0.044238210
88.736867,47.291603088,-1.678512573,5.028320312,-0.385367423,0.835728526,0.038500905
88.737505,48.016395569,-2.670333862,5.325866699,-0.385733634,0.835606456,0.037524343
88.738131,48.535194397,-3.074691772,5.600524902,-0.381217033,0.833897471,0.035571218
88.738757,49.031105042,-3.349349976,5.447937012,-0.376456290,0.833409190,0.032885671
88.739382,49.877967834,-3.715560913,5.455566406,-0.379019767,0.829991221,0.030444264
88.740010,50.412025452,-4.234359741,5.562377930,-0.379263908,0.826695323,0.025561452
88.740636,50.923194885,-4.524276733,5.638671875,-0.385855705,0.817417979,0.019091725
88.741262,51.655616760,-5.264328003,5.798889160,-0.391348869,0.810948253,0.018237233
88.741887,52.471961975,-5.668685913,5.760742188,-0.396475822,0.805333018,0.014941335
88.742513,53.562965393,-6.378219604,5.669189453,-0.405020744,0.798130870,0.011767507
88.744359,57.301368713,-8.461044312,5.890441895,-0.414176017,0.781651378,0.005908132
88.744984,58.628883362,-9.025619507,5.928588867,-0.414908439,0.778111339,0.004199147
88.745610,59.910621643,-9.544418335,5.981994629,-0.414908439,0.775303721,0.003466725
88.746235,61.146583557,-10.139511108,6.058288574,-0.417716056,0.774693370,0.001269460
88.746861,62.321510315,-10.818527222,6.241394043,-0.414298087,0.766270518,0.001147389
88.747487,63.542213440,-11.253402710,6.393981934,-0.419791251,0.765416026,0.003832936
88.748112,64.625587463,-11.726425171,6.500793457,-0.424551994,0.760289073,0.007739186
88.748737,66.059913635,-12.313888550,6.653381348,-0.432120353,0.755040050,0.008349538
88.749364,67.295875549,-12.962387085,6.714416504,-0.436270744,0.751011729,0.007983327
88.749991,68.768348694,-13.740585327,6.737304688,-0.441153556,0.744786143,0.009936452
88.750616,70.217933655,-14.473007202,7.088256836,-0.448843986,0.738682628,0.005663991
88.751242,71.842994690,-14.930770874,7.042480469,-0.454947501,0.728672862,0.007495046
88.751869,73.429908752,-15.686080933,7.103515625,-0.459464103,0.723423839,0.007128835
88.752494,74.803199768,-16.777084351,7.309509277,-0.463248283,0.717198253,0.005297780
88.753120,76.863136292,-17.158554077,7.355285645,-0.466666251,0.714268565,0.003588796
88.753746,78.457679749,-17.929122925,7.492614746,-0.464468986,0.709263682,0.000292897
88.754373,80.456581116,-18.829391479,7.813049316,-0.465201408,0.704014659,0.000781178
88.754999,82.455482483,-19.401596069,7.774902344,-0.464468986,0.704502940,0.001635671
88.769086,113.484230042,-28.419540405,12.680603027,-0.419669181,0.763707042,0.033740163
88.769918,114.308204651,-28.953598022,13.199401855,-0.406607658,0.788365245,0.020678639
88.770544,114.216651917,-28.991744995,13.748718262,-0.399161369,0.798008800,0.016650319
88.771170,114.270057678,-28.839157104,13.733459473,-0.393179923,0.799595714,0.015429616
88.771797,114.369239807,-29.212997437,14.015747070,-0.400137931,0.813145518,0.015917897
88.772424,114.064064026,-29.167221069,14.160705566,-0.393424064,0.818516612,0.006030202
88.773049,114.010658264,-29.357955933,14.137817383,-0.388175040,0.817784190,0.007983327
88.773676,113.934364319,-29.769943237,14.618469238,-0.381339103,0.816685557,0.006396413
88.774303,113.819923401,-30.090377808,14.526916504,-0.379141837,0.821568370,0.000414968
88.774929,113.224830627,-30.242965698,15.015197754,-0.369864494,0.832310557,-0.008496165
88.775556,112.644996643,-30.601547241,15.007568359,-0.356070548,0.831700206,-0.015698314
88.776183,112.149085999,-30.624435425,15.404296875,-0.348502189,0.835118175,-0.021923900
88.776808,111.294593811,-30.487106323,15.686584473,-0.335684806,0.842808604,-0.031689525
88.777433,110.638465881,-30.983016968,15.961242676,-0.332388908,0.846836925,-0.045727611
88.778058,110.012855530,-30.822799683,16.228271484,-0.326651603,0.852818370,-0.057690501
88.778685,109.265174866,-30.731246948,16.457153320,-0.321036369,0.848667979,-0.066479564
88.779310,108.914222717,-30.868576050,16.548706055,-0.319693595,0.839756846,-0.076489329
88.779937,108.792152405,-31.127975464,16.724182129,-0.317252189,0.846226573,-0.085766673
88.780564,108.616676331,-31.570480347,16.785217285,-0.317252189,0.851109385,-0.094799876
88.781189,108.448829651,-31.669662476,16.876770020,-0.312247306,0.865513682,-0.104931712
88.781814,108.067359924,-32.501266479,17.151428223,-0.304556876,0.875523448,-0.113232493
88.782439,107.594337463,-32.775924683,17.143798828,-0.303336173,0.883458018,-0.116528392
88.783064,107.159461975,-32.989547729,17.227722168,-0.302725822,0.894810557,-0.120190501
88.783689,106.716957092,-33.424423218,17.319274902,-0.301505119,0.904332042,-0.122998118
88.784315,105.732765198,-33.371017456,17.235351562,-0.295889884,0.913853526,-0.125561595
88.784946,104.893531799,-33.569381714,17.395568848,-0.293936759,0.921177745,-0.126904368
88.785571,104.046669006,-33.981369019,17.342163086,-0.293204337,0.919590831,-0.124829173
88.786198,103.100624084,-34.248397827,17.532897949,-0.293204337,0.918980479,-0.119824290
88.786823,102.139320374,-34.782455444,17.365051270,-0.296134025,0.928257823,-0.117504954
88.787449,101.033058167,-35.179183960,17.609191895,-0.294058830,0.926426768,-0.121289134
88.789262,97.996559143,-36.468551636,17.960144043,-0.300162345,0.929844737,-0.120678782
88.789889,97.096290588,-36.735580444,18.082214355,-0.306754142,0.936436534,-0.127148509
88.790515,95.814552307,-37.345932007,18.211914062,-0.312369376,0.941319346,-0.133252025
88.791141,94.868507385,-37.933395386,18.211914062,-0.317130119,0.935459971,-0.138623118
88.791766,94.082679749,-38.421676636,18.303466797,-0.325430900,0.931553721,-0.145703197
88.792392,93.617286682,-39.215133667,18.219543457,-0.337637931,0.928257823,-0.152905345
88.793017,93.266334534,-40.046737671,18.150878906,-0.348380119,0.921910167,-0.159375072
88.793642,92.968788147,-41.015670776,18.265319824,-0.349967033,0.919346690,-0.164379954
88.794269,92.816200256,-41.763351440,18.143249512,-0.349967033,0.912999034,-0.170849681
88.794895,92.968788147,-42.655990601,17.937255859,-0.351431876,0.913121104,-0.169018626
88.795522,93.701210022,-43.678329468,17.815185547,-0.348868400,0.913243175,-0.166333079
88.796148,93.617286682,-44.334457397,17.860961914,-0.343009025,0.913487315,-0.165478587
88.796773,94.181861877,-44.837997437,17.639709473,-0.338858634,0.916172862,-0.158764720
88.797400,94.738807678,-45.455978394,17.807556152,-0.334342033,0.915074229,-0.156201243
88.798027,94.929542542,-45.944259644,17.761779785,-0.331656486,0.921177745,-0.143872142
88.798653,95.433082581,-46.348617554,17.654968262,-0.330679923,0.925450206,-0.129467845
88.799278,95.700111389,-46.623275757,17.716003418,-0.328116447,0.932164073,-0.118969798
88.813236,86.621131897,-45.204208374,15.862060547,-0.402701408,1.050450206,0.052172780
88.813991,85.980262756,-45.074508667,15.793395996,-0.409659415,1.055333018,0.055834889
88.814616,85.469093323,-44.853256226,15.335632324,-0.419302970,1.059483409,0.050830007
88.815241,84.874000549,-44.967697144,15.396667480,-0.419547111,1.057896495,0.050097585
88.815866,84.423866272,-44.776962280,14.931274414,-0.426749259,1.056553721,0.049365163
88.816491,83.927955627,-44.883773804,14.595581055,-0.426260978,1.053013682,0.044482350
88.817117,83.691444397,-44.548080444,14.534545898,-0.431387931,1.048008800,0.036913991
88.817744,83.401527405,-44.906661987,14.412475586,-0.434195548,1.043858409,0.030566335
88.818371,83.493080139,-44.685409546,14.076782227,-0.438101798,1.037632823,0.023730397
88.818997,83.859291077,-44.761703491,14.198852539,-0.437857658,1.032139659,0.013964772
88.819623,84.202613831,-44.853256226,13.763977051,-0.441153556,1.027867198,0.007372975
88.820248,84.668006897,-44.853256226,13.619018555,-0.441885978,1.018589854,-0.000927806
88.820875,85.324134827,-44.944808960,13.443542480,-0.442740470,1.015538096,-0.011181712
88.821501,86.697425842,-45.105026245,13.062072754,-0.441153556,1.011265635,-0.017773509
88.822127,87.704505920,-45.227096558,12.680603027,-0.442252189,1.009312510,-0.024609447
88.822753,88.681068420,-45.257614136,12.665344238,-0.443106681,1.007725596,-0.032299876
88.823379,90.229835510,-45.372055054,12.428833008,-0.444083244,1.003575206,-0.036206126
88.824010,91.404762268,-45.219467163,11.910034180,-0.446158439,1.001500010,-0.038525462
88.824635,92.884864807,-45.501754761,11.749816895,-0.447135001,1.005406260,-0.045117259
88.825261,93.998756409,-45.555160522,11.429382324,-0.447745353,1.003697276,-0.046704173
88.825887,95.211830139,-45.829818726,11.231018066,-0.446158439,1.007481456,-0.049023509
88.826513,96.623268127,-45.867965698,10.979248047,-0.448111564,1.010411143,-0.046337962
88.827138,97.935523987,-46.104476929,10.712219238,-0.446158439,1.012852550,-0.049878001
88.827764,99.072303772,-46.287582397,10.307861328,-0.447379142,1.013340831,-0.050000072
88.828390,100.170936584,-46.371505737,9.903503418,-0.443717033,1.015049815,-0.047314525
88.829015,101.048316956,-46.707199097,9.499145508,-0.440909415,1.015049815,-0.048901439
88.829641,102.116432190,-46.958969116,9.193969727,-0.435660392,1.020665050,-0.042797923
88.830266,103.108253479,-46.836898804,8.873535156,-0.432730705,1.018345714,-0.044384837
88.830893,103.817787170,-46.966598511,8.354736328,-0.431510001,1.020176768,-0.039135814
88.831518,104.786720276,-47.142074585,8.209777832,-0.426505119,1.018101573,-0.038159251
88.833358,106.343116760,-47.119186401,7.164550781,-0.419058830,1.016880870,-0.031811595
88.833984,106.678810120,-47.119186401,6.653381348,-0.419547111,1.014439464,-0.032910228
88.834610,107.304420471,-46.943710327,6.210876465,-0.413687736,1.016026378,-0.029492259
88.835235,107.754554749,-47.119186401,5.692077637,-0.413809806,1.010655284,-0.026318431
88.835861,108.128395081,-47.355697632,5.417419434,-0.416617423,1.011021495,-0.022900462
88.836487,108.372535706,-46.943710327,5.058837891,-0.418082267,1.003086925,-0.021313548
88.837113,108.616676331,-47.081039429,4.738403320,-0.426138908,0.990635753,-0.018505931
88.837740,108.860816956,-46.882675171,4.227233887,-0.433218986,0.982945323,-0.017529368
88.838366,109.776344299,-46.699569702,3.723693848,-0.444083244,0.970127940,-0.012402415
88.838991,110.417213440,-46.630905151,3.151489258,-0.454215080,0.961460948,-0.014477611
88.839616,110.783424377,-46.821640015,2.701354980,-0.458121330,0.950108409,-0.011059642
88.840241,111.592140198,-47.020004272,2.487731934,-0.461173087,0.940831065,-0.012646556
88.840866,112.233009338,-47.210739136,1.976562500,-0.459219962,0.932164073,-0.012158275
88.841493,113.179054260,-47.203109741,1.648498535,-0.458121330,0.923985362,-0.016674876
88.842118,114.186134338,-47.355697632,1.160217285,-0.460318595,0.917027354,-0.019848704
88.842744,114.949073792,-47.287033081,0.961853027,-0.463858634,0.906407237,-0.023754954
88.856777,142.582733154,-47.912643433,-8.918212891,-0.326773673,0.910191417,-0.149975657
88.857556,142.544586182,-48.080490112,-9.559082031,-0.317618400,0.924839854,-0.148754954
88.858182,142.300445557,-47.973678589,-9.986328125,-0.308707267,0.933262706,-0.153881907
88.858809,141.896087646,-47.996566772,-10.337280273,-0.302969962,0.941807628,-0.151440501
88.859435,141.255218506,-48.156784058,-10.901855469,-0.295035392,0.947056651,-0.152905345
88.860061,140.621978760,-47.958419800,-11.351989746,-0.286856681,0.955967784,-0.157544017
88.860687,139.622528076,-47.920272827,-12.031005859,-0.281607658,0.967076182,-0.160473704
88.861313,138.867218018,-47.622726440,-12.504028320,-0.279166251,0.966954112,-0.164746165
88.861938,137.974578857,-47.935531616,-12.847351074,-0.274039298,0.968541026,-0.164990306
88.862564,136.891204834,-47.943161011,-13.549255371,-0.270010978,0.973912120,-0.167553782
88.863190,135.945159912,-47.821090698,-13.930725098,-0.270133048,0.971104503,-0.167065501
88.863815,135.502655029,-47.981307983,-14.647888184,-0.263541251,0.969395518,-0.172558665
88.864441,134.899932861,-48.286483765,-14.815734863,-0.263175040,0.968418956,-0.174878001
88.865068,134.297210693,-48.118637085,-15.387939453,-0.266226798,0.974400401,-0.179272532
88.865695,133.862335205,-48.240707397,-15.761779785,-0.260245353,0.969151378,-0.185864329
88.866320,133.305389404,-48.904464722,-16.150878906,-0.258292228,0.966587901,-0.189648509
88.866947,133.236724854,-48.721359253,-16.578125000,-0.255484611,0.967076182,-0.190503001
88.867572,133.091766357,-48.919723511,-17.280029297,-0.255362540,0.972935557,-0.200878978
88.868198,132.687408447,-49.522445679,-17.699645996,-0.252799064,0.986607432,-0.211010814
88.868823,132.534820557,-49.591110229,-18.111633301,-0.247794196,0.988682628,-0.219921947
88.869450,132.237274170,-49.560592651,-18.416809082,-0.240469977,0.993687510,-0.231274486
88.870076,132.153350830,-50.033615112,-18.638061523,-0.234488532,0.994542003,-0.232251048
88.870706,132.092315674,-50.025985718,-19.240783691,-0.233267829,0.999058604,-0.235424876
88.871333,132.160980225,-50.125167847,-19.454406738,-0.230338141,1.001866221,-0.239331126
88.871959,132.366973877,-50.178573608,-20.049499512,-0.232169196,1.001744151,-0.244213939
88.872584,132.946807861,-50.430343628,-20.316528320,-0.237174079,1.009678721,-0.246044993
88.873210,133.023101807,-50.758407593,-20.621704102,-0.244010016,1.013584971,-0.252026439
88.873837,132.984954834,-50.926254272,-20.705627441,-0.249503180,1.016026378,-0.248974681
88.874463,133.251983643,-51.406906128,-21.064208984,-0.253043205,1.008702159,-0.249829173
88.875088,133.503753662,-51.872299194,-21.377014160,-0.257926017,1.002598643,-0.252148509
88.876921,134.869415283,-53.169296265,-22.010253906,-0.254874259,1.009556651,-0.245800853
88.877546,135.342437744,-53.634689331,-22.056030273,-0.252066642,1.015904307,-0.245678782
88.878171,135.762054443,-54.138229370,-22.223876953,-0.259024650,1.024571300,-0.252392650
88.878798,135.678131104,-54.306076050,-22.231506348,-0.272818595,1.025303721,-0.251416087
88.879424,135.487396240,-54.672286987,-22.323059082,-0.277335197,1.021763682,-0.249829173
88.880051,135.708648682,-55.313156128,-22.414611816,-0.286612540,1.014073253,-0.248730540
88.880678,136.456329346,-55.725143433,-22.735046387,-0.291861564,1.021397471,-0.245922923
88.881303,136.624176025,-56.510971069,-22.612976074,-0.292838126,1.027867198,-0.243847728
88.881930,137.226898193,-57.571456909,-22.727416992,-0.291617423,1.032017589,-0.245312572
88.882555,137.661773682,-58.204696655,-22.719787598,-0.294913322,1.036656260,-0.240429759
88.883182,137.860137939,-58.898971558,-22.826599121,-0.298209220,1.045079112,-0.236645579
88.883808,138.073760986,-59.433029175,-22.803710938,-0.298331290,1.046666026,-0.233837962
88.884475,137.905914307,-59.936569214,-22.948669434,-0.297110587,1.048252940,-0.224072337
88.885105,137.806732178,-60.401962280,-23.169921875,-0.291861564,1.050816417,-0.216748118
88.885731,137.814361572,-61.042831421,-22.872375488,-0.289420158,1.049717784,-0.206494212
88.886356,137.699920654,-61.607406616,-22.826599121,-0.289053947,1.054478526,-0.197949290
88.900376,132.778961182,-66.803024292,-18.920349121,-0.347647697,1.026036143,-0.085522532
88.901158,133.038360596,-67.100570679,-18.691467285,-0.352774650,1.020420909,-0.079541087
88.901784,132.824737549,-67.268417358,-18.424438477,-0.353751212,1.017857432,-0.077465892
88.902410,133.015472412,-67.428634644,-18.142150879,-0.357413322,1.010777354,-0.073925853
88.903036,133.084136963,-67.726181030,-18.020080566,-0.357047111,1.006138682,-0.070874095
88.903663,133.023101807,-67.787216187,-17.692016602,-0.362174064,1.001377940,-0.070629954
88.904290,133.305389404,-68.092391968,-17.501281738,-0.366324455,0.994542003,-0.070141673
88.904916,133.297760010,-68.176315308,-17.043518066,-0.368643790,0.984654307,-0.065380931
88.905542,133.831817627,-68.458602905,-16.578125000,-0.374991447,0.978550792,-0.066601634
88.906168,134.220916748,-68.527267456,-16.433166504,-0.375845939,0.976475596,-0.066357493
88.906794,134.487945557,-68.817184448,-16.120361328,-0.379996330,0.964390635,-0.066479564
88.907420,135.182220459,-68.901107788,-15.891479492,-0.383536369,0.960484385,-0.066357493
88.908047,136.029083252,-69.091842651,-15.685485840,-0.390982658,0.950352550,-0.068798900
88.908672,136.769134521,-69.526718140,-15.067504883,-0.395010978,0.950474620,-0.067211986
88.909298,137.509185791,-69.412277222,-15.105651855,-0.398306876,0.940708995,-0.067944407
88.909924,138.676483154,-69.999740601,-14.686035156,-0.396964103,0.937657237,-0.067334056
88.910551,139.736968994,-69.946334839,-14.357971191,-0.403067619,0.927891612,-0.064892650
88.911177,140.881378174,-70.251510620,-14.151977539,-0.404410392,0.925083995,-0.066357493
88.911803,142.178375244,-70.411727905,-13.778137207,-0.406119376,0.920323253,-0.068310618
88.912430,143.421966553,-70.632980347,-13.274597168,-0.406851798,0.916294932,-0.071362376
88.913057,144.711334229,-70.777938843,-13.068603516,-0.406119376,0.911412120,-0.068920970
88.913682,146.153289795,-71.044967651,-12.786315918,-0.405142814,0.910069346,-0.072094798
88.914308,147.274810791,-71.052597046,-12.305664062,-0.408316642,0.910679698,-0.072949290
88.914935,148.701507568,-71.182296753,-12.145446777,-0.408560783,0.910801768,-0.076245189
88.915560,149.830657959,-71.151779175,-11.657165527,-0.407950431,0.914097667,-0.080029368
88.916186,151.165802002,-71.365402222,-11.184143066,-0.405631095,0.916661143,-0.080639720
88.916811,152.363616943,-71.098373413,-11.084960938,-0.404410392,0.913731456,-0.083203197
88.917436,153.797943115,-71.029708862,-10.604309082,-0.405020744,0.920689464,-0.088452220
88.918062,154.843170166,-71.319625854,-10.337280273,-0.406729728,0.922398448,-0.094067454
88.918688,155.850250244,-71.128890991,-10.001586914,-0.407950431,0.921177745,-0.098339915
88.920495,159.420806885,-70.877120972,-9.025024414,-0.428946525,0.906773448,-0.109448314
88.921120,160.618621826,-70.991561890,-8.773254395,-0.439810783,0.902867198,-0.111157298
88.921746,161.907989502,-71.113632202,-8.574890137,-0.443106681,0.901890635,-0.115551829
88.922372,162.869293213,-71.586654663,-8.506225586,-0.447867423,0.901158214,-0.125683665
88.922999,163.700897217,-71.556137085,-8.292602539,-0.440054923,0.899571300,-0.128613353
88.923625,164.280731201,-71.891830444,-7.918762207,-0.432730705,0.902134776,-0.135937572
88.924251,165.081817627,-71.853683472,-7.636474609,-0.429068595,0.903477550,-0.148144603
88.924876,165.745574951,-71.716354370,-7.361816406,-0.426016837,0.914952159,-0.159863353
88.925503,165.875274658,-71.838424683,-7.216857910,-0.426138908,0.918614268,-0.169995189
88.926129,166.218597412,-71.922348022,-6.972717285,-0.421256095,0.920323253,-0.177319407
88.926756,166.111785889,-71.586654663,-6.888793945,-0.420645744,0.921666026,-0.188549876
88.927381,166.241485596,-71.388290405,-6.797241211,-0.416007072,0.927891612,-0.199536204
88.928008,166.195709229,-71.708724976,-6.514953613,-0.411490470,0.926548839,-0.208325267
88.928633,166.188079834,-71.670578003,-6.537841797,-0.405875236,0.934849620,-0.213574290
88.929258,166.188079834,-71.548507690,-6.568359375,-0.396475822,0.942540050,-0.217724681
88.929885,165.821868896,-71.624801636,-6.484436035,-0.380484611,0.946934581,-0.225415111
88.943932,118.901100159,-68.893478394,-7.903503418,-0.282584220,1.022740245,-0.418652415
88.944750,117.428627014,-69.335983276,-8.086608887,-0.299185783,1.012242198,-0.444287181
88.945375,116.055335999,-70.327804565,-8.437561035,-0.304556876,1.007237315,-0.449536204
88.946010,114.987220764,-71.136520386,-8.559631348,-0.301749259,0.997105479,-0.439160228
88.946636,114.033546448,-71.983383179,-8.750366211,-0.302603751,0.975132823,-0.430615306
88.947263,113.873329163,-72.967575073,-8.986877441,-0.296134025,0.957920909,-0.410961986
88.947888,113.789405823,-73.905990601,-9.025024414,-0.287100822,0.954869151,-0.395459056
88.948514,113.385047913,-75.180099487,-9.131835938,-0.273917228,0.960118175,-0.387646556
88.949139,112.538185120,-75.836227417,-8.941101074,-0.253409415,0.965733409,-0.385205150
88.949766,111.744728088,-76.461837769,-8.872436523,-0.239249274,0.980259776,-0.388378978
88.950393,110.249366760,-76.736495972,-8.307861328,-0.228385016,0.987828135,-0.390087962
88.951018,108.837928772,-76.721237183,-8.239196777,-0.223990485,0.992100596,-0.394482493
88.951645,107.251014709,-76.698348999,-7.766174316,-0.226553962,0.979893565,-0.394726634
88.952270,106.007423401,-76.377914429,-7.712768555,-0.237174079,0.965855479,-0.393750072
88.952897,104.801979065,-76.461837769,-7.743286133,-0.246085212,0.945591807,-0.390942454
88.953524,104.267921448,-76.797531128,-7.773803711,-0.256217033,0.921666026,-0.384594798
88.954151,104.321327209,-77.598617554,-7.499145508,-0.267813712,0.900792003,-0.383129954
88.954778,104.542579651,-78.079269409,-7.506774902,-0.280753165,0.881871104,-0.374218822
88.955405,105.389442444,-78.689620972,-7.117675781,-0.306021720,0.865879893,-0.364575267
88.956030,106.106605530,-79.032943726,-6.698059082,-0.296744376,0.882115245,-0.358715892
88.956656,106.366004944,-79.513595581,-7.033752441,-0.254508048,0.869053721,-0.369336009
88.957282,106.762733459,-79.589889526,-7.544921875,-0.286002189,0.910557628,-0.341626048
88.957908,106.129493713,-79.544113159,-6.446289062,-0.242423102,0.874546885,-0.276196361
88.958534,106.983985901,-77.278182983,-5.828308105,-0.200186774,0.799473643,-0.305737376
88.959160,105.107154846,-76.072738647,-5.057739258,-0.262930900,0.746983409,-0.367382884
88.959785,99.629249573,-77.919052124,-3.089355469,-0.363272697,0.673619151,-0.331250072
88.960411,96.089210510,-81.489608765,-1.616882324,-0.321036369,0.572544932,-0.285473704
88.961036,101.292457581,-84.205673218,-1.998352051,-0.199820563,0.506260753,-0.270825267
88.961663,114.781227112,-85.617111206,-2.684997559,-0.180289313,0.640782237,-0.292675853
88.962288,123.577919006,-87.814376831,-2.463745117,-0.246939704,0.834751964,-0.388134837
88.964087,121.617164612,-85.250900269,-4.363464355,-0.158438727,0.977452159,-0.310498118
88.964712,121.235694885,-82.634017944,-5.301879883,-0.136954352,1.040562510,-0.279126048
88.965338,119.229164124,-81.359909058,-5.469726562,-0.137564704,1.083409190,-0.255200267
88.965964,117.832984924,-80.040023804,-5.149291992,-0.176383063,1.077061534,-0.206982493
88.973254,111.233558655,-71.159408569,-5.141662598,-0.330191642,0.790562510,-0.014355540
88.973880,113.102760315,-72.364852905,-5.340026855,-0.373526603,0.805210948,-0.041333079
88.974505,115.399208069,-74.134872437,-4.348205566,-0.372183830,0.807896495,-0.061962962
88.975130,117.573585510,-75.393722534,-4.256652832,-0.386221915,0.791783214,-0.057568431
88.975755,119.808998108,-76.599166870,-4.088806152,-0.424551994,0.778721690,-0.057568431
88.976381,121.052589417,-77.659652710,-4.332946777,-0.392813712,0.776646495,-0.060742259
88.977009,122.456398010,-77.583358765,-4.867004395,-0.325797111,0.759190440,-0.056347728
88.977635,124.661293030,-76.034591675,-5.103515625,-0.264884025,0.788731456,-0.041943431
88.978261,126.011695862,-74.508712769,-4.706787109,-0.259268790,0.814610362,-0.039868236
88.978887,126.141395569,-72.967575073,-4.020141602,-0.261710197,0.814488292,-0.026074290
88.979513,126.095619202,-71.632431030,-3.653930664,-0.285147697,0.792271495,-0.001782298
88.980139,126.591529846,-70.106552124,-3.028320312,-0.298331290,0.751133800,0.011767507
88.994250,164.601165771,-66.078231812,6.928039551,-0.184439704,0.769322276,-0.184155345
88.995021,171.253997803,-67.970321655,5.371643066,-0.207633063,0.819126964,-0.224438548
88.995647,178.067047119,-70.289657593,3.815246582,-0.218009040,0.934239268,-0.254589915
88.996273,182.041961670,-72.311447144,2.342773438,-0.200064704,1.045689464,-0.284985423
88.996899,182.110626221,-73.219345093,1.549316406,-0.142081305,1.100132823,-0.256054759
88.997524,180.821258545,-72.769210815,0.816894531,-0.052115478,1.099522471,-0.193920970
88.998149,178.868133545,-70.724533081,0.420166016,0.036873780,1.060459971,-0.164013743
88.998774,177.853424072,-67.283676147,0.511718750,0.097542726,0.987950206,-0.139843822
88.999399,176.968414307,-63.392684937,1.053405762,0.104622804,0.935826182,-0.119580150
89.000024,176.045257568,-60.394332886,2.037597656,0.054696046,0.873936534,-0.122387767
89.000649,176.106292725,-58.319137573,2.853942871,-0.010367432,0.809117198,-0.126049876
89.001274,178.189117432,-57.769821167,3.502441406,-0.085440673,0.775425792,-0.109082103
89.001899,181.393463135,-58.853195190,3.876281738,-0.143790290,0.789097667,-0.111157298
89.002525,184.628326416,-61.134384155,3.983093262,-0.185538337,0.871617198,-0.126416087
89.003152,186.138946533,-63.148544312,4.250122070,-0.192984626,0.967930675,-0.140942454
89.003778,186.688262939,-65.071151733,4.044128418,-0.168936774,1.062657237,-0.129345775
89.004404,185.887176514,-65.383956909,3.311706543,-0.134879157,1.160069346,-0.116406322
89.005029,180.531341553,-63.842819214,1.556945801,-0.070914306,1.267491221,-0.093945384
89.005654,176.503021240,-61.714218140,0.588012695,-0.046866454,1.269688487,-0.065869212
89.006279,173.397857666,-59.806869507,-0.243591309,-0.038809814,1.246495128,-0.038037181
89.006905,170.399505615,-58.052108765,-0.884460449,-0.041617431,1.218785167,-0.010815501
89.007531,167.973358154,-56.907699585,-0.922607422,-0.053458251,1.180821300,0.005297780
89.008157,165.440399170,-56.030319214,-0.617431641,-0.059439696,1.156651378,0.021166921
89.008782,162.960845947,-55.801437378,-0.014709473,-0.054678954,1.144200206,0.023364186
89.009407,160.610992432,-55.076644897,0.206542969,-0.061759032,1.157139659,0.013476491
89.010032,157.757598877,-54.382369995,0.694824219,-0.053092040,1.176060557,-0.001171947
89.010658,155.056793213,-52.764938354,0.893188477,-0.055899657,1.204014659,-0.018017650
89.011283,152.447540283,-50.994918823,0.954223633,-0.077139892,1.232579112,-0.041088939
89.011908,149.105865479,-49.278305054,0.649047852,-0.105093993,1.248082042,-0.063671947
89.012535,146.160919189,-47.363327026,-0.251220703,-0.144034430,1.251988292,-0.077099681
89.014345,143.154937744,-45.890853882,-1.929687500,-0.212760016,1.213658214,-0.083691478
89.014970,142.765838623,-45.593307495,-2.753662109,-0.234122321,1.194126964,-0.080273509
89.015595,143.162567139,-45.845077515,-3.699707031,-0.243277594,1.171177745,-0.077710032
89.016222,143.643218994,-46.417282104,-4.249023438,-0.237540290,1.164830089,-0.066357493
89.016847,143.483001709,-46.218917847,-4.699157715,-0.213492438,1.170811534,-0.053906322
89.017472,142.636138916,-45.661972046,-4.828857422,-0.186759040,1.182042003,-0.042309642
89.018099,141.125518799,-44.593856812,-5.179809570,-0.168326423,1.196202159,-0.023877025
89.018724,138.737518311,-43.106124878,-4.996704102,-0.162100837,1.208775401,-0.007031322
89.019349,135.708648682,-40.924118042,-4.950927734,-0.161368415,1.213780284,0.001025319
89.019974,132.786590576,-39.306686401,-4.805969238,-0.180899665,1.215611339,0.002978444
89.020600,130.123931885,-37.681625366,-4.783081055,-0.204459235,1.209385753,0.002856374
89.021227,127.858009338,-36.552474976,-4.943298340,-0.237540290,1.197544932,-0.001538157
89.021854,125.965919495,-36.079452515,-5.141662598,-0.271109611,1.185948253,-0.009716868
89.022481,124.737586975,-36.094711304,-5.759643555,-0.289908439,1.176670909,-0.020947337
89.023106,123.555030823,-36.125228882,-6.476806641,-0.309561759,1.163731456,-0.038769603
89.023731,122.982826233,-36.392257690,-6.812500000,-0.305899650,1.148716807,-0.054028392
89.037786,111.279335022,-18.203781128,-9.757446289,-0.246573493,0.922764659,-0.036694407
89.038575,111.012306213,-17.379806519,-9.261535645,-0.245230719,0.909581065,-0.045971751
89.039200,111.195411682,-16.227767944,-9.307312012,-0.239127204,0.903965831,-0.042431712
89.039826,110.447731018,-15.312240601,-9.269165039,-0.247794196,0.903477550,-0.046582103
89.040452,109.799232483,-14.411972046,-8.902954102,-0.257926017,0.889683604,-0.054028392
89.041077,109.295692444,-13.389633179,-8.696960449,-0.249259040,0.877232432,-0.050976634
89.041704,109.570350647,-12.802169800,-8.887695312,-0.265006095,0.881749034,-0.053173900
89.042329,109.356727600,-11.688278198,-8.887695312,-0.273551017,0.875401378,-0.060742259
89.042954,109.318580627,-10.994003296,-8.597778320,-0.275992423,0.871617198,-0.067089915
89.043580,108.792152405,-10.383651733,-8.552001953,-0.283194572,0.867344737,-0.071118236
89.044207,108.593788147,-9.796188354,-8.780883789,-0.279288322,0.846470714,-0.074292064
89.044832,108.731117249,-8.911178589,-8.460449219,-0.276358634,0.833042979,-0.067578197
89.045457,108.914222717,-8.132980347,-8.529113770,-0.273673087,0.832798839,-0.065014720
89.046084,108.609046936,-7.812545776,-8.025573730,-0.280386955,0.843418956,-0.071850657
89.046709,108.486976624,-6.889389038,-7.850097656,-0.264273673,0.835728526,-0.067944407
89.047335,108.059730530,-6.034896851,-7.506774902,-0.266837150,0.837925792,-0.070385814
89.047961,107.518043518,-5.233810425,-7.255004883,-0.272696525,0.834751964,-0.074658275
89.048586,106.304969788,-4.295394897,-6.881164551,-0.269888908,0.820958018,-0.072705150
89.049212,105.793800354,-3.341720581,-6.720947266,-0.267203361,0.813389659,-0.064038157
89.049837,105.336036682,-2.525375366,-6.423400879,-0.270255119,0.807896495,-0.068188548
89.050462,105.206336975,-1.693771362,-6.301330566,-0.270255119,0.805210948,-0.064282298
89.051088,104.527320862,-1.075790405,-5.973266602,-0.265006095,0.804112315,-0.064404368
89.051715,103.695716858,-0.320480347,-5.294250488,-0.264151603,0.800572276,-0.068920970
89.052341,102.909889221,0.396682739,-4.996704102,-0.259757072,0.793858409,-0.068188548
89.052967,101.757850647,1.113845825,-4.645751953,-0.260855705,0.791905284,-0.067089915
89.053592,100.796546936,1.983596802,-3.974365234,-0.252676994,0.782017589,-0.070874095
89.054218,100.041236877,2.822830200,-3.631042480,-0.244376227,0.778477550,-0.072216868
89.054844,99.461402893,3.723098755,-3.379272461,-0.253287345,0.781651378,-0.080761790
89.055471,98.683204651,4.180862427,-2.959655762,-0.254508048,0.781529307,-0.085400462
89.056098,97.912635803,4.516555786,-2.448486328,-0.264151603,0.776646495,-0.091015697
89.057907,96.386756897,6.507827759,-1.380371094,-0.258902580,0.774693370,-0.110058665
89.058533,95.753517151,6.568862915,-0.708984375,-0.250968009,0.781041026,-0.109570384
89.059160,95.021095276,7.339431763,-0.228332520,-0.244620368,0.779087901,-0.105053782
89.059785,94.227638245,8.209182739,0.114990234,-0.249014899,0.776646495,-0.107251048
89.060411,93.388404846,8.758499146,0.641418457,-0.246085212,0.774205089,-0.111157298
89.061037,92.900123596,9.704544067,1.213623047,-0.244254157,0.771153331,-0.116650462
89.061664,92.152442932,9.979202271,1.778198242,-0.242056891,0.768589854,-0.121167064
89.062289,91.191139221,10.955764771,2.159667969,-0.240592048,0.752842784,-0.128003001
89.062916,90.550270081,11.199905396,3.052307129,-0.241568610,0.746250987,-0.135693431
89.063541,90.267982483,11.589004517,3.456665039,-0.237052009,0.735752940,-0.138012767
89.064167,90.390052795,12.000991821,3.853393555,-0.230460212,0.735875010,-0.143628001
89.064792,90.283241272,12.252761841,4.463745117,-0.236197516,0.750279307,-0.156933665
89.065417,89.711036682,12.680007935,5.341125488,-0.235831305,0.756626964,-0.169995189
89.066043,89.276161194,13.221694946,5.760742188,-0.231680915,0.756382823,-0.179882884
89.066668,88.909950256,13.694717407,6.577087402,-0.224844977,0.755284190,-0.183544993
89.067293,88.192787170,14.457656860,6.752563477,-0.221671149,0.758091807,-0.191113353
89.067918,87.750282288,14.915420532,7.462097168,-0.220694587,0.760899425,-0.199047923
89.082184,67.425575256,24.322463989,22.797180176,-0.245230719,0.835850596,-0.324414134
89.082907,65.831031799,24.536087036,23.476196289,-0.253653556,0.854283214,-0.320019603
89.083533,64.411964417,24.841262817,24.147583008,-0.261343986,0.867833018,-0.330639720
89.084158,62.756385803,25.306655884,24.902893066,-0.267569572,0.861363292,-0.334912181
89.084783,60.582008362,25.848342896,25.551391602,-0.273428947,0.855381846,-0.329052806
89.085409,58.987464905,26.290847778,25.917602539,-0.277091056,0.839512706,-0.321240306
89.086034,57.804908752,26.748611450,26.756835938,-0.272574455,0.840489268,-0.318066478
89.086660,56.668128967,27.297927856,27.199340820,-0.275870353,0.847813487,-0.318920970
89.087286,54.753150940,27.091934204,28.023315430,-0.277091056,0.862339854,-0.337597728
89.087912,53.326454163,27.473403931,28.862548828,-0.286734611,0.852330089,-0.338452220
89.088539,51.388587952,27.755691528,29.961181641,-0.297354728,0.857212901,-0.344189525
89.089164,50.152626038,27.801467896,30.327392578,-0.306998283,0.853550792,-0.355542064
89.089790,48.634376526,27.801467896,30.754638672,-0.304923087,0.867344737,-0.376782298
89.090416,47.406044006,28.129531860,31.303955078,-0.309317619,0.853062510,-0.382885814
89.091042,46.665992737,28.732254028,31.609130859,-0.305289298,0.864415050,-0.382397532
89.091668,45.796241760,28.564407349,32.394958496,-0.305167228,0.857212901,-0.391064525
89.092294,45.147743225,29.106094360,32.646728516,-0.311148673,0.862828135,-0.389477611
89.092920,43.789710999,29.045059204,33.226562500,-0.323355705,0.866734385,-0.397168040
89.093546,42.706336975,29.449417114,33.806396484,-0.331046134,0.864781260,-0.399365306
89.094171,41.676368713,29.609634399,34.309936523,-0.337637931,0.877598643,-0.406689525
89.094798,40.348854065,29.708816528,34.615112305,-0.339957267,0.865025401,-0.411206126
89.095423,39.387550354,29.960586548,35.339904785,-0.349967033,0.880650401,-0.414624095
89.096049,37.930335999,29.708816528,35.843444824,-0.338370353,0.855381846,-0.421337962
89.096675,37.525978088,30.090286255,35.828186035,-0.333731681,0.857579112,-0.420605540
89.097301,36.801185608,30.372573853,36.499572754,-0.336417228,0.865391612,-0.429150462
89.097927,36.084022522,30.418350220,37.109924316,-0.338370353,0.855748057,-0.437939525
89.098554,35.092201233,30.639602661,37.582946777,-0.333365470,0.855748057,-0.437085032
89.099181,34.443702698,31.021072388,38.017822266,-0.334830314,0.854649425,-0.441479564
89.099808,33.848609924,31.143142700,38.200927734,-0.346426994,0.861729503,-0.450390697
89.100433,33.146705627,31.265213013,38.803649902,-0.354971915,0.868687510,-0.459423900
89.102203,31.300392151,31.059219360,39.589477539,-0.364859611,0.872715831,-0.465405345
89.102829,30.682411194,30.883743286,39.444519043,-0.342520744,0.873936534,-0.468335032
89.103455,30.499305725,30.479385376,39.879394531,-0.310538322,0.863804698,-0.473095775
89.104081,30.720558167,30.944778442,39.749694824,-0.283560783,0.860020518,-0.470166087
89.104707,31.758155823,31.051589966,39.566589355,-0.264639884,0.864903331,-0.469189525
89.105333,32.833900452,31.318618774,39.223266602,-0.237418219,0.872715831,-0.482739329
89.105959,34.458961487,31.417800903,38.765502930,-0.210440680,0.868443370,-0.487255931
89.106584,36.976661682,31.700088501,38.025451660,-0.195181891,0.888829112,-0.482006907
89.107210,40.089454651,31.684829712,37.239624023,-0.178092048,0.922276378,-0.489209056
89.107837,43.728675842,31.196548462,36.079956055,-0.149527594,0.980625987,-0.492504954
89.108464,47.558631897,31.257583618,34.668518066,-0.151480719,1.073521495,-0.515454173
89.109090,50.320472717,30.555679321,33.226562500,-0.204459235,1.193394542,-0.546582103
89.109715,50.587501526,29.640151978,31.685424805,-0.262564689,1.311070323,-0.582470775
89.110340,49.450721741,28.488113403,29.923034668,-0.313101798,1.389561534,-0.614941478
89.110967,48.611488342,27.595474243,27.199340820,-0.349234611,1.455601573,-0.634228587
89.111594,48.405494690,26.237442017,23.903442383,-0.383414298,1.491001964,-0.664013743
89.112219,48.893775940,24.887039185,20.981384277,-0.422965080,1.515171885,-0.700390697
89.126283,77.153053284,-5.104110718,-3.959106445,-0.260977775,1.060582042,-0.716381907
89.127094,75.817909241,-7.034347534,-3.707336426,-0.260489494,1.028477550,-0.732739329
89.127721,74.871864319,-8.499191284,-3.257202148,-0.257681876,0.995518565,-0.761914134
89.128348,74.795570374,-9.895370483,-3.081726074,-0.256339103,0.967198253,-0.793042064
89.128973,75.337257385,-11.077926636,-3.066467285,-0.265616447,0.957310557,-0.825390697
89.129598,76.123085022,-11.856124878,-2.997802734,-0.268668205,0.961094737,-0.845654368
89.130223,76.779212952,-12.512252808,-3.051208496,-0.268790275,0.961827159,-0.856640697
89.130849,77.618446350,-12.954757690,-2.890991211,-0.275382072,0.971104503,-0.862622142
89.131476,78.816261292,-13.641403198,-3.119873047,-0.283316642,0.986729503,-0.861767650
89.132103,79.434242249,-13.969467163,-2.807067871,-0.296500236,0.993809581,-0.853955150
89.132728,79.922523499,-14.732406616,-2.807067871,-0.310660392,0.999058604,-0.841381907
89.133354,80.174293518,-15.312240601,-2.547668457,-0.331656486,1.007847667,-0.815258861
89.133980,80.082740784,-15.770004272,-2.501892090,-0.348624259,1.023594737,-0.790722728
89.134606,79.235877991,-16.258285522,-2.753662109,-0.365347892,1.044346690,-0.762768626
89.135232,78.114356995,-16.967819214,-2.379821777,-0.373526603,1.058506846,-0.731274486
89.135858,76.268043518,-17.448471069,-2.417968750,-0.375357658,1.080113292,-0.700024486
89.136483,74.192848206,-17.593429565,-2.417968750,-0.386343986,1.094395518,-0.676464915
89.137110,71.385231018,-18.028305054,-2.067016602,-0.394156486,1.105748057,-0.652661204
89.137736,68.615760803,-18.150375366,-1.883911133,-0.411612540,1.110508800,-0.632641673
89.138361,65.243568420,-18.562362671,-2.112792969,-0.424551994,1.105381846,-0.614086986
89.138988,62.352027893,-19.165084839,-1.883911133,-0.438834220,1.100010753,-0.605175853
89.139614,59.597816467,-19.897506714,-2.234863281,-0.456412345,1.093663096,-0.604931712
89.140241,57.339515686,-20.950363159,-2.303527832,-0.470328361,1.093541026,-0.605908275
89.140867,55.271949768,-21.858261108,-2.570556641,-0.473258048,1.080357432,-0.614086986
89.141493,53.669776917,-22.712753296,-2.768920898,-0.472281486,1.076817393,-0.624585032
89.142119,52.563514709,-23.864791870,-2.814697266,-0.466300040,1.068150401,-0.638378978
89.142746,51.655616760,-24.726913452,-3.264831543,-0.461173087,1.061436534,-0.651684642
89.143372,51.403846741,-25.207565308,-3.455566406,-0.460318595,1.062413096,-0.666577220
89.143999,50.839271545,-26.031539917,-3.730224609,-0.452506095,1.053990245,-0.679516673
89.144626,51.167335510,-26.351974487,-4.287170410,-0.438712150,1.047398448,-0.681836009
89.146450,51.861610413,-27.626083374,-5.553649902,-0.427847892,1.054234385,-0.694775462
89.147075,52.365150452,-28.060958862,-5.958007812,-0.425528556,1.057774425,-0.692211986
89.147701,53.173866272,-28.564498901,-6.354736328,-0.416617423,1.062413096,-0.689160228
89.148326,53.669776917,-29.052780151,-7.079528809,-0.410025626,1.069859385,-0.687573314
89.148953,54.333534241,-29.792831421,-7.583068848,-0.404166251,1.073887706,-0.680737376
89.149578,55.012550354,-30.258224487,-8.292602539,-0.401480705,1.079014659,-0.676831126
89.150204,55.538978577,-30.426071167,-8.689331055,-0.396353751,1.080235362,-0.677197337
89.150830,55.928077698,-31.219528198,-9.269165039,-0.381827384,1.073887706,-0.672680736
89.151455,56.660499573,-31.539962769,-10.001586914,-0.377188712,1.068516612,-0.669506907
89.152081,57.484474182,-32.173202515,-10.314392090,-0.368643790,1.073887706,-0.667187572
89.152707,58.064308167,-32.821701050,-11.069702148,-0.363638908,1.064244151,-0.671948314
89.153332,59.246864319,-33.386276245,-11.634277344,-0.359610587,1.061314464,-0.669018626
89.153958,60.124244690,-33.699081421,-12.137817383,-0.353751212,1.065342784,-0.667431712
89.154583,61.199989319,-34.492538452,-12.626098633,-0.340933830,1.043492198,-0.669873118
89.155208,62.626686096,-35.018966675,-13.144897461,-0.339957267,1.052159190,-0.662793040
89.155833,63.427772522,-35.491989136,-13.816284180,-0.333853751,1.041783214,-0.665478587
89.156458,64.877357483,-36.018417358,-14.518188477,-0.317496330,1.038365245,-0.659863353
89.170473,74.948158264,-43.785140991,-23.612426758,-0.394278556,0.961216807,-0.632885814
89.171200,75.497474670,-44.113204956,-23.856567383,-0.399771720,0.951451182,-0.632763743
89.171826,76.145973206,-44.883773804,-23.940490723,-0.399893790,0.938023448,-0.631909251
89.172452,77.107276917,-45.120285034,-24.169372559,-0.403189689,0.941319346,-0.635449290
89.173077,77.603187561,-45.745895386,-24.054931641,-0.408926994,0.936802745,-0.645947337
89.173704,78.068580627,-45.906112671,-24.222778320,-0.408438712,0.929722667,-0.644360423
89.174331,78.366127014,-46.463058472,-24.054931641,-0.414053947,0.929722667,-0.642895579
89.174957,78.762855530,-46.852157593,-24.077819824,-0.406363517,0.906773448,-0.649609447
89.175584,79.701271057,-46.737716675,-24.192260742,-0.417960197,0.909092784,-0.643994212
89.176209,80.014076233,-47.218368530,-23.971008301,-0.424429923,0.906651378,-0.644970775
89.176834,79.861488342,-47.607467651,-23.665832520,-0.422232658,0.879429698,-0.646801829
89.177465,80.494728088,-47.927902222,-23.978637695,-0.425284415,0.877232432,-0.636914134
89.178091,81.044044495,-48.561141968,-23.703979492,-0.428336173,0.868687510,-0.644970775
89.178718,81.753578186,-48.797653198,-23.429321289,-0.436148673,0.862583995,-0.646313548
89.179343,81.990089417,-49.324081421,-22.933410645,-0.435538322,0.862583995,-0.649487376
89.179969,82.058753967,-49.987838745,-22.536682129,-0.429068595,0.846714854,-0.648388743
89.180595,82.775917053,-50.155685425,-22.437500000,-0.438101798,0.844395518,-0.646313548
89.181220,82.638587952,-50.460861206,-22.078918457,-0.451163322,0.849522471,-0.648388743
89.181847,82.516517639,-51.292465210,-21.521972656,-0.443717033,0.828892589,-0.645825267
89.182472,82.730140686,-51.292465210,-21.354125977,-0.432852775,0.827305675,-0.638745189
89.183099,82.928504944,-52.108810425,-20.759033203,-0.439688712,0.827427745,-0.646069407
89.183725,82.806434631,-52.269027710,-20.316528320,-0.446890861,0.831211925,-0.650952220
89.184352,82.409706116,-52.894638062,-19.736694336,-0.442496330,0.827183604,-0.654736400
89.184979,82.180824280,-53.360031128,-19.210266113,-0.434805900,0.813267589,-0.660107493
89.185604,82.127418518,-53.596542358,-18.744873047,-0.442984611,0.826329112,-0.661450267
89.186230,81.471290588,-54.054306030,-18.218444824,-0.442740470,0.822911143,-0.677441478
89.186855,80.769386292,-54.718063354,-17.478393555,-0.445059806,0.818028331,-0.677075267
89.187481,79.998817444,-55.046127319,-16.936706543,-0.433218986,0.806675792,-0.677563548
89.188106,79.586830139,-55.358932495,-16.509460449,-0.432364494,0.802037120,-0.680004954
89.188732,78.595008850,-56.015060425,-15.830444336,-0.432242423,0.802769542,-0.685742259
89.190509,76.550331116,-57.777450562,-13.854431152,-0.422476798,0.775181651,-0.700634837
89.191134,76.023902893,-58.158920288,-13.015197754,-0.421011955,0.777867198,-0.713086009
89.191761,75.100746155,-58.639572144,-12.336181641,-0.419913322,0.777134776,-0.728466868
89.192386,74.276771545,-59.059188843,-11.748718262,-0.421744376,0.776280284,-0.731274486
89.193011,73.109474182,-59.768722534,-11.260437012,-0.425162345,0.777378917,-0.740551829
89.193636,72.071876526,-60.363815308,-10.283874512,-0.422232658,0.757603526,-0.742016673
89.194262,71.499671936,-60.974166870,-9.795593262,-0.422965080,0.757115245,-0.740551829
89.194889,70.858802795,-61.416671753,-9.231018066,-0.415762931,0.749668956,-0.741284251
89.195514,70.393409729,-62.370346069,-8.376525879,-0.410269767,0.748326182,-0.749096751
89.196140,69.340553284,-62.934921265,-7.712768555,-0.411856681,0.753575206,-0.752270579
89.196765,68.135108948,-63.507125854,-7.018493652,-0.408926994,0.743687510,-0.752270579
89.197392,67.433204651,-64.010665894,-6.324218750,-0.408072501,0.728184581,-0.742749095
89.198018,66.716041565,-64.704940796,-5.553649902,-0.412222892,0.733189464,-0.740673900
89.198643,65.510597229,-65.193222046,-5.095886230,-0.402823478,0.724278331,-0.743237376
89.199269,64.678993225,-65.742538452,-4.325317383,-0.402091056,0.721714854,-0.746655345
89.199894,63.435401917,-66.185043335,-3.257202148,-0.399283439,0.733189464,-0.749585032
89.213886,49.305763245,-74.768112183,11.459899902,-0.395499259,0.645420909,-0.651806712
89.214647,48.611488342,-75.187728882,12.085510254,-0.394644767,0.643223643,-0.648022532
89.215274,48.161354065,-75.317428589,12.886596680,-0.397940665,0.641270518,-0.645214915
89.215899,47.726478577,-74.974105835,13.496948242,-0.407095939,0.644688487,-0.637280345
89.216524,46.856727600,-75.470016479,13.969970703,-0.412100822,0.641514659,-0.634716868
89.223751,42.126502991,-75.164840698,19.669128418,-0.413687736,0.661656260,-0.549023509
89.224377,41.592445374,-74.722335815,20.210815430,-0.410880119,0.672276378,-0.548291087
89.225009,40.570106506,-74.447677612,20.744873047,-0.413443595,0.676060557,-0.541821361
89.225636,39.891090393,-73.791549683,21.172119141,-0.410269767,0.675083995,-0.536694407
89.226262,39.288368225,-73.471115112,21.629882812,-0.414053947,0.681065440,-0.532177806
89.226888,38.594093323,-73.104904175,21.843505859,-0.418448478,0.690831065,-0.526684642
89.227513,38.014259338,-72.639511108,22.430969238,-0.421622306,0.701939464,-0.523388743
89.228138,37.518348694,-72.410629272,22.896362305,-0.423453361,0.705113292,-0.512890697
89.228764,36.702003479,-72.265670776,23.041320801,-0.424918205,0.708897471,-0.506787181
89.229390,36.084022522,-71.960494995,23.239685059,-0.424185783,0.708531260,-0.497876048
89.230015,35.511817932,-71.601913452,23.514343262,-0.420767814,0.708531260,-0.492749095
89.230641,35.084571838,-71.373031616,23.895812988,-0.413321525,0.717320323,-0.487133861
89.231266,34.565773010,-71.083114624,23.972106934,-0.407218009,0.726231456,-0.489453197
89.231892,34.115638733,-70.716903687,24.269653320,-0.397330314,0.739537120,-0.490795970
89.232519,33.039894104,-70.152328491,24.567199707,-0.394156486,0.745884776,-0.488964915
89.234335,30.468788147,-68.077133179,24.979187012,-0.386099845,0.761387706,-0.464428782
89.234960,29.553260803,-67.543075562,25.238586426,-0.386710197,0.764805675,-0.458935618
89.235587,28.614845276,-67.123458862,25.375915527,-0.392447501,0.763829112,-0.446606517
89.236213,27.691688538,-67.024276733,25.505615234,-0.389761955,0.763340831,-0.438794017
89.236839,27.165260315,-66.261337280,25.597167969,-0.387198478,0.771275401,-0.436474681
89.237465,26.211585999,-66.001937866,25.520874023,-0.378531486,0.777623057,-0.437817454
89.238092,25.433387756,-65.681503296,25.597167969,-0.373160392,0.779698253,-0.440747142
89.238718,24.365272522,-64.827011108,25.719238281,-0.371817619,0.784336925,-0.435376048
89.239344,22.702064514,-64.361618042,25.917602539,-0.369742423,0.780186534,-0.426953197
89.239970,21.870460510,-63.636825562,25.917602539,-0.370474845,0.769444346,-0.419506907
89.240596,21.382179260,-63.461349487,25.955749512,-0.371329337,0.760167003,-0.407299876
89.241221,20.504798889,-62.728927612,25.703979492,-0.374503165,0.760411143,-0.403881907
89.241848,19.856300354,-62.355087280,25.833679199,-0.373160392,0.767125010,-0.409985423
89.242475,18.894996643,-62.141464233,26.207519531,-0.371085197,0.767369151,-0.415966868
89.243100,18.368568420,-61.637924194,26.329589844,-0.370108634,0.763584971,-0.422192454
89.243727,17.330970764,-61.012313843,26.154113770,-0.381461173,0.764683604,-0.421215892
89.244352,16.545143127,-60.264633179,26.352478027,-0.388541251,0.756016612,-0.415234447
89.244979,15.751686096,-59.967086792,25.978637695,-0.390616447,0.738926768,-0.395947337
89.245604,15.438880920,-59.600875854,25.978637695,-0.385489494,0.724400401,-0.382885814
89.246229,15.744056702,-59.005783081,25.795532227,-0.382193595,0.725132823,-0.377392650
89.246855,15.293922424,-58.898971558,25.963378906,-0.379996330,0.726353526,-0.387890697
89.247482,15.049781799,-58.876083374,26.421142578,-0.366080314,0.713047862,-0.401318431
89.248108,14.805641174,-58.197067261,26.077819824,-0.361197501,0.717808604,-0.406689525
89.248734,14.218177795,-57.884262085,26.444030762,-0.362662345,0.714390635,-0.411938548
89.249359,13.760414124,-57.075546265,26.634765625,-0.361807853,0.705357432,-0.411938548
89.249985,13.577308655,-56.411788940,26.588989258,-0.363272697,0.708287120,-0.404370189
89.263943,14.668312073,-46.142623901,25.009704590,-0.350821525,0.772862315,-0.375683665
89.264680,13.981666565,-45.723007202,24.902893066,-0.361075431,0.756504893,-0.351513743
89.265306,14.790382385,-45.356796265,24.384094238,-0.357291251,0.728062510,-0.317578197
89.265932,15.965309143,-45.295761108,23.789001465,-0.357779533,0.736851573,-0.306958079
89.266557,16.827430725,-46.012924194,24.048400879,-0.350821525,0.746861339,-0.326855540
89.267183,16.857948303,-46.310470581,24.071289062,-0.334830314,0.774083018,-0.361157298
89.267810,16.590919495,-46.302841187,24.117065430,-0.325797111,0.786656260,-0.381543040
89.268435,16.209449768,-45.494125366,23.872924805,-0.316885978,0.789585948,-0.398144603
89.269062,15.919532776,-44.342086792,23.773742676,-0.326407462,0.797520518,-0.390087962
89.269688,15.148963928,-43.472335815,23.270202637,-0.335806876,0.796543956,-0.378979564
89.270315,14.645423889,-42.778060913,22.957397461,-0.332633048,0.790074229,-0.357128978
89.270940,14.523353577,-42.350814819,22.644592285,-0.333975822,0.786534190,-0.335278392
89.271567,14.592018127,-41.961715698,22.263122559,-0.332633048,0.784092784,-0.328930736
89.272193,14.370765686,-41.999862671,22.507263184,-0.338858634,0.782505870,-0.328808665
89.272819,14.294471741,-41.999862671,22.545410156,-0.334219962,0.781163096,-0.336987376
89.273445,13.851966858,-41.542098999,22.545410156,-0.326773673,0.779332042,-0.346020579
89.274072,13.653602600,-41.320846558,22.499633789,-0.329825431,0.788365245,-0.355297923
89.274699,13.020362854,-40.847824097,22.232604980,-0.328726798,0.789463878,-0.362011790
89.275326,12.699928284,-39.985702515,22.209716797,-0.329825431,0.790684581,-0.363598704
89.275952,12.295570374,-39.505050659,21.942687988,-0.332388908,0.783482432,-0.362133861
89.276578,11.914100647,-39.154098511,21.942687988,-0.334952384,0.780918956,-0.364697337
89.277205,11.822547913,-38.604782104,21.759582520,-0.339835197,0.770665050,-0.365551829
89.277831,12.165870667,-38.620040894,21.736694336,-0.344229728,0.763462901,-0.364941478
89.278456,12.226905823,-38.642929077,21.713806152,-0.345572501,0.758946300,-0.365673900
89.279083,12.478675842,-38.627670288,21.393371582,-0.349844962,0.760533214,-0.368603587
89.279710,12.944068909,-38.597152710,21.706176758,-0.344840080,0.758091807,-0.366528392
89.280336,13.241615295,-38.650558472,21.156860352,-0.341666251,0.760655284,-0.369702220
89.280962,13.470497131,-38.414047241,21.317077637,-0.334708244,0.765049815,-0.369213939
89.281588,13.630714417,-37.994430542,21.294189453,-0.327994376,0.766880870,-0.373120189
89.282213,13.699378967,-37.391708374,21.111083984,-0.325064689,0.761265635,-0.371167064
89.283984,13.722267151,-36.010787964,21.332336426,-0.330313712,0.756871104,-0.365673900
89.284610,14.118995667,-35.682723999,21.347595215,-0.332633048,0.755284190,-0.365551829
89.285236,14.103736877,-35.369918823,21.401000977,-0.336661369,0.753575206,-0.360913157
89.285863,14.042701721,-35.461471558,21.545959473,-0.343131095,0.751255870,-0.362622142
89.286490,14.561500549,-35.278366089,21.629882812,-0.345328361,0.748936534,-0.358105540
89.287117,14.683570862,-34.812973022,21.484924316,-0.344107658,0.750279307,-0.358593822
89.287744,14.950599670,-34.530685425,21.591735840,-0.344229728,0.746739268,-0.357128978
89.288369,15.026893616,-34.202621460,21.530700684,-0.339713126,0.747471690,-0.357128978
89.288995,15.217628479,-33.721969604,21.591735840,-0.338736564,0.745762706,-0.355542064
89.289620,15.232887268,-33.401535034,21.797729492,-0.339102775,0.743565440,-0.354809642
89.290245,15.431251526,-33.035324097,21.912170410,-0.340933830,0.738316417,-0.350903392
89.290872,15.187110901,-32.501266479,22.041870117,-0.341544181,0.738194346,-0.345776439
89.291498,15.408363342,-31.921432495,22.286010742,-0.345450431,0.734043956,-0.343823314
89.292125,15.263404846,-31.631515503,22.583557129,-0.349234611,0.734043956,-0.338940501
89.292750,15.271034241,-31.059310913,22.553039551,-0.354117423,0.732945323,-0.341748118
89.293375,15.431251526,-30.639694214,22.675109863,-0.357413322,0.733921885,-0.338818431
89.294008,15.293922424,-30.456588745,22.675109863,-0.359366447,0.735752940,-0.338330150
89.308027,12.638893127,-23.056076050,26.405883789,-0.336417228,0.709385753,-0.387158275
89.308780,13.081398010,-22.506759644,26.764465332,-0.335318595,0.712071300,-0.391552806
89.309405,13.188209534,-22.102401733,26.672912598,-0.337393790,0.706456065,-0.394604564
89.310032,13.523902893,-21.949813843,27.062011719,-0.335806876,0.703770518,-0.398144603
89.310659,13.478126526,-21.751449585,27.473999023,-0.345694572,0.708531260,-0.404126048
89.311284,13.844337463,-21.774337769,27.527404785,-0.345206290,0.706944346,-0.406445384
89.311909,13.859596252,-21.904037476,27.718139648,-0.342764884,0.704747081,-0.408642650
89.312536,14.607276917,-21.575973511,27.794433594,-0.342398673,0.708409190,-0.408276439
89.313161,15.293922424,-21.797225952,27.878356934,-0.337515861,0.713414073,-0.411084056
89.313788,15.568580627,-21.598861694,27.870727539,-0.334342033,0.719761729,-0.417675853
89.314415,15.736427307,-21.240280151,28.069091797,-0.330435783,0.726841807,-0.416088939
89.315042,16.117897034,-21.034286499,28.404785156,-0.325186759,0.728550792,-0.416699290
89.315667,16.224708557,-20.713851929,28.236938477,-0.324820548,0.729527354,-0.417797923
89.316293,16.552772522,-20.355270386,28.381896973,-0.325919181,0.731480479,-0.419751048
89.316918,16.621437073,-20.248458862,28.664184570,-0.326895744,0.729649425,-0.419873118
89.317544,17.193641663,-19.828842163,28.816772461,-0.331412345,0.727696300,-0.419751048
89.318169,17.392005920,-19.630477905,28.961730957,-0.330801994,0.729893565,-0.417675853
89.318794,17.865028381,-19.508407593,29.015136719,-0.331412345,0.731724620,-0.416943431
89.319419,18.154945374,-19.424484253,29.152465820,-0.333609611,0.735997081,-0.420483470
89.320046,18.536415100,-19.577072144,29.137207031,-0.335806876,0.739903331,-0.419873118
89.320671,18.727149963,-18.898056030,29.312683105,-0.331168205,0.741734385,-0.420483470
89.321296,19.352760315,-18.951461792,29.472900391,-0.329947501,0.748448253,-0.418042064
89.321922,19.383277893,-18.425033569,29.495788574,-0.330069572,0.751377940,-0.413525462
89.322548,19.589271545,-18.127487183,29.472900391,-0.329947501,0.756382823,-0.414379954
89.323173,19.802894592,-17.601058960,29.617858887,-0.327994376,0.759190440,-0.414257884
89.323799,19.795265198,-17.532394409,29.488159180,-0.320303947,0.764439464,-0.413647532
89.324426,20.039405823,-17.631576538,29.511047363,-0.301627189,0.775792003,-0.413281322
89.325052,20.512428284,-17.547653198,29.175354004,-0.288199455,0.776158214,-0.400952220
89.325677,21.862831116,-17.150924683,28.999877930,-0.270255119,0.762120128,-0.381420970
89.326303,24.792518616,-16.845748901,28.267456055,-0.261710197,0.753697276,-0.357983470
89.328086,31.140174866,-16.639755249,26.756835938,-0.260245353,0.767247081,-0.369702220
89.328711,37.747230530,-16.861007690,25.177551270,-0.253287345,0.815831065,-0.401440501
89.329337,37.747230530,-16.861007690,25.177551270,-0.253287345,0.815831065,-0.401440501
89.329962,41.386451721,-16.998336792,24.216247559,-0.255240470,0.853917003,-0.424267650
89.330589,47.123756409,-15.815780640,21.889282227,-0.284903556,0.951329112,-0.447949290
89.331214,48.939552307,-15.380905151,20.523620605,-0.292960197,0.991490245,-0.431225657
89.331839,49.939002991,-14.190719604,19.211364746,-0.294547111,1.036412120,-0.389843822
89.332466,49.877967834,-13.488815308,17.792297363,-0.282218009,1.059483409,-0.325878978
89.333093,49.374427795,-11.917160034,16.579223633,-0.293814689,1.089268565,-0.242260814
89.333720,46.994056702,-10.246322632,15.831542969,-0.263297111,1.085728526,-0.164624095
89.334346,44.567909241,-8.094833374,15.274597168,-0.261588126,1.038121104,-0.101879954
89.334973,41.912879944,-5.874679565,15.091491699,-0.277457267,1.017979503,-0.011914134
89.335598,37.670936584,-4.035995483,15.709472656,-0.264639884,0.973057628,0.068163991
89.336223,34.611549377,-1.647994995,16.022277832,-0.250723869,0.935459971,0.131152272
89.336850,30.888404846,0.495864868,16.586853027,-0.275260001,0.952061534,0.182421803
89.337475,26.669349670,2.723648071,17.769409180,-0.273306876,0.935337901,0.186816335
89.351425,128.224212646,16.349746704,-12.298034668,-0.339957267,1.350010753,-0.596142650
89.352201,120.434608459,7.720901489,-8.140014648,-0.242911384,1.676915050,-0.687817454
89.352826,109.043922424,5.439712524,-10.199951172,-0.251456290,1.705845714,-0.834057689
89.353452,103.253211975,10.757400513,-14.594482422,-0.182608649,1.545079112,-0.607861400
89.354077,108.654823303,19.523574829,-20.934509277,-0.109122314,1.370030284,-0.375683665
89.354702,115.574684143,24.246170044,-27.778076172,-0.217886969,1.363438487,-0.332226634
89.355329,114.720191956,23.765518188,-29.708312988,-0.250479728,1.414219737,-0.256909251
89.355954,110.577430725,21.408035278,-28.685974121,-0.270010978,1.285801768,-0.151928782
89.356580,107.579078674,17.433120728,-27.770446777,-0.322379142,1.167759776,-0.030346751
89.357206,106.907691956,13.206436157,-26.923583984,-0.353629142,1.035069346,0.011889577
89.357832,107.281532288,11.047317505,-27.640747070,-0.318717033,1.003331065,-0.006298900
89.358457,105.061378479,10.642959595,-28.327392578,-0.255850822,1.087803721,-0.067944407
89.359084,98.164405823,12.275650024,-28.251098633,-0.180533454,1.126011729,-0.197705150
89.359710,91.046180725,15.396072388,-27.366088867,-0.097769774,1.059971690,-0.262036204
89.360337,88.307228088,19.775344849,-27.442382812,-0.109122314,0.964146495,-0.248608470
89.360962,88.902320862,23.574783325,-27.167724609,-0.185294196,0.851231456,-0.282177806
89.361587,90.535011292,25.360061646,-26.885437012,-0.256094962,0.766392589,-0.321606517
89.362213,91.854896545,25.939895630,-26.885437012,-0.327261955,0.692784190,-0.322827220
89.362838,93.540992737,25.833084106,-26.359008789,-0.352774650,0.631749034,-0.302563548
89.363464,95.555152893,24.627639771,-25.390075684,-0.385489494,0.602940440,-0.307324290
89.364090,96.577491760,22.697402954,-24.032043457,-0.401480705,0.574009776,-0.324902415
89.364717,98.576393127,20.797683716,-22.887634277,-0.370841056,0.539585948,-0.314526439
89.365342,101.193275452,20.179702759,-22.033142090,-0.332877189,0.540806651,-0.308789134
89.365968,102.726783752,20.935012817,-20.530151367,-0.288077384,0.564488292,-0.309887767
89.366594,102.490272522,22.834732056,-19.469665527,-0.249747321,0.591099620,-0.311352611
89.367220,100.476112366,25.360061646,-18.248962402,-0.235465094,0.601841807,-0.303173900
89.367847,97.897377014,27.900650024,-16.265319824,-0.237052009,0.605625987,-0.274365306
89.368473,95.265235901,29.861404419,-14.586853027,-0.262198478,0.604771495,-0.254345775
89.369099,92.602577209,31.303359985,-12.854980469,-0.289908439,0.597691417,-0.226147532
89.369725,90.153541565,32.195999146,-11.260437012,-0.320059806,0.592686534,-0.204541087
89.371504,83.767738342,29.495193481,-7.476257324,-0.408804923,0.624058604,-0.275097728
89.372129,82.554664612,28.366043091,-6.774353027,-0.402213126,0.625767589,-0.323193431
89.372756,82.249488831,27.946426392,-6.003784180,-0.385489494,0.621006846,-0.376294017
89.373382,82.089271545,27.900650024,-5.362915039,-0.371695548,0.615513682,-0.435009837
89.374008,82.295265198,28.488113403,-4.767822266,-0.349844962,0.595982432,-0.483593822
89.374633,83.226051331,29.251052856,-4.249023438,-0.333853751,0.560337901,-0.520092845
89.375258,85.499610901,30.067398071,-3.875183105,-0.337882072,0.533482432,-0.553051829
89.375884,88.246192932,30.860855103,-3.096984863,-0.353629142,0.515293956,-0.585644603
89.376509,91.725196838,31.005813599,-2.807067871,-0.376578361,0.482945323,-0.610913157
89.377135,96.020545959,31.387283325,-2.730773926,-0.420767814,0.477330089,-0.626294017
89.377762,99.942054749,30.296279907,-2.211975098,-0.460684806,0.486119151,-0.642651439
89.378387,103.985633850,29.014541626,-2.273010254,-0.486441642,0.487339854,-0.653515697
89.379013,108.143653870,27.885391235,-2.280639648,-0.489127189,0.502964854,-0.652905345
89.379640,112.042274475,26.695205688,-2.402709961,-0.486929923,0.515293956,-0.653149486
89.380266,115.750160217,25.886489868,-2.082275391,-0.480460197,0.521763682,-0.645703197
89.380892,118.489112854,25.459243774,-2.044128418,-0.467642814,0.520298839,-0.643139720
89.381519,119.908180237,25.306655884,-1.708435059,-0.469473869,0.505650401,-0.643383861
89.395628,146.496612549,3.929092407,8.614135742,-0.393057853,0.595250010,-0.990429759
89.396419,147.496063232,3.120376587,8.629394531,-0.394400626,0.596958995,-1.005566478
89.397045,148.693878174,2.220108032,8.820129395,-0.391959220,0.596714854,-1.018628001
89.397672,150.044281006,1.144363403,9.117675781,-0.396719962,0.600010753,-1.026196361
89.398299,151.608306885,-0.083969116,8.820129395,-0.394766837,0.609288096,-1.040356517
89.398924,152.951080322,-1.327560425,9.079528809,-0.389639884,0.624791026,-1.046948314
89.399549,154.377777100,-2.548263550,9.171081543,-0.393179923,0.644200206,-1.054028392
89.400175,155.499298096,-3.685043335,9.018493652,-0.387076408,0.662022471,-1.059155345
89.400802,156.567413330,-4.692123413,9.018493652,-0.377554923,0.678868175,-1.055371165
89.401429,157.688934326,-5.409286499,8.965087891,-0.368399650,0.697056651,-1.057324290
89.402054,158.367950439,-6.340072632,8.774353027,-0.359732658,0.718052745,-1.053295970
89.402680,158.711273193,-7.370040894,9.003234863,-0.353629142,0.730381846,-1.045849681
89.403307,159.237701416,-8.071945190,8.728576660,-0.340323478,0.737950206,-1.039379954
89.403934,159.672576904,-8.880661011,8.820129395,-0.333853751,0.756260753,-1.033032298
89.404560,160.252410889,-9.361312866,8.736206055,-0.337149650,0.778843760,-1.024853587
89.405186,160.321075439,-10.307357788,8.598876953,-0.338004142,0.797764659,-1.020825267
89.405813,160.504180908,-11.283920288,8.438659668,-0.348013908,0.819493175,-1.014843822
89.406438,160.397369385,-12.046859741,8.362365723,-0.351676017,0.839756846,-1.015087962
89.407063,160.153228760,-12.870834351,7.988525391,-0.358023673,0.854283214,-1.011059642
89.407688,159.771759033,-13.809249878,7.660461426,-0.356680900,0.865879893,-1.006420970
89.408314,160.023529053,-14.839218140,7.088256836,-0.356436759,0.873814464,-0.997998118
89.408940,160.008270264,-15.518234253,6.561828613,-0.353995353,0.885899425,-0.994458079
89.409565,160.275299072,-16.677902222,6.203247070,-0.352286369,0.891148448,-0.988720775
89.410191,160.664398193,-17.410324097,5.791259766,-0.355826408,0.902623057,-0.980786204
89.410816,160.908538818,-18.264816284,5.081726074,-0.358145744,0.909703135,-0.976757884
89.411441,160.816986084,-18.959091187,4.738403320,-0.350821525,0.905674815,-0.965039134
89.412067,161.381561279,-19.645736694,3.983093262,-0.356680900,0.910069346,-0.961010814
89.412692,161.610443115,-20.393417358,3.731323242,-0.355216056,0.916294932,-0.959301829
89.413318,162.236053467,-20.729110718,3.258300781,-0.348380119,0.923130870,-0.954296947
89.413945,163.075286865,-21.133468628,2.686096191,-0.352042228,0.932530284,-0.947827220
89.415742,164.303619385,-22.048995972,1.335693359,-0.365836173,0.952549815,-0.932080150
89.416367,164.761383057,-22.529647827,0.977111816,-0.373282462,0.963902354,-0.926953197
89.416992,165.104705811,-22.995040894,0.351501465,-0.378531486,0.964146495,-0.921460032
89.417618,165.600616455,-23.201034546,-0.197814941,-0.386099845,0.963292003,-0.913403392
89.418243,165.592987061,-23.559616089,-0.762390137,-0.389761955,0.955601573,-0.901318431
89.418869,166.340667725,-23.941085815,-1.243041992,-0.399039298,0.945469737,-0.886425853
89.419494,166.661102295,-23.994491577,-1.799987793,-0.406607658,0.931431651,-0.876049876
89.420120,167.095977783,-24.093673706,-2.196716309,-0.405875236,0.915562510,-0.857495189
89.420746,167.530853271,-24.276779175,-2.585815430,-0.403677970,0.898960948,-0.840771556
89.421372,167.866546631,-24.246261597,-3.089355469,-0.402945548,0.888218760,-0.825024486
89.421997,168.072540283,-24.040267944,-3.348754883,-0.398428947,0.874791026,-0.804516673
89.422622,168.148834229,-23.841903687,-3.463195801,-0.399893790,0.862339854,-0.784253001
89.423248,168.255645752,-23.620651245,-3.768371582,-0.402701408,0.850865245,-0.762646556
89.423873,168.263275146,-23.048446655,-3.837036133,-0.405875236,0.841587901,-0.747876048
89.424498,168.347198486,-22.529647827,-3.951477051,-0.414664298,0.831700206,-0.732251048
89.425123,168.316680908,-22.323654175,-4.279541016,-0.425284415,0.823399425,-0.719311595
89.425750,168.118316650,-21.804855347,-4.294799805,-0.430411369,0.812779307,-0.708203197
89.439683,163.967926025,-7.003829956,-2.936767578,-0.438468009,0.623570323,-0.602490306
89.440427,163.143951416,-5.714462280,-2.677368164,-0.435782462,0.632969737,-0.600903392
89.441052,162.266571045,-4.791305542,-2.265380859,-0.431998283,0.643589854,-0.602002025
89.441677,160.862762451,-3.448532104,-1.929687500,-0.434561759,0.647251964,-0.598461986
89.442304,159.535247803,-2.342269897,-1.563476562,-0.437125236,0.650425792,-0.591626048
89.442931,158.436614990,-1.129196167,-1.365112305,-0.445303947,0.657627940,-0.584179759
89.443557,157.353240967,-0.175521851,-1.304077148,-0.456412345,0.661290050,-0.580395579
89.444182,155.644256592,0.747634888,-1.059936523,-0.462515861,0.659947276,-0.570019603
89.444807,154.728729248,1.983596802,-0.907348633,-0.465323478,0.651402354,-0.556347728
89.445432,154.133636475,2.944900513,-1.037048340,-0.473013908,0.647618175,-0.547436595
89.446059,152.706939697,3.639175415,-0.960754395,-0.474844962,0.656285167,-0.543530345
89.446684,151.081878662,4.318191528,-0.625061035,-0.474844962,0.667027354,-0.550244212
89.447310,149.052459717,5.058242798,-0.426696777,-0.466422111,0.673130870,-0.553784251
89.447935,146.946746826,6.118728638,0.084472656,-0.460928947,0.666050792,-0.551464915
89.448562,145.832855225,7.621719360,0.343872070,-0.460440665,0.658848643,-0.552807689
89.449189,145.001251221,9.101821899,0.496459961,-0.471304923,0.660191417,-0.552319407
89.449816,143.910247803,10.116531372,0.794006348,-0.485953361,0.664585948,-0.558667064
89.450442,142.521697998,11.299087524,1.137329102,-0.497916251,0.664585948,-0.566479564
89.451068,140.942413330,12.084915161,1.198364258,-0.504263937,0.658360362,-0.572338939
89.451695,140.301544189,12.947036743,1.495910645,-0.516348898,0.653599620,-0.580273509
89.452320,139.942962646,13.305618286,1.556945801,-0.523673117,0.651890635,-0.588086009
89.452945,139.981109619,14.282180786,1.587463379,-0.532340109,0.651890635,-0.598828197
89.453570,140.133697510,14.656021118,1.770568848,-0.538809836,0.644688487,-0.613476634
89.454196,140.873748779,15.090896606,1.534057617,-0.543692648,0.625645518,-0.617138743
89.454823,142.086822510,16.014053345,1.129699707,-0.541129172,0.576817393,-0.611523509
89.455449,144.299346924,16.929580688,0.763488770,-0.549185812,0.529087901,-0.604199290
89.456075,146.702606201,17.700149536,0.710083008,-0.559928000,0.514317393,-0.613232493
89.456702,147.526580811,18.028213501,1.106811523,-0.561392844,0.518467784,-0.637280345
89.457327,147.595245361,17.906143188,1.823974609,-0.548209250,0.522251964,-0.670849681
89.457953,147.587615967,18.203689575,2.838684082,-0.529044211,0.524937510,-0.692211986
89.459745,152.790863037,20.858718872,4.349304199,-0.552969992,0.518833995,-0.752758861
89.460371,155.743438721,21.278335571,4.128051758,-0.586539328,0.528111339,-0.774853587
89.460996,157.605010986,21.057083130,4.540039062,-0.608634055,0.536412120,-0.796460032
89.461623,159.458953857,20.469619751,4.532409668,-0.608756125,0.536656260,-0.814770579
89.462249,162.106353760,19.737197876,4.349304199,-0.594229758,0.521397471,-0.817944407
89.462874,165.852386475,19.264175415,4.601074219,-0.582755148,0.495030284,-0.817211986
89.463499,170.948822021,19.454910278,4.379821777,-0.580313742,0.497593760,-0.819043040
89.464125,174.824554443,19.256546021,4.349304199,-0.586783469,0.517125010,-0.832470775
89.464750,176.487762451,18.783523560,4.700256348,-0.578116477,0.537144542,-0.851635814
89.465375,177.609283447,18.249465942,5.333496094,-0.553580344,0.539341807,-0.856640697
89.466008,179.669219971,18.463088989,5.554748535,-0.535391867,0.536656260,-0.853344798
89.466633,182.377655029,19.111587524,5.829406738,-0.533316672,0.545323253,-0.854443431
89.473867,204.182464600,16.212417603,7.225585938,-0.574454367,0.694126964,-0.842236400
89.474496,205.998260498,16.120864868,7.324768066,-0.569815695,0.728917003,-0.851513743
89.475121,207.012969971,15.487625122,7.538391113,-0.564688742,0.758335948,-0.863598704
89.475746,207.554656982,14.968826294,7.256103516,-0.555167258,0.773960948,-0.877392650
89.476371,207.547027588,14.541580200,7.370544434,-0.537711203,0.776036143,-0.886303782
89.490455,249.264556885,-15.968368530,5.837036133,-0.613883078,0.816685557,-0.816967845
89.491255,249.264556885,-15.144393921,6.043029785,-0.570548117,0.895298839,-0.839428782
89.491880,249.264556885,-13.633773804,5.592895508,-0.563956320,0.963292003,-0.858105540
89.492506,249.264556885,-12.725875854,5.348754883,-0.552359641,0.969273448,-0.868359447
89.493132,249.264556885,-11.909530640,4.372192383,-0.508658469,0.948277354,-0.894970775
89.493758,249.264556885,-11.772201538,3.365112305,-0.521597922,0.913609385,-0.992016673
89.494385,249.264556885,-12.336776733,3.128601074,-0.594595969,0.911900401,-1.029736400
89.495012,249.264556885,-15.090988159,3.410888672,-0.605094016,0.904454112,-0.949536204
89.495637,249.264556885,-17.906234741,3.258300781,-0.561392844,0.880650401,-0.862255931
89.496264,249.264556885,-19.676254272,2.663208008,-0.463614494,0.931553721,-0.823803782
89.496889,249.264556885,-20.637557983,2.594543457,-0.349478751,1.051915050,-0.815747142
89.497515,249.264556885,-19.676254272,2.838684082,-0.232047126,1.152745128,-0.830395579
89.498140,249.264556885,-15.922592163,3.098083496,-0.137198493,1.215489268,-0.819531322
89.498767,249.264556885,-10.833786011,3.204895020,-0.119010009,1.246495128,-0.786938548
89.499392,249.264556885,-5.874679565,2.647949219,-0.133048102,1.286534190,-0.737011790
89.500019,239.781219482,-1.625106812,1.740051270,-0.171378180,1.311314464,-0.693920970
89.500646,229.847747803,1.670791626,1.137329102,-0.196890876,1.310582042,-0.648022532
89.501272,219.296295166,3.311111450,0.305725098,-0.246939704,1.322667003,-0.609082103
89.501898,208.187896729,3.333999634,0.206542969,-0.279532462,1.337559581,-0.589184642
89.502525,196.522552490,2.075149536,0.046325684,-0.289908439,1.354649425,-0.578442454
89.503151,184.857208252,1.190139771,-0.174926758,-0.289542228,1.380772471,-0.589917064
89.503776,171.292144775,-0.030563354,-0.274108887,-0.283072501,1.416417003,-0.628125072
89.504401,156.956512451,-0.686691284,-0.800537109,-0.256827384,1.428990245,-0.665112376
89.505026,142.704803467,-0.282333374,-1.708435059,-0.221182868,1.426915050,-0.696606517
89.505651,128.971893311,1.068069458,-2.585815430,-0.182364509,1.409703135,-0.733471751
89.506277,115.971412659,2.784683228,-3.325866699,-0.156241462,1.385777354,-0.783886790
89.506903,103.207435608,4.074050903,-3.722595215,-0.162100837,1.348545909,-0.839917064
89.507529,91.175880432,4.913284302,-3.890441895,-0.182852790,1.291661143,-0.888623118
89.508155,80.593910217,5.096389771,-3.837036133,-0.213004157,1.217564464,-0.934521556
89.508780,71.842994690,4.470779419,-4.111694336,-0.239005134,1.152256846,-0.983593822
89.510605,52.548255920,1.121475220,-5.652832031,-0.266715080,1.015538096,-1.171460032
89.511230,47.871437073,0.335647583,-5.996154785,-0.258292228,0.983677745,-1.219555736
89.511855,44.171180725,-0.450180054,-6.423400879,-0.247061774,0.959019542,-1.271191478
89.512482,41.111793518,-1.609848022,-7.064270020,-0.242911384,0.938389659,-1.313061595
89.513108,38.143959045,-2.418563843,-7.361816406,-0.253043205,0.919590831,-1.346997142
89.513734,35.496559143,-3.425643921,-7.712768555,-0.268668205,0.906285167,-1.366284251
89.514360,32.925453186,-4.966781616,-8.010314941,-0.289053947,0.894200206,-1.381054759
89.514985,30.247535706,-6.797836304,-8.597778320,-0.299674064,0.880284190,-1.382519603
89.515612,27.745094299,-8.529708862,-9.276794434,-0.305289298,0.867710948,-1.380810618
89.516239,25.074806213,-10.688827515,-9.780334473,-0.309195548,0.864292979,-1.377392650
89.516865,22.236671448,-12.687728882,-10.665344238,-0.305045158,0.874424815,-1.372509837
89.517492,19.017066956,-14.602706909,-11.016296387,-0.299551994,0.889439464,-1.357006907
89.518119,15.004005432,-16.983078003,-11.641906738,-0.299918205,0.901768565,-1.339917064
89.518744,10.746803284,-19.104049683,-11.878417969,-0.300284415,0.909581065,-1.325878978
89.519369,6.260719299,-21.301315308,-12.587951660,-0.307242423,0.906651378,-1.308911204
89.519994,1.423683167,-23.849533081,-13.022827148,-0.314566642,0.897984385,-1.289502025
89.533946,-22.074851990,-58.769271851,-17.669128418,-0.329703361,0.498326182,-0.972241282
89.534692,-23.074302673,-58.525131226,-18.248962402,-0.336539298,0.490025401,-0.929516673
89.535318,-23.608360291,-58.273361206,-18.653320312,-0.322501212,0.463169932,-0.898632884
89.535944,-24.233970642,-58.136032104,-18.844055176,-0.321280509,0.426548839,-0.879956126
89.536569,-24.439964294,-57.983444214,-18.538879395,-0.322745353,0.392369151,-0.860669017
89.537194,-24.600181580,-57.769821167,-17.951416016,-0.319815665,0.362217784,-0.849072337
89.537819,-23.928794861,-57.693527222,-17.424987793,-0.335806876,0.322544932,-0.847485423
89.538445,-22.380027771,-57.357833862,-16.913818359,-0.358511955,0.292759776,-0.845654368
89.539071,-20.404014587,-57.594345093,-16.539978027,-0.388052970,0.272251964,-0.846630931
89.539697,-17.855796814,-57.716415405,-16.242431641,-0.400260001,0.251622081,-0.844189525
89.540322,-14.575157166,-57.540939331,-16.372131348,-0.398428947,0.226963863,-0.852002025
89.540948,-10.516319275,-56.800888062,-16.631530762,-0.398673087,0.203404292,-0.854321361
