time,gyro x,gyro y,gyro z,accel x,accel y,accel z
7.988211,34.699691772,-1.235214233,-5.111892700,0.163237914,-0.068653926,0.972822785
7.997999,9.019149780,2.365859985,0.671188354,0.168486938,-0.031300414,1.316206574
7.998624,8.996261597,4.013809204,1.579086304,0.144317016,-0.022877563,1.351606965
7.999250,6.974472046,5.913528442,2.059738159,0.147002563,0.033518922,1.294478059
7.999875,3.579391479,8.904251099,2.074996948,0.110137329,0.031443726,1.279951692
8.000500,1.458419800,12.100967407,1.899520874,0.115996704,0.055735718,1.272383332
8.001126,-1.204238892,15.763076782,1.060287476,0.142608032,0.050242554,1.233931184
8.001752,-1.829849243,18.730911255,1.106063843,0.123931274,0.042796265,1.239058137
8.002377,-2.341018677,20.241531372,1.731674194,0.081572875,0.078929082,1.211958528
8.003012,-3.317581177,20.607742310,2.288619995,0.056182250,0.086863652,1.196577668
8.003637,-5.247817993,21.477493286,1.716415405,0.031524047,0.069407597,1.163618684
8.004262,-5.568252563,22.309097290,1.365463257,-0.038544312,0.043406617,1.185835481
8.004887,-5.430923462,21.439346313,0.839035034,-0.082611695,0.056834351,1.181563020
8.005513,-6.010757446,18.967422485,0.503341675,-0.078827515,0.048167359,1.161177278
8.006138,-4.950271606,16.922744751,0.442306519,-0.086029664,0.016184937,1.153608918
8.006764,-4.790054321,16.068252563,0.022689819,-0.036347046,0.044749390,1.097700715
8.007391,-8.269058228,17.662796021,-0.656326294,0.032256469,0.027781617,0.913740754
8.008017,-11.999832153,21.950515747,-1.518447876,0.155669555,-0.080983028,0.807051301
8.008643,-13.991104126,27.741226196,-2.365310669,0.238799438,0.053660523,0.760542512
8.009268,-17.195449829,33.432754517,-0.869949341,0.206939086,0.074046269,0.761152864
8.009895,-16.318069458,35.156997681,1.106063843,0.042632446,-0.055836547,0.831587434
8.010521,-13.121353149,32.128128052,2.578536987,-0.160980836,-0.141651973,0.865278840
8.011147,-9.100662231,26.650222778,2.815048218,-0.333344102,-0.227955684,0.924605012
8.011774,-5.026565552,20.493301392,2.174179077,-0.383881211,-0.177540645,0.911665559
8.012399,-3.866897583,15.641006470,0.320236206,-0.305756211,-0.069020137,0.851362824
8.013025,-3.927932739,12.612136841,-0.641067505,-0.180756226,-0.011402953,0.827925324
8.013650,-3.897415161,11.368545532,-0.709732056,-0.035980836,0.087596074,0.762373567
8.014276,-6.994949341,12.390884399,-0.625808716,0.098662719,0.146678105,0.683394074
8.014903,-9.772048950,15.724929810,-0.282485962,0.074981079,0.076121464,0.712568879
8.015528,-10.702835083,17.983230591,-0.251968384,0.013945922,0.027171265,0.731001496
8.016154,-12.129531860,19.074234009,-0.557144165,-0.035614625,0.002635133,0.724775910
8.017936,-13.556228638,16.785415649,-0.389297485,-0.116181031,-0.033741821,0.762007356
8.018561,-13.342605591,14.473709106,0.411788940,-0.097138062,-0.023121703,0.720259309
8.019187,-14.120803833,13.809951782,0.144760132,-0.082245484,-0.057179321,0.684126496
8.019813,-12.549148560,13.146194458,0.106613159,-0.093598023,-0.091114864,0.702559114
8.020438,-9.031997681,11.505874634,-0.000198364,-0.126923218,-0.108937129,0.721846223
8.021064,-5.385147095,9.156021118,0.098983765,-0.149017945,-0.072438106,0.715864778
8.021691,-3.927932739,6.890090942,0.022689819,-0.130219117,-0.056813110,0.679487824
8.022317,-3.363357544,6.066116333,-0.793655396,-0.101410523,-0.078053340,0.691084504
8.022943,-0.998245239,5.448135376,-1.236160278,-0.084931031,-0.038258422,0.702925324
8.023569,-0.830398560,5.013259888,-1.243789673,-0.026215211,0.008616578,0.672651887
8.024194,-1.471267700,5.135330200,-0.801284790,0.000396118,0.005442750,0.683394074
8.024820,-0.906692505,6.073745728,-0.259597778,-0.001923218,-0.027516235,0.744429231
8.025446,0.634445190,5.844863892,-0.328262329,-0.045746461,-0.023243774,0.782148957
8.026073,1.267684937,5.440505981,-0.313003540,-0.075775757,-0.022755492,0.805708528
8.026698,1.328720093,4.380020142,-0.473220825,-0.105194703,-0.035206664,0.851851106
8.027324,1.847518921,2.823623657,-0.618179321,-0.102387086,-0.033863891,0.877607942
8.027950,2.351058960,1.404556274,-0.564773560,-0.070160523,-0.043019164,0.892500520
8.028576,3.220809937,0.809463501,-0.641067505,-0.065643921,-0.049000610,0.918989778
8.042970,-14.036880493,7.035049438,2.242843628,-0.176849976,-0.099537715,0.858076692
8.043731,-13.617263794,5.356582642,0.968734741,-0.188324586,-0.147145137,0.866621614
8.044358,-11.763320923,3.563674927,0.343124390,-0.168427125,-0.177784786,0.862105012
8.044984,-9.558425903,0.839981079,0.587265015,-0.138886109,-0.186085567,0.831587434
8.045610,-7.185684204,-2.112594604,1.563827515,-0.089081421,-0.176319942,0.813643098
8.046235,-4.866348267,-3.409591675,2.586166382,-0.055512086,-0.190480098,0.814497590
8.046861,-2.142654419,-4.531112671,2.769271851,-0.062714234,-0.189015254,0.818770051
8.047488,-0.136123657,-5.530563354,2.860824585,-0.079437867,-0.178517208,0.825483918
8.048113,1.603378296,-6.072250366,2.967636108,-0.078339234,-0.181324825,0.839644074
8.048739,3.854049683,-7.018295288,3.402511597,-0.077362671,-0.181813106,0.864790559
8.049364,5.761398315,-8.025375366,3.600875854,-0.074555054,-0.147755489,0.881758332
8.049990,6.730331421,-9.032455444,4.195968628,-0.066010132,-0.105275020,0.889448762
8.050616,7.165206909,-10.108200073,4.531661987,-0.055145875,-0.090138301,0.914717317
8.051241,7.462753296,-10.802474976,4.730026245,-0.049408570,-0.087941036,0.937666535
8.051868,7.539047241,-10.993209839,4.844467163,-0.049286500,-0.080128536,0.949263215
8.052494,7.935775757,-11.748519897,5.286972046,-0.050018921,-0.078419551,0.963423371
8.053119,7.912887573,-12.458053589,5.538742065,-0.049530640,-0.073536739,0.975142121
8.053745,7.630599976,-12.603012085,5.859176636,-0.049408570,-0.057789672,0.989790559
8.054370,6.966842651,-13.274398804,5.859176636,-0.052582398,-0.042775024,0.997969270
8.054995,6.127609253,-13.884750366,5.981246948,-0.056244507,-0.043019164,1.002974153
8.055621,5.395187378,-14.449325562,6.110946655,-0.042816773,-0.047169555,1.006270051
8.056247,4.716171265,-14.556137085,6.072799683,-0.031708375,-0.052052367,1.009443879
8.056874,4.746688843,-14.823165894,6.278793335,-0.027557984,-0.045338500,1.005049348
8.057499,4.365219116,-14.502731323,6.385604858,-0.013641968,-0.050831664,0.998579621
8.058125,4.273666382,-14.563766479,6.660263062,-0.008270875,-0.050465453,0.994917512
8.058750,4.082931519,-14.311996460,6.522933960,-0.008026734,-0.045704711,0.995894074
8.059376,4.121078491,-13.892379761,6.690780640,-0.011322632,-0.036183227,0.987593293
8.060001,3.602279663,-13.632980347,6.950180054,-0.007172242,-0.027394164,0.984907746
8.060626,3.213180542,-13.129440308,6.950180054,-0.006806031,-0.031666625,0.987349153
8.061251,2.808822632,-12.671676636,6.988327026,-0.010834351,-0.036671508,0.982344270
8.063037,3.030075073,-11.512008667,7.041732788,-0.006806031,-0.017994750,0.972700715
8.063662,2.915634155,-11.176315308,6.858627319,-0.014740601,-0.006398071,0.969648957
8.064289,2.816452026,-11.389938354,7.079879761,-0.021210328,-0.004200805,0.972578645
8.064915,2.564682007,-11.214462280,7.041732788,-0.026581421,-0.000660766,0.973799348
8.065540,2.343429565,-11.145797729,6.919662476,-0.029755250,0.017283570,0.979292512
8.066165,1.656784058,-11.420455933,6.904403687,-0.036102906,0.029856812,0.980147004
8.066792,1.107467651,-11.946884155,6.995956421,-0.041474000,0.032786500,0.975386262
8.067418,0.756515503,-12.351242065,6.889144897,-0.037445679,0.025950562,0.976973176
8.068044,0.329269409,-12.496200562,6.652633667,-0.036224976,0.020213258,0.978804231
8.068670,0.069869995,-12.633529663,6.690780640,-0.031464234,0.015452515,0.972212434
8.069295,-0.342117310,-12.755599976,6.255905151,-0.033295289,0.017649781,0.968916535
8.069921,-0.876174927,-12.915817261,6.484786987,-0.035126343,0.013865601,0.965010285
8.070548,-0.899063110,-13.037887573,6.263534546,-0.040985718,0.008006226,0.963789582
8.071174,-0.944839478,-13.503280640,6.614486694,-0.046845093,0.004344117,0.964399934
8.071801,-0.799880981,-14.113632202,6.309310913,-0.050751343,-0.006642211,0.966475129
8.072427,-0.708328247,-14.739242554,6.194869995,-0.051239625,-0.004444946,0.967329621
8.073052,-0.570999146,-15.448776245,6.126205444,-0.052460328,-0.006886352,0.972090364
8.073677,-0.014053345,-16.226974487,5.943099976,-0.050507203,-0.017018188,0.981367707
8.089675,6.463302612,-11.435714722,6.088058472,0.011138305,-0.029957641,1.038252473
8.090439,6.501449585,-11.374679565,6.301681519,0.002349243,-0.041554321,1.043135285
8.091064,6.402267456,-11.122909546,6.309310913,-0.012055054,-0.049244750,1.040693879
8.091690,6.203903198,-10.939804077,6.530563354,-0.021454468,-0.053028930,1.038008332
8.092315,6.257308960,-11.092391968,6.332199097,-0.022064820,-0.065480098,1.035322785
8.092941,6.226791382,-11.122909546,6.461898804,-0.022797242,-0.073536739,1.035200715
8.093568,6.760848999,-11.138168335,6.736557007,-0.015473023,-0.080616817,1.027754426
8.094193,7.058395386,-11.290756226,6.744186401,-0.013031617,-0.090382442,1.020186067
8.094819,7.706893921,-11.130538940,7.110397339,-0.013397828,-0.092701778,1.017500520
8.095444,8.210433960,-11.321273804,7.232467651,-0.013153687,-0.094410762,1.016401887
8.096069,8.767379761,-11.138168335,7.507125854,-0.020722046,-0.095875606,1.018232942
8.096694,9.225143433,-11.512008667,7.545272827,-0.022431031,-0.086842403,1.025557160
8.097319,9.568466187,-11.473861694,7.774154663,-0.015106812,-0.079762325,1.032393098
8.097946,9.682907104,-11.359420776,8.025924683,-0.012909546,-0.069020137,1.041304231
8.098573,9.454025269,-11.260238647,7.949630737,-0.009735718,-0.068531856,1.052290559
8.099199,9.331954956,-11.283126831,8.453170776,-0.004852906,-0.060231078,1.060835481
8.099826,8.797897339,-11.038986206,8.514205933,0.000884399,-0.052784789,1.065718293
8.100451,8.111251831,-10.565963745,8.628646851,-0.003021851,-0.053028930,1.071577668
8.101078,7.439865112,-10.344711304,8.933822632,-0.001679078,-0.054615844,1.072676301
8.101703,7.073654175,-10.001388550,9.010116577,-0.004730836,-0.068409786,1.078413606
8.102329,6.417526245,-9.505477905,9.132186890,-0.015961304,-0.047291625,1.076948762
8.102955,5.746139526,-9.658065796,9.345809937,0.005767211,-0.085133418,1.091719270
8.103581,5.479110718,-8.795944214,9.727279663,-0.006073609,-0.058277953,1.071333528
8.104206,4.586471558,-8.734909058,9.727279663,0.002715454,-0.055714477,1.064741731
8.104831,4.014266968,-8.635726929,10.009567261,-0.012909546,-0.049977172,1.061079621
8.105458,3.129257202,-8.353439331,10.345260620,-0.006806031,-0.053395141,1.057539582
8.106083,2.648605347,-8.078781128,10.688583374,0.001128539,-0.059498657,1.053633332
8.106708,2.335800171,-7.559982300,10.330001831,0.000640258,-0.055470336,1.050947785
8.107333,2.015365601,-7.559982300,10.902206421,0.003936157,-0.043385375,1.048872590
8.107960,1.229537964,-7.277694702,11.077682495,-0.016815796,-0.039723266,1.037397981
8.109776,-0.921951294,-6.850448608,11.703292847,-0.026825562,-0.040211547,1.028120637
8.110401,-1.646743774,-6.980148315,11.787216187,-0.022431031,-0.037403930,1.022017121
8.111028,-2.272354126,-7.064071655,11.962692261,-0.023529664,-0.041798461,1.014326692
8.111653,-3.142105103,-6.926742554,12.191574097,-0.022308961,-0.054005492,1.007002473
8.112279,-3.523574829,-6.835189819,12.336532593,-0.028534546,-0.062184203,0.993452668
8.112906,-3.752456665,-6.827560425,12.512008667,-0.035736695,-0.059864867,0.974165559
8.113531,-4.034744263,-7.346359253,12.771408081,-0.033783570,-0.067799434,0.960493684
8.114158,-3.912673950,-7.476058960,13.015548706,-0.038300171,-0.071705684,0.953779817
8.114784,-4.141555786,-7.582870483,12.832443237,-0.034638062,-0.066822872,0.948042512
8.115409,-3.844009399,-7.834640503,13.145248413,-0.035248414,-0.069874629,0.947676301
8.116034,-3.905044556,-7.949081421,13.480941772,-0.039276734,-0.063038692,0.944380403
8.116660,-3.844009399,-8.300033569,13.557235718,-0.039765015,-0.049488891,0.943159699
8.117286,-4.027114868,-8.574691772,13.931076050,-0.045868531,-0.045826782,0.933882356
8.117913,-4.629837036,-9.238449097,13.801376343,-0.041229859,-0.040333617,0.932783723
8.118539,-4.454360962,-9.055343628,13.915817261,-0.041351929,-0.037281860,0.927656770
8.119164,-4.828201294,-9.215560913,13.839523315,-0.042694703,-0.040211547,0.929854035
8.119790,-4.881607056,-9.543624878,13.992111206,-0.041962281,-0.033741821,0.930220246
8.120415,-4.927383423,-9.955612183,14.159957886,-0.039765015,-0.041066039,0.944136262
8.134770,-18.187271118,-12.114730835,11.436264038,-0.042572632,0.130320683,0.948286653
8.135533,-18.591629028,-12.358871460,10.940353394,-0.016815796,0.129344121,0.954390168
8.136160,-19.430862427,-12.809005737,10.848800659,-0.024872437,0.134593144,0.955122590
8.136786,-20.094619751,-13.457504272,11.001388550,-0.033295289,0.141429082,0.954023957
8.137411,-20.453201294,-14.067855835,10.490219116,-0.028290406,0.137034550,0.955244660
8.138036,-20.827041626,-13.945785522,9.918014526,-0.031342164,0.125804082,0.959028840
8.138661,-21.254287720,-14.220443726,9.597579956,-0.031342164,0.100535527,0.966230989
8.139287,-21.528945923,-14.411178589,9.269515991,-0.029755250,0.088572636,0.971846223
8.139914,-21.689163208,-14.907089233,9.101669312,-0.024872437,0.083933964,0.966841340
8.140541,-21.750198364,-15.128341675,8.956710815,-0.017792359,0.105784550,0.955732942
8.141167,-22.169815063,-15.448776245,8.621017456,-0.035492554,0.105052128,0.958540559
8.141792,-22.871719360,-15.921798706,8.254806519,-0.048554078,0.092356816,0.960859895
8.142419,-23.176895142,-16.555038452,7.873336792,-0.041229859,0.104441777,0.957197785
8.143044,-23.924575806,-16.844955444,7.606307983,-0.032440796,0.138743535,0.952314973
8.143669,-24.916397095,-17.333236694,7.194320679,-0.046723023,0.077342167,0.948042512
8.144295,-24.183975220,-17.447677612,6.736557007,-0.032074586,0.051585328,0.914595246
8.144922,-23.009048462,-16.997543335,6.187240601,-0.003265992,0.020823609,0.892256379
8.145548,-21.536575317,-16.959396362,5.950729370,0.001738891,0.016673218,0.887251496
8.146173,-20.117507935,-16.715255737,5.706588745,-0.021820679,0.005320679,0.887739778
8.146798,-18.423782349,-16.967025757,5.424301147,-0.038544312,0.003611695,0.895186067
8.147423,-16.897903442,-17.897811890,5.073348999,-0.046112671,0.008616578,0.908980012
8.148050,-15.593276978,-18.538681030,5.096237183,-0.039642945,0.019114625,0.926436067
8.148677,-14.357315063,-18.920150757,4.783432007,-0.017914429,0.035227906,0.940718293
8.149302,-13.617263794,-18.912521362,4.432479858,-0.002289429,0.043406617,0.959761262
8.149927,-12.907730103,-18.866744995,4.195968628,-0.007172242,0.055979859,0.976484895
8.150554,-12.823806763,-18.889633179,4.028121948,-0.012665406,0.075389042,0.983564973
8.151181,-13.174758911,-18.958297729,3.478805542,-0.013397828,0.089549199,1.000532746
8.151806,-14.158950806,-19.065109253,3.310958862,-0.011444703,0.117259160,1.020430207
8.152431,-15.616165161,-19.004074097,3.066818237,-0.013031617,0.122386113,1.037642121
8.153057,-16.699539185,-19.057479858,2.700607300,-0.007294312,0.117747441,1.044600129
8.154865,-20.132766724,-18.889633179,1.884262085,-0.007172242,0.107859746,1.058516145
8.155491,-21.055923462,-19.026962280,1.334945679,-0.008392945,0.117869511,1.053633332
8.156117,-22.536026001,-18.813339233,1.258651733,-0.001557007,0.111033574,1.056929231
8.156744,-23.482070923,-18.813339233,0.999252319,0.003447875,0.105784550,1.060469270
8.157370,-24.725662231,-18.569198608,0.610153198,0.005278930,0.093333378,1.060225129
8.157995,-25.603042603,-18.531051636,0.198165894,0.012481079,0.087840214,1.052168489
8.158622,-26.175247192,-18.202987671,-0.244338989,0.017974243,0.064158574,1.047651887
8.159248,-26.549087524,-17.577377319,-0.427444458,0.014312133,0.049021851,1.036665559
8.159875,-26.625381470,-17.455307007,-0.595291138,0.010161743,0.015208375,1.030195832
8.160500,-26.221023560,-17.607894897,-0.831802368,0.008208618,-0.007984985,1.021284699
8.161127,-25.641189575,-17.333236694,-1.312454224,-0.001312867,-0.037403930,1.012617707
8.161752,-24.862991333,-17.234054565,-1.205642700,0.004912719,-0.046681274,1.001265168
8.162378,-24.153457642,-17.325607300,-1.144607544,-0.002045289,-0.057057250,0.999434114
8.163010,-23.344741821,-17.630783081,-1.205642700,0.001128539,-0.060597289,0.997847199
8.163635,-22.696243286,-17.516342163,-1.342971802,0.001494750,-0.069386348,0.994673371
8.164261,-22.047744751,-17.585006714,-1.388748169,0.005156860,-0.054249633,0.995772004
8.164886,-21.826492310,-17.447677612,-1.365859985,0.002227172,-0.059620727,1.007368684
8.165513,-21.246658325,-17.417160034,-1.373489380,-0.004730836,-0.066212520,1.007368684
8.179561,-34.147964478,-19.751754761,-2.411087036,0.005401000,0.060984742,1.043379426
8.180404,-35.216079712,-19.347396851,-2.632339478,0.014312133,0.023265015,1.015791535
8.181031,-35.475479126,-19.316879272,-2.906997681,0.013579711,-0.014576782,0.990156770
8.181657,-35.002456665,-19.385543823,-3.074844360,0.000884399,-0.049855102,0.973066926
8.182282,-33.972488403,-19.728866577,-3.013809204,0.004424438,-0.049366821,0.958540559
8.182907,-33.133255005,-20.156112671,-3.143508911,0.003081664,-0.042286742,0.964766145
8.183533,-32.171951294,-20.179000854,-3.273208618,0.017485961,-0.042897094,0.965742707
8.184160,-31.355606079,-20.163742065,-3.418167114,0.022490844,-0.048146117,0.968428254
8.184785,-30.371414185,-19.927230835,-3.608901978,0.014556274,-0.062916622,0.970381379
8.185410,-28.959976196,-20.171371460,-3.837783813,0.006011352,-0.063526973,0.966719270
8.186037,-27.991043091,-20.575729370,-3.860671997,0.009307250,-0.038624633,0.970137239
8.186662,-27.250991821,-20.705429077,-3.936965942,0.011870727,-0.033009399,0.977705598
8.187287,-26.739822388,-20.720687866,-4.158218384,0.015532836,-0.035084594,0.980147004
8.187914,-25.778518677,-21.102157593,-4.280288696,0.008574829,-0.041188110,0.984785676
8.188540,-25.358901978,-21.041122437,-4.387100220,0.003447875,-0.046925414,0.980513215
8.189165,-24.534927368,-21.338668823,-4.432876587,0.011992797,-0.042042602,0.982832551
8.189790,-23.794876099,-21.422592163,-4.539688110,0.018340454,-0.040089477,0.989302278
8.190416,-23.306594849,-21.308151245,-4.951675415,0.014678344,-0.032765258,0.995161653
8.191041,-23.634658813,-21.666732788,-4.768569946,0.013579711,-0.021046508,0.995039582
8.191667,-23.428665161,-21.613327026,-4.806716919,0.018462524,-0.030323852,1.000776887
8.192293,-23.321853638,-21.033493042,-4.966934204,0.033599243,-0.022389282,1.004316926
8.192918,-23.558364868,-20.888534546,-4.959304810,0.039214477,-0.017140258,1.013350129
8.193545,-24.008499146,-20.491806030,-4.890640259,0.030059204,0.002513062,1.017500520
8.194172,-25.038467407,-20.301071167,-5.043228149,0.033599243,0.031077515,1.023359895
8.194797,-26.411758423,-19.637313843,-5.241592407,0.033233032,-0.017872680,0.998579621
8.195423,-25.053726196,-19.156661987,-5.798538208,-0.008759156,-0.211964473,0.892866731
8.196050,-20.384536743,-19.652572632,-5.798538208,-0.021698609,-0.326710582,0.775190949
8.196675,-13.418899536,-20.865646362,-5.249221802,-0.020233765,-0.376149058,0.710127473
8.197300,-6.239639282,-22.032943726,-4.791458130,-0.029389039,-0.349781871,0.686934114
8.197927,-0.006423950,-23.352828979,-4.463394165,-0.038422242,-0.300221324,0.717817903
8.199718,8.111251831,-25.778976440,-3.563125610,-0.014496461,-0.095265254,0.946089387
8.200344,7.638229370,-26.389328003,-3.257949829,-0.007294312,-0.047535766,1.012007356
8.200969,6.524337769,-26.152816772,-3.227432251,0.003936157,-0.015431274,1.055952668
8.201594,4.037155151,-26.213851929,-3.082473755,0.012603149,0.007151734,1.094282746
8.202220,1.397384644,-26.061264038,-3.067214966,0.018950805,-0.000538696,1.121626496
8.202847,-1.150833130,-25.763717651,-3.105361938,0.027007446,-0.014576782,1.138960481
8.203474,-3.409133911,-25.534835815,-2.968032837,0.036040649,-0.029957641,1.149946809
8.204099,-5.545364380,-25.000778198,-2.861221313,0.045195922,-0.050953735,1.156782746
8.204725,-6.857620239,-24.230209351,-2.655227661,0.050078735,-0.057545532,1.161787629
8.205350,-8.269058228,-23.802963257,-2.708633423,0.050444946,-0.060963500,1.165815949
8.205975,-9.443984985,-23.345199585,-2.426345825,0.048980102,-0.069020137,1.167891145
8.206600,-10.054336548,-22.765365601,-2.411087036,0.048858032,-0.084523067,1.162886262
8.207226,-10.603652954,-22.452560425,-2.128799438,0.055205688,-0.098439083,1.157759309
8.207853,-10.924087524,-21.903244019,-2.189834595,0.057158813,-0.109303340,1.157026887
8.208479,-10.931716919,-21.147933960,-2.205093384,0.057769164,-0.110890254,1.154219270
8.209105,-11.046157837,-20.667282104,-1.884658813,0.053252563,-0.116139278,1.150068879
8.209732,-11.107192993,-20.293441772,-1.732070923,0.041411743,-0.128956661,1.150923371
8.223730,-2.722488403,-18.813339233,1.510421753,0.037993774,-0.092213497,1.056807160
8.224491,-2.859817505,-18.561569214,1.853744507,0.045928344,-0.093067989,1.059736848
8.225118,-2.951370239,-18.264022827,1.846115112,0.043486938,-0.089039668,1.061445832
8.225745,-3.111587524,-18.088546753,1.914779663,0.042998657,-0.088185176,1.059492707
8.226371,-3.004776001,-17.935958862,2.158920288,0.041655883,-0.086842403,1.061567903
8.226996,-3.027664185,-17.394271851,2.441207886,0.043975219,-0.086598262,1.058516145
8.227621,-3.172622681,-17.478195190,2.303878784,0.042632446,-0.084034786,1.057173371
8.228246,-3.248916626,-17.157760620,2.555648804,0.041655883,-0.085255489,1.058394074
8.228872,-3.355728149,-17.211166382,2.525131226,0.043731079,-0.080494747,1.056685090
8.229498,-3.203140259,-16.806808472,2.906600952,0.040435180,-0.083790645,1.054365754
8.230123,-3.226028442,-16.768661499,2.853195190,0.043975219,-0.084889278,1.052778840
8.230750,-2.951370239,-16.432968140,2.860824585,0.043853149,-0.087330684,1.047773957
8.231376,-2.760635376,-16.272750854,3.036300659,0.042388305,-0.088429317,1.042524934
8.232010,-2.508865356,-16.211715698,3.021041870,0.041289672,-0.086232051,1.043867707
8.232636,-2.386795044,-16.173568726,3.043930054,0.043486938,-0.080983028,1.043623567
8.233261,-2.241836548,-15.868392944,3.188888550,0.044829711,-0.079029903,1.039839387
8.233886,-1.951919556,-15.662399292,3.410140991,0.037627563,-0.074391231,1.036909699
8.234512,-1.806961060,-15.792098999,3.341476440,0.037627563,-0.070973262,1.032393098
8.235139,-1.356826782,-15.479293823,3.379623413,0.040679321,-0.067799434,1.028853059
8.235765,-1.379714966,-15.235153198,3.387252808,0.044463500,-0.060841430,1.022505403
8.236390,-1.372085571,-15.242782593,3.265182495,0.038970336,-0.061207641,1.023481965
8.237017,-1.311050415,-15.212265015,3.600875854,0.032988891,-0.057545532,1.016768098
8.237644,-1.242385864,-15.296188354,3.562728882,0.033599243,-0.058766235,1.013838410
8.238271,-0.891433716,-15.250411987,3.402511597,0.033355102,-0.057545532,1.010908723
8.238897,-0.532852173,-15.197006226,3.417770386,0.033355102,-0.056813110,1.010054231
8.239524,-0.555740356,-15.448776245,3.448287964,0.033843383,-0.054493774,1.019941926
8.248079,-2.859817505,-14.434066772,3.371994019,0.042144164,-0.030567992,1.060103059
8.248705,-3.355728149,-14.495101929,3.600875854,0.042144164,-0.028614867,1.056196809
8.249332,-3.943191528,-14.235702515,3.639022827,0.045440063,-0.034596313,1.053877473
8.249959,-4.492507935,-14.136520386,3.631393433,0.042022094,-0.040699828,1.050825715
8.250585,-4.790054321,-13.869491577,3.669540405,0.043731079,-0.043751586,1.051558137
8.251211,-5.179153442,-13.648239136,3.707687378,0.045806274,-0.048390258,1.048262239
8.251837,-5.446182251,-13.381210327,3.684799194,0.046172485,-0.048878539,1.045332551
8.252462,-5.797134399,-12.984481812,3.890792847,0.041777954,-0.054493774,1.044111848
8.253087,-6.209121704,-12.717453003,4.272262573,0.044463500,-0.055958617,1.038374543
8.253713,-6.727920532,-12.717453003,4.104415894,0.038237914,-0.053639282,1.034102082
8.254340,-6.827102661,-12.282577515,4.264633179,0.040068969,-0.054127563,1.033369660
8.254967,-7.117019653,-12.290206909,4.264633179,0.036895141,-0.056324828,1.035078645
8.255594,-7.460342407,-12.145248413,4.470626831,0.038359985,-0.053517211,1.031782746
8.256219,-7.902847290,-12.053695679,4.371444702,0.035796508,-0.053151000,1.032393098
8.256844,-8.360610962,-11.969772339,4.539291382,0.033355102,-0.058033813,1.028120637
8.257469,-8.642898560,-11.855331421,4.592697144,0.031768188,-0.061940063,1.022017121
8.258096,-8.833633423,-11.923995972,4.630844116,0.035186157,-0.067067012,1.019331574
8.258721,-8.574234009,-11.771408081,4.646102905,0.032256469,-0.070973262,1.018965364
8.259348,-8.764968872,-11.679855347,4.745285034,0.033355102,-0.071339473,1.016523957
8.259974,-8.749710083,-11.473861694,4.920761108,0.030059204,-0.069752559,1.014204621
8.260599,-8.917556763,-11.458602905,4.806320190,0.029448852,-0.070973262,1.011152864
8.261225,-8.734451294,-11.389938354,4.775802612,0.030425414,-0.066822872,1.009932160
8.275300,-11.503921509,-10.359970093,5.187789917,0.042876586,-0.009571899,0.984907746
8.276111,-12.694107056,-10.062423706,5.080978394,0.025298461,-0.020558227,0.957197785
8.276738,-13.060317993,-10.466781616,4.920761108,0.000396118,-0.034474242,0.950239778
8.277363,-12.541519165,-10.894027710,4.920761108,-0.007416382,-0.046925414,0.946821809
8.277989,-12.152420044,-11.824813843,4.844467163,-0.002167359,-0.054615844,0.953657746
8.278614,-11.519180298,-12.229171753,4.829208374,0.017119750,-0.054005492,0.964644074
8.279239,-11.069046021,-12.381759644,4.951278687,0.030669555,-0.051319946,0.984297395
8.279864,-10.908828735,-12.274948120,5.050460815,0.040068969,-0.046681274,1.004438996
8.280617,-11.061416626,-11.908737183,5.004684448,0.043120727,-0.041188110,1.020552278
8.281298,-11.519180298,-11.923995972,4.844467163,0.039824829,-0.034962524,1.039229035
8.281925,-11.992202759,-11.840072632,4.943649292,0.044463500,-0.034596313,1.050947785
8.282551,-12.533889771,-11.534896851,4.798690796,0.046782836,-0.033375610,1.061445832
8.283245,-13.373123169,-11.504379272,4.867355347,0.056914672,-0.030690063,1.064619660
8.283870,-13.968215942,-10.535446167,4.829208374,0.063750610,-0.024708617,1.065596223
8.284496,-14.342056274,-10.207382202,4.852096558,0.046538696,-0.035939086,1.069990754
8.285123,-14.776931763,-9.795394897,4.600326538,0.047881469,-0.032521117,1.061201692
8.285748,-14.990554810,-9.780136108,4.592697144,0.053252563,-0.031544555,1.048506379
8.286375,-15.600906372,-9.124008179,4.600326538,0.050444946,-0.033375610,1.035444856
8.287001,-15.578018188,-9.284225464,4.714767456,0.038359985,-0.041066039,1.029829621
8.287626,-15.623794556,-9.223190308,4.646102905,0.032988891,-0.045094360,1.020552278
8.288251,-15.326248169,-9.192672729,4.478256226,0.031157836,-0.053273071,1.013838410
8.288877,-15.150772095,-9.314743042,4.691879272,0.038115844,-0.059132446,1.017744660
8.289503,-14.639602661,-9.436813354,4.386703491,0.038726196,-0.062306274,1.016279817
8.290130,-14.342056274,-9.177413940,4.707138062,0.038359985,-0.062916622,1.013594270
8.290757,-14.151321411,-9.017196655,4.676620483,0.040557250,-0.062794551,1.012373567
8.291382,-13.869033813,-9.040084839,4.585067749,0.039824829,-0.065235958,1.016279817
8.292012,-13.617263794,-9.215560913,4.432479858,0.042388305,-0.069020137,1.012983918
8.292637,-13.273941040,-8.979049683,4.676620483,0.039458618,-0.069142208,1.015669465
8.293262,-13.426528931,-8.994308472,4.356185913,0.035796508,-0.071461543,1.016890168
8.293888,-12.999282837,-8.780685425,4.661361694,0.042144164,-0.069874629,1.013594270
8.295714,-12.434707642,-8.559432983,4.859725952,0.030303344,-0.065846309,1.012007356
8.296340,-12.266860962,-8.757797241,4.478256226,0.029570922,-0.068043575,1.017256379
8.296967,-12.259231567,-8.910385132,4.569808960,0.035674438,-0.064381465,1.015791535
8.297594,-12.007461548,-8.780685425,4.668991089,0.039092407,-0.058155883,1.012251496
8.298219,-12.068496704,-8.544174194,4.684249878,0.034697875,-0.057423461,1.017622590
8.298844,-11.885391235,-8.704391479,4.821578979,0.034575805,-0.056691039,1.025679231
8.299471,-11.870132446,-8.559432983,4.531661987,0.033965454,-0.059010375,1.031904817
8.300097,-11.877761841,-8.612838745,4.760543823,0.040068969,-0.056202758,1.034956574
8.300722,-12.205825806,-8.483139038,4.661361694,0.047881469,-0.050709594,1.039106965
8.301348,-12.442337036,-8.216110229,4.531661987,0.054229125,-0.047169555,1.045820832
8.301974,-12.755142212,-8.002487183,4.600326538,0.048369750,-0.048878539,1.045454621
8.302599,-12.999282837,-7.506576538,4.600326538,0.042632446,-0.048634399,1.049605012
8.303224,-13.128982544,-7.689682007,4.478256226,0.044097289,-0.052540649,1.048872590
8.303849,-13.037429810,-7.445541382,4.554550171,0.047393188,-0.051686157,1.048872590
8.304475,-13.357864380,-7.231918335,4.318038940,0.047149047,-0.057301391,1.049116731
8.305102,-13.075576782,-7.140365601,4.524032593,0.046904907,-0.061207641,1.046187043
8.305728,-12.907730103,-6.972518921,4.325668335,0.045195922,-0.064137325,1.044966340
8.306355,-12.564407349,-6.652084351,4.501144409,0.048247680,-0.063282833,1.047407746
8.320339,-9.138809204,-2.333847046,3.883163452,0.043731079,-0.073170528,1.050703645
8.321079,-8.917556763,-1.799789429,3.906051636,0.044585571,-0.071949825,1.046675324
8.321705,-8.673416138,-1.837936401,3.608505249,0.043486938,-0.068409786,1.046309114
8.322331,-8.841262817,-1.708236694,3.845016479,0.041045532,-0.071949825,1.043745637
8.322956,-8.513198853,-1.845565796,3.715316772,0.039336547,-0.074391231,1.041914582
8.323582,-8.269058228,-1.479354858,3.700057983,0.037383422,-0.074391231,1.041914582
8.324207,-8.047805786,-1.593795776,3.768722534,0.036284789,-0.078175411,1.038496614
8.324834,-7.803665161,-1.319137573,3.715316772,0.040923461,-0.076344356,1.033980012
8.325461,-7.574783325,-1.395431519,3.677169800,0.039946899,-0.077809200,1.031660676
8.326087,-7.445083618,-1.174179077,3.593246460,0.037139282,-0.078785762,1.032393098
8.326714,-7.017837524,-1.143661499,3.524581909,0.034209594,-0.081715450,1.032271028
8.327341,-7.055984497,-1.235214233,3.661911011,0.037749633,-0.086476192,1.030684114
8.327968,-6.392227173,-1.143661499,3.501693726,0.041533813,-0.084767208,1.029951692
8.328595,-6.369338989,-0.998703003,3.478805542,0.038482055,-0.086598262,1.025190949
8.329220,-5.949722290,-1.204696655,3.738204956,0.037017211,-0.087208614,1.025557160
8.329846,-5.675064087,-1.181808472,3.417770386,0.033721313,-0.090504512,1.024580598
8.330472,-5.362258911,-1.074996948,3.471176147,0.036773071,-0.090504512,1.024214387
8.331098,-5.171524048,-1.288619995,3.845016479,0.035796508,-0.090260372,1.025313020
8.331723,-4.652725220,-1.227584839,3.623764038,0.039458618,-0.090504512,1.028730989
8.332348,-4.561172485,-1.074996948,3.783981323,0.038848266,-0.095509395,1.028120637
8.332975,-4.263626099,-0.876632690,3.761093140,0.037749633,-0.093922481,1.029219270
8.333601,-4.103408813,-1.044479370,3.852645874,0.036895141,-0.097706661,1.030806184
8.334226,-3.851638794,-1.074996948,4.005233765,0.037017211,-0.100392208,1.033003449
8.334853,-3.645645142,-0.884262085,3.944198608,0.036284789,-0.104420528,1.028975129
8.335478,-3.363357544,-0.785079956,4.028121948,0.036651000,-0.108082637,1.031050324
8.336103,-3.058181763,-0.884262085,4.226486206,0.040679321,-0.113331661,1.034346223
8.336728,-2.623306274,-0.869003296,4.264633179,0.041777954,-0.112965450,1.034468293
8.337353,-2.455459595,-0.418869019,4.287521362,0.037017211,-0.115284786,1.035933137
8.337979,-2.005325317,-0.678268433,4.417221069,0.039580688,-0.115895137,1.040449739
8.338604,-1.562820435,-0.617233276,4.516403198,0.040313110,-0.119191036,1.041304231
8.340407,-0.952468872,-0.090805054,4.821578979,0.043364868,-0.116627559,1.042158723
8.341033,-0.815139771,-0.006881714,4.913131714,0.040923461,-0.114918575,1.040205598
8.341659,-0.509963989,0.130447388,5.294601440,0.038115844,-0.122364864,1.038740754
8.342286,-0.113235474,-0.045028687,5.317489624,0.037017211,-0.126881465,1.033980012
8.342912,-0.151382446,-0.022140503,5.225936890,0.039092407,-0.127613887,1.029219270
8.343537,0.497116089,0.176223755,5.630294800,0.037871704,-0.135914668,1.021650910
8.344162,0.924362183,0.206741333,5.660812378,0.035796508,-0.141285762,1.019453645
8.344789,1.527084351,0.160964966,5.920211792,0.029570922,-0.145314083,1.022749543
8.345416,2.236618042,0.336441040,6.057540894,0.033599243,-0.144947872,1.019941926
8.346043,2.442611694,0.031265259,6.187240601,0.038237914,-0.145314083,1.023604035
8.346670,3.266586304,0.237258911,6.217758179,0.043731079,-0.148732051,1.027510285
8.347296,3.617538452,0.427993774,6.812850952,0.040679321,-0.148365840,1.032759309
8.347922,4.273666382,0.595840454,6.652633667,0.034209594,-0.144337520,1.039961457
8.348547,4.739059448,0.527175903,6.812850952,0.032866821,-0.136158809,1.043135285
8.349173,4.800094604,0.481399536,7.339279175,0.035552368,-0.137623653,1.044478059
8.349799,4.929794312,0.389846802,7.400314331,0.034819946,-0.139576778,1.044722199
8.350425,5.326522827,0.405105591,7.201950073,0.040068969,-0.139576778,1.044355989
8.351051,5.425704956,0.763687134,7.568161011,0.038970336,-0.143483028,1.046431184
8.351678,5.975021362,0.626358032,7.919113159,0.041777954,-0.141285762,1.043989778
8.352303,6.379379272,0.969680786,8.010665894,0.046538696,-0.141529903,1.045210481
8.366315,6.638778687,4.189285278,10.734359741,0.047881469,-0.085377559,1.035688996
8.367119,7.073654175,4.532608032,10.680953979,0.049590454,-0.080250606,1.025923371
8.367744,7.226242065,4.654678345,10.917465210,0.044219360,-0.071583614,1.026045442
8.368371,7.333053589,4.761489868,11.031906128,0.046050414,-0.065602168,1.028730989
8.368998,7.081283569,4.883560181,10.856430054,0.046782836,-0.055226196,1.030562043
8.369625,6.875289917,4.799636841,10.909835815,0.044951782,-0.047779907,1.033369660
8.370252,6.562484741,4.868301392,11.230270386,0.046782836,-0.043141235,1.034834504
8.370878,6.135238647,5.097183228,10.978500366,0.050444946,-0.041188110,1.034712434
8.371505,5.776657104,5.242141724,10.772506714,0.051787719,-0.040089477,1.033369660
8.372130,5.624069214,5.387100220,10.947982788,0.052031860,-0.038136352,1.033613801
8.372757,5.273117065,5.394729614,10.741989136,0.049834594,-0.036915649,1.035566926
8.373382,5.074752808,5.532058716,10.703842163,0.048369750,-0.037526000,1.035322785
8.374010,4.739059448,5.615982056,10.360519409,0.051177368,-0.036671508,1.028608918
8.374636,4.624618530,5.814346313,10.352890015,0.050811157,-0.034352172,1.026167512
8.375261,4.830612183,5.738052368,10.330001831,0.053496704,-0.034962524,1.028486848
8.375886,4.830612183,5.860122681,10.162155151,0.050811157,-0.036671508,1.027632356
8.376511,4.723800659,6.035598755,10.047714233,0.052886352,-0.035939086,1.027510285
8.377137,4.960311890,6.165298462,10.116378784,0.054473266,-0.030201782,1.027632356
8.377762,5.059494019,6.188186646,9.788314819,0.052886352,-0.025441039,1.033125520
8.378389,5.471481323,6.401809692,9.719650269,0.052153930,-0.025074828,1.034346223
8.379014,5.303634644,6.508621216,9.444992065,0.054961547,-0.022877563,1.035933137
8.379640,5.501998901,6.554397583,9.322921753,0.058745727,-0.018849242,1.043135285
8.380265,5.593551636,6.851943970,9.177963257,0.058745727,-0.015797485,1.047163606
8.380891,5.517257690,7.195266724,8.964340210,0.054107055,-0.007618774,1.051436067
8.381516,5.631698608,7.294448853,8.643905640,0.049468383,-0.005299438,1.050215364
8.382141,5.631698608,7.073196411,8.437911987,0.050444946,-0.008351196,1.055586457
8.382768,5.707992554,7.607254028,8.415023804,0.058013305,-0.005665649,1.051436067
8.383465,5.608810425,7.591995239,7.987777710,0.030303344,-0.007496703,1.039229035
8.384091,5.753768921,7.126602173,7.766525269,0.008208618,-0.030934203,1.007612824
8.384717,7.157577515,6.607803345,7.468978882,0.032378539,-0.051808227,0.990278840
8.386574,10.979904175,7.637771606,7.064620972,0.061065063,-0.030690063,1.002363801
8.387199,11.582626343,7.813247681,6.713668823,0.045073852,-0.012257446,1.021895051
8.387825,11.666549683,7.866653442,6.835739136,0.027129516,0.001414429,1.036299348
8.388451,11.552108765,7.195266724,6.332199097,0.023711547,0.012400758,1.043867707
8.389076,11.094345093,6.935867310,5.843917847,0.037017211,0.011546265,1.055464387
8.389701,10.545028687,7.126602173,5.729476929,0.073638305,0.006907593,1.054976106
8.390326,10.430587769,7.744583130,5.622665405,0.083892211,0.003977906,1.060469270
8.390952,10.216964722,8.362564087,5.248825073,0.074004516,-0.005177367,1.064131379
8.391578,10.201705933,8.904251099,5.439559937,0.052764282,-0.006031860,1.067549348
8.392205,10.148300171,8.606704712,4.508773804,0.043853149,-0.004322875,1.067549348
8.392831,10.178817749,8.652481079,4.661361694,0.057036743,-0.001393188,1.068159699
8.393456,10.331405640,8.614334106,4.562179565,0.062896118,-0.015309203,1.067305207
8.394082,10.270370483,8.675369263,4.112045288,0.068877563,-0.012989867,1.068770051
8.394708,10.270370483,9.278091431,4.058639526,0.073760375,-0.008839477,1.072065949
8.395334,9.988082886,9.796890259,4.195968628,0.067290649,-0.009083617,1.075728059
8.395959,9.896530151,9.774002075,3.738204956,0.072539672,-0.008229125,1.075972199
8.396585,9.705795288,10.475906372,3.547470093,0.083159789,-0.004322875,1.078901887
8.397211,9.446395874,10.910781860,3.570358276,0.078399047,-0.008351196,1.083052278
8.397837,9.316696167,11.139663696,3.318588257,0.074859008,-0.007740844,1.084517121
8.411819,7.172836304,18.585952759,0.976364136,0.073882446,-0.038746703,1.088057160
8.412575,7.615341187,19.066604614,0.983993530,0.072295532,-0.041920532,1.087202668
8.413200,7.668746948,19.287857056,0.579635620,0.068877563,-0.044361938,1.085737824
8.413826,8.080734253,19.272598267,0.839035034,0.070586547,-0.042775024,1.085859895
8.414451,8.248580933,19.875320435,0.343124390,0.074004516,-0.042408813,1.084395051
8.415076,8.439315796,20.081314087,0.304977417,0.070098266,-0.048146117,1.081343293
8.415701,8.851303101,20.317825317,0.312606812,0.068511352,-0.047047485,1.082075715
8.416326,9.186996460,20.279678345,0.297348022,0.066680297,-0.043141235,1.087324739
8.416952,9.339584351,20.836624146,0.114242554,0.068877563,-0.039112914,1.088545442
8.417577,9.614242554,20.989212036,-0.168045044,0.070464477,-0.039601196,1.089399934
8.418203,9.675277710,21.225723267,-0.168045044,0.069732055,-0.034962524,1.091475129
8.418828,9.949935913,21.530899048,-0.297744751,0.068389282,-0.040455688,1.093062043
8.419454,10.239852905,21.805557251,-0.358779907,0.066680297,-0.038380492,1.094893098
8.420080,10.522140503,21.775039673,-0.564773560,0.066680297,-0.052662719,1.095869660
8.420705,10.697616577,22.446426392,-0.648696899,0.068755493,-0.033375610,1.091475129
8.421330,10.705245972,22.492202759,-0.450332642,0.069121704,-0.033131469,1.096480012
8.421956,10.598434448,22.805007935,-0.854690552,0.065093383,-0.033863891,1.095381379
8.422582,10.964645386,23.079666138,-1.022537231,0.064605102,-0.047291625,1.094160676
8.423209,11.361373901,23.087295532,-1.190383911,0.063994750,-0.053395141,1.087202668
8.423836,11.735214233,23.407730103,-1.274307251,0.064605102,-0.049000610,1.078535676
8.424462,12.231124878,23.529800415,-1.480300903,0.061797485,-0.050953735,1.077803254
8.425089,12.810958862,23.743423462,-1.518447876,0.059966430,-0.055836547,1.073286653
8.425714,13.398422241,24.010452271,-1.732070923,0.059356079,-0.059254516,1.073408723
8.426340,14.085067749,24.201187134,-1.793106079,0.048980102,-0.062672481,1.075605989
8.426966,14.558090210,24.246963501,-2.021987915,0.049224243,-0.065846309,1.074385285
8.427591,15.061630249,24.178298950,-1.945693970,0.047271118,-0.058766235,1.078535676
8.428218,15.366806030,24.109634399,-2.044876099,0.051421508,-0.049977172,1.083540559
8.428844,15.679611206,24.506362915,-2.029617310,0.054595336,-0.046315063,1.089888215
8.429469,15.641464233,24.567398071,-2.083023071,0.054717407,-0.051197875,1.095991731
8.430094,15.511764526,24.658950806,-2.098281860,0.057036743,-0.057179321,1.096968293
8.431914,15.656723022,25.528701782,-2.342422485,0.047271118,-0.050587524,1.104414582
8.432541,15.488876343,25.559219360,-2.380569458,0.041655883,-0.064137325,1.101973176
8.433167,15.671981812,25.460037231,-2.411087036,0.039458618,-0.064625606,1.104658723
8.433793,15.801681519,25.528701782,-2.258499146,0.017852172,-0.069142208,1.096480012
8.434418,16.083969116,26.520523071,-2.342422485,0.008330688,-0.225758418,1.137373567
8.435043,16.961349487,27.695449829,-2.441604614,0.005156860,-0.348561168,1.164717317
8.435668,17.693771362,28.443130493,-3.059585571,-0.031220093,-0.348194957,1.105757356
8.436295,18.006576538,27.268203735,-3.051956177,-0.052704468,-0.317555308,1.043379426
8.436921,18.708480835,25.040420532,-2.701004028,-0.058075562,-0.266896129,0.956099153
8.437546,20.280136108,23.224624634,-2.136428833,-0.049652711,-0.267140269,0.889326692
8.438172,23.125900269,21.836074829,-2.403457642,-0.037323609,-0.285817027,0.864424348
8.438799,26.940597534,20.943435669,-2.281387329,-0.017670289,-0.273609996,0.862471223
8.439424,31.014694214,20.149978638,-1.930435181,0.018950805,-0.221485958,0.864668489
8.440050,35.172714233,20.188125610,-1.327713013,0.044829711,-0.152394161,0.872969270
8.440677,38.537277222,20.088943481,-1.091201782,0.040679321,-0.104542598,0.896040559
8.441304,40.704025269,19.783767700,-0.663955688,0.013335571,-0.089894161,0.935713410
8.441929,42.611373901,19.097122192,-0.541885376,-0.007782593,-0.081349239,0.991133332
8.442554,43.465866089,18.685134888,-0.396926880,-0.006683961,-0.077687129,1.046919465
8.456582,45.548690796,17.426284790,0.373641968,0.025542602,-0.035206664,0.988936067
8.457362,44.457687378,18.128189087,0.404159546,0.051177368,-0.007740844,0.986128449
8.457987,43.900741577,18.341812134,0.762741089,-0.006195679,-0.034352172,1.002974153
8.458614,44.114364624,17.777236938,1.014511108,0.028716430,-0.068409786,0.994185090
8.459239,44.862045288,17.906936646,0.961105347,0.024321899,-0.100270137,0.996016145
8.459865,46.250595093,17.624649048,1.174728394,-0.017182007,-0.136280879,1.014326692
8.460492,48.165573120,16.388687134,1.449386597,-0.014862671,-0.115040645,0.986738801
8.461117,48.341049194,16.670974731,1.159469604,0.022979125,-0.059620727,0.955488801
8.461743,47.692550659,17.433914185,0.755111694,0.043120727,-0.024098266,0.959517121
8.462368,46.601547241,18.395217896,1.121322632,0.029204711,-0.021656860,0.939497590
8.462994,45.487655640,19.257339478,0.945846558,0.061309204,-0.042408813,0.934492707
8.463620,45.167221069,20.531448364,1.304428101,0.059966430,-0.038990844,0.950605989
8.464246,44.411911011,21.111282349,1.701156616,0.045806274,-0.020314086,0.958174348
8.464873,43.030990601,21.530899048,1.983444214,0.001860961,-0.032032836,0.987959504
8.465498,42.702926636,20.851882935,2.158920288,-0.014618531,-0.049855102,1.004438996
8.466124,43.893112183,19.249710083,1.899520874,-0.059296265,-0.020680297,1.047529817
8.466750,44.160140991,17.304214478,3.371994019,-0.081390992,0.012889039,1.027754426
8.467376,43.862594604,15.129837036,2.670089722,-0.050751343,0.020701539,1.028853059
8.468010,43.717636108,13.809951782,2.784530640,-0.060394898,0.039500367,1.064009309
8.468636,43.168319702,12.505325317,2.509872437,-0.044281617,0.046946656,1.049360871
8.469261,42.313827515,11.948379517,2.136032104,-0.008515015,0.070262089,1.033857942
8.469887,41.360153198,11.963638306,2.166549683,0.012725219,0.073924199,1.019209504
8.470514,40.040267944,12.360366821,2.036849976,0.028594360,0.079783574,1.009810090
8.471139,38.422836304,13.291152954,1.632492065,0.048247680,0.067088261,1.003950715
8.471764,37.942184448,13.977798462,1.067916870,0.046172485,0.032664429,1.010908723
8.472391,36.652816772,15.023025513,1.472274780,0.042876586,0.074900761,1.008955598
8.473018,35.310043335,15.984329224,1.518051147,0.063262329,0.008372437,1.011397004
8.473645,34.722579956,17.029556274,1.083175659,0.060942993,0.042307984,1.016157746
8.474270,34.135116577,18.379959106,1.273910522,0.053008422,0.044749390,1.015425324
8.474895,33.448471069,18.959793091,1.342575073,0.027739868,0.029124390,1.014570832
8.476718,32.731307983,19.058975220,0.854293823,-0.013275757,0.034129273,1.026167512
8.477344,33.120407104,18.791946411,0.633041382,-0.008515015,0.046092164,1.030439973
8.477970,33.730758667,18.311294556,0.015060425,-0.004242554,0.030711304,1.027754426
8.478596,34.173263550,18.074783325,-0.168045044,-0.001068726,0.040232789,1.024458528
8.479223,34.257186890,17.960342407,-0.374038696,0.003325805,0.092112675,1.021772981
8.479848,32.891525269,17.754348755,-0.786026001,0.016631469,0.130686894,1.034956574
8.480474,31.411422729,18.029006958,-1.007278442,0.036162719,0.112620488,1.054976106
8.481100,30.228866577,19.448074341,-1.365859985,0.048491821,0.086253300,1.067305207
8.481726,29.519332886,19.997390747,-2.090652466,0.043853149,0.090769902,1.070723176
8.482352,28.146041870,20.424636841,-1.930435181,0.037749633,0.114329472,1.075850129
8.482978,26.704086304,20.973953247,-1.861770630,0.043486938,0.102732792,1.082441926
8.483603,25.468124390,21.714004517,-2.342422485,0.037383422,0.086009160,1.097212434
8.484228,24.987472534,22.194656372,-2.151687622,0.013945922,0.081370488,1.099653840
8.484853,24.026168823,21.988662720,-2.426345825,0.009551391,0.072581425,1.105879426
8.485512,23.347152710,22.034439087,-2.647598267,0.007109985,0.064890996,1.114546418
8.486139,22.851242065,21.767410278,-2.784927368,0.015288696,0.053538453,1.117842317
8.486764,22.362960815,21.530899048,-2.632339478,0.018340454,0.040843140,1.116377473
8.487389,22.561325073,21.446975708,-2.823074341,0.018950805,0.039622437,1.112593293
8.488016,22.477401733,21.477493286,-2.884109497,0.028350219,0.033518922,1.103804231
8.508669,15.359176636,38.162979126,-3.639419556,-0.068085328,0.050120484,0.976362824
8.509445,14.359725952,37.110122681,-3.959854126,-0.077240601,0.054515015,0.956343293
8.510070,13.169540405,35.912307739,-4.097183228,-0.072601929,0.059397828,0.936323762
8.510695,12.658370972,34.683975220,-3.914077759,-0.061615601,0.060862672,0.910566926
8.511322,11.994613647,34.065994263,-3.654678345,-0.050140992,0.057566773,0.887983918
8.511948,11.750473022,33.409866333,-3.845413208,-0.042328492,0.050852906,0.863936067
8.512574,11.323226929,33.676895142,-4.028518677,-0.038300171,0.038767945,0.849287629
8.513199,10.766281128,33.516677856,-4.318435669,-0.026703492,0.023387086,0.838301301
8.513825,10.636581421,34.188064575,-4.493911743,-0.016815796,0.003977906,0.833174348
8.514451,10.361923218,34.424575806,-4.532058716,-0.010346070,-0.003712524,0.835737824
8.515077,10.361923218,34.752639771,-4.623611450,-0.011444703,-0.005299438,0.835493684
8.515704,10.140670776,34.806045532,-4.234512329,-0.018768921,-0.022511352,0.843062043
8.516329,10.705245972,34.897598267,-3.868301392,-0.021576539,-0.036671508,0.854292512
8.516954,11.155380249,34.668716431,-4.219253540,-0.041229859,-0.042042602,0.864546418
8.517581,11.544479370,34.050735474,-3.692825317,-0.051361695,-0.045216430,0.872480989
8.518207,11.964096069,33.432754517,-3.746231079,-0.053314820,-0.044484008,0.878096223
8.518834,12.574447632,32.608779907,-3.631790161,-0.055756226,-0.045094360,0.884932160
8.519461,13.215316772,32.006057739,-3.509719849,-0.050263062,-0.044484008,0.885054231
8.520087,13.421310425,31.655105591,-3.341873169,-0.045990601,-0.039357055,0.884443879
8.520712,13.642562866,31.311782837,-3.509719849,-0.040985718,-0.037892211,0.882124543
8.521337,13.909591675,30.907424927,-3.372390747,-0.042816773,-0.041310180,0.887983918
8.521962,14.527572632,30.014785767,-3.235061646,-0.057953492,-0.048390258,0.899336457
8.522587,15.244735718,28.847488403,-3.082473755,-0.097992554,-0.065358028,0.912153840
8.523214,17.693771362,24.636062622,-1.396377563,-0.182099000,0.009837281,0.918257356
8.523840,15.832199097,20.363601685,1.235763550,-0.154389039,0.172190800,0.823897004
8.524466,10.903610229,16.342910767,2.494613647,-0.086395875,0.286936879,0.749067903
8.525093,7.142318726,16.678604126,2.387802124,-0.032318726,0.339793324,0.724775910
8.525718,5.784286499,19.234451294,0.777999878,-0.007294312,0.344676137,0.720747590
8.526345,4.555953979,21.897109985,-1.907546997,-0.037811890,0.287181020,0.735151887
8.526972,2.831710815,24.422439575,-4.516799927,-0.074799195,0.188914433,0.773359895
8.528746,-2.943740845,25.399002075,-5.989273071,-0.023041382,-0.175343379,0.934370637
8.529371,-1.875625610,24.758132935,-5.264480591,0.007232055,-0.201954708,0.964277864
8.529996,-1.112686157,23.781570435,-3.578384399,0.030181274,-0.186817989,0.977095246
8.530623,-0.960098267,23.613723755,-1.587112427,0.049590454,-0.164234981,0.978071809
8.531249,-1.379714966,24.239334106,-0.518997192,0.029570922,-0.120900020,0.968794465
8.531876,-2.417312622,25.322708130,0.167648315,-0.013764039,-0.062916622,0.940840364
8.532501,-4.164443970,26.230606079,0.808517456,-0.051727906,-0.015675414,0.898481965
8.533128,-6.247268677,28.404983521,2.311508179,-0.079804078,0.033885133,0.797529817
8.533753,-9.947525024,28.610977173,2.387802124,-0.145477906,0.160594121,0.645063996
8.534378,-18.652664185,25.139602661,2.563278198,-0.288788438,0.236277714,0.503584504
8.535012,-26.274429321,20.760330200,3.730575562,-0.357391953,0.201121464,0.415205598
8.535637,-29.631362915,16.144546509,3.539840698,-0.424774766,0.155100957,0.340986848
8.536264,-29.562698364,9.743484497,2.036849976,-0.522553086,0.100901738,0.278242707
8.536889,-27.975784302,0.977310181,1.388351440,-0.592499375,0.129588261,0.194380403
8.537516,-28.700576782,-5.934921265,0.877182007,-0.509247422,0.089915410,0.128340364
8.538141,-27.456985474,-10.077682495,-1.465042114,-0.380097032,0.041941773,0.108931184
8.538768,-24.550186157,-12.122360229,-4.051406860,-0.256195664,-0.011280883,0.121016145
8.539393,-19.911514282,-12.595382690,-5.378921509,-0.147919312,-0.077198848,0.133589387
8.553452,4.914535522,-6.087509155,3.288070679,-0.009125367,0.037181031,1.218306184
8.554234,1.168502808,-5.583969116,3.631393433,-0.008026734,0.022532593,1.137129426
8.554860,0.306381226,-5.187240601,4.081527710,-0.006561890,0.011912476,1.101362824
8.555486,0.512374878,-5.278793335,4.089157104,-0.013886109,0.000804078,1.072188020
8.556111,1.130355835,-5.057540894,3.989974976,-0.019257203,-0.004200805,1.048140168
8.556737,2.000106812,-4.897323608,3.616134644,-0.025971070,-0.004811157,1.033003449
8.557363,2.961410522,-4.843917847,3.532211304,-0.024994507,-0.001393188,1.019209504
8.557988,3.503097534,-4.233566284,3.097335815,-0.016815796,0.003611695,1.000532746
8.558613,3.731979370,-3.569808960,3.043930054,-0.010834351,0.014109742,0.988569856
8.559238,3.480209351,-3.005233765,3.043930054,-0.008026734,0.025584351,0.979780793
8.559864,3.144515991,-2.494064331,2.860824585,-0.013519898,0.029124390,0.972822785
8.560489,2.312911987,-2.143112183,3.242294312,-0.021210328,0.031077515,0.964155793
8.561115,1.862777710,-1.967636108,3.349105835,-0.032929078,0.029246461,0.950972199
8.561741,1.313461304,-1.906600952,3.257553101,-0.054901734,0.028269898,0.943037629
8.562368,0.703109741,-2.104965210,3.272811890,-0.072968140,0.023142945,0.934004426
8.562994,0.008834839,-2.776351929,3.486434937,-0.086029664,0.020457398,0.918989778
8.563621,-0.601516724,-3.539291382,3.097335815,-0.097992554,0.018260133,0.901045442
8.564248,-0.647293091,-4.531112671,3.127853394,-0.104584351,0.020457398,0.884565949
8.564874,-1.074539185,-5.721298218,3.295700073,-0.112885132,0.010569703,0.868818879
8.565500,-0.937210083,-7.033554077,3.242294312,-0.116058961,-0.012013305,0.858687043
8.566126,-0.685440063,-7.964340210,3.066818237,-0.115692750,-0.035694946,0.853682160
8.566752,0.291122437,-9.200302124,3.013412476,-0.118744507,-0.042286742,0.843062043
8.567378,0.931991577,-10.161605835,2.982894897,-0.113861695,-0.039112914,0.825850129
8.568011,1.908554077,-11.481491089,3.486434937,-0.099823609,-0.042652953,0.812056184
8.568638,2.663864136,-12.473312378,3.448287964,-0.087494507,-0.037648071,0.803267121
8.569265,4.121078491,-13.358322144,3.577987671,-0.081024781,-0.033253539,0.796431184
8.569891,5.463851929,-14.067855835,3.455917358,-0.078583375,-0.029103149,0.798384309
8.570518,6.898178101,-14.548507690,3.234664917,-0.075775757,-0.020680297,0.801802278
8.571144,7.874740601,-15.128341675,2.891342163,-0.063446656,-0.017018188,0.814619660
8.571770,8.706344604,-15.341964722,2.784530640,-0.048309937,-0.016651977,0.830488801
8.573554,11.285079956,-15.456405640,2.303878784,-0.011688843,0.003123414,0.906172395
8.574181,11.338485718,-15.288558960,2.166549683,-0.003021851,0.016184937,0.935347199
8.574807,11.216415405,-14.876571655,2.128402710,0.003569946,0.033640992,0.965376496
8.575434,10.590805054,-14.693466187,2.036849976,0.007232055,0.044871461,0.991011262
8.576060,9.873641968,-14.212814331,2.212326050,0.008452758,0.057322633,1.019453645
8.576685,8.912338257,-14.075485229,1.792709351,0.012725219,0.070994511,1.049482942
8.577312,7.821334839,-13.266769409,1.869003296,0.017730102,0.086375371,1.073652864
8.577939,6.676925659,-13.320175171,1.754562378,0.016021118,0.100047246,1.097700715
8.578564,4.693283081,-12.412277222,1.876632690,0.045195922,0.151682988,1.156904817
8.579189,0.230087280,-10.802474976,1.586715698,0.074492797,0.189768925,1.228926301
8.579816,-4.271255493,-9.085861206,1.548568726,0.068389282,0.185130253,1.245283723
8.580442,-7.117019653,-8.399215698,1.647750854,0.030913696,0.154978886,1.224287629
8.581068,-8.116470337,-9.207931519,1.846115112,-0.015717164,0.119334355,1.192061067
8.581694,-8.238540649,-10.649887085,2.013961792,-0.052826539,0.093455449,1.163130403
8.582321,-8.330093384,-12.023178101,1.502792358,-0.053192750,0.084178105,1.155562043
8.582947,-8.543716431,-12.625900269,0.724594116,-0.018036500,0.085154667,1.150801301
8.583573,-8.337722778,-12.564865112,-0.091751099,0.041167602,0.085276738,1.159102082
8.584199,-8.208023071,-11.321273804,-0.648696899,0.098784789,0.081492558,1.169478059
8.584825,-8.032546997,-9.673324585,-0.946243286,0.134185180,0.070750371,1.178877473
8.598799,2.480758667,9.239944458,-5.745132446,0.035674438,0.072581425,1.155684114
8.599549,3.121627808,9.636672974,-6.180007935,0.026030883,0.077220097,1.148359895
8.600176,3.793014526,9.911331177,-6.660659790,0.016631469,0.084666386,1.142012239
8.600803,4.075302124,10.414871216,-6.996353149,0.015166625,0.089305058,1.128706574
8.601429,4.449142456,10.552200317,-7.126052856,0.002349243,0.092967167,1.120772004
8.602055,4.456771851,10.895523071,-7.652481079,-0.003632203,0.093455449,1.113936067
8.602681,4.319442749,10.910781860,-7.621963501,-0.004120484,0.093455449,1.104170442
8.603307,4.296554565,10.987075806,-7.904251099,0.001372680,0.095530644,1.090132356
8.603932,4.296554565,11.353286743,-7.950027466,-0.000214234,0.103221074,1.085371614
8.604557,4.578842163,11.452468872,-8.232315063,-0.004608765,0.106272832,1.077070832
8.605183,4.647506714,11.864456177,-8.407791138,-0.013031617,0.109568730,1.074019074
8.605808,4.632247925,12.055191040,-8.545120239,-0.031708375,0.110545292,1.064863801
8.606433,4.586471558,12.718948364,-8.674819946,-0.081268921,0.108836308,1.061934114
8.607058,3.434432983,13.008865356,-9.002883911,-0.138153687,0.121287480,1.052656770
8.607684,0.855697632,13.031753540,-9.239395142,-0.175873414,0.117991582,1.040083528
8.608310,-1.768814087,13.092788696,-9.956558228,-0.164520875,0.076365605,1.037153840
8.608935,-2.501235962,13.100418091,-10.780532837,-0.131195679,0.044383179,1.050947785
8.609561,-1.394973755,12.497695923,-11.200149536,-0.089813843,0.043406617,1.065962434
8.610187,0.474227905,11.849197388,-11.619766235,-0.049530640,0.056590211,1.066694856
8.610813,2.686752319,11.391433716,-11.543472290,-0.026459351,0.062449586,1.055586457
8.611439,4.189743042,10.651382446,-11.169631958,-0.032807007,0.055247437,1.036299348
8.612065,4.716171265,10.353836060,-11.162002563,-0.046723023,0.044627320,1.025190949
8.612691,4.906906128,10.857376099,-11.009414673,-0.044769898,0.046702515,1.010664582
8.613316,4.227890015,11.048110962,-11.352737427,-0.031464234,0.070017949,0.997114778
8.613943,3.518356323,11.132034302,-11.223037720,-0.014618531,0.107371464,0.983687043
8.614568,3.304733276,11.582168579,-10.971267700,-0.011444703,0.138743535,0.980147004
8.615193,3.113998413,12.062820435,-11.085708618,-0.032074586,0.147654667,0.979170442
8.615819,2.572311401,12.459548950,-11.001785278,-0.059052125,0.142039433,0.983076692
8.616445,2.358688354,12.970718384,-11.856277466,-0.082123414,0.113719121,0.988325715
8.617070,2.747787476,12.818130493,-12.695510864,-0.097382203,0.101512089,0.997358918
8.618853,2.915634155,10.674270630,-13.252456665,-0.063690796,0.066844121,0.996748567
8.619480,4.174484253,9.796890259,-13.260086060,-0.050018921,0.049021851,1.004438996
8.620106,5.227340698,9.667190552,-13.389785767,-0.042084351,0.052928101,1.006880403
8.620733,5.593551636,9.560379028,-13.313491821,-0.036347046,0.068797246,0.996992707
8.621360,4.845870972,9.804519653,-13.206680298,-0.026459351,0.075633183,0.977705598
8.621986,3.731979370,10.201248169,-12.993057251,-0.015106812,0.058543336,0.974409699
8.622613,4.105819702,10.918411255,-12.970169067,-0.006561890,0.032298218,0.987593293
8.623240,5.097640991,11.360916138,-13.031204224,-0.000458375,0.036570679,0.999922395
8.623866,6.440414429,11.399063110,-13.473709106,0.020415649,0.039988648,0.997114778
8.624492,8.523239136,11.360916138,-13.733108521,0.028106079,0.046214234,0.992720246
8.625119,10.277999878,11.254104614,-13.443191528,0.010650024,0.081614628,0.988203645
8.625744,9.942306519,10.361465454,-13.054092407,-0.014374390,0.103099003,0.965742707
8.626369,8.866561890,9.918960571,-12.718399048,-0.001312867,0.067820683,0.958174348
8.626994,9.835494995,9.728225708,-13.130386353,0.008941039,0.054881226,0.972334504
8.627619,11.498703003,9.712966919,-13.427932739,0.006499633,0.102976933,0.990400910
8.628244,12.032760620,9.712966919,-13.572891235,0.019561157,0.133006230,0.976484895
8.628869,12.223495483,10.292800903,-13.458450317,0.024688110,0.129710332,0.968306184
8.629496,11.864913940,10.338577271,-13.649185181,0.010772094,0.126536503,0.973555207
8.630123,11.170639038,10.681900024,-13.641555786,0.003325805,0.098094121,0.976484895
8.644171,11.948837280,10.735305786,-13.412673950,-0.046723023,0.067210332,1.002241731
8.644979,11.956466675,10.659011841,-13.794143677,-0.042572632,0.063182011,1.003462434
8.645604,11.941207886,10.277542114,-13.862808228,-0.046845093,0.078318730,1.004683137
8.646230,11.224044800,10.056289673,-13.664443970,-0.049408570,0.075999394,0.998335481
8.646857,10.888351440,9.819778442,-13.916213989,-0.035126343,0.052561890,1.003462434
8.647482,11.224044800,9.781631470,-13.900955200,-0.042084351,0.043162476,1.017988801
8.648108,11.559738159,9.903701782,-14.213760376,-0.043427125,0.038645875,1.022383332
8.648734,11.681808472,10.102066040,-14.099319458,-0.047333375,0.032664429,1.028242707
8.649360,11.880172729,9.995254517,-14.152725220,-0.046112671,0.032542359,1.035566926
8.649987,12.170089722,10.094436646,-14.023025513,-0.044647828,0.034983765,1.043013215
8.650613,12.276901245,10.048660278,-14.259536743,-0.055512086,0.049265992,1.041670442
8.651240,11.780990601,9.751113892,-14.076431274,-0.056976929,0.055979859,1.040327668
8.651866,11.384262085,9.568008423,-13.977249146,-0.050995484,0.044749390,1.048384309
8.652493,11.452926636,9.667190552,-14.145095825,-0.044647828,0.044261109,1.058394074
8.653120,11.674179077,9.804519653,-14.679153442,-0.051727906,0.054148804,1.060225129
8.653746,11.048568726,9.659561157,-14.610488892,-0.064789429,0.062571660,1.060957551
8.654373,10.743392944,9.621414185,-14.785964966,-0.059662476,0.046702515,1.063887239
8.654999,10.514511108,9.911331177,-15.152175903,-0.064301148,0.034373414,1.070967317
8.655624,10.667098999,9.667190552,-15.258987427,-0.060394898,0.028514039,1.084028840
8.656250,11.132492065,9.918960571,-15.510757446,-0.049896851,0.021678101,1.090864778
8.656875,12.139572144,10.140213013,-15.716751099,-0.047211304,0.034373414,1.093428254
8.657500,12.460006714,9.812149048,-15.541275024,-0.053314820,0.055613648,1.088911653
8.658125,11.826766968,9.827407837,-15.587051392,-0.049408570,0.049388062,1.088423371
8.658750,11.895431519,9.979995728,-15.785415649,-0.042206421,0.038890015,1.091475129
8.659377,12.025131226,9.896072388,-15.983779907,-0.039765015,0.035594117,1.092085481
8.660010,12.353195190,9.964736938,-16.060073853,-0.045868531,0.046458375,1.088789582
8.660637,11.872543335,9.880813599,-16.021926880,-0.043671265,0.039866578,1.091963410
8.661263,12.482894897,10.483535767,-16.357620239,-0.027680054,0.017649781,1.103071809
8.661888,14.268173218,10.796340942,-16.632278442,-0.033905640,0.023142945,1.113081574
8.662515,15.374435425,11.299880981,-16.723831177,-0.039765015,0.050730836,1.107100129
8.664361,15.443099976,11.811050415,-16.670425415,-0.054047242,0.064158574,1.100752473
8.664988,15.885604858,11.856826782,-16.960342407,-0.056244507,0.064402714,1.096357942
8.665613,16.724838257,11.719497681,-17.189224243,-0.062225953,0.077708378,1.091963410
8.666239,17.045272827,11.643203735,-17.212112427,-0.057953492,0.083201542,1.093306184
8.666865,18.189682007,11.338027954,-17.372329712,-0.063934937,0.085765019,1.089399934
8.667491,18.342269897,11.338027954,-17.448623657,-0.074066773,0.091868535,1.090254426
8.668116,18.876327515,11.132034302,-17.837722778,-0.072846070,0.088084355,1.088667512
8.668742,19.311203003,10.964187622,-18.097122192,-0.071137086,0.085520878,1.094404817
8.669367,19.852890015,10.994705200,-18.211563110,-0.071625367,0.092723027,1.095503449
8.669994,20.356430054,10.765823364,-18.242080688,-0.071625367,0.109080449,1.093794465
8.670621,20.493759155,10.529312134,-18.287857056,-0.077240601,0.115794316,1.085615754
8.671247,20.272506714,10.201248169,-18.158157349,-0.080902711,0.112864628,1.085371614
8.671872,20.158065796,10.155471802,-18.341262817,-0.073822632,0.099925175,1.095381379
8.672499,21.744979858,10.414871216,-18.715103149,-0.078461304,0.091258183,1.103560090
8.673125,22.706283569,10.491165161,-18.745620728,-0.093475953,0.104563847,1.104658723
8.673750,22.637619019,10.178359985,-19.043167114,-0.095429078,0.112254277,1.103071809
8.674375,22.347702026,10.384353638,-19.264419556,-0.090424195,0.117991582,1.106733918
8.675000,22.660507202,10.308059692,-18.936355591,-0.080780640,0.109446660,1.116865754
8.689017,18.914474487,14.710220337,-19.203384399,-0.133026734,0.137034550,1.153486848
8.689876,19.013656616,14.992507935,-19.073684692,-0.134857789,0.137156621,1.154097199
8.690501,18.487228394,14.801773071,-19.348342896,-0.144989625,0.142283574,1.147993684
8.691127,18.090499878,15.023025513,-19.157608032,-0.142670289,0.130808964,1.147017121
8.691753,17.770065308,15.206130981,-19.035537720,-0.144623414,0.116892949,1.148359895
8.692378,18.044723511,15.160354614,-19.111831665,-0.142426148,0.113719121,1.156172395
8.693010,18.273605347,15.465530396,-19.005020142,-0.143890992,0.120432988,1.154341340
8.693637,17.907394409,15.641006470,-18.844802856,-0.143768921,0.121287480,1.143110871
8.694264,17.564071655,15.930923462,-18.791397095,-0.144135132,0.111399785,1.145308137
8.694889,17.548812866,16.068252563,-18.646438599,-0.145599976,0.105052128,1.150068879
8.695514,17.525924683,16.190322876,-18.387039185,-0.145844117,0.101878300,1.147871614
8.696139,17.152084351,16.144546509,-18.539627075,-0.143524781,0.096751347,1.146772981
8.696765,17.159713745,16.388687134,-18.409927368,-0.146942750,0.090281621,1.148848176
8.697390,17.113937378,16.335281372,-18.036087036,-0.147797242,0.090037480,1.150068879
8.698016,16.976608276,16.472610474,-18.097122192,-0.144745484,0.080515996,1.149702668
8.698642,17.358078003,16.754898071,-18.028457642,-0.146576539,0.071482792,1.155562043
8.699268,17.487777710,16.892227173,-17.761428833,-0.142670289,0.067576542,1.157881379
8.699894,17.869247437,17.113479614,-17.891128540,-0.145233765,0.056468140,1.164595246
8.700519,18.159164429,17.380508423,-17.662246704,-0.152191773,0.049510133,1.167280793
8.701144,18.090499878,17.159255981,-17.738540649,-0.150360718,0.046824586,1.163740754
8.701770,18.136276245,17.159255981,-17.418106079,-0.138397828,0.028269898,1.165938020
8.702397,18.548263550,17.296585083,-17.273147583,-0.131073609,0.016673218,1.172163606
8.703022,19.295944214,17.296585083,-17.135818481,-0.126312867,0.011912476,1.178999543
8.703648,19.944442749,17.502578735,-16.739089966,-0.121918336,0.009593140,1.176802278
8.704274,20.814193726,17.716201782,-16.647537231,-0.124237671,0.016184937,1.175581574
8.704901,20.837081909,17.975601196,-16.685684204,-0.123261109,0.007640015,1.173262239
8.705528,21.279586792,18.173965454,-16.250808716,-0.115936890,-0.003834594,1.175825715
8.706153,21.867050171,18.402847290,-16.151626587,-0.118622437,-0.001637328,1.177290559
8.706779,22.401107788,18.868240356,-15.960891724,-0.112640992,-0.006153930,1.182051301
8.707406,23.446334839,18.814834595,-15.777786255,-0.117035523,-0.002613891,1.177412629
8.709248,25.109542847,19.234451294,-15.281875610,-0.118622437,-0.007984985,1.185103059
8.709873,25.895370483,19.318374634,-15.197952271,-0.113495484,-0.012501586,1.187056184
8.710499,26.604904175,19.646438599,-15.037734985,-0.110199586,-0.013234008,1.189741731
8.711124,27.207626343,19.623550415,-14.625747681,-0.100922242,-0.013234008,1.189985871
8.711751,28.352035522,19.646438599,-14.869888306,-0.103363648,-0.012867797,1.192671418
8.712377,29.267562866,20.050796509,-14.557083130,-0.101776734,-0.016529907,1.195601106
8.713010,30.076278687,20.424636841,-14.190872192,-0.102020875,-0.023365844,1.195967317
8.713637,30.831588745,20.447525024,-14.076431274,-0.101288453,-0.023976196,1.198897004
8.714264,31.739486694,21.096023560,-14.160354614,-0.114716187,-0.015919555,1.202314973
8.714890,31.426681519,21.141799927,-13.611038208,-0.117401734,-0.004200805,1.201704621
8.715516,30.946029663,21.294387817,-13.588150024,-0.098602906,-0.007618774,1.214277864
8.716142,31.831039429,21.889480591,-13.466079712,-0.067963257,-0.004811157,1.228315949
8.716767,32.777084351,22.621902466,-13.176162720,-0.064301148,0.013377320,1.237471223
8.717392,33.059371948,23.552688599,-12.832839966,-0.067108765,0.010691773,1.243086457
8.718018,32.578720093,24.651321411,-12.703140259,-0.100922242,-0.009938110,1.243818879
8.718643,32.143844604,24.849685669,-12.703140259,-0.131928101,-0.016529907,1.233931184
8.719269,31.716598511,24.452957153,-12.138565063,-0.138886109,-0.019825805,1.220747590
8.733354,31.007064819,30.068191528,-6.370742798,-0.110443726,0.059275758,1.131147981
8.734155,30.831588745,30.434402466,-5.768020630,-0.105438843,0.061106812,1.130903840
8.734781,30.312789917,31.449111938,-5.523880005,-0.127167359,0.060252320,1.128584504
8.735407,29.412521362,32.067092896,-5.172927856,-0.149384156,0.053416383,1.128706574
8.736033,28.359664917,32.395156860,-5.424697876,-0.157562867,0.055979859,1.128706574
8.736659,27.901901245,32.501968384,-4.913528442,-0.163544312,0.065013066,1.132124543
8.737286,27.352584839,32.364639282,-4.707534790,-0.156464234,0.076487675,1.136274934
8.737912,27.047409058,32.479080200,-4.074295044,-0.159271851,0.092478886,1.152022004
8.738537,26.269210815,32.456192017,-3.875930786,-0.165619507,0.101390019,1.163862824
8.739162,24.926437378,32.837661743,-3.830154419,-0.168549195,0.100535527,1.183149934
8.739788,23.667587280,33.539566040,-3.921707153,-0.162689820,0.087840214,1.195479035
8.740413,22.835983276,33.882888794,-3.814895630,-0.159515992,0.081126347,1.203901887
8.741038,22.294296265,34.004959106,-3.524978638,-0.160980836,0.078807011,1.204390168
8.741665,21.600021362,34.043106079,-2.853591919,-0.163178101,0.075877324,1.197432160
8.742292,20.646347046,34.065994263,-2.548416138,-0.177704468,0.066966191,1.189253449
8.742917,20.203842163,34.050735474,-2.426345825,-0.182099000,0.054026734,1.184126496
8.743542,19.646896362,34.111770630,-2.159317017,-0.178803101,0.051707398,1.179487824
8.744168,19.356979370,34.622940063,-2.395828247,-0.161102906,0.051219117,1.175337434
8.744795,19.379867554,35.332473755,-2.029617310,-0.143402711,0.052073609,1.178389192
8.745422,19.433273315,35.675796509,-1.823623657,-0.132782593,0.056834351,1.178022981
8.746049,19.753707886,36.270889282,-1.587112427,-0.139008179,0.047434937,1.180464387
8.746676,19.410385132,37.087234497,-1.533706665,-0.149628296,0.036204468,1.179976106
8.747302,19.173873901,37.667068481,-1.342971802,-0.157562867,0.030955445,1.180830598
8.747927,19.036544800,37.697586060,-1.121719360,-0.160492554,0.033030640,1.175093293
8.748554,19.440902710,37.880691528,-0.786026001,-0.150849000,0.042674195,1.172651887
8.749180,19.761337280,37.903579712,-0.442703247,-0.150360718,0.053782593,1.174971223
8.749807,20.028366089,37.796768188,-0.320632935,-0.147553101,0.058909547,1.174116731
8.750433,20.188583374,38.307937622,-0.236709595,-0.148651734,0.060862672,1.174238801
8.758949,23.820175171,41.435989380,0.633041382,-0.132050171,0.119700566,1.103926301
8.759576,23.629440308,41.786941528,0.625411987,-0.124970093,0.136546269,1.104292512
8.760202,23.232711792,42.145523071,0.716964722,-0.114594117,0.151560917,1.103682160
8.760827,22.752059937,42.168411255,0.839035034,-0.121796265,0.152293339,1.105147004
8.761453,21.729721069,42.595657349,0.869552612,-0.129974976,0.149119511,1.107344270
8.762079,21.279586792,42.732986450,1.067916870,-0.138031617,0.146800175,1.102339387
8.762704,20.623458862,42.717727661,0.816146851,-0.139984742,0.144358769,1.096968293
8.763331,20.631088257,42.542251587,0.777999878,-0.143524781,0.141673222,1.090498567
8.763956,20.234359741,42.313369751,0.915328979,-0.143646851,0.144236699,1.085371614
8.764581,19.616378784,42.115005493,1.022140503,-0.142914429,0.147166386,1.078657746
8.765208,19.418014526,42.076858521,0.938217163,-0.136200562,0.143138066,1.074995637
8.765834,19.059432983,42.145523071,0.900070190,-0.125702515,0.136912480,1.077559114
8.766460,18.830551147,42.534622192,0.922958374,-0.119599000,0.136180058,1.076460481
8.767085,18.708480835,42.694839478,0.686447144,-0.122528687,0.130808964,1.076216340
8.767711,18.769515991,42.938980103,0.915328979,-0.128754273,0.124949589,1.075605989
8.768336,18.632186890,43.045791626,0.732223511,-0.135712281,0.124339238,1.074507356
8.768963,18.548263550,43.099197388,0.869552612,-0.142792359,0.118235722,1.071455598
8.769588,18.395675659,42.839797974,0.831405640,-0.152557984,0.112376347,1.071699739
8.770214,18.464340210,42.786392212,0.831405640,-0.152680054,0.108225957,1.070356965
8.770840,18.738998413,42.664321899,0.655929565,-0.154022828,0.110545292,1.071333528
8.784873,24.491561890,41.619094849,0.160018921,-0.177094117,0.133494511,1.087813020
8.785617,23.293746948,41.718276978,0.335494995,-0.177216187,0.144358769,1.101484895
8.786243,22.706283569,41.832717896,0.221054077,-0.176361695,0.142771855,1.106978059
8.786870,21.928085327,41.847976685,0.304977417,-0.180512086,0.138377324,1.103193879
8.787495,21.126998901,41.786941528,0.312606812,-0.181122437,0.134226933,1.101484895
8.788122,20.661605835,41.207107544,0.396530151,-0.193329468,0.130320683,1.091597199
8.788747,20.486129761,40.955337524,0.442306519,-0.198578492,0.122874394,1.085737824
8.789372,20.303024292,40.627273560,0.449935913,-0.196137086,0.120188847,1.078535676
8.789997,19.952072144,40.177139282,0.503341675,-0.192474976,0.116770878,1.078535676
8.790622,19.921554565,40.200027466,0.449935913,-0.182953492,0.112986699,1.074873567
8.791249,19.715560913,40.314468384,0.282089233,-0.180634156,0.112376347,1.074751496
8.791874,19.486679077,40.177139282,0.465194702,-0.177948609,0.106516972,1.073164582
8.792500,19.257797241,40.055068970,0.716964722,-0.178436890,0.098948613,1.069868684
8.793164,18.998397827,40.253433228,0.961105347,-0.184418336,0.093211308,1.066694856
8.793789,18.929733276,40.383132935,1.052658081,-0.191620484,0.089427128,1.065962434
8.794415,18.899215698,40.314468384,1.098434448,-0.194916382,0.085887089,1.064131379
8.795041,18.861068726,40.154251099,1.365463257,-0.202728882,0.088206425,1.065474153
8.795667,18.792404175,40.161880493,1.739303589,-0.207489625,0.084666386,1.063643098
8.796292,18.494857788,39.879592896,1.678268433,-0.207977906,0.083201542,1.062910676
8.796918,18.594039917,39.536270142,1.975814819,-0.211029664,0.078562871,1.064375520
8.797544,18.441452026,39.650711060,2.044479370,-0.211273804,0.073435917,1.058760285
8.798171,18.609298706,39.482864380,2.090255737,-0.214691773,0.068919316,1.058638215
8.798797,18.677963257,39.101394653,2.311508179,-0.212982789,0.061106812,1.055220246
8.799422,18.708480835,39.017471313,2.403060913,-0.214691773,0.056224000,1.054121614
8.800048,18.937362671,39.192947388,2.525131226,-0.215057984,0.048655640,1.052046418
8.800673,18.967880249,38.735183716,2.952377319,-0.215790406,0.043284547,1.051924348
8.801299,18.914474487,38.376602173,3.181259155,-0.214203492,0.037913453,1.044600129
8.801924,19.036544800,38.407119751,3.524581909,-0.214325562,0.032542359,1.049238801
8.802549,19.295944214,38.178237915,3.791610718,-0.210297242,0.027415406,1.046553254
8.803176,19.501937866,38.155349731,3.806869507,-0.212616578,0.021189820,1.048628449
8.804995,19.517196655,37.750991821,4.798690796,-0.215790406,0.004832398,1.043867707
8.805620,19.761337280,37.606033325,5.248825073,-0.216766968,-0.001026977,1.042036653
8.806245,20.089401245,37.522109985,5.447189331,-0.216889039,-0.005909789,1.036665559
8.806872,20.249618530,37.293228149,5.828659058,-0.217255250,-0.012867797,1.038008332
8.807499,20.333541870,37.049087524,6.210128784,-0.217865601,-0.017750610,1.029585481
8.808125,20.631088257,36.713394165,6.454269409,-0.220673218,-0.022023071,1.026045442
8.808751,20.875228882,36.759170532,6.782333374,-0.220307007,-0.024464477,1.022383332
8.809377,21.210922241,36.278518677,7.148544312,-0.217987671,-0.026051391,1.020186067
8.810010,21.310104370,36.225112915,7.331649780,-0.219940796,-0.027272094,1.014814973
8.810636,21.622909546,35.843643188,7.568161011,-0.221161500,-0.033497680,1.009932160
8.811263,21.737350464,35.744461060,8.193771362,-0.221649781,-0.028614867,1.008833528
8.811888,22.210372925,35.507949829,8.483688354,-0.223602906,-0.031544555,1.004683137
8.812515,22.317184448,35.485061646,8.865158081,-0.224823609,-0.034352172,0.996260285
8.813141,22.614730835,35.019668579,9.330551147,-0.225433961,-0.032887328,0.992109895
8.813768,23.156417847,34.561904907,9.597579956,-0.230560914,-0.031056274,0.988936067
8.814394,23.301376343,34.363540649,9.795944214,-0.230560914,-0.031788696,0.985762239
8.815020,23.461593628,34.111770630,10.337631226,-0.235809937,-0.031056274,0.980269074
8.815646,23.804916382,33.600601196,10.764877319,-0.233978882,-0.029957641,0.978804231
8.816273,24.171127319,33.417495728,10.780136108,-0.233124390,-0.026661742,0.974897981
8.830340,24.956954956,25.971206665,15.167037964,-0.228485718,0.022776734,1.026899934
8.831152,25.536788940,25.551589966,15.022079468,-0.225678101,0.030955445,1.031904817
8.831777,25.826705933,25.139602661,15.174667358,-0.225311890,0.031443726,1.032881379
8.832402,26.452316284,25.070938110,15.243331909,-0.223602906,0.037303101,1.033125520
8.833029,27.055038452,24.796279907,15.106002808,-0.226410523,0.042185914,1.035444856
8.833655,27.665390015,24.521621704,15.212814331,-0.226776734,0.048655640,1.037520051
8.834282,28.062118530,24.307998657,15.128890991,-0.226288453,0.057566773,1.040938020
8.834909,28.466476440,24.201187134,14.892379761,-0.227509156,0.065989628,1.038862824
8.835534,29.031051636,23.941787720,14.877120972,-0.227142945,0.068431035,1.040571809
8.836159,29.465927124,23.812088013,14.587203979,-0.222138062,0.072581425,1.040693879
8.836786,29.862655640,23.636611938,14.533798218,-0.222504273,0.079539433,1.045454621
8.837413,30.595077515,23.445877075,14.457504272,-0.219818726,0.084178105,1.047163606
8.838039,31.098617554,23.300918579,14.274398804,-0.222504273,0.087596074,1.047773957
8.838665,31.564010620,23.422988892,13.732711792,-0.214447632,0.093577519,1.051802278
8.839291,31.991256714,23.239883423,13.809005737,-0.214081421,0.099681035,1.051802278
8.839917,32.166732788,23.407730103,13.694564819,-0.213959351,0.104441777,1.054731965
8.840543,32.479537964,23.316177368,13.343612671,-0.209808961,0.105784550,1.058394074
8.841168,32.639755249,23.651870728,13.458053589,-0.210541382,0.113963261,1.058272004
8.841795,32.769454956,23.209365845,12.901107788,-0.208222046,0.119212285,1.059492707
8.842420,32.784713745,23.567947388,12.695114136,-0.206757203,0.127146855,1.060225129
8.843046,32.769454956,23.377212524,12.580673218,-0.204926148,0.128977910,1.061323762
8.843671,32.891525269,23.308547974,12.153427124,-0.208344117,0.134226933,1.061079621
8.844297,32.693161011,23.453506470,11.832992554,-0.208099976,0.135447636,1.064375520
8.844922,32.616867065,23.560317993,11.558334351,-0.206268921,0.141917363,1.064497590
8.845547,32.464279175,23.369583130,11.085311890,-0.205292359,0.143260136,1.062544465
8.846173,32.243026733,23.270401001,11.085311890,-0.206879273,0.146433964,1.060469270
8.846798,32.006515503,23.407730103,10.528366089,-0.200653687,0.150462285,1.055586457
8.847423,32.014144897,23.491653442,10.207931519,-0.202973023,0.147654667,1.054976106
8.848049,31.647933960,23.293289185,9.780685425,-0.202362671,0.152903691,1.049971223
8.848675,31.243576050,23.224624634,9.773056030,-0.202973023,0.152293339,1.047651887
8.850479,30.869735718,22.957595825,8.781234741,-0.202362671,0.153758183,1.029463410
8.851104,30.625595093,22.888931274,8.384506226,-0.204682007,0.154246464,1.025435090
8.851730,30.740036011,22.660049438,8.239547729,-0.204071656,0.153025761,1.016768098
8.852355,30.740036011,22.660049438,7.964889526,-0.202362671,0.151805058,1.012617707
8.852980,30.816329956,22.599014282,7.301132202,-0.204193726,0.150340214,1.004561067
8.853606,30.892623901,22.118362427,7.133285522,-0.204315796,0.147776738,0.998579621
8.854232,31.159652710,22.026809692,6.843368530,-0.202240601,0.147654667,0.993086457
8.854858,31.358016968,21.729263306,6.622116089,-0.202362671,0.144724980,0.986128449
8.855484,31.594528198,21.714004517,6.225387573,-0.199310914,0.143748417,0.984297395
8.856110,32.052291870,21.561416626,5.904953003,-0.198578492,0.141795292,0.978926301
8.856737,32.136215210,21.141799927,5.759994507,-0.197968140,0.138987675,0.974043489
8.857364,32.731307983,21.111282349,5.454818726,-0.199066773,0.140452519,0.970747590
8.857989,33.021224976,20.699295044,4.981796265,-0.193573609,0.138255253,0.969282746
8.858614,33.654464722,20.523818970,4.928390503,-0.191498414,0.136912480,0.964644074
8.859240,34.035934448,20.325454712,4.447738647,-0.193329468,0.136912480,0.959639192
8.859865,34.356369019,20.157608032,4.371444702,-0.193939820,0.132884160,0.960615754
8.860491,34.760726929,19.783767700,4.211227417,-0.191132203,0.133250371,0.962690949
8.861118,35.035385132,19.737991333,3.883163452,-0.190521851,0.133616582,0.963789582
8.875389,34.562362671,18.868240356,2.662460327,-0.146088257,0.132640019,0.983442903
8.876112,34.325851440,18.669876099,2.769271851,-0.146576539,0.129344121,0.976606965
8.876739,34.333480835,18.761428833,3.005783081,-0.145355836,0.129832402,0.977705598
8.877366,34.211410522,18.517288208,2.853195190,-0.147186890,0.127390996,0.981367707
8.877991,34.158004761,18.799575806,3.082077026,-0.147675171,0.122630253,0.979414582
8.878617,34.112228394,18.646987915,3.059188843,-0.149750367,0.123240605,0.975996614
8.879243,34.005416870,18.654617310,3.478805542,-0.148895875,0.120066777,0.981367707
8.879869,34.013046265,18.814834595,3.364364624,-0.150238648,0.122630253,0.978071809
8.880495,34.081710815,18.593582153,3.410140991,-0.151459351,0.120066777,0.976851106
8.881121,33.837570190,18.608840942,3.768722534,-0.150482789,0.120677128,0.976118684
8.881746,33.959640503,18.463882446,3.806869507,-0.149262086,0.114085332,0.976240754
8.882371,33.906234741,18.425735474,3.906051636,-0.151581421,0.113230839,0.978438020
8.882996,34.203781128,18.463882446,3.883163452,-0.154266968,0.112376347,0.975996614
8.883622,34.066452026,18.173965454,4.226486206,-0.157196656,0.111277714,0.973066926
8.884248,34.005416870,18.074783325,4.340927124,-0.156464234,0.107249394,0.974531770
8.884875,34.104598999,18.265518188,4.546920776,-0.159760132,0.105784550,0.976606965
8.885502,34.470809937,18.235000610,4.707138062,-0.162445679,0.106639042,0.970991731
8.886129,34.638656616,18.006118774,5.058090210,-0.164032593,0.103709355,0.969526887
8.886756,34.653915405,18.044265747,4.943649292,-0.167206421,0.099803105,0.968550324
8.887383,34.821762085,17.990859985,5.187789917,-0.169281617,0.099925175,0.972090364
8.888011,35.157455444,17.853530884,5.462448120,-0.171600953,0.097727910,0.971235871
8.888636,35.287155151,17.670425415,5.462448120,-0.171234742,0.096018925,0.969893098
8.889261,35.775436401,17.632278442,5.698959351,-0.174042359,0.092967167,0.968550324
8.889887,35.897506714,17.685684204,5.927841187,-0.177094117,0.092723027,0.968062043
8.890512,36.294235229,17.632278442,6.080429077,-0.180878296,0.088816777,0.967695832
8.891138,36.645187378,17.403396606,6.263534546,-0.180267945,0.088572636,0.966230989
8.891764,36.973251343,17.121109009,6.530563354,-0.182099000,0.087962285,0.962568879
8.892391,37.171615601,17.182144165,6.660263062,-0.184662476,0.088572636,0.964155793
8.893016,37.537826538,16.915115356,6.896774292,-0.187103882,0.087596074,0.963789582
8.893642,37.827743530,16.899856567,7.232467651,-0.188934937,0.089182988,0.965254426
8.895450,38.644088745,16.739639282,7.644454956,-0.194916382,0.089549199,0.964155793
8.896076,39.124740601,16.365798950,7.720748901,-0.199188843,0.090891972,0.964888215
8.896702,39.483322144,16.159805298,8.262435913,-0.201386109,0.090647832,0.962690949
8.897329,39.635910034,15.923294067,8.224288940,-0.206268921,0.092600957,0.962568879
8.897954,39.857162476,16.007217407,8.476058960,-0.205780640,0.093455449,0.960615754
8.898579,40.055526733,15.602859497,8.933822632,-0.215180054,0.094065800,0.964522004
8.899206,40.139450073,15.122207642,9.040634155,-0.213837281,0.092356816,0.965620637
8.899833,40.490402222,15.213760376,9.071151733,-0.215546265,0.093455449,0.965376496
8.900460,40.772689819,15.076431274,9.406845093,-0.215057984,0.092234746,0.964522004
8.901087,40.917648315,14.572891235,9.399215698,-0.220673218,0.090281621,0.967939973
8.901714,40.993942261,14.450820923,9.544174194,-0.217743531,0.092478886,0.968916535
8.902339,41.070236206,14.435562134,10.078231812,-0.218720093,0.096140996,0.969893098
8.902964,41.474594116,14.099868774,10.017196655,-0.216156617,0.092845097,0.970137239
8.903589,41.238082886,13.756546021,10.230819702,-0.218353882,0.090769902,0.977217317
8.904214,41.672958374,13.687881470,10.719100952,-0.217865601,0.092234746,0.979414582
8.904840,41.383041382,13.558181763,10.841171265,-0.217743531,0.091990605,0.980147004
8.905465,41.772140503,13.413223267,10.886947632,-0.216644898,0.087596074,0.981123567
8.906091,41.589035034,13.130935669,11.176864624,-0.216278687,0.089793339,0.987105012
8.906716,41.604293823,12.970718384,11.474411011,-0.216034546,0.087718144,0.989546418
8.920783,42.863143921,10.727676392,17.814437866,-0.200653687,0.039500367,0.979048371
8.921580,43.420089722,10.262283325,18.386642456,-0.201752320,0.039744508,0.976118684
8.922206,43.641342163,10.178359985,18.989364624,-0.201264039,0.038157593,0.972212434
8.922832,43.908370972,10.300430298,19.058029175,-0.199310914,0.035349976,0.971357942
8.923458,44.183029175,9.964736938,19.500534058,-0.201386109,0.035349976,0.970625520
8.924083,44.076217651,9.804519653,19.698898315,-0.198700562,0.032054078,0.966475129
8.924709,44.366134644,9.888442993,19.988815308,-0.195892945,0.033152711,0.966597199
8.925334,44.633163452,9.468826294,20.461837769,-0.196991578,0.031321656,0.965620637
8.925959,44.648422241,9.316238403,20.820419312,-0.196381226,0.028025758,0.965010285
8.926586,44.678939819,9.285720825,21.110336304,-0.195160523,0.029612672,0.966108918
8.927213,45.037521362,9.247573853,21.423141479,-0.193939820,0.022166383,0.962202668
8.927838,45.144332886,9.079727173,21.796981812,-0.193329468,0.024363648,0.957686067
8.928463,45.174850464,9.003433228,22.193710327,-0.192352906,0.026072633,0.958540559
8.929090,45.312179565,8.980545044,22.346298218,-0.190765992,0.026194703,0.955610871
8.929715,45.312179565,8.690628052,22.979537964,-0.189057007,0.024851929,0.955122590
8.930340,45.579208374,8.576187134,23.361007690,-0.188446656,0.024851929,0.949873567
8.930965,45.602096558,8.652481079,23.574630737,-0.188934937,0.023753297,0.949873567
8.931591,45.686019897,8.255752563,23.910324097,-0.189545289,0.021556031,0.943281770
8.932217,45.861495972,8.209976196,24.368087769,-0.186371461,0.019969117,0.941694856
8.932843,45.724166870,8.034500122,24.749557495,-0.186371461,0.022410523,0.940840364
8.933468,45.937789917,7.973464966,25.245468140,-0.184418336,0.023387086,0.937422395
8.934094,45.945419312,7.607254028,25.710861206,-0.183807984,0.021556031,0.935957551
8.934721,45.914901733,7.653030396,25.848190308,-0.178436890,0.020823609,0.935591340
8.935348,46.166671753,7.614883423,26.405136108,-0.182343140,0.022776734,0.929487824
8.935974,46.212448120,7.103713989,26.840011597,-0.177826539,0.020701539,0.932661653
8.936599,46.311630249,7.088455200,27.198593140,-0.176483765,0.020823609,0.927778840
8.937225,46.509994507,6.981643677,27.770797729,-0.176727906,0.016673218,0.925337434
8.937852,46.601547241,6.905349731,28.365890503,-0.174164429,0.019114625,0.924482942
8.938478,46.708358765,6.706985474,28.800765991,-0.172455445,0.016307008,0.925703645
8.939103,46.822799683,6.577285767,29.151718140,-0.170014039,0.016673218,0.922529817
8.940909,47.272933960,5.898269653,30.395309448,-0.165985718,0.014109742,0.923628449
8.941534,47.570480347,6.020339966,30.784408569,-0.165863648,0.013621461,0.925215364
8.942160,47.791732788,5.837234497,31.173507690,-0.165009156,0.013865601,0.929976106
8.942787,47.913803101,5.715164185,31.730453491,-0.164520875,0.013743531,0.926558137
8.943412,48.272384644,5.738052368,32.317916870,-0.162445679,0.008372437,0.929243684
8.944037,48.249496460,5.478652954,32.707015991,-0.159149781,0.011057984,0.929121614
8.944663,48.516525269,5.486282349,33.042709351,-0.160492554,0.012156617,0.929731965
8.945290,48.676742554,5.455764771,33.393661499,-0.159027711,0.011302125,0.931685090
8.945915,48.707260132,5.127700806,33.897201538,-0.153656617,0.014353883,0.931685090
8.946541,48.951400757,4.998001099,34.538070679,-0.155975953,0.012522828,0.931074739
8.947167,49.172653198,4.998001099,34.995834351,-0.154022828,0.015330445,0.933760285
8.947794,49.386276245,4.875930786,35.354415894,-0.156830445,0.013987672,0.932295442
8.948420,49.218429565,4.929336548,35.712997437,-0.152802125,0.018870484,0.932173371
8.949045,49.790634155,5.036148071,36.422531128,-0.156586304,0.013865601,0.932173371
8.949670,49.897445679,4.708084106,36.529342651,-0.153046265,0.018382203,0.930098176
8.950297,50.111068726,4.891189575,36.727706909,-0.151459351,0.018992554,0.929976106
8.950923,50.233139038,4.753860474,37.467758179,-0.151825562,0.020579468,0.928877473
8.951550,50.629867554,4.616531372,37.811080933,-0.147919312,0.023142945,0.929365754
8.952175,50.858749390,4.669937134,38.085739136,-0.152924195,0.028758179,0.929121614
8.966180,48.981918335,2.365859985,43.037216187,-0.124603882,0.104807988,0.903242707
8.966921,48.630966187,2.251419067,43.060104370,-0.125214234,0.106272832,0.904341340
8.967546,48.569931030,2.106460571,43.105880737,-0.124359742,0.109568730,0.902510285
8.968171,48.043502808,1.869949341,43.243209839,-0.128021851,0.110057011,0.901777864
8.968798,47.921432495,1.869949341,43.205062866,-0.122406617,0.116404667,0.900068879
8.969423,47.723068237,1.808914185,43.121139526,-0.127289429,0.121653691,0.897261262
8.970049,47.646774292,1.480850220,43.258468628,-0.125824586,0.118235722,0.897627473
8.970675,47.372116089,1.419815063,43.105880737,-0.129364625,0.122019902,0.893232942
8.971302,47.143234253,1.389297485,43.159286499,-0.127167359,0.125071660,0.893355012
8.971927,46.845687866,1.198562622,43.266098022,-0.122650757,0.127390996,0.889448762
8.972553,46.777023315,0.862869263,43.128768921,-0.123749390,0.135081425,0.889082551
8.973179,46.464218140,0.786575317,43.128768921,-0.124603882,0.136057988,0.885420442
8.973806,46.342147827,0.687393188,42.831222534,-0.125702515,0.137644902,0.883833528
8.974431,46.586288452,0.397476196,42.953292847,-0.125702515,0.141184941,0.881514192
8.975058,46.105636597,0.336441040,42.625228882,-0.123627320,0.145579472,0.879072785
8.975684,45.937789917,0.229629517,42.617599487,-0.123261109,0.146800175,0.878584504
8.976310,46.036972046,0.252517700,42.678634644,-0.123383179,0.152781621,0.874067903
8.976937,46.136154175,-0.106063843,42.304794312,-0.125824586,0.159617558,0.871870637
8.977563,45.907272339,-0.189987183,42.381088257,-0.126557007,0.161082402,0.872480989
8.978189,45.800460815,-0.464645386,42.197982788,-0.124970093,0.163523808,0.867231965
8.978814,45.670761108,-0.762191772,41.984359741,-0.124848023,0.164988652,0.866011262
8.979439,46.021713257,-0.991073608,41.969100952,-0.127655640,0.173045292,0.864058137
8.980064,45.762313843,-1.036849976,41.580001831,-0.128632203,0.178538457,0.863569856
8.980691,45.869125366,-1.395431519,41.282455444,-0.133026734,0.180735722,0.865156770
8.981318,45.930160522,-1.692977905,41.450302124,-0.134613648,0.186228886,0.863691926
8.981944,45.624984741,-1.677719116,41.229049683,-0.139618531,0.190135136,0.863936067
8.982570,45.800460815,-1.929489136,41.160385132,-0.139496461,0.196116582,0.866133332
8.983195,45.502914429,-2.181259155,40.862838745,-0.143036500,0.203196660,0.869185090
8.983821,45.556320190,-2.433029175,40.511886597,-0.144257203,0.207591191,0.868940949
8.984447,45.495285034,-2.776351929,40.344039917,-0.150604859,0.213816777,0.869307160
8.986249,45.113815308,-3.386703491,39.672653198,-0.161835328,0.228587285,0.877852082
8.986874,45.335067749,-3.867355347,39.321701050,-0.165619507,0.234568730,0.883833528
8.987500,44.984115601,-4.111495972,39.039413452,-0.168915406,0.235057011,0.886763215
8.988125,45.068038940,-4.401412964,38.734237671,-0.173798218,0.237254277,0.890669465
8.988751,44.808639526,-4.622665405,38.512985229,-0.173920289,0.240061894,0.896895051
8.989378,44.648422241,-5.011764526,38.497726440,-0.181000367,0.245066777,0.899702668
8.990010,44.663681030,-5.072799683,37.841598511,-0.184052125,0.247996464,0.905684114
8.990637,44.572128296,-5.690780640,37.704269409,-0.182709351,0.248240605,0.909346223
8.991262,44.274581909,-5.667892456,37.528793335,-0.186859742,0.248973027,0.915449739
8.991889,44.312728882,-5.881515503,37.009994507,-0.191376343,0.249583378,0.921797395
8.992514,44.251693726,-6.018844604,37.132064819,-0.191132203,0.254222035,0.920332551
8.993140,44.259323120,-6.514755249,36.605636597,-0.193207398,0.254222035,0.926558137
8.993767,44.129623413,-6.293502808,36.254684448,-0.198090211,0.256419301,0.934492707
8.994392,44.076217651,-6.644454956,36.025802612,-0.197846070,0.257517934,0.933149934
8.995018,43.961776733,-6.766525269,35.789291382,-0.199555054,0.259348989,0.942183137
8.995643,43.992294312,-6.804672241,35.491744995,-0.199310914,0.259959340,0.948042512
8.996270,44.038070679,-7.201400757,35.209457397,-0.200043336,0.257395864,0.951948762
8.996896,43.832077026,-7.216659546,34.995834351,-0.199921265,0.257029653,0.953413606
9.017665,53.925765991,-6.934371948,32.592575073,-0.106903687,0.097972050,0.990889192
9.018457,54.536117554,-6.980148315,33.126632690,-0.106049195,0.092356816,0.990645051
9.019084,55.115951538,-6.850448608,33.172409058,-0.100311890,0.092234746,0.986738801
9.019711,55.749191284,-6.606307983,33.477584839,-0.103119507,0.091380253,0.984785676
9.020337,56.443466187,-6.491867065,33.729354858,-0.099701539,0.089060917,0.980635285
9.020964,56.901229858,-6.423202515,33.942977905,-0.101044312,0.089793339,0.981001496
9.021590,57.503952026,-6.377426147,34.278671265,-0.097626343,0.088084355,0.979658723
9.022216,57.717575073,-6.140914917,34.545700073,-0.099335328,0.091136113,0.977339387
9.022843,58.121932983,-6.316390991,34.980575562,-0.098847046,0.090647832,0.975020051
9.023470,58.259262085,-6.102767944,35.087387085,-0.098480836,0.087962285,0.971968293
9.024097,58.633102417,-5.843368530,35.224716187,-0.095062867,0.088206425,0.974287629
9.024723,58.663619995,-5.858627319,35.651962280,-0.099091187,0.092845097,0.974775910
9.025348,58.709396362,-5.561080933,35.819808960,-0.097748414,0.096873417,0.975020051
9.025974,58.991683960,-5.660263062,36.102096558,-0.095184937,0.093577519,0.976484895
9.026600,58.755172729,-5.362716675,36.544601440,-0.097382203,0.095286503,0.975508332
9.027225,58.739913940,-5.339828491,36.712448120,-0.093842164,0.095042363,0.976240754
9.027851,58.701766968,-5.171981812,37.254135132,-0.093964234,0.097849980,0.973066926
9.028477,58.297409058,-4.927841187,37.460128784,-0.089813843,0.101390019,0.975020051
9.029102,57.832015991,-4.889694214,37.849227905,-0.088959351,0.103587285,0.977217317
9.029727,57.778610229,-4.729476929,38.108627319,-0.085785523,0.107737675,0.976729035
9.030352,57.564987183,-4.660812378,38.345138550,-0.088471070,0.109324589,0.975996614
9.030977,56.809677124,-4.233566284,38.764755249,-0.085419312,0.114939824,0.974531770
9.031603,56.237472534,-4.401412964,39.039413452,-0.085541382,0.116038457,0.972822785
9.032229,55.688156128,-4.073348999,39.192001343,-0.084198609,0.121043339,0.976729035
9.032856,55.085433960,-3.859725952,39.626876831,-0.083099976,0.126780644,0.975874543
9.033481,54.406417847,-3.607955933,40.038864136,-0.085419312,0.134715214,0.971480012
9.034106,53.391708374,-3.440109253,40.328781128,-0.086762086,0.130442753,0.975630403
9.034732,52.705062866,-3.325668335,40.366928101,-0.086517945,0.133128300,0.974775910
9.035358,52.087081909,-2.959457397,40.801803589,-0.089447632,0.137889042,0.975386262
9.035983,51.438583374,-2.875534058,40.992538452,-0.087494507,0.140452519,0.972212434
9.037797,48.951400757,-2.539840698,41.686813354,-0.088471070,0.152659550,0.965986848
9.038422,47.921432495,-2.410140991,42.106430054,-0.091278687,0.150584355,0.964399934
9.039049,47.333969116,-2.074447632,42.411605835,-0.086395875,0.141917363,0.965986848
9.039676,46.914352417,-1.906600952,42.571823120,-0.092255250,0.143015996,0.965742707
9.040301,46.754135132,-1.517501831,42.617599487,-0.093598023,0.156321660,0.966108918
9.040926,45.907272339,-1.525131226,42.922775269,-0.096039429,0.163645878,0.959761262
9.041551,44.991744995,-1.204696655,43.258468628,-0.098358765,0.168406621,0.953413606
9.042178,43.832077026,-1.242843628,43.754379272,-0.098236695,0.172923222,0.951216340
9.042803,42.954696655,-0.952926636,43.685714722,-0.101166382,0.167063847,0.953657746
9.043430,42.733444214,-0.754562378,43.845932007,-0.096649781,0.164866582,0.955488801
9.044055,42.657150269,-0.800338745,44.029037476,-0.098969117,0.171092167,0.955000520
9.044680,42.115463257,-0.556198120,43.937484741,-0.101776734,0.181224003,0.950850129
9.045307,42.054428101,-0.334945679,44.311325073,-0.111908570,0.180003300,0.954268098
9.045932,41.367782593,0.000747681,44.357101440,-0.117157593,0.172434941,0.956953645
9.046557,41.222824097,0.084671021,44.395248413,-0.118500367,0.171458378,0.955855012
9.047182,40.597213745,0.038894653,44.303695679,-0.117157593,0.176585332,0.958052278
9.047807,40.398849487,0.229629517,44.349472046,-0.113861695,0.185252324,0.960005403
9.048434,40.177597046,0.229629517,44.631759644,-0.111908570,0.200755253,0.954268098
9.062454,39.963973999,2.541336060,43.762008667,-0.115326539,0.231028691,0.968306184
9.063205,40.238632202,2.610000610,43.670455933,-0.111542359,0.234202519,0.968916535
9.063830,40.467514038,2.564224243,43.594161987,-0.109345093,0.234324589,0.970259309
9.064456,40.787948608,2.747329712,43.456832886,-0.109467164,0.235301152,0.972456574
9.065082,40.902389526,2.480300903,43.433944702,-0.106537476,0.233592167,0.970137239
9.065707,41.352523804,2.854141235,43.365280151,-0.108124390,0.235301152,0.972334504
9.066334,41.718734741,2.907546997,43.060104370,-0.102142945,0.237498417,0.970137239
9.066961,41.917098999,2.877029419,43.098251343,-0.099823609,0.239695683,0.968062043
9.067586,42.100204468,3.060134888,43.121139526,-0.098969117,0.238597050,0.970137239
9.068211,42.718185425,3.388198853,42.968551636,-0.100067750,0.240428105,0.967817903
9.068838,42.512191772,3.403457642,42.938034058,-0.099335328,0.241038457,0.971480012
9.069463,42.855514526,3.594192505,43.197433472,-0.098602906,0.238841191,0.970137239
9.070089,42.908920288,3.746780396,42.632858276,-0.097870484,0.238108769,0.966475129
9.070716,43.153060913,3.701004028,42.503158569,-0.096039429,0.236765996,0.967085481
9.071342,43.374313354,3.731521606,42.747299194,-0.093475953,0.236399785,0.967329621
9.071967,43.740524292,4.112991333,42.442123413,-0.091156617,0.232371464,0.963911653
9.072592,43.664230347,3.937515259,42.403976440,-0.086395875,0.231516972,0.958662629
9.073217,44.099105835,3.968032837,42.442123413,-0.085175171,0.227488652,0.958418489
9.073844,44.259323120,4.235061646,42.419235229,-0.080170289,0.223582402,0.954023957
9.074471,44.411911011,4.189285278,42.373458862,-0.081513062,0.219920292,0.951704621
9.075098,44.762863159,4.387649536,42.281906128,-0.079559937,0.216746464,0.944136262
9.075723,45.045150757,4.753860474,42.289535522,-0.076630250,0.216258183,0.944136262
9.076350,45.388473511,4.715713501,42.144577026,-0.076874390,0.209544316,0.937422395
9.076976,45.777572632,4.807266235,42.205612183,-0.074555054,0.203807011,0.938154817
9.077601,46.334518433,4.799636841,42.182723999,-0.074677125,0.201121464,0.936567903
9.078227,46.693099976,4.875930786,42.167465210,-0.074432984,0.201365605,0.929976106
9.078853,47.372116089,4.685195923,42.129318237,-0.072601929,0.196116582,0.929121614
9.079480,47.738327026,4.807266235,42.182723999,-0.070770875,0.194651738,0.920820832
9.080106,48.432601929,4.975112915,42.075912476,-0.070404664,0.192942753,0.919355989
9.080732,48.997177124,4.654678345,42.144577026,-0.071381226,0.191599980,0.911177278
9.082540,50.805343628,4.799636841,42.304794312,-0.067719117,0.192332402,0.900435090
9.083167,51.148666382,4.761489868,42.083541870,-0.069672242,0.193186894,0.895308137
9.083794,51.919235229,4.692825317,42.197982788,-0.069550171,0.192698613,0.891035676
9.084419,52.293075562,4.669937134,42.289535522,-0.068085328,0.190379277,0.887129426
9.085044,52.758468628,4.547866821,42.182723999,-0.072846070,0.194773808,0.882979035
9.085669,53.307785034,4.502090454,42.358200073,-0.071137086,0.194407597,0.880415559
9.086295,53.735031128,4.479202271,42.342941284,-0.075043336,0.193797246,0.878706574
9.086922,54.375900269,4.364761353,42.060653687,-0.074066773,0.197093144,0.872603059
9.087548,54.826034546,4.334243774,42.236129761,-0.074555054,0.196116582,0.869429231
9.088175,55.512680054,4.204544067,42.197982788,-0.071869507,0.195384160,0.869795442
9.088802,55.749191284,3.975662231,42.152206421,-0.073456421,0.196726933,0.869307160
9.089428,56.260360718,4.174026489,42.022506714,-0.072724000,0.197703496,0.867598176
9.090055,56.519760132,3.998550415,42.144577026,-0.072113648,0.200022832,0.862471223
9.090681,57.023300171,3.815444946,41.847030640,-0.068817750,0.200877324,0.865034699
9.091308,57.114852905,3.716262817,42.182723999,-0.071137086,0.203562871,0.863325715
9.091934,57.275070190,3.670486450,42.197982788,-0.069183961,0.206614628,0.861738801
9.092559,57.557357788,3.639968872,41.801254272,-0.069061890,0.206614628,0.862349153
9.093184,57.473434448,3.655227661,41.908065796,-0.071015015,0.212351933,0.862959504
9.093809,57.404769897,3.517898560,41.984359741,-0.072113648,0.216868535,0.862471223
9.107848,46.761764526,2.632888794,40.389816284,-0.060394898,0.248362675,0.858442903
9.108639,45.914901733,2.594741821,40.351669312,-0.062103882,0.246287480,0.862715364
9.109266,45.525802612,2.571853638,40.283004761,-0.061005250,0.245310917,0.860273957
9.109891,45.159591675,2.610000610,40.092269897,-0.064057007,0.244212285,0.858320832
9.110516,44.381393433,2.602371216,39.970199585,-0.065888062,0.244700566,0.860396028
9.111143,43.908370972,2.701553345,39.848129272,-0.066254273,0.245799199,0.861250520
9.111768,43.465866089,2.739700317,39.535324097,-0.066132203,0.247019902,0.857954621
9.112394,42.863143921,2.610000610,39.550582886,-0.068573609,0.246165410,0.856367707
9.113019,42.329086304,2.434524536,39.054672241,-0.071625367,0.245921269,0.853560090
9.113645,41.962875366,2.457412720,39.184371948,-0.072724000,0.245799199,0.856367707
9.114272,41.489852905,2.465042114,39.001266479,-0.073822632,0.245066777,0.851484895
9.114898,41.322006226,2.297195435,38.688461304,-0.074799195,0.247874394,0.852461457
9.115523,40.841354370,2.205642700,38.543502808,-0.076141968,0.241770878,0.854536653
9.116150,41.001571655,2.190383911,37.803451538,-0.069183961,0.228343144,0.854048371
9.116776,41.207565308,1.976760864,37.406723022,-0.065277711,0.216136113,0.850264192
9.117401,41.749252319,1.824172974,36.895553589,-0.063690796,0.222117558,0.844648957
9.118028,42.367233276,1.358779907,36.269943237,-0.063690796,0.231272832,0.838301301
9.118654,42.954696655,0.946792603,35.674850464,-0.061127320,0.242259160,0.822554231
9.119279,43.565048218,0.450881958,34.972946167,-0.060639039,0.255320668,0.805220246
9.119904,44.541610718,-0.266281128,34.301559448,-0.060761109,0.258250356,0.796431184
9.120531,46.014083862,-0.746932983,33.279220581,-0.047699586,0.266062856,0.782515168
9.121157,47.646774292,-1.708236694,31.684677124,-0.045746461,0.307932973,0.774336457
9.121782,48.569931030,-2.768722534,30.410568237,-0.035492554,0.361521840,0.747236848
9.122409,48.844589233,-3.859725952,29.273788452,-0.029144898,0.401438832,0.706465364
9.123035,49.248947144,-5.454269409,27.786056519,-0.028778687,0.443919301,0.685103059
9.123660,49.752487183,-6.858078003,26.237289429,-0.039398804,0.489451528,0.643110871
9.124285,50.240768433,-8.467880249,24.284164429,-0.053925171,0.520945668,0.586836457
9.124910,50.668014526,-9.803024292,22.331039429,-0.078583375,0.538035512,0.537642121
9.125537,51.667465210,-11.145797729,20.087997437,-0.116425171,0.547434926,0.508589387
9.126162,52.857650757,-12.183395386,17.486373901,-0.141815796,0.550364614,0.491621614
9.127952,55.260910034,-14.647689819,12.252609253,-0.159882203,0.577830434,0.465254426
9.128577,55.894149780,-15.952316284,10.207931519,-0.139984742,0.603098989,0.485273957
9.129203,55.444015503,-17.050949097,8.270065308,-0.115326539,0.644236684,0.517500520
9.129828,54.276718140,-18.050399780,6.873886108,-0.078583375,0.693797231,0.550337434
9.130454,51.545394897,-18.508163452,5.721847534,-0.050140992,0.737254262,0.582319856
9.131079,47.135604858,-17.943588257,5.042831421,-0.024262086,0.769847035,0.605147004
9.131706,41.772140503,-17.150131226,4.279891968,-0.006928101,0.807810903,0.638472199
9.132332,32.807601929,-14.525619507,3.341476440,0.060576782,0.919505239,0.776533723
9.132958,19.913925171,-9.627548218,2.433578491,0.091948852,0.956370473,0.867964387
9.133584,8.134140015,-6.385055542,1.273910522,0.022612914,0.902659535,0.818159699
9.134209,0.954879761,-7.285324097,1.594345093,-0.115814820,0.787425160,0.708296418
9.134836,-1.921401978,-10.909286499,2.143661499,-0.243500367,0.646678090,0.599897981
9.135463,-2.165542603,-16.394821167,1.800338745,-0.322113633,0.535960317,0.523115754
9.136090,-2.196060181,-21.086898804,0.129501343,-0.352753282,0.525950551,0.487959504
9.136715,-3.828750610,-23.673263550,-2.281387329,-0.290619493,0.553660512,0.449751496
9.137342,-6.201492310,-24.581161499,-5.096633911,-0.197113648,0.564402699,0.400313020
9.137968,-8.757339478,-24.069992065,-7.019241333,-0.109100953,0.567698598,0.370894074
9.138593,-10.939346313,-23.070541382,-7.545669556,-0.065765992,0.525096059,0.375776887
9.139220,-12.419448853,-22.460189819,-7.682998657,-0.075409546,0.456370473,0.385786653
9.153176,14.214767456,-58.844772339,-9.178359985,-0.022919312,0.239695683,0.650801301
9.153915,15.717758179,-58.127609253,-9.605606079,0.003081664,0.318308949,0.715864778
9.154540,12.849105835,-55.548873901,-9.926040649,0.074981079,0.482005239,0.890303254
9.155165,5.852951050,-51.253524780,-11.123855591,0.107573852,0.553172231,1.008223176
9.155790,-0.548110962,-48.697677612,-11.162002563,0.056060180,0.535716176,1.037520051
9.156417,-4.065261841,-49.109664917,-10.727127075,-0.059052125,0.469798207,1.018110871
9.157043,-4.919754028,-52.306381226,-10.200698853,-0.174042359,0.399241567,0.991377473
9.157670,-4.851089478,-56.571212769,-10.238845825,-0.229706421,0.372508168,0.980391145
9.158295,-4.988418579,-60.012069702,-11.665542603,-0.191620484,0.396556020,0.985640168
9.158921,-5.919204712,-61.583724976,-12.916763306,-0.073090211,0.430979848,0.990156770
9.159547,-7.460342407,-61.072555542,-13.405044556,0.048369750,0.444285512,0.990889192
9.160174,-9.344802856,-59.119430542,-13.702590942,0.115142211,0.421946645,0.996504426
9.160799,-11.267410278,-56.220260620,-13.397415161,0.126738891,0.374705434,0.988325715
9.161424,-12.274490356,-53.343978882,-13.702590942,0.100371704,0.324046254,0.972944856
9.162049,-12.526260376,-51.169601440,-13.565261841,0.063506469,0.285227895,0.963057160
9.162675,-12.045608521,-49.452987671,-13.733108521,0.032866821,0.267283559,0.977461457
9.163300,-11.610733032,-48.331466675,-13.618667603,0.017974243,0.262766957,0.999556184
9.163926,-11.458145142,-47.591415405,-13.405044556,0.016021118,0.272166371,1.027022004
9.164553,-11.336074829,-47.377792358,-13.015945435,0.020537719,0.281443715,1.052778840
9.165180,-11.725173950,-47.095504761,-12.703140259,0.015166625,0.291575551,1.073408723
9.165806,-12.343154907,-47.003952026,-12.176712036,0.009551391,0.292796254,1.079634309
9.166431,-13.037429810,-46.843734741,-11.909683228,-0.002899781,0.282664418,1.070845246
9.167057,-13.319717407,-46.805587769,-11.467178345,-0.011810914,0.264231801,1.047041535
9.167682,-12.968765259,-46.851364136,-11.436660767,-0.019623414,0.233836308,1.014692903
9.168307,-11.992202759,-46.927658081,-11.116226196,-0.020233765,0.200633183,0.991255403
9.168933,-11.091934204,-46.935287476,-10.902603149,-0.014496461,0.170848027,0.970625520
9.169558,-9.955154419,-46.736923218,-10.742385864,-0.000458375,0.150462285,0.957808137
9.170185,-8.146987915,-46.248641968,-10.193069458,0.018340454,0.137889042,0.943770051
9.170812,-6.705032349,-45.607772827,-9.140213013,0.043120727,0.122386113,0.924360871
9.171437,-5.430923462,-44.448104858,-8.377273560,0.038848266,0.107005253,0.894697785
9.173224,-3.264175415,-43.059555054,-5.539138794,-0.035736695,0.079905644,0.937300324
9.173849,-1.448379517,-43.662277222,-4.837234497,-0.069672242,0.077220097,0.944624543
9.174474,0.146163940,-44.867721558,-3.944595337,-0.097138062,0.084056035,0.953657746
9.175099,1.664413452,-46.569076538,-3.364761353,-0.115326539,0.099558964,0.953535676
9.175724,3.091110229,-48.575607300,-2.655227661,-0.118500367,0.117381230,0.927778840
9.176350,4.006637573,-50.223556519,-1.793106079,-0.113983765,0.128855839,0.886885285
9.176976,4.601730347,-51.276412964,-1.053054810,-0.109955445,0.136057988,0.850020051
9.177602,4.647506714,-52.230087280,-0.412185669,-0.105682984,0.133616582,0.819990754
9.178227,4.807723999,-52.550521851,0.137130737,-0.106171265,0.118235722,0.796553254
9.178852,5.296005249,-52.344528198,0.953475952,-0.106171265,0.107127324,0.777754426
9.179478,5.707992554,-52.779403687,1.518051147,-0.111786500,0.087962285,0.758711457
9.180104,6.692184448,-52.977767944,2.334396362,-0.118622437,0.070872441,0.749067903
9.180729,7.989181519,-53.458419800,3.166000366,-0.130707398,0.057810914,0.740278840
9.181354,9.125961304,-53.977218628,4.226486206,-0.146698609,0.057688843,0.720259309
9.181980,9.782089233,-54.755416870,5.172531128,-0.156098023,0.064158574,0.699019074
9.182606,10.316146851,-55.403915405,6.553451538,-0.160004273,0.060740601,0.686201692
9.183233,10.972274780,-56.365219116,7.674972534,-0.170136109,0.066111699,0.673262239
9.198378,17.663253784,-87.020126343,31.936447144,-0.083344117,0.072581425,0.529219270
9.199172,19.624008179,-89.110580444,33.500473022,-0.075897828,0.092967167,0.529707551
9.199797,20.890487671,-90.392318726,33.736984253,-0.072235718,0.107127324,0.538496614
9.200422,22.057785034,-91.536727905,34.118453979,-0.067963257,0.123484746,0.546309114
9.201047,23.080123901,-92.566696167,34.919540405,-0.062225953,0.132884160,0.556807160
9.201672,24.071945190,-94.039169312,35.239974976,-0.057953492,0.150584355,0.565352082
9.202298,24.842514038,-95.450607300,35.674850464,-0.050263062,0.157786503,0.576338410
9.202924,25.643600464,-96.320358276,36.224166870,-0.039887086,0.173045292,0.592695832
9.203549,26.200546265,-97.342697144,36.727706909,-0.023529664,0.200877324,0.628218293
9.204175,25.285018921,-97.670761108,37.109176636,-0.003754273,0.225535527,0.675215364
9.204800,23.865951538,-97.693649292,37.475387573,0.009917602,0.231883183,0.697310090
9.205425,23.247970581,-98.174301147,38.192550659,-0.000336304,0.223460332,0.705977082
9.206050,23.133529663,-99.593368530,39.192001343,-0.024750367,0.209788457,0.705000520
9.206676,23.385299683,-101.195541382,39.634506226,-0.045136109,0.201121464,0.703047395
9.207302,24.262680054,-102.767196655,40.199081421,-0.047211304,0.199534550,0.702192903
9.207927,24.575485229,-104.262557983,40.321151733,-0.035004273,0.209056035,0.715010285
9.208552,25.056137085,-105.139938354,40.626327515,0.003081664,0.220286503,0.726606965
9.209177,25.040878296,-105.284896851,40.962020874,0.030425414,0.224070683,0.736006379
9.209803,25.010360718,-105.643478394,41.610519409,0.052520141,0.223826542,0.744185090
9.210429,25.178207397,-105.582443237,42.335311890,0.057158813,0.222849980,0.756270051
9.211055,25.269760132,-105.422225952,43.113510132,0.054473266,0.221751347,0.762739778
9.211681,25.590194702,-105.330673218,43.525497437,0.045562133,0.228587285,0.776045442
9.212306,25.841964722,-105.620590210,43.845932007,0.041411743,0.241892949,0.796064973
9.212933,26.063217163,-105.582443237,43.929855347,0.044951782,0.259837270,0.818892121
9.213559,26.444686890,-105.597702026,44.540206909,0.058135375,0.283640981,0.850752473
9.214184,26.551498413,-105.933395386,44.669906616,0.066069946,0.306712270,0.884565949
9.214810,26.299728394,-105.788436890,44.898788452,0.073638305,0.329783559,0.923750520
9.215437,26.032699585,-105.750289917,45.005599976,0.081206664,0.349681020,0.952803254
9.216062,25.674118042,-105.727401733,45.181076050,0.086577758,0.362132192,0.981733918
9.216687,25.300277710,-105.597702026,45.127670288,0.086943969,0.371287465,1.005537629
9.218507,23.934616089,-104.666915894,45.417587280,0.093779907,0.359934926,1.081709504
9.219134,23.133529663,-104.369369507,45.501510620,0.104522094,0.346018910,1.108931184
9.219761,22.454513550,-103.774276733,45.997421265,0.128936157,0.336985707,1.136030793
9.220386,22.172225952,-102.881637573,45.974533081,0.163115844,0.343577504,1.159102082
9.221013,22.073043823,-101.866928101,46.073715210,0.204131469,0.370188832,1.172896028
9.221638,22.309555054,-100.196090698,45.875350952,0.240874633,0.417796254,1.193647981
9.222264,21.600021362,-98.067489624,45.593063354,0.266021132,0.486277699,1.237349153
9.222890,19.990219116,-95.336166382,45.280258179,0.279204726,0.529368520,1.287642121
9.223517,17.556442261,-92.505661011,44.997970581,0.276885390,0.556223989,1.339155793
9.224144,15.145553589,-89.644638062,44.463912964,0.254058242,0.559641957,1.399702668
9.224770,13.230575562,-87.355819702,43.945114136,0.222197875,0.543284535,1.455366731
9.225396,11.956466675,-85.532394409,43.464462280,0.186797485,0.536326528,1.496260285
9.226023,10.972274780,-84.418502808,42.625228882,0.166411743,0.535472035,1.501143098
9.226650,10.079635620,-83.296981812,41.869918823,0.165068969,0.533640981,1.488081574
9.227276,9.568466187,-82.221237183,40.939132690,0.174834594,0.534861684,1.478438020
9.227902,9.164108276,-79.634872437,40.084640503,0.203154907,0.531687856,1.470381379
9.228528,8.744491577,-76.811996460,38.764755249,0.222197875,0.522654653,1.461714387
9.229153,8.897079468,-73.683944702,37.551681519,0.233794555,0.513743520,1.462324739
9.243256,28.054489136,-24.626937866,0.442306519,0.277984023,0.707347035,1.620527864
9.243988,28.443588257,-22.849288940,-1.877029419,0.271880507,0.713938832,1.612105012
9.244614,29.084457397,-21.056381226,-3.685195923,0.265776992,0.733592153,1.627119660
9.245240,29.877914429,-19.538131714,-5.447586060,0.274443984,0.726634145,1.638350129
9.245865,29.969467163,-17.760482788,-7.698257446,0.273711562,0.733958364,1.641035676
9.246491,30.175460815,-16.074386597,-9.567459106,0.276885390,0.742137074,1.628828645
9.247116,29.969467163,-14.220443726,-11.169631958,0.284942031,0.746653676,1.612227082
9.247742,29.992355347,-12.290206909,-13.176162720,0.288115859,0.752146840,1.599287629
9.248368,29.793991089,-7.773605347,-16.952713013,0.288726211,0.761180043,1.572310090
9.248993,29.412521362,-5.301681519,-18.852432251,0.287871718,0.761546254,1.564619660
9.249619,29.382003784,-3.218856812,-20.988662720,0.276763320,0.756907582,1.545576692
9.250246,29.046310425,-1.029220581,-22.514541626,0.268950820,0.752268910,1.530806184
9.250872,28.870834351,0.801834106,-24.330337524,0.260650039,0.755320668,1.516279817
9.251497,28.016342163,2.587112427,-26.222427368,0.254302382,0.760203481,1.499800324
9.252122,27.375473022,4.517349243,-28.038223267,0.252349257,0.752390981,1.479048371
9.252747,26.971115112,6.020339966,-29.640396118,0.246611938,0.751048207,1.459395051
9.253373,26.704086304,7.744583130,-31.341751099,0.240264282,0.746043324,1.437300324
9.253999,25.902999878,9.339126587,-33.073623657,0.235869750,0.739695668,1.412642121
9.254624,25.216354370,10.727676392,-34.454544067,0.230010375,0.729563832,1.381025910
9.255250,24.544967651,12.451919556,-36.277969360,0.222808227,0.718943715,1.353682160
9.255876,24.239791870,13.817581177,-37.643630981,0.210967407,0.716258168,1.325605989
9.256502,23.560775757,15.267166138,-39.184768677,0.205108032,0.709056020,1.293501496
9.257128,22.729171753,16.724380493,-40.420730591,0.198760375,0.705393910,1.271895051
9.257754,21.706832886,18.646987915,-41.893203735,0.184966430,0.694895864,1.249434114
9.258381,21.355880737,19.654067993,-43.190200806,0.168242797,0.677928090,1.222090364
9.259012,20.333541870,20.966323853,-44.784744263,0.147979125,0.664988637,1.197920442
9.259639,19.624008179,21.981033325,-45.906265259,0.126616821,0.655345082,1.179487824
9.268194,10.056747437,22.446426392,-59.921463013,-0.020477906,0.521922231,0.841108918
9.268819,9.812606812,21.950515747,-60.882766724,-0.030243531,0.505076528,0.827559114
9.269446,9.034408569,21.218093872,-61.615188599,-0.042450562,0.490916371,0.809614778
9.270072,8.485092163,20.340713501,-62.362869263,-0.049896851,0.469676137,0.798750520
9.270697,8.042587280,19.669326782,-62.767227173,-0.060761109,0.451487660,0.789473176
9.271322,7.272018433,18.669876099,-63.217361450,-0.073090211,0.427073598,0.772871614
9.271947,5.990280151,17.914566040,-63.057144165,-0.087738648,0.398875356,0.763960481
9.272573,5.044235229,17.029556274,-63.446243286,-0.091644898,0.362132192,0.757368684
9.273200,4.090560913,16.175064087,-63.163955688,-0.097748414,0.321116567,0.753828645
9.273825,3.007186890,15.389236450,-62.759597778,-0.097260132,0.286082387,0.754805207
9.274451,2.099288940,14.305862427,-62.469680786,-0.086151734,0.257273793,0.756758332
9.275078,1.267684937,13.527664185,-61.912734985,-0.066498414,0.232249394,0.760542512
9.275703,0.840438843,13.336929321,-61.172683716,-0.047089234,0.218333378,0.767866731
9.276330,0.260604858,12.848648071,-60.547073364,-0.032196656,0.206248417,0.772017121
9.276957,-0.426040649,12.566360474,-59.601028442,-0.022308961,0.197581425,0.773481965
9.277583,-1.143203735,12.429031372,-58.815200806,-0.014496461,0.188182011,0.784102082
9.278209,-1.593338013,12.299331665,-58.235366821,-0.014008179,0.182322636,0.792280793
9.278836,-2.058731079,12.139114380,-57.434280396,-0.016815796,0.186595097,0.797163606
9.279461,-2.417312622,11.704238892,-57.029922485,-0.009247437,0.185130253,0.806685090
9.280087,-2.585159302,11.444839478,-56.472976685,-0.004242554,0.190135136,0.821333528
9.280713,-2.661453247,10.712417603,-56.244094849,0.004546508,0.200144902,0.832808137
9.294789,-3.615127563,15.305313110,-44.975479126,0.159209594,0.141917363,1.104292512
9.295579,-3.531204224,15.984329224,-44.296463013,0.161406860,0.139109746,1.099531770
9.296204,-3.470169067,16.587051392,-43.205459595,0.159453735,0.130808964,1.101851106
9.296830,-3.409133911,17.380508423,-42.061050415,0.150664672,0.122874394,1.099043489
9.297455,-3.042922974,17.708572388,-40.809829712,0.144317016,0.113352910,1.101606965
9.298081,-3.126846313,18.654617310,-39.657791138,0.138945922,0.100047246,1.102461457
9.298707,-2.753005981,19.097122192,-38.513381958,0.132598266,0.094432011,1.105513215
9.299332,-2.272354126,19.478591919,-37.277420044,0.122344360,0.090159550,1.099775910
9.299957,-1.883255005,19.882949829,-36.010940552,0.118926391,0.087229863,1.100020051
9.300582,-1.486526489,20.401748657,-34.622390747,0.111235961,0.087351933,1.100020051
9.301208,-1.028762817,20.890029907,-33.439834595,0.101226196,0.090037480,1.098433137
9.301833,-0.357376099,21.103652954,-32.013137817,0.092681274,0.092356816,1.093306184
9.302459,0.062240601,21.523269653,-30.784805298,0.083892211,0.091746464,1.087568879
9.303086,0.581039429,21.759780884,-29.541213989,0.072051391,0.090891972,1.080977082
9.303712,1.115097046,22.095474243,-28.259475708,0.060332641,0.087351933,1.077559114
9.304337,1.954330444,22.476943970,-27.229507446,0.050567016,0.078318730,1.066938996
9.305029,2.511276245,22.530349731,-25.848587036,0.037749633,0.073435917,1.060957551
9.305654,3.182662964,22.690567017,-24.543960571,0.023711547,0.066844121,1.059370637
9.306280,4.243148804,22.896560669,-23.506362915,0.012236938,0.055003297,1.054976106
9.306921,5.418075562,22.942337036,-22.194107056,-0.000702515,0.042063843,1.052778840
9.307546,6.188644409,23.117813110,-20.904739380,-0.005707398,0.032542359,1.048994660
9.308171,7.149948120,23.209365845,-19.668777466,-0.014862671,0.024974000,1.039106965
9.308798,8.561386108,23.255142212,-18.333633423,-0.022553101,0.019602906,1.035078645
9.309423,9.850753784,23.346694946,-16.823013306,-0.024750367,0.020213258,1.030073762
9.310048,11.033309937,23.453506470,-15.556533813,-0.033905640,0.020701539,1.024824739
9.310673,12.208236694,23.728164673,-14.114578247,-0.048187867,0.029246461,1.017378449
9.311300,13.367904663,23.796829224,-12.878616333,-0.060150757,0.025340211,1.010420442
9.311925,14.489425659,23.888381958,-11.596878052,-0.078827515,0.010081422,1.002730012
9.312551,15.527023315,23.407730103,-10.132034302,-0.092621461,0.014109742,0.995039582
9.313177,16.732467651,23.247512817,-8.903701782,-0.091034546,0.013987672,0.991621614
9.314974,19.456161499,22.843154907,-5.203445435,-0.114960328,0.028514039,0.977461457
9.315600,20.539535522,22.682937622,-4.074295044,-0.127289429,0.023875367,0.966475129
9.316226,21.760238647,22.072586060,-2.906997681,-0.136444703,0.019969117,0.961348176
9.316852,22.912277222,21.660598755,-1.602371216,-0.141693726,0.026316773,0.957808137
9.317479,23.896469116,20.966323853,-0.763137817,-0.143768921,0.037913453,0.954390168
9.318106,25.109542847,20.523818970,0.449935913,-0.143036500,0.052683961,0.948286653
9.318733,25.979293823,20.333084106,1.571456909,-0.144501343,0.058543336,0.937666535
9.319358,26.780380249,19.699844360,2.906600952,-0.153168336,0.058787476,0.931685090
9.319985,27.657760620,19.432815552,3.715316772,-0.153534546,0.055247437,0.929854035
9.320612,28.428329468,19.211563110,4.524032593,-0.155609742,0.054759156,0.926436067
9.321238,28.985275269,18.776687622,5.454818726,-0.157562867,0.059153687,0.925947785
9.321863,29.824508667,18.402847290,6.576339722,-0.158051148,0.061228883,0.923872590
9.322488,30.610336304,17.800125122,7.446090698,-0.157684937,0.062205445,0.927290559
9.323113,31.518234253,17.464431763,8.636276245,-0.157929078,0.064402714,0.926191926
9.323738,32.227767944,16.823562622,9.788314819,-0.162811890,0.062815800,0.928877473
9.324364,32.929672241,16.472610474,10.497848511,-0.167206421,0.063914433,0.927046418
9.324989,33.425582886,16.159805298,11.642257690,-0.165985718,0.056468140,0.921919465
9.325615,34.142745972,15.564712524,12.878219604,-0.163910523,0.046458375,0.921064973
9.339586,42.886032104,15.778335571,37.109176636,-0.031342164,0.230296269,1.180830598
9.340355,41.955245972,16.182693481,37.849227905,-0.034882203,0.246043339,1.199141145
9.340980,41.116012573,16.381057739,38.680831909,-0.027924195,0.243357792,1.211104035
9.341607,40.887130737,16.907485962,39.016525269,-0.020599976,0.252513051,1.216353059
9.342233,40.520919800,17.479690552,39.512435913,-0.019623414,0.280100942,1.227583528
9.342860,39.757980347,17.624649048,40.061752319,-0.013519898,0.290721059,1.229536653
9.343487,38.979782104,18.387588501,40.374557495,0.003081664,0.273631215,1.218916535
9.344112,38.926376343,19.226821899,40.435592651,0.021026000,0.262522817,1.224043489
9.344739,39.147628784,20.355972290,40.626327515,0.028716430,0.278269887,1.232588410
9.345365,39.475692749,21.164688110,40.824691772,0.034331664,0.294383168,1.221480012
9.345991,39.658798218,21.858963013,40.847579956,0.038237914,0.318675160,1.206953645
9.346618,39.979232788,22.721084595,40.794174194,0.028472289,0.332102895,1.192427278
9.347243,40.818466187,23.476394653,40.260116577,0.032988891,0.334544301,1.189619660
