time,gyro x,gyro y,gyro z,accel x,accel y,accel z
26.020371,-1.974807739,-2.753463745,6.095687866,-0.205536500,0.085765019,1.034590364
26.021147,-2.386795044,-3.020492554,6.355087280,-0.205780640,0.089793339,1.033247590
26.021773,-3.065811157,-3.195968628,6.553451538,-0.204193726,0.089427128,1.033613801
26.022399,-3.386245728,-3.462997437,6.622116089,-0.202118531,0.089915410,1.031416535
26.023026,-3.988967896,-3.592697144,6.568710327,-0.199677125,0.093089238,1.038008332
26.023653,-4.507766724,-4.126754761,6.843368530,-0.198456421,0.095164433,1.039351106
26.024279,-4.645095825,-4.233566284,6.843368530,-0.199921265,0.095652714,1.039229035
26.024904,-5.186782837,-4.660812378,6.866256714,-0.197601929,0.098338261,1.041914582
26.025529,-5.606399536,-4.706588745,7.224838257,-0.194794312,0.098216191,1.045820832
26.026156,-5.797134399,-4.752365112,7.194320679,-0.193329468,0.100169316,1.046797395
26.026781,-6.132827759,-5.049911499,7.438461304,-0.192597046,0.100901738,1.047285676
26.027406,-6.506668091,-5.187240601,7.560531616,-0.191376343,0.104319707,1.048262239
26.028032,-6.842361450,-5.393234253,7.476608276,-0.186249390,0.106272832,1.056807160
26.028657,-6.888137817,-5.492416382,7.690231323,-0.184296265,0.106516972,1.056318879
26.029284,-7.300125122,-5.782333374,7.629196167,-0.183685914,0.106150761,1.059370637
26.029909,-7.452713013,-6.118026733,7.644454956,-0.179901734,0.111033574,1.066084504
26.030536,-7.643447876,-5.843368530,7.812301636,-0.180145875,0.112132207,1.069258332
26.031161,-7.727371216,-6.224838257,7.758895874,-0.178681031,0.113963261,1.073042512
26.031787,-7.902847290,-6.247726440,7.949630737,-0.172089234,0.116770878,1.075605989
26.032414,-7.864700317,-6.453720093,7.812301636,-0.170746461,0.115428105,1.080000520
26.033039,-7.857070923,-6.453720093,8.109848022,-0.169281617,0.118235722,1.086348176
26.033664,-8.009658813,-6.285873413,7.850448608,-0.160492554,0.122752324,1.087080598
26.034290,-8.078323364,-6.346908569,7.934371948,-0.160126343,0.122630253,1.096113801
26.034917,-8.200393677,-6.392684937,7.911483765,-0.158295289,0.124461308,1.099775910
26.035543,-8.314834595,-6.430831909,8.117477417,-0.156830445,0.126902714,1.105879426
26.036168,-8.154617310,-6.255355835,7.980148315,-0.156098023,0.127513066,1.109297395
26.036795,-8.291946411,-6.308761597,8.010665894,-0.153046265,0.128367558,1.111372590
26.037420,-7.895217896,-6.316390991,7.934371948,-0.152313843,0.132884160,1.115278840
26.038045,-8.192764282,-6.049362183,7.911483765,-0.149994507,0.132029667,1.122236848
26.038671,-8.185134888,-5.942550659,8.201400757,-0.148651734,0.137766972,1.123457551
26.064533,-5.728469849,1.938613892,2.021591187,-0.123993531,0.210642949,1.145552278
26.066575,-6.125198364,2.388748169,1.243392944,-0.127533570,0.209178105,1.147261262
26.067200,-6.239639282,2.556594849,1.205245972,-0.127411500,0.209056035,1.147017121
26.067826,-6.201492310,2.762588501,1.075546265,-0.132050171,0.205760136,1.146772981
26.068452,-6.544815063,2.915176392,0.747482300,-0.129974976,0.205393925,1.150313020
26.069079,-6.720291138,2.854141235,0.732223511,-0.131806031,0.202464238,1.152022004
26.069705,-7.055984497,3.365310669,0.350753784,-0.132294312,0.200266972,1.153120637
26.070332,-7.323013306,3.304275513,0.182907104,-0.135834351,0.199656621,1.151167512
26.070958,-7.490859985,3.433975220,0.205795288,-0.135712281,0.196849003,1.151777864
26.071585,-7.673965454,3.784927368,-0.000198364,-0.140350953,0.193308964,1.153608918
26.072211,-8.208023071,4.112991333,-0.175674438,-0.141693726,0.191233769,1.151533723
26.072836,-8.139358521,4.296096802,-0.557144165,-0.145477906,0.188182011,1.154097199
26.073462,-8.551345825,4.380020142,-0.374038696,-0.145722046,0.186595097,1.151533723
26.074088,-8.787857056,4.723342896,-0.580032349,-0.146210328,0.183055058,1.151045442
26.074713,-8.787857056,4.730972290,-0.969131470,-0.150482789,0.180735722,1.151655793
26.075340,-8.970962524,5.074295044,-1.114089966,-0.156830445,0.173655644,1.151655793
26.075966,-9.093032837,5.333694458,-1.274307251,-0.160248414,0.175730839,1.149092317
26.076591,-9.283767700,5.539688110,-1.251419067,-0.159760132,0.168284550,1.148115754
26.096434,-2.470718384,7.820877075,-4.516799927,-0.202362671,0.040965211,1.085737824
26.097192,-2.081619263,7.729324341,-4.387100220,-0.202362671,0.043894898,1.083906770
26.097817,-1.730667114,7.881912231,-4.432876587,-0.207611695,0.045603883,1.082686067
26.098533,-1.143203735,7.797988892,-4.715164185,-0.212006226,0.046458375,1.079146028
26.099158,-0.921951294,7.775100708,-4.883010864,-0.218720093,0.047679078,1.075483918
26.099783,-0.212417603,7.553848267,-4.799087524,-0.218842164,0.047312867,1.075605989
26.100409,-0.006423950,7.271560669,-4.989822388,-0.214203492,0.045725953,1.077437043
26.101034,0.245346069,6.920608521,-4.806716919,-0.209564820,0.035594117,1.077437043
26.101660,0.291122437,6.943496704,-4.829605103,-0.198090211,0.021433961,1.082075715
26.102285,0.306381226,6.508621216,-4.738052368,-0.188324586,0.014109742,1.086470246
26.102911,0.680221558,6.439956665,-4.585464478,-0.183563843,0.005442750,1.088545442
26.103538,0.886215210,6.783279419,-4.570205688,-0.178681031,0.000071656,1.087935090
26.104164,0.939620972,6.699356079,-4.478652954,-0.174042359,-0.004322875,1.090132356
26.104789,1.076950073,6.790908813,-4.226882935,-0.180145875,-0.009205688,1.090010285
26.105415,1.099838257,7.225784302,-4.142959595,-0.181122437,-0.011525024,1.083418489
26.106040,1.130355835,7.149490356,-3.891189575,-0.189789429,-0.010792602,1.084639192
26.106666,1.092208862,7.157119751,-3.883560181,-0.195770875,-0.017018188,1.081709504
26.107293,1.054061890,7.302078247,-3.792007446,-0.202728882,-0.017384399,1.077925324
26.107918,1.122726440,7.118972778,-3.708084106,-0.208588257,-0.017994750,1.080000520
26.108545,1.572860718,7.019790649,-3.433425903,-0.212372437,-0.021534789,1.079512239
26.109171,1.969589233,7.004531860,-3.509719849,-0.219696656,-0.019215453,1.080244660
26.109797,2.022994995,6.577285767,-3.273208618,-0.218964234,-0.023487914,1.077681184
26.110422,2.274765015,6.417068481,-3.021438599,-0.221649781,-0.022877563,1.075605989
26.111048,2.488388062,5.959304810,-3.189285278,-0.219696656,-0.025318969,1.073774934
26.111673,2.839340210,5.974563599,-3.463943481,-0.216400757,-0.033009399,1.071699739
26.112298,2.816452026,5.875381470,-3.036697388,-0.213837281,-0.038136352,1.075850129
26.112923,3.167404175,5.471023560,-2.731521606,-0.208344117,-0.044117797,1.075728059
26.113549,3.388656616,5.623611450,-2.945144653,-0.204437867,-0.050221313,1.077314973
26.114174,3.678573608,5.577835083,-2.403457642,-0.198212281,-0.053273071,1.074263215
26.114801,3.937973022,5.547317505,-2.426345825,-0.194794312,-0.054859985,1.075361848
26.116600,4.472030640,5.348953247,-1.671035767,-0.187348023,-0.054493774,1.072920442
26.117225,4.868759155,5.318435669,-1.541336060,-0.183075562,-0.054493774,1.071211457
26.117850,4.983200073,5.219253540,-1.182754517,-0.178803101,-0.049488891,1.067061067
26.118475,5.486740112,5.127700806,-1.068313599,-0.179901734,-0.045704711,1.067427278
26.119101,5.585922241,5.120071411,-0.908096313,-0.177460328,-0.047291625,1.067793489
26.119728,5.845321655,5.043777466,-0.847061157,-0.171112671,-0.046559203,1.067183137
26.120353,6.104721069,4.944595337,-0.671585083,-0.165619507,-0.043141235,1.066328645
26.120979,6.142868042,5.020889282,-0.419815063,-0.161469117,-0.040699828,1.067305207
26.121604,6.325973511,5.081924438,-0.000198364,-0.157929078,-0.038990844,1.071333528
26.122229,6.455673218,4.921707153,0.190536499,-0.152435914,-0.039479125,1.071821809
26.122854,6.196273804,5.104812622,0.381271362,-0.150360718,-0.037892211,1.074629426
26.123480,6.097091675,5.280288696,0.610153198,-0.149140015,-0.035572875,1.080244660
26.124105,5.952133179,5.379470825,0.648300171,-0.145599976,-0.033497680,1.078535676
26.124731,5.501998901,5.333694458,1.006881714,-0.142426148,-0.030690063,1.083662629
26.125356,5.135787964,5.371841431,1.243392944,-0.143768921,-0.027272094,1.087568879
26.125982,4.845870972,5.585464478,1.449386597,-0.141205445,-0.021901000,1.087935090
26.126608,4.441513062,5.585464478,1.685897827,-0.144745484,-0.021290649,1.088179231
26.127233,3.976119995,5.585464478,1.861373901,-0.147308961,-0.014576782,1.088179231
26.141506,-10.946975708,6.340774536,6.812850952,-0.095673218,0.025462281,1.063154817
26.142270,-11.297927856,6.310256958,7.072250366,-0.093475953,0.023997437,1.058516145
26.142895,-11.839614868,6.172927856,6.751815796,-0.093720093,0.027781617,1.062666535
26.143520,-12.190567017,6.371292114,7.102767944,-0.092011109,0.023753297,1.058638215
26.144146,-12.518630981,6.188186646,7.331649780,-0.090057984,0.026805054,1.059858918
26.144771,-12.816177368,6.211074829,7.423202515,-0.089935914,0.029002320,1.059126496
26.145396,-13.144241333,6.134780884,7.453720093,-0.088471070,0.028880250,1.063032746
26.146022,-13.342605591,5.814346313,7.713119507,-0.085663453,0.029612672,1.063032746
26.146648,-13.632522583,6.035598755,7.774154663,-0.084076539,0.027659547,1.060347199
26.147274,-13.876663208,5.844863892,7.873336792,-0.081635132,0.029734742,1.063032746
26.147899,-14.006362915,5.730422974,8.140365601,-0.083344117,0.027171265,1.062422395
26.148525,-14.258132935,5.829605103,8.071701050,-0.078827515,0.029124390,1.064131379
26.149151,-14.120803833,5.699905396,8.300582886,-0.085175171,0.029246461,1.060957551
26.149777,-14.250503540,5.615982056,8.384506226,-0.080170289,0.030100953,1.066572785
26.150402,-14.441238403,5.707534790,8.346359253,-0.077606812,0.033274781,1.064741731
26.151028,-14.296279907,5.600723267,8.651535034,-0.074188843,0.031932008,1.067183137
26.151654,-14.471755981,5.425247192,8.781234741,-0.072113648,0.030955445,1.069746614
26.152279,-14.326797485,5.715164185,8.628646851,-0.069306031,0.030711304,1.068403840
26.152906,-14.319168091,5.577835083,8.933822632,-0.067474976,0.033152711,1.067671418
26.153531,-14.258132935,5.455764771,8.811752319,-0.066864625,0.033152711,1.069258332
26.154156,-14.158950806,5.409988403,9.177963257,-0.066010132,0.030589234,1.070479035
26.154781,-13.724075317,5.562576294,9.139816284,-0.064789429,0.032176148,1.068892121
26.155406,-13.769851685,5.409988403,9.177963257,-0.060150757,0.033640992,1.070479035
26.156031,-13.510452271,5.486282349,9.170333862,-0.059418336,0.036570679,1.070356965
26.156658,-13.113723755,5.615982056,9.040634155,-0.060639039,0.033640992,1.072310090
26.157284,-12.991653442,5.646499634,9.307662964,-0.055390015,0.036204468,1.073042512
26.157910,-12.411819458,5.570205688,9.422103882,-0.053925171,0.036692750,1.069258332
26.158536,-12.114273071,5.715164185,9.322921753,-0.054657593,0.035472047,1.070479035
26.159161,-11.824356079,5.776199341,9.406845093,-0.053192750,0.039378297,1.068525910
26.159786,-11.473403931,5.913528442,9.422103882,-0.049164429,0.038035523,1.068159699
26.161607,-10.512100220,5.966934204,9.506027222,-0.046356812,0.041575562,1.065107942
26.162233,-10.023818970,6.180557251,9.612838745,-0.044769898,0.044383179,1.066084504
26.162858,-9.642349243,6.172927856,9.597579956,-0.043549195,0.045481812,1.064131379
26.163484,-9.299026489,6.119522095,9.650985718,-0.042816773,0.046580445,1.064009309
26.164109,-8.993850708,6.356033325,9.475509644,-0.042938843,0.047679078,1.064131379
26.164735,-8.711563110,6.310256958,9.513656616,-0.039154664,0.048777711,1.062666535
26.165362,-8.383499146,6.127151489,9.696762085,-0.044525757,0.049998414,1.060591340
26.165988,-8.116470337,6.401809692,9.712020874,-0.041229859,0.047679078,1.058027864
26.166614,-7.750259399,6.417068481,9.620468140,-0.041107789,0.052073609,1.052900910
26.167241,-7.315383911,6.348403931,9.712020874,-0.040253296,0.051585328,1.053145051
26.167866,-7.071243286,6.317886353,9.628097534,-0.040497437,0.053538453,1.051680207
26.168491,-6.911026001,6.264480591,9.750167847,-0.037689820,0.057688843,1.045820832
26.169116,-6.315933228,6.394180298,9.498397827,-0.037079468,0.055979859,1.046675324
26.169742,-5.995498657,6.203445435,9.635726929,-0.036835328,0.059641968,1.040327668
26.170369,-5.926834106,6.134780884,9.567062378,-0.038300171,0.059031617,1.037520051
26.170996,-5.690322876,6.073745728,9.712020874,-0.039642945,0.060984742,1.036665559
26.171622,-5.568252563,6.066116333,9.551803589,-0.036591187,0.064280644,1.033491731
26.172248,-5.217300415,5.799087524,9.635726929,-0.036102906,0.066233769,1.030928254
26.172875,-5.087600708,5.974563599,9.506027222,-0.035248414,0.067088261,1.029219270
26.186856,0.283493042,1.793655396,8.453170776,-0.044281617,0.072337285,1.004683137
26.187628,0.466598511,1.412185669,8.155624390,-0.042938843,0.069285527,1.004805207
26.188254,0.703109741,1.229080200,7.888595581,-0.043549195,0.069895878,1.003706574
26.188879,0.977767944,1.122268677,8.224288940,-0.043671265,0.070506230,1.000044465
26.189506,1.099838257,0.878128052,8.086959839,-0.044647828,0.069285527,1.003218293
26.190133,1.237167358,0.794204712,7.919113159,-0.045746461,0.070140019,1.004683137
26.190759,1.511825562,0.611099243,7.911483765,-0.043060914,0.066966191,1.001265168
26.191384,1.649154663,0.366958618,7.789413452,-0.047699586,0.068186894,1.004072785
26.192010,1.786483765,0.489028931,7.697860718,-0.045136109,0.071604863,1.003218293
26.192637,1.923812866,0.176223755,7.629196167,-0.047699586,0.067332402,1.002119660
26.193264,2.145065308,-0.060287476,7.606307983,-0.048798218,0.068553105,1.004805207
26.193889,2.221359253,-0.144210815,7.468978882,-0.047455445,0.069773808,1.003218293
26.194514,2.549423218,-0.144210815,7.636825562,-0.050018921,0.067820683,1.003340364
26.195140,2.572311401,-0.319686890,7.461349487,-0.050018921,0.068308964,1.004927278
26.195765,2.724899292,-0.487533569,7.453720093,-0.048798218,0.070140019,1.005659699
26.196391,3.014816284,-0.571456909,7.629196167,-0.050385132,0.069529667,1.003096223
26.197017,2.831710815,-0.724044800,7.491867065,-0.053192750,0.070750371,1.005537629
26.197643,2.991928101,-0.807968140,7.446090698,-0.052948609,0.071360722,1.003828645
26.198269,2.900375366,-0.838485718,7.316390991,-0.054413453,0.074900761,1.005537629
26.198895,3.030075073,-0.991073608,7.468978882,-0.057953492,0.073069707,1.004316926
26.199522,2.976669312,-1.166549683,7.224838257,-0.058930054,0.071482792,1.003340364
26.200149,2.885116577,-1.273361206,7.293502808,-0.062836304,0.074900761,0.999556184
26.200814,2.869857788,-1.433578491,7.308761597,-0.064179078,0.075389042,1.000776887
26.201439,2.793563843,-1.464096069,7.110397339,-0.067108765,0.075755253,0.997969270
26.202065,2.778305054,-1.731124878,7.270614624,-0.067597046,0.076121464,0.996748567
26.202692,2.717269897,-1.868453979,7.118026733,-0.069672242,0.075511113,0.995039582
26.203317,2.671493530,-1.776901245,6.828109741,-0.066742554,0.078196660,0.993452668
26.203943,2.663864136,-2.150741577,7.011215210,-0.066620484,0.077098027,0.994673371
26.204569,2.671493530,-2.242294312,7.194320679,-0.071625367,0.080393925,0.991499543
26.205195,2.457870483,-2.623764038,7.034103394,-0.077973023,0.080760136,0.986494660
26.206965,1.977218628,-3.363815308,6.721298218,-0.078095093,0.076243535,0.990522981
26.207591,2.015365601,-3.562179565,6.843368530,-0.081268921,0.076731816,0.985151887
26.208216,1.923812866,-4.012313843,6.828109741,-0.082123414,0.080393925,0.983809114
26.208842,1.725448608,-4.195419312,6.759445190,-0.083710328,0.078318730,0.982466340
26.209467,1.511825562,-4.416671753,6.446640015,-0.083099976,0.078074589,0.979780793
26.210093,1.214279175,-4.912582397,6.675521851,-0.084442750,0.076365605,0.979658723
26.210720,1.336349487,-4.874435425,6.507675171,-0.082855836,0.073069707,0.977705598
26.211346,1.221908569,-5.393234253,6.423751831,-0.086273804,0.076243535,0.977339387
26.211971,0.985397339,-5.767074585,6.675521851,-0.088593140,0.073069707,0.972090364
26.212596,0.954879761,-6.064620972,6.599227905,-0.091400757,0.073924199,0.974409699
26.213222,1.069320679,-6.575790405,6.507675171,-0.089569703,0.072581425,0.972090364
26.213847,0.664962769,-6.919113159,6.484786987,-0.091034546,0.070017949,0.974043489
26.214472,0.741256714,-7.109848022,6.233016968,-0.093598023,0.070262089,0.968428254
26.215098,0.542892456,-7.827011108,6.484786987,-0.097015992,0.066355839,0.968062043
26.215724,0.664962769,-8.254257202,6.500045776,-0.098847046,0.066355839,0.970503449
26.216349,0.573410034,-8.246627808,6.225387573,-0.098724976,0.063792363,0.970991731
26.216974,0.436080933,-8.834091187,6.278793335,-0.104706421,0.060984742,0.970991731
26.217600,0.428451538,-9.314743042,6.393234253,-0.103363648,0.060496461,0.969771028
26.218225,0.291122437,-9.658065796,6.339828491,-0.104584351,0.054148804,0.972090364
26.232912,1.405014038,-16.844955444,7.781784058,-0.093353882,0.016551148,1.028364778
26.233657,1.557601929,-17.096725464,7.758895874,-0.092133179,0.018992554,1.029463410
26.234284,1.519454956,-17.241683960,7.880966187,-0.092255250,0.018260133,1.034346223
26.234909,1.405014038,-17.249313354,7.842819214,-0.090790406,0.018015992,1.035322785
26.235535,1.710189819,-17.585006714,8.033554077,-0.085907593,0.021189820,1.038252473
26.236161,1.466049194,-17.562118530,8.094589233,-0.088349000,0.021556031,1.039961457
26.236786,1.313461304,-17.607894897,8.415023804,-0.082489625,0.018015992,1.043867707
26.237412,1.435531616,-17.844406128,8.361618042,-0.084076539,0.021311890,1.045454621
26.238037,1.229537964,-17.951217651,8.712570190,-0.082001343,0.026560914,1.048384309
26.238662,1.221908569,-18.126693726,8.628646851,-0.080048218,0.027415406,1.049727082
26.239289,1.199020386,-18.187728882,8.880416870,-0.079315796,0.029734742,1.050459504
26.239914,1.115097046,-18.317428589,9.002487183,-0.076874390,0.029612672,1.050825715
26.240541,0.840438843,-18.225875854,9.200851440,-0.076752320,0.034373414,1.054243684
26.241167,0.710739136,-18.355575562,9.391586304,-0.072479859,0.035227906,1.055464387
26.241792,0.741256714,-18.492904663,9.467880249,-0.071015015,0.039500367,1.059736848
26.242417,0.375045776,-18.515792847,9.666244507,-0.067841187,0.045359742,1.061567903
26.243043,0.146163940,-18.508163452,9.658615112,-0.064789429,0.046214234,1.064131379
26.243668,-0.319229126,-18.790451050,9.918014526,-0.064057007,0.054270875,1.064009309
26.244293,-0.334487915,-18.653121948,10.078231812,-0.061493531,0.055369508,1.066450715
26.244919,-0.883804321,-18.614974976,10.154525757,-0.060761109,0.059153687,1.069868684
26.245546,-1.013504028,-18.805709839,10.177413940,-0.055756226,0.063914433,1.073164582
26.246172,-1.440750122,-18.744674683,10.490219116,-0.053192750,0.064890996,1.078413606
26.246799,-1.890884399,-18.676010132,10.497848511,-0.053070679,0.067942753,1.080000520
26.247424,-2.333389282,-18.706527710,10.757247925,-0.049896851,0.073924199,1.081465364
26.248049,-2.661453247,-18.820968628,10.787765503,-0.047577515,0.075022832,1.087202668
26.248676,-3.271804810,-18.546310425,10.711471558,-0.043182984,0.081736699,1.091353059
26.249302,-3.943191528,-18.653121948,10.886947632,-0.040985718,0.084910527,1.095991731
26.249927,-4.492507935,-18.508163452,11.077682495,-0.040741578,0.089060917,1.098188996
26.250552,-4.950271606,-18.347946167,10.947982788,-0.037079468,0.092112675,1.102705598
26.251179,-5.720840454,-18.195358276,11.123458862,-0.034515992,0.097727910,1.107222199
26.253024,-7.696853638,-17.516342163,11.413375854,-0.026581421,0.105052128,1.114668489
26.253649,-8.375869751,-17.668930054,11.543075562,-0.028900757,0.110667363,1.121382356
26.254274,-9.093032837,-17.356124878,11.634628296,-0.026093140,0.116404667,1.121260285
26.254899,-9.932266235,-17.302719116,11.726181030,-0.024506226,0.117869511,1.126143098
26.255526,-10.359512329,-16.837326050,11.771957397,-0.020722046,0.117625371,1.129072785
26.256153,-11.084304810,-16.959396362,11.672775269,-0.018646851,0.120432988,1.133589387
26.256779,-11.709915161,-16.562667847,11.970321655,-0.019745484,0.123118535,1.136641145
26.257404,-12.381301880,-16.242233276,11.932174683,-0.015839234,0.126414433,1.141279817
26.258031,-13.014541626,-15.891281128,11.878768921,-0.013153687,0.129222050,1.143110871
26.258657,-13.678298950,-15.998092651,11.863510132,-0.010712281,0.132029667,1.143110871
26.259283,-14.166580200,-15.311447144,11.794845581,-0.011566773,0.131907597,1.149458528
26.259910,-14.525161743,-15.090194702,12.107650757,-0.007660523,0.133738652,1.148726106
26.260537,-15.509353638,-14.762130737,11.947433472,-0.006928101,0.134715214,1.151167512
26.261164,-15.745864868,-14.395919800,12.069503784,-0.007904664,0.137034550,1.153120637
26.261789,-16.287551880,-14.067855835,12.016098022,-0.004120484,0.138377324,1.155195832
26.269067,-18.278823853,-10.184494019,11.581222534,0.010650024,0.147654667,1.175093293
26.269693,-18.240676880,-9.413925171,11.245529175,0.014067993,0.150584355,1.180342317
26.283782,-10.084854126,0.382217407,7.186691284,0.052642211,0.192210332,1.179976106
26.284596,-9.466873169,0.870498657,7.148544312,0.052886352,0.197703496,1.177656770
26.285221,-9.192214966,1.412185669,6.904403687,0.052764282,0.196849003,1.177168489
26.285847,-8.948074341,1.892837524,6.545822144,0.051543579,0.200266972,1.173018098
26.286472,-8.581863403,2.236160278,6.355087280,0.051665649,0.199168339,1.171431184
26.287097,-8.261428833,2.686294556,6.149093628,0.052642211,0.204051152,1.170820832
26.287722,-7.864700317,2.915176392,5.706588745,0.052398071,0.203807011,1.166304231
26.288347,-7.437454224,3.258499146,5.660812378,0.049834594,0.205515996,1.165205598
26.288973,-7.193313599,3.533157349,5.378524780,0.051421508,0.204417363,1.160688996
26.289600,-6.796585083,3.876480103,4.882614136,0.048613891,0.207347050,1.158491731
26.290226,-6.491409302,4.280838013,4.745285034,0.048125610,0.207591191,1.158003449
26.290852,-5.980239868,4.586013794,4.470626831,0.048369750,0.209666386,1.154219270
26.291477,-5.942092896,4.952224731,4.096786499,0.046660766,0.208567753,1.151167512
26.292102,-5.507217407,5.089553833,3.776351929,0.045928344,0.209056035,1.148970246
26.292729,-4.965530396,5.493911743,3.516952515,0.045562133,0.207835332,1.149702668
26.293354,-4.553543091,5.753311157,3.249923706,0.043731079,0.205271855,1.144941926
26.293981,-4.194961548,5.982192993,3.066818237,0.042632446,0.207713261,1.143599153
26.294606,-3.859268188,6.394180298,2.456466675,0.044219360,0.205149785,1.142378449
26.295232,-3.264175415,6.485733032,2.143661499,0.045195922,0.200511113,1.142134309
26.295857,-2.836929321,6.699356079,1.838485718,0.042022094,0.200511113,1.136152864
26.296483,-2.417312622,6.920608521,1.663009644,0.042876586,0.198069707,1.139937043
26.297108,-1.997695923,7.210525513,1.472274780,0.042022094,0.195628300,1.134443879
26.297735,-1.456008911,7.180007935,0.976364136,0.041533813,0.194651738,1.135664582
26.298360,-0.876174927,7.828506470,0.900070190,0.042022094,0.191111699,1.133711457
26.298986,-0.433670044,7.866653442,0.556747437,0.037017211,0.189036503,1.131025910
26.299611,0.085128784,8.271011353,0.098983765,0.034087524,0.186473027,1.130049348
26.300238,0.809921265,8.545669556,0.045578003,0.032744750,0.184275761,1.127730012
26.300863,1.290573120,8.904251099,-0.313003540,0.035796508,0.183543339,1.125532746
26.301490,1.817001343,9.072097778,-0.724990845,0.030059204,0.179515019,1.124922395
26.302115,2.717269897,9.201797485,-0.930984497,0.028594360,0.176585332,1.122725129
26.303966,4.410995483,9.995254517,-1.701553345,0.020659789,0.172557011,1.118330598
26.304591,4.960311890,10.437759399,-2.021987915,0.022246704,0.168040410,1.118940949
26.305218,5.730880737,10.643753052,-2.121170044,0.015654907,0.165843144,1.116743684
26.305844,6.440414429,10.552200317,-2.548416138,0.013213500,0.163523808,1.114546418
26.306470,6.928695679,11.002334595,-2.845962524,0.007354125,0.160472050,1.110029817
26.307097,7.447494507,11.322769165,-2.731521606,0.006987914,0.160472050,1.110273957
26.307724,7.935775757,11.528762817,-3.257949829,0.005401000,0.160227910,1.108442903
26.308349,8.584274292,11.780532837,-3.204544067,0.002349243,0.159617558,1.104414582
26.308974,9.042037964,11.940750122,-3.586013794,0.000274047,0.155223027,1.104780793
26.309600,9.537948608,12.078079224,-4.081924438,-0.002533570,0.152537480,1.103071809
26.310226,10.056747437,12.223037720,-4.081924438,-0.005341187,0.153758183,1.097700715
26.310853,10.506881714,12.581619263,-4.455764771,-0.006317750,0.153147832,1.093062043
26.311478,10.682357788,12.718948364,-4.585464478,-0.010224000,0.152293339,1.091230989
26.312105,11.399520874,12.902053833,-4.524429321,-0.009857789,0.150584355,1.088179231
26.312731,11.689437866,13.001235962,-5.043228149,-0.013275757,0.152293339,1.081831574
26.313357,12.086166382,13.222488403,-5.348403931,-0.012421265,0.149241582,1.077803254
26.313982,12.574447632,13.481887817,-5.615432739,-0.012909546,0.146189824,1.075850129
26.314607,12.856735229,13.672622681,-5.874832153,-0.019379273,0.145579472,1.068037629
26.315234,13.222946167,13.718399048,-5.966384888,-0.019623414,0.145457402,1.065230012
26.329216,7.508529663,15.236648560,-8.796890259,-0.053925171,0.109324589,1.011152864
26.329977,6.921066284,15.396865845,-8.812149048,-0.056366578,0.107981816,1.007734895
26.330604,6.402267456,15.297683716,-8.850296021,-0.058319703,0.104685917,1.008223176
26.331229,5.822433472,15.473159790,-8.964736938,-0.059418336,0.104685917,1.005537629
26.331854,5.265487671,15.396865845,-9.163101196,-0.060761109,0.098582402,1.003584504
26.332479,4.708541870,15.648635864,-9.102066040,-0.063080445,0.095652714,0.997236848
26.333105,4.197372437,15.473159790,-9.086807251,-0.062225953,0.091990605,0.998213410
26.333732,3.739608765,15.480789185,-9.132583618,-0.066010132,0.088572636,0.996870637
26.334358,3.289474487,15.511306763,-8.987625122,-0.068451539,0.085765019,0.992231965
26.334984,2.991928101,15.633377075,-9.185989380,-0.070526734,0.084056035,0.992964387
26.335611,2.541793823,15.816482544,-9.292800903,-0.075531617,0.078440800,0.992476106
26.336237,1.832260132,15.793594360,-9.018142700,-0.077240601,0.073924199,0.983442903
26.336862,1.412643433,15.747817993,-9.048660278,-0.081513062,0.072581425,0.983442903
26.337487,0.680221558,15.633377075,-9.109695435,-0.082245484,0.065379277,0.979292512
26.338114,0.535263062,15.663894653,-8.873184204,-0.085175171,0.063670292,0.979536653
26.338739,0.062240601,15.793594360,-8.819778442,-0.084320679,0.062083375,0.981001496
26.339366,-0.288711548,15.770706177,-9.094436646,-0.087616578,0.063304082,0.975630403
26.339991,-0.555740356,15.686782837,-8.926589966,-0.087494507,0.059153687,0.974165559
26.340616,-1.379714966,15.839370728,-8.568008423,-0.093475953,0.056224000,0.968062043
26.341241,-1.692520142,15.702041626,-8.796890259,-0.089935914,0.056468140,0.969282746
26.341868,-1.906143188,15.785964966,-8.774002075,-0.093598023,0.051341187,0.964766145
26.342494,-2.295242310,15.869888306,-8.827407837,-0.098236695,0.048655640,0.963179231
26.343119,-2.920852661,16.014846802,-8.644302368,-0.098847046,0.048899781,0.957686067
26.343744,-3.149734497,15.625747681,-8.468826294,-0.100922242,0.046336304,0.960737824
26.344370,-3.767715454,15.679153442,-8.568008423,-0.099701539,0.044139039,0.955977082
26.344996,-3.950820923,15.808853149,-8.415420532,-0.101654664,0.045970093,0.955977082
26.345621,-4.133926392,15.717300415,-8.133132935,-0.103363648,0.041941773,0.950972199
26.346246,-4.828201294,15.496047974,-8.354385376,-0.102753296,0.039256226,0.949019074
26.346871,-4.980789185,15.785964966,-8.163650513,-0.102753296,0.038645875,0.946455598
26.347498,-5.385147095,15.641006470,-8.140762329,-0.104828492,0.038523804,0.943770051
26.349284,-6.514297485,15.572341919,-7.835586548,-0.108734742,0.032908570,0.940474153
26.349909,-7.055984497,15.366348267,-8.003433228,-0.109467164,0.029734742,0.939863801
26.350536,-7.216201782,15.305313110,-8.041580200,-0.109345093,0.028758179,0.935591340
26.351162,-7.452713013,15.305313110,-7.766921997,-0.110809937,0.025706422,0.932051301
26.351787,-7.567153931,15.114578247,-7.713516235,-0.115204468,0.025584351,0.930708528
26.352413,-8.162246704,15.129837036,-7.583816528,-0.112885132,0.022654664,0.928633332
26.353040,-8.291946411,15.099319458,-7.675369263,-0.114349976,0.021189820,0.927412629
26.353665,-8.375869751,14.725479126,-7.553298950,-0.112885132,0.024119508,0.924482942
26.354290,-8.665786743,14.786514282,-7.438858032,-0.115204468,0.019480836,0.919600129
26.354915,-8.902297974,14.778884888,-7.301528931,-0.114227906,0.021678101,0.918379426
26.355540,-8.864151001,14.359268188,-7.400711060,-0.116425171,0.018382203,0.917524934
26.356166,-9.215103149,14.405044556,-7.217605591,-0.117157593,0.015452515,0.916792512
26.356791,-9.215103149,14.313491821,-7.019241333,-0.116058961,0.014231812,0.912520051
26.357417,-9.497390747,14.031204224,-7.194717407,-0.111664429,0.012400758,0.913252473
26.358042,-9.443984985,14.115127563,-6.981094360,-0.115936890,0.006785523,0.908369660
26.358668,-9.672866821,13.993057251,-6.729324341,-0.113495484,0.011057984,0.905806184
26.359293,-9.726272583,13.466629028,-6.859024048,-0.114594117,0.007517945,0.903975129
26.359918,-9.657608032,13.565811157,-6.897171021,-0.112030640,0.004344117,0.902266145
26.373887,-7.048355103,11.116775513,-4.944046021,-0.140961304,-0.014698852,0.877852082
26.374655,-7.033096313,11.132034302,-4.890640259,-0.141937867,-0.015309203,0.875288606
26.375280,-6.712661743,11.009963989,-4.738052368,-0.140350953,-0.014088500,0.872847199
26.375905,-6.476150513,10.834487915,-4.913528442,-0.141083375,-0.015309203,0.872725129
26.376531,-6.590591431,10.826858521,-4.501541138,-0.143158570,-0.016774047,0.871016145
26.377157,-6.033645630,10.742935181,-4.631240845,-0.142548218,-0.016896117,0.867598176
26.377783,-6.071792603,10.544570923,-4.638870239,-0.139252320,-0.018116821,0.866743684
26.378409,-6.064163208,10.720046997,-4.440505981,-0.139740601,-0.018238891,0.863813996
26.379035,-5.568252563,10.620864868,-4.577835083,-0.135590211,-0.016651977,0.865156770
26.379662,-5.278335571,10.285171509,-4.249771118,-0.140350953,-0.017262328,0.859053254
26.380289,-5.064712524,10.376724243,-4.348953247,-0.138397828,-0.017384399,0.861860871
26.380914,-4.805313110,10.468276978,-4.318435669,-0.136078492,-0.018849242,0.861372590
26.381541,-4.622207642,10.254653931,-4.219253540,-0.138031617,-0.020924438,0.860396028
26.382166,-4.431472778,10.254653931,-4.036148071,-0.136322632,-0.019947875,0.856733918
26.382792,-4.118667603,10.193618774,-4.043777466,-0.135468140,-0.021290649,0.855147004
26.383417,-3.927932739,10.269912720,-4.089553833,-0.138397828,-0.021168578,0.855635285
26.384044,-3.897415161,10.018142700,-3.944595337,-0.138886109,-0.021656860,0.855757356
26.384671,-3.378616333,9.712966919,-3.860671997,-0.139130250,-0.020436157,0.853438020
26.385297,-3.187881470,9.827407837,-3.769119263,-0.138886109,-0.024342407,0.852949739
26.385922,-3.027664185,9.651931763,-3.540237427,-0.137909546,-0.022389282,0.851729035
26.386549,-2.958999634,9.491714478,-3.608901978,-0.138886109,-0.026051391,0.849043489
26.387176,-2.768264771,9.423049927,-3.616531372,-0.140961304,-0.023243774,0.848433137
26.387802,-2.669082642,9.438308716,-3.364761353,-0.142670289,-0.025074828,0.847944856
26.388428,-2.287612915,9.270462036,-3.395278931,-0.141449586,-0.026051391,0.840620637
26.389054,-2.012954712,9.194168091,-3.296096802,-0.141937867,-0.028859008,0.843672395
26.389679,-1.860366821,8.965286255,-3.112991333,-0.144135132,-0.027516235,0.840986848
26.390304,-1.913772583,8.904251099,-3.212173462,-0.142670289,-0.030201782,0.837690949
26.390929,-1.219497681,8.789810181,-3.059585571,-0.143646851,-0.025441039,0.834517121
26.391555,-1.272903442,8.721145630,-3.029067993,-0.146332398,-0.029347289,0.833540559
26.392182,-0.937210083,8.774551392,-2.975662231,-0.145966187,-0.030323852,0.831953645
26.393958,-0.418411255,8.209976196,-2.662857056,-0.144623414,-0.033253539,0.822798371
26.394584,-0.166641235,8.103164673,-2.647598267,-0.147186890,-0.029225219,0.826704621
26.395210,-0.029312134,8.095535278,-2.556045532,-0.149262086,-0.031544555,0.823408723
26.395835,0.001205444,7.805618286,-2.510269165,-0.145966187,-0.031666625,0.821943879
26.396461,0.443710327,7.630142212,-2.357681274,-0.148773804,-0.031178344,0.819868684
26.397086,0.489486694,7.500442505,-2.380569458,-0.147186890,-0.030567992,0.817061067
26.397713,0.878585815,7.431777954,-1.999099731,-0.140717164,-0.034230102,0.815962434
26.398338,1.015914917,7.172378540,-2.159317017,-0.143890992,-0.033253539,0.814375520
26.398964,1.038803101,7.172378540,-1.907546997,-0.144013062,-0.028859008,0.817549348
26.399590,1.221908569,6.958755493,-1.793106079,-0.144623414,-0.031666625,0.814131379
26.400217,1.191390991,6.806167603,-1.724441528,-0.145355836,-0.033741821,0.810103059
26.400843,1.252426147,6.439956665,-1.808364868,-0.143158570,-0.035328735,0.810835481
26.401470,1.511825562,6.523880005,-1.709182739,-0.141205445,-0.035939086,0.809492707
26.402097,1.420272827,6.363662720,-1.404006958,-0.142670289,-0.035572875,0.806685090
26.402723,1.664413452,5.913528442,-1.365859985,-0.141571656,-0.034596313,0.805830598
26.403348,1.443161011,6.012710571,-1.198013306,-0.138519898,-0.037648071,0.802290559
26.403975,1.626266479,6.043228149,-1.159866333,-0.140717164,-0.038868774,0.802656770
26.417896,1.710189819,0.054153442,2.212326050,-0.142182007,-0.053761352,0.764814973
26.418631,1.908554077,-0.395980835,2.471725464,-0.141327515,-0.054493774,0.765059114
26.419256,2.084030151,-0.571456909,2.609054565,-0.139862671,-0.055714477,0.767012239
26.419883,1.984848022,-0.876632690,2.883712769,-0.139618531,-0.055226196,0.763105989
26.420508,2.183212280,-1.311508179,2.776901245,-0.139496461,-0.060475219,0.766157746
26.421134,2.137435913,-1.967636108,3.257553101,-0.139008179,-0.056324828,0.763960481
26.421760,2.244247437,-2.066818237,3.288070679,-0.138153687,-0.054859985,0.763350129
26.422386,2.114547729,-2.143112183,3.654281616,-0.135468140,-0.053028930,0.766890168
26.423011,2.259506226,-2.722946167,3.585617065,-0.134247437,-0.052906860,0.768232942
26.423637,2.633346558,-3.066268921,3.852645874,-0.135224000,-0.054859985,0.769209504
26.424262,2.503646851,-3.272262573,4.066268921,-0.130097046,-0.051686157,0.770308137
26.424889,2.328170776,-3.592697144,4.409591675,-0.130707398,-0.052906860,0.771406770
26.425514,2.572311401,-3.775802612,4.379074097,-0.126923218,-0.050465453,0.772017121
26.426140,2.640975952,-4.355636597,4.600326538,-0.127167359,-0.052418578,0.772383332
26.426765,2.602828979,-4.439559937,4.600326538,-0.125824586,-0.048390258,0.778853059
26.427391,2.610458374,-4.721847534,4.844467163,-0.126312867,-0.049610961,0.782393098
26.428016,2.625717163,-5.095687866,5.042831421,-0.121674195,-0.049855102,0.785688996
26.428641,2.808822632,-5.133834839,5.248825073,-0.118012086,-0.047901977,0.783980012
26.429267,2.595199585,-5.545822144,5.355636597,-0.118744507,-0.045948852,0.787397981
26.429892,2.595199585,-5.683151245,5.515853882,-0.118134156,-0.046437133,0.791182160
26.430517,2.434982300,-5.866256714,5.706588745,-0.111908570,-0.045460571,0.791548371
26.431143,2.534164429,-6.270614624,5.882064819,-0.111908570,-0.045948852,0.790571809
26.431768,2.412094116,-6.613937378,5.965988159,-0.109467164,-0.043385375,0.795698762
26.432393,2.473129272,-6.652084351,6.286422729,-0.107514039,-0.043263305,0.796675324
26.433020,2.228988647,-6.919113159,6.500045776,-0.108734742,-0.040211547,0.799727082
26.433646,2.389205933,-7.247177124,6.622116089,-0.101654664,-0.040943969,0.802534699
26.434271,2.427352905,-7.216659546,6.774703979,-0.105438843,-0.042286742,0.803511262
26.434896,2.167953491,-7.575241089,7.018844604,-0.100189820,-0.042042602,0.807661653
26.435523,2.221359253,-7.712570190,6.980697632,-0.100922242,-0.040089477,0.808638215
26.436150,2.236618042,-7.926193237,7.110397339,-0.097870484,-0.041066039,0.808760285
26.437919,2.228988647,-8.383956909,7.697860718,-0.093720093,-0.040577758,0.815352082
26.438545,2.251876831,-8.437362671,7.865707397,-0.094696656,-0.043019164,0.815474153
26.439171,2.335800171,-8.597579956,8.064071655,-0.093598023,-0.044361938,0.820112824
26.439797,2.351058960,-9.040084839,8.292953491,-0.092743531,-0.044117797,0.818770051
26.440424,2.656234741,-8.979049683,8.376876831,-0.088959351,-0.040089477,0.820234895
26.441051,2.732528687,-8.864608765,8.590499878,-0.089813843,-0.040699828,0.822676301
26.441677,2.885116577,-9.070602417,8.689682007,-0.092987671,-0.040211547,0.823652864
26.442303,3.258956909,-9.284225464,8.880416870,-0.087006226,-0.041676391,0.827681184
26.442929,3.175033569,-9.253707886,8.842269897,-0.084931031,-0.039112914,0.828901887
26.443555,3.571762085,-9.619918823,9.109298706,-0.085053101,-0.038380492,0.831831574
26.444181,3.510726929,-9.650436401,9.277145386,-0.086029664,-0.033863891,0.835249543
26.444807,3.686203003,-9.497848511,9.376327515,-0.078461304,-0.035084594,0.834639192
26.445433,3.823532104,-9.734359741,9.628097534,-0.081513062,-0.035694946,0.840254426
26.446059,3.876937866,-9.589401245,9.734909058,-0.078583375,-0.031422485,0.842329621
26.446685,4.334701538,-9.841171265,9.757797241,-0.075897828,-0.031910766,0.843428254
26.447310,4.426254272,-9.581771851,10.101119995,-0.072846070,-0.028614867,0.845625520
26.447935,4.685653687,-9.787765503,10.253707886,-0.072113648,-0.028614867,0.847944856
26.448562,4.861129761,-9.886947632,10.444442749,-0.068085328,-0.025685180,0.853560090
26.462546,6.531967163,-8.574691772,12.687484741,-0.043305054,0.030223023,0.881514192
26.463326,6.264938354,-8.208480835,12.725631714,-0.042328492,0.035227906,0.881392121
26.463951,6.257308960,-8.300033569,12.695114136,-0.042694703,0.034983765,0.885298371
26.464576,6.303085327,-8.094039917,12.786666870,-0.041718140,0.040232789,0.881636262
26.465203,6.257308960,-8.147445679,12.779037476,-0.038788453,0.038523804,0.883955598
26.465829,6.242050171,-8.139816284,13.023178101,-0.038666382,0.044871461,0.883955598
26.466455,6.242050171,-8.055892944,13.061325073,-0.034882203,0.045970093,0.886397004
26.467080,6.119979858,-7.720199585,13.259689331,-0.039032593,0.047923218,0.887373567
26.467706,6.058944702,-7.712570190,12.931625366,-0.037079468,0.049876343,0.890181184
26.468332,6.173385620,-7.575241089,13.252059937,-0.034027711,0.053416383,0.889692903
26.468958,6.356491089,-7.498947144,13.244430542,-0.036102906,0.054637086,0.891523957
26.469584,6.242050171,-7.659164429,13.297836304,-0.036347046,0.060862672,0.894087434
26.470210,6.287826538,-7.399765015,13.335983276,-0.031586304,0.060496461,0.895796418
26.470837,6.242050171,-7.094589233,13.374130249,-0.033783570,0.063914433,0.895552278
26.471464,6.325973511,-7.056442261,13.137619019,-0.033539429,0.063914433,0.895430207
26.472089,6.333602905,-7.033554077,13.488571167,-0.032929078,0.070628300,0.900435090
26.472714,6.097091675,-6.888595581,13.419906616,-0.032318726,0.071604863,0.899946809
26.473339,6.325973511,-6.713119507,13.427536011,-0.029266968,0.074656621,0.901045442
26.473965,6.280197144,-6.598678589,13.282577515,-0.030487671,0.076487675,0.899458528
26.474591,6.173385620,-6.499496460,13.335983276,-0.027435914,0.081248417,0.901899934
26.475217,6.058944702,-6.262985229,13.557235718,-0.034271851,0.084666386,0.904707551
26.475842,6.051315308,-6.346908569,13.305465698,-0.033173218,0.086741582,0.903242707
26.476467,6.058944702,-6.262985229,13.274948120,-0.033173218,0.087351933,0.903975129
26.477093,5.677474976,-6.255355835,13.328353882,-0.028534546,0.091258183,0.906904817
26.477718,5.776657104,-5.912033081,13.404647827,-0.031830445,0.096995488,0.905806184
26.478345,5.524887085,-5.835739136,13.343612671,-0.032318726,0.094554082,0.904341340
26.478972,5.601181030,-5.698410034,13.351242065,-0.030243531,0.100535527,0.904829621
26.479597,5.540145874,-5.866256714,13.160507202,-0.030853882,0.103709355,0.905684114
26.480223,5.509628296,-5.332199097,13.160507202,-0.029389039,0.105174199,0.903486848
26.480848,5.090011597,-5.194869995,13.129989624,-0.028290406,0.105418339,0.907148957
26.482637,5.051864624,-4.645553589,12.786666870,-0.028900757,0.116648808,0.905195832
26.483262,4.952682495,-4.592147827,12.977401733,-0.030975953,0.123362675,0.908491731
26.483888,4.594100952,-4.416671753,12.832443237,-0.030121461,0.122874394,0.907026887
26.484514,4.479660034,-4.447189331,12.611190796,-0.025971070,0.127390996,0.908613801
26.485139,4.365219116,-4.332748413,12.695114136,-0.031830445,0.124827519,0.907637239
26.485766,4.113449097,-4.164901733,12.618820190,-0.032196656,0.129099980,0.908369660
26.486392,3.999008179,-3.905502319,12.466232300,-0.030853882,0.129222050,0.909590364
26.487018,3.861679077,-3.768173218,12.435714722,-0.029633179,0.132640019,0.907881379
26.487645,3.640426636,-3.730026245,12.405197144,-0.029389039,0.136302128,0.905317903
26.488270,3.411544800,-3.539291382,12.199203491,-0.029877320,0.138987675,0.907148957
26.488897,3.213180542,-3.249374390,12.206832886,-0.028778687,0.138011113,0.907515168
26.489524,2.900375366,-3.287521362,12.244979858,-0.029999390,0.140574589,0.905439973
26.490149,2.778305054,-3.073898315,12.168685913,-0.032318726,0.144602910,0.904951692
26.490775,2.625717163,-2.921310425,11.993209839,-0.028534546,0.141551152,0.905562043
26.491402,2.320541382,-2.623764038,11.985580444,-0.030121461,0.142283574,0.904341340
26.492028,2.061141968,-2.677169800,11.756698608,-0.032196656,0.143626347,0.902266145
26.492655,2.030624390,-2.585617065,11.626998901,-0.035370484,0.145701542,0.904097199
26.493282,1.725448608,-2.234664917,11.672775269,-0.038666382,0.147044316,0.897993684
26.493908,1.496566772,-2.555099487,11.535446167,-0.038544312,0.147044316,0.897871614
26.507851,3.579391479,-5.728927612,8.895675659,-0.061371461,0.157664433,0.866743684
26.508598,4.205001831,-6.110397339,8.575241089,-0.061615601,0.159251347,0.869185090
26.509223,4.723800659,-6.400314331,8.529464722,-0.063934937,0.159129277,0.869185090
26.509848,4.945053101,-6.697860718,8.277694702,-0.064545289,0.159251347,0.872969270
26.510475,5.509628296,-6.850448608,8.010665894,-0.064057007,0.159983769,0.875654817
26.511101,5.746139526,-6.934371948,7.942001343,-0.065521851,0.160716191,0.879927278
26.511728,6.020797729,-7.239547729,7.880966187,-0.065643921,0.167307988,0.883223176
26.512354,6.356491089,-7.430282593,7.499496460,-0.065033570,0.167063847,0.886885285
26.519548,8.584274292,-8.506027222,5.645553589,-0.056854859,0.175974980,0.931318879
26.520175,8.523239136,-8.124557495,5.378524780,-0.053070679,0.178416386,0.936323762
26.520801,8.820785522,-8.284774780,5.264083862,-0.058441773,0.180247441,0.940352082
26.521427,9.057296753,-8.063522339,5.195419312,-0.057465211,0.178904667,0.946821809
26.522053,8.866561890,-7.804122925,4.867355347,-0.058319703,0.180247441,0.949751496
26.522680,8.576644897,-7.781234741,4.768173218,-0.057953492,0.179515019,0.954756379
26.523307,8.538497925,-7.338729858,4.691879272,-0.056976929,0.175242558,0.958418489
26.523933,8.622421265,-7.201400757,4.348556519,-0.060028687,0.180003300,0.964888215
26.524558,8.492721558,-7.163253784,4.424850464,-0.059052125,0.182078496,0.967085481
26.525184,8.363021851,-6.667343140,3.997604370,-0.057221070,0.179515019,0.971357942
26.525811,8.294357300,-6.400314331,3.692428589,-0.061981812,0.184397832,0.971968293
26.526438,8.363021851,-6.217208862,3.906051636,-0.058930054,0.180613652,0.979780793
26.528226,7.706893921,-5.225387573,3.211776733,-0.064667359,0.179270878,0.984175324
26.528851,7.508529663,-4.698959351,3.303329468,-0.066498414,0.181468144,0.983076692
26.529476,7.424606323,-4.492965698,2.876083374,-0.068329468,0.178416386,0.987715364
26.530102,7.233871460,-4.142013550,2.799789429,-0.066742554,0.176219121,0.988447785
26.530727,7.119430542,-3.882614136,2.799789429,-0.069428101,0.175974980,0.989058137
26.531353,6.966842651,-3.440109253,2.593795776,-0.069428101,0.171824589,0.988691926
26.531979,6.684555054,-2.989974976,2.258102417,-0.072113648,0.169139042,0.986982942
26.532606,6.661666870,-2.661911011,2.311508179,-0.073944703,0.170115605,0.987837434
26.533231,6.280197144,-2.303329468,1.960556030,-0.074921265,0.169383183,0.987959504
26.533856,6.119979858,-2.013412476,2.059738159,-0.072113648,0.169016972,0.987227082
26.534481,6.089462280,-1.822677612,1.876632690,-0.077850953,0.169871464,0.985029817
26.535108,6.013168335,-1.219955444,1.548568726,-0.074188843,0.166087285,0.985762239
26.535734,5.959762573,-1.311508179,1.632492065,-0.080292359,0.166087285,0.983198762
26.536360,5.540145874,-0.739303589,1.457015991,-0.078339234,0.162791386,0.980513215
26.536987,5.707992554,-0.586715698,1.022140503,-0.079315796,0.161082402,0.980879426
26.537614,5.593551636,-0.258651733,1.037399292,-0.083588257,0.157786503,0.977949739
26.538241,5.425704956,0.122817993,0.938217163,-0.077606812,0.157176152,0.975020051
26.538866,5.173934937,0.366958618,0.938217163,-0.082489625,0.157298222,0.973799348
26.539491,5.471481323,0.290664673,0.785629272,-0.080780640,0.150828496,0.970747590
26.540117,5.357040405,0.511917114,0.587265015,-0.081513062,0.153147832,0.969038606
26.540744,5.532516479,0.901016235,0.076095581,-0.079071656,0.149607792,0.965132356
26.541369,5.639328003,0.931533813,0.381271362,-0.079193726,0.147898808,0.965010285
26.541995,5.501998901,0.839981079,0.190536499,-0.080292359,0.145579472,0.963179231
26.542621,5.410446167,1.114639282,0.076095581,-0.079559937,0.142527714,0.961226106
26.543246,5.410446167,1.351150513,-0.137527466,-0.080414429,0.139842167,0.960249543
26.543873,5.700363159,1.145156860,-0.053604126,-0.081390992,0.138865605,0.961836457
26.544499,5.440963745,1.351150513,-0.343521118,-0.083222046,0.134471074,0.961226106
26.545125,5.509628296,1.335891724,-0.297744751,-0.087494507,0.129710332,0.956465364
26.559135,7.264389038,1.145156860,-1.068313599,-0.117523804,0.089915410,0.943403840
26.559896,7.409347534,1.198562622,-0.946243286,-0.122162476,0.086985722,0.945967317
26.560521,7.119430542,1.358779907,-1.007278442,-0.124237671,0.087962285,0.946333528
26.561146,6.905807495,1.351150513,-1.022537231,-0.123749390,0.085154667,0.945845246
26.561772,7.050765991,1.313003540,-0.976760864,-0.120209351,0.086009160,0.945967317
26.562399,6.783737183,1.435073853,-1.053054810,-0.125946656,0.086131230,0.944624543
26.563024,6.600631714,1.358779907,-0.915725708,-0.132294312,0.086497441,0.946577668
26.563650,6.249679565,1.297744751,-0.679214478,-0.133759156,0.084178105,0.949019074
26.564275,5.959762573,1.351150513,-0.747879028,-0.134613648,0.087107792,0.949385285
26.564900,5.837692261,1.450332642,-0.633438110,-0.134247437,0.088816777,0.948652864
26.565525,5.463851929,1.465591431,-0.709732056,-0.139130250,0.088572636,0.950972199
26.566151,5.189193726,1.518997192,-0.435073853,-0.139496461,0.088816777,0.945479035
26.566776,4.929794312,1.480850220,-0.557144165,-0.144135132,0.089427128,0.946699739
26.567402,4.601730347,1.580032349,-0.389297485,-0.144989625,0.093333378,0.944258332
26.568028,3.899826050,1.404556274,-0.511367798,-0.148651734,0.092478886,0.944624543
26.568653,3.770126343,1.282485962,-0.381668091,-0.151581421,0.093211308,0.945234895
26.569278,3.434432983,1.175674438,-0.122268677,-0.153900757,0.091868535,0.944868684
26.569905,2.793563843,1.282485962,-0.160415649,-0.156464234,0.095530644,0.941206574
26.570530,2.473129272,1.023086548,-0.084121704,-0.158295289,0.097972050,0.944746614
26.571156,1.801742554,1.023086548,-0.168045044,-0.158905640,0.095652714,0.939375520
26.571781,1.397384644,1.023086548,0.167648315,-0.160614625,0.099192753,0.939131379
26.572407,0.649703979,0.969680786,0.282089233,-0.162933961,0.100779667,0.935591340
26.573033,0.504745483,0.862869263,0.251571655,-0.161713257,0.107249394,0.933394074
26.573660,-0.166641235,0.633987427,0.373641968,-0.165375367,0.104319707,0.930952668
26.574285,-0.715957642,0.695022583,0.327865601,-0.163666382,0.106639042,0.928999543
26.574912,-1.105056763,0.511917114,0.358383179,-0.166840211,0.109934941,0.927290559
26.575538,-1.829849243,0.641616821,0.457565308,-0.165009156,0.111521855,0.928022981
26.576165,-2.409683228,0.420364380,0.465194702,-0.166474000,0.115428105,0.929487824
26.576791,-2.890335083,0.214370728,0.526229858,-0.168671265,0.118846074,0.927290559
26.577417,-3.554092407,-0.006881714,0.762741089,-0.169159546,0.121653691,0.925215364
26.579176,-5.194412231,-0.327316284,0.854293823,-0.169647828,0.129344121,0.926436067
26.579801,-6.048904419,-0.235763550,0.831405640,-0.170746461,0.131053105,0.928389192
26.580426,-6.674514771,-0.487533569,0.518600464,-0.171845093,0.132640019,0.930586457
26.581053,-7.200942993,-0.754562378,0.968734741,-0.173920289,0.136424199,0.927534699
26.581679,-7.902847290,-0.685897827,0.686447144,-0.172577515,0.136546269,0.929121614
26.582305,-8.543716431,-0.899520874,0.846664429,-0.173432007,0.142771855,0.931929231
26.582931,-9.299026489,-1.082626343,0.938217163,-0.174164429,0.143138066,0.937178254
26.583556,-9.749160767,-1.120773315,0.877182007,-0.171356812,0.143992558,0.936201692
26.584182,-10.473953247,-1.212326050,0.755111694,-0.171723023,0.146067753,0.940840364
26.584807,-11.175857544,-1.525131226,0.846664429,-0.172577515,0.141551152,0.939009309
26.585433,-11.717544556,-1.601425171,0.716964722,-0.175751343,0.146311894,0.943525910
26.586059,-12.366043091,-1.441207886,0.625411987,-0.178436890,0.145701542,0.951826692
26.586685,-12.953506470,-1.410690308,0.777999878,-0.175140992,0.146556035,0.949629426
26.587311,-13.418899536,-1.586166382,0.587265015,-0.175140992,0.146067753,0.954390168
26.587938,-13.991104126,-1.715866089,0.594894409,-0.175995484,0.143504277,0.957563996
26.588563,-14.593826294,-1.754013062,0.366012573,-0.176361695,0.143626347,0.960859895
26.589189,-14.937149048,-1.822677612,0.366012573,-0.176239625,0.141917363,0.963545442
26.589814,-15.410171509,-1.845565796,0.343124390,-0.177948609,0.142161503,0.967573762
26.590440,-15.761123657,-1.708236694,0.388900757,-0.175507203,0.140574589,0.971968293
26.604349,-7.261978149,1.496109009,-1.617630005,-0.160980836,0.075266972,1.009077668
26.605073,-6.315933228,1.694473267,-1.877029419,-0.160614625,0.075389042,1.007979035
26.605700,-5.621658325,1.869949341,-1.945693970,-0.160004273,0.073924199,1.008223176
26.606327,-4.385696411,2.037796021,-2.029617310,-0.164520875,0.066599980,1.009932160
26.606952,-3.409133911,2.121719360,-1.930435181,-0.164032593,0.066722050,1.011763215
26.607579,-2.691970825,2.213272095,-2.121170044,-0.160492554,0.064646855,1.008833528
26.608204,-1.555191040,2.594741821,-2.205093384,-0.158539429,0.063426152,1.010542512
26.608831,-0.418411255,2.587112427,-2.319534302,-0.154999390,0.061228883,1.010786653
26.609456,0.382675171,2.404006958,-2.304275513,-0.152435914,0.060984742,1.007979035
26.610083,1.359237671,2.869400024,-2.441604614,-0.152313843,0.061473023,1.009565949
26.610708,2.434982300,2.831253052,-2.403457642,-0.145966187,0.056712281,1.005659699
26.611334,3.419174194,3.197463989,-2.556045532,-0.150726929,0.051707398,1.005415559
26.611959,4.456771851,3.166946411,-2.556045532,-0.147919312,0.052317750,1.004805207
26.612585,5.532516479,3.586563110,-2.777297974,-0.142670289,0.053294312,1.005293489
26.613210,6.203903198,3.563674927,-2.380569458,-0.145477906,0.055735718,1.004194856
26.613836,6.989730835,3.594192505,-2.762039185,-0.147797242,0.057566773,1.001021028
26.614462,7.722152710,3.762039185,-2.670486450,-0.148163453,0.059275758,0.998579621
26.615087,8.446945190,3.884109497,-2.693374634,-0.149140015,0.059764039,0.993696809
26.615713,9.026779175,3.769668579,-2.716262817,-0.154511109,0.062937871,0.989546418
26.616339,9.476913452,3.716262817,-2.678115845,-0.153168336,0.066722050,0.984419465
26.616966,10.140670776,3.792556763,-2.792556763,-0.158173218,0.064158574,0.976973176
26.617592,10.537399292,3.517898560,-2.678115845,-0.158539429,0.068553105,0.976851106
26.618218,11.224044800,3.464492798,-2.693374634,-0.157318726,0.068675175,0.969404817
26.618843,11.582626343,3.426345825,-2.861221313,-0.159271851,0.069651738,0.968306184
26.619469,12.231124878,3.098281860,-2.952774048,-0.155609742,0.066844121,0.964033723
26.620094,12.711776733,2.770217896,-2.914627075,-0.153534546,0.067698613,0.962324739
26.620720,12.986434937,2.732070923,-2.845962524,-0.151581421,0.066722050,0.959028840
26.621346,13.695968628,2.518447876,-2.922256470,-0.145477906,0.066722050,0.960981965
26.621973,14.260543823,2.175125122,-2.723892212,-0.143524781,0.063548222,0.959639192
26.622599,14.390243530,2.213272095,-2.823074341,-0.136688843,0.060130250,0.962324739
26.624396,15.290512085,1.717361450,-2.769668579,-0.125458375,0.058299195,0.964888215
26.625021,15.427841187,1.442703247,-2.594192505,-0.121552125,0.060374390,0.965254426
26.625647,15.511764526,1.511367798,-2.655227661,-0.120087281,0.060374390,0.964888215
26.626272,15.664352417,1.419815063,-2.350051880,-0.118866578,0.062205445,0.966475129
26.626898,15.702499390,1.076492310,-2.357681274,-0.113739625,0.066233769,0.967939973
26.627523,15.794052124,1.091751099,-2.357681274,-0.113129273,0.065745488,0.969404817
26.628149,15.725387573,0.984939575,-2.365310669,-0.113251343,0.065257207,0.969038606
26.628775,15.534652710,0.817092896,-2.289016724,-0.111298218,0.066966191,0.970015168
26.629400,15.771163940,0.458511353,-2.388198853,-0.109711304,0.067332402,0.973555207
26.630026,15.885604858,0.496658325,-2.182205200,-0.105316773,0.066844121,0.974897981
26.630651,15.481246948,0.229629517,-2.220352173,-0.104706421,0.061106812,0.976729035
26.631276,15.610946655,-0.182357788,-2.067764282,-0.100556031,0.059764039,0.980635285
26.631901,15.427841187,-0.136581421,-2.044876099,-0.101288453,0.056101929,0.977583528
26.632528,15.832199097,-0.327316284,-2.121170044,-0.095917359,0.051829468,0.980391145
26.633155,15.694869995,-0.395980835,-1.884658813,-0.090180054,0.048533570,0.986128449
26.633781,15.725387573,-0.663009644,-1.770217896,-0.087616578,0.045359742,0.982954621
26.634406,15.794052124,-0.708786011,-1.838882446,-0.083344117,0.043650758,0.987471223
26.635031,15.870346069,-0.907150269,-1.426895142,-0.082123414,0.038401734,0.989302278
26.648984,19.166244507,-4.790512085,1.296798706,-0.066010132,0.026805054,1.008101106
26.649773,19.044174194,-5.164352417,1.617233276,-0.065277711,0.030833375,1.008955598
26.650399,18.693222046,-4.965988159,1.731674194,-0.063202515,0.033274781,1.014204621
26.651025,18.685592651,-4.965988159,1.823226929,-0.065033570,0.036204468,1.017012239
26.651650,18.471969604,-5.217758179,1.945297241,-0.065155640,0.040965211,1.019087434
26.652275,18.365158081,-5.362716675,2.151290894,-0.066376343,0.043894898,1.023237824
26.652900,17.953170776,-5.400863647,2.074996948,-0.066376343,0.042185914,1.029341340
26.653527,17.876876831,-5.812850952,2.387802124,-0.066986695,0.043406617,1.035078645
26.654153,17.716659546,-5.583969116,2.601425171,-0.068329468,0.046946656,1.036177278
26.654779,17.121566772,-5.423751831,2.639572144,-0.073578492,0.048777711,1.041426301
26.655406,16.755355835,-5.416122437,3.089706421,-0.075653687,0.051829468,1.042524934
26.656031,16.328109741,-5.187240601,3.166000366,-0.078583375,0.047923218,1.050581574
26.656658,16.068710327,-5.103317261,3.249923706,-0.084808961,0.043772828,1.055098176
26.657285,16.183151245,-5.294052124,3.257553101,-0.086273804,0.054637086,1.070601106
26.657911,15.824569702,-5.271163940,3.028671265,-0.077118531,0.063914433,1.083662629
26.658537,15.313400269,-5.904403687,3.089706421,-0.064423218,0.082347050,1.091597199
26.659164,14.580978394,-6.163803101,3.410140991,-0.040009156,0.097483769,1.085981965
26.659791,13.367904663,-6.072250366,3.707687378,-0.015961304,0.101756230,1.076460481
26.660418,12.414230347,-5.957809448,3.898422241,-0.002533570,0.110057011,1.065230012
26.661044,11.155380249,-5.484786987,4.455368042,0.003203735,0.111033574,1.060469270
26.661670,10.163558960,-5.049911499,4.554550171,-0.002533570,0.109324589,1.062666535
26.662295,8.942855835,-4.607406616,4.272262573,-0.003998414,0.108103886,1.064131379
26.662921,8.225692749,-4.546371460,4.539291382,-0.014374390,0.107127324,1.068892121
26.663548,7.416976929,-4.286972046,4.531661987,-0.024994507,0.107737675,1.069014192
26.664173,6.486190796,-4.485336304,4.768173218,-0.024872437,0.108958378,1.074873567
26.664800,5.700363159,-4.546371460,5.134384155,-0.023285523,0.111643925,1.080122590
26.665425,4.983200073,-4.332748413,5.111495972,-0.024017945,0.115794316,1.082930207
26.666052,4.319442749,-4.355636597,5.264083862,-0.026825562,0.120921269,1.083418489
26.666678,3.373397827,-4.370895386,5.523483276,-0.032929078,0.120188847,1.079634309
26.667303,2.480758667,-4.004684448,5.462448120,-0.036713257,0.120066777,1.081221223
26.669100,0.191940308,-3.920761108,5.515853882,-0.042694703,0.135935917,1.084028840
26.669727,-0.944839478,-3.775802612,5.706588745,-0.037079468,0.148509160,1.080244660
26.670353,-1.837478638,-4.035202026,5.630294800,-0.036957398,0.156077519,1.078535676
26.670979,-2.753005981,-3.836837769,6.065170288,-0.036224976,0.168772832,1.080366731
26.671606,-3.752456665,-3.569808960,6.027023315,-0.041596070,0.171702519,1.081587434
26.672231,-4.835830688,-3.615585327,5.889694214,-0.045868531,0.177806035,1.082319856
26.672858,-6.018386841,-3.676620483,5.859176636,-0.046356812,0.179515019,1.083296418
26.673484,-6.880508423,-3.684249878,5.813400269,-0.048065796,0.174510136,1.087202668
26.674111,-7.521377563,-4.096237183,5.828659058,-0.045380250,0.173167363,1.092329621
26.674737,-8.436904907,-3.936019897,5.637924194,-0.041107789,0.174998417,1.093672395
26.675362,-8.978591919,-4.126754761,5.866806030,-0.037811890,0.175242558,1.094282746
26.675989,-9.634719849,-4.302230835,5.790512085,-0.030365601,0.179759160,1.094893098
26.676614,-10.039077759,-4.271713257,5.584518433,-0.025116578,0.179148808,1.098433137
26.677241,-10.878311157,-4.050460815,5.584518433,-0.019135132,0.179270878,1.102217317
26.677866,-11.267410278,-3.829208374,5.782882690,-0.013519898,0.183543339,1.107222199
26.678491,-11.816726685,-3.585067749,5.622665405,-0.008881226,0.185496464,1.111982942
26.679118,-12.373672485,-3.188339233,5.554000854,-0.003998414,0.186717167,1.112471223
26.679744,-12.640701294,-2.875534058,5.317489624,-0.006561890,0.190501347,1.119307160
26.693675,-10.565505981,1.030715942,0.999252319,0.000762329,0.190379277,1.132856965
26.694426,-9.016738892,1.076492310,0.602523804,-0.000946656,0.193675175,1.127852082
26.695053,-8.291946411,1.236709595,0.121871948,-0.004364625,0.192820683,1.126143098
26.695678,-7.460342407,1.488479614,-0.114639282,-0.006928101,0.191722050,1.124678254
26.696303,-6.468521118,1.625808716,-0.358779907,-0.008637086,0.193431035,1.120649934
26.696928,-5.758987427,1.480850220,-0.938613892,-0.014740601,0.193797246,1.121504426
26.697554,-4.835830688,1.885208130,-1.068313599,-0.020477906,0.195750371,1.118208528
26.698180,-3.897415161,1.747879028,-1.266677856,-0.024017945,0.193186894,1.116133332
26.698805,-3.073440552,1.663955688,-1.732070923,-0.026215211,0.192088261,1.119429231
26.699430,-2.310501099,1.610549927,-2.037246704,-0.029144898,0.190989628,1.118208528
26.700056,-1.646743774,1.633438110,-2.289016724,-0.029755250,0.194285527,1.118452668
26.700683,-0.822769165,1.702102661,-2.868850708,-0.032440796,0.193186894,1.115400910
26.701310,0.138534546,1.518997192,-2.998550415,-0.033539429,0.191722050,1.117598176
26.701936,0.725997925,1.709732056,-3.212173462,-0.036835328,0.195506230,1.116987824
26.702563,1.305831909,1.435073853,-3.662307739,-0.033661500,0.194529667,1.116743684
26.703188,2.015365601,1.663955688,-4.059036255,-0.036591187,0.194407597,1.117109895
26.703815,2.450241089,1.724990845,-4.272659302,-0.036835328,0.195140019,1.117231965
26.704440,3.167404175,1.694473267,-4.631240845,-0.035858765,0.192820683,1.118574739
26.705065,3.587020874,1.862319946,-4.783828735,-0.038666382,0.193064824,1.117231965
26.705690,4.105819702,1.824172974,-5.050857544,-0.039276734,0.191233769,1.120161653
26.706315,4.433883667,1.877578735,-5.394180298,-0.035614625,0.189646855,1.116987824
26.706940,4.830612183,2.037796021,-5.752761841,-0.040497437,0.185862675,1.119429231
26.707566,5.189193726,1.900466919,-6.004531860,-0.040863648,0.182932988,1.115889192
26.708192,5.524887085,2.106460571,-6.218154907,-0.039887086,0.186228886,1.121260285
26.708817,5.585922241,1.862319946,-6.698806763,-0.040497437,0.182078496,1.122725129
26.709442,6.043685913,1.854690552,-6.637771606,-0.046356812,0.180857792,1.119795442
26.710067,6.287826538,1.953872681,-6.874282837,-0.046234742,0.177928105,1.117720246
26.710694,6.394638062,2.022537231,-7.171829224,-0.046967164,0.173533574,1.117354035
26.711321,6.524337769,2.007278442,-7.461746216,-0.045868531,0.168528691,1.117720246
26.711948,6.783737183,1.953872681,-7.698257446,-0.045014039,0.167430058,1.115400910
26.713765,7.142318726,1.656326294,-8.300979614,-0.049286500,0.151438847,1.109541535
26.714392,7.035507202,1.427444458,-8.461196899,-0.049896851,0.144114628,1.106978059
26.715018,7.256759644,1.480850220,-8.545120239,-0.050385132,0.142283574,1.102217317
26.715645,7.638229370,1.343521118,-8.934219360,-0.049530640,0.136546269,1.098921418
26.716271,7.928146362,1.206192017,-8.796890259,-0.046723023,0.129832402,1.094160676
26.716896,8.157028198,1.152786255,-9.002883911,-0.049530640,0.123973027,1.090498567
26.717522,7.943405151,0.710281372,-9.239395142,-0.048432007,0.114817753,1.089766145
26.718147,8.378280640,0.565322876,-9.285171509,-0.048798218,0.110545292,1.087080598
26.718772,8.713973999,0.389846802,-9.483535767,-0.049042359,0.104319707,1.084639192
26.719397,8.973373413,0.099929810,-9.514053345,-0.046112671,0.097972050,1.078413606
26.720022,9.423507690,-0.113693237,-9.506423950,-0.045746461,0.091136113,1.073897004
26.720647,9.751571655,-0.304428101,-9.468276978,-0.044281617,0.085642949,1.071699739
26.721273,10.255111694,-0.479904175,-9.514053345,-0.045502320,0.077708378,1.069746614
26.721900,10.583175659,-1.006332397,-9.765823364,-0.042938843,0.078196660,1.068525910
26.722527,11.178268433,-1.265731812,-9.720046997,-0.036347046,0.068186894,1.065107942
26.723152,11.552108765,-1.502243042,-9.552200317,-0.036835328,0.066844121,1.062666535
26.723778,11.964096069,-1.898971558,-9.597976685,-0.038056031,0.061228883,1.059492707
26.724403,12.315048218,-2.166000366,-9.445388794,-0.031464234,0.056956422,1.059858918
26.725029,12.559188843,-2.593246460,-9.376724243,-0.028534546,0.051097047,1.058149934
26.739038,8.637680054,-9.246078491,-5.249221802,-0.008270875,0.059886109,1.089522004
26.739813,7.752670288,-9.597030640,-4.898269653,-0.012299195,0.061961304,1.096357942
26.740438,6.509078979,-9.665695190,-4.745681763,-0.011444703,0.067454472,1.095991731
26.741063,5.746139526,-10.085311890,-4.554946899,-0.011078492,0.073435917,1.098066926
26.741688,4.578842163,-10.199752808,-4.150588989,-0.014496461,0.078807011,1.100142121
26.742313,3.197921753,-10.283676147,-3.853042603,-0.013397828,0.083079472,1.101973176
26.742940,2.259506226,-10.527816772,-3.738601685,-0.015106812,0.089060917,1.104902864
26.743566,0.848068237,-10.726181030,-3.463943481,-0.014862671,0.097727910,1.109053254
26.744191,-0.738845825,-10.749069214,-3.250320435,-0.014496461,0.103587285,1.109785676
26.744818,-2.043472290,-10.779586792,-2.945144653,-0.013519898,0.108348027,1.115156770
26.745444,-3.401504517,-10.840621948,-2.815444946,-0.009735718,0.119700566,1.117720246
26.746070,-4.828201294,-10.771957397,-2.456863403,-0.010468140,0.123973027,1.120405793
26.746695,-6.201492310,-10.848251343,-2.212722778,-0.006683961,0.131053105,1.124189973
26.747320,-8.124099731,-10.733810425,-2.121170044,-0.007904664,0.136302128,1.130049348
26.747945,-9.604202271,-10.573593140,-1.953323364,-0.003754273,0.143992558,1.136274934
26.748572,-11.435256958,-10.268417358,-1.716812134,0.002227172,0.149851933,1.139814973
26.749197,-13.075576782,-10.321823120,-1.640518188,0.002593383,0.155345097,1.147871614
26.749822,-14.837966919,-10.245529175,-1.327713013,0.004790649,0.162547246,1.153242707
26.750447,-16.684280396,-10.039535522,-1.129348755,0.008086547,0.166209355,1.158857942
26.751072,-18.614517212,-9.879318237,-1.083572388,0.012725219,0.171336308,1.163862824
26.751697,-20.476089478,-9.673324585,-1.228530884,0.009551391,0.177683964,1.170210481
26.752323,-22.246109009,-9.192672729,-0.847061157,0.013335571,0.181101933,1.178267121
26.752948,-24.252639771,-9.085861206,-0.702102661,0.015288696,0.186595097,1.182539582
26.753573,-26.091323853,-8.620468140,-0.778396606,0.015288696,0.188426152,1.187422395
26.754199,-27.769790649,-8.307662964,-0.656326294,0.013823852,0.190501347,1.191938996
26.754826,-29.822097778,-8.017745972,-0.770767212,0.014434204,0.192698613,1.196699739
26.755453,-31.668411255,-7.407394409,-0.587661743,0.012603149,0.192454472,1.202192903
26.756078,-33.423171997,-7.323471069,-0.457962036,0.014434204,0.192454472,1.205610871
26.756704,-35.269485474,-7.186141968,-0.480850220,0.015166625,0.193797246,1.210249543
26.757329,-36.726699829,-6.545272827,-0.412185669,0.020903930,0.191844121,1.210249543
26.759145,-41.098342896,-5.294052124,-0.534255981,0.022857055,0.187693730,1.218428254
26.759770,-42.067276001,-5.133834839,-0.465591431,0.020659789,0.180613652,1.221846223
26.760396,-43.493972778,-4.554000854,-0.686843872,0.023955688,0.178660527,1.223066926
26.761023,-44.188247681,-3.989425659,-0.831802368,0.027495727,0.177683964,1.224775910
26.761649,-44.874893188,-3.668991089,-0.686843872,0.024932250,0.171702519,1.227217317
26.762275,-45.637832642,-3.043380737,-0.648696899,0.023223266,0.163523808,1.225386262
26.769550,-43.135391235,1.518997192,-1.960952759,0.012969360,0.115794316,1.208662629
26.770175,-41.968093872,1.961502075,-2.266128540,0.015532836,0.115916386,1.206587434
26.770802,-41.006790161,2.266677856,-2.327163696,0.012847289,0.110057011,1.203169465
26.771427,-39.793716431,2.610000610,-2.510269165,0.009185180,0.110179082,1.201826692
26.772054,-38.496719360,3.067764282,-2.639968872,0.010405883,0.110301152,1.201338410
26.772679,-37.359939575,3.319534302,-2.800186157,0.005889282,0.105540410,1.196089387
26.773306,-36.169754028,3.487380981,-3.074844360,0.001738891,0.106150761,1.195723176
26.773931,-34.720169067,3.670486450,-3.135879517,0.003447875,0.107127324,1.192915559
26.774557,-33.240066528,4.235061646,-3.586013794,0.001983032,0.105418339,1.194136262
26.775183,-32.118545532,4.761489868,-3.471572876,-0.002411500,0.110423222,1.191572785
26.775809,-30.897842407,4.967483521,-3.814895630,-0.007050171,0.108958378,1.189863801
26.789836,-6.170974731,7.355484009,-8.209426880,-0.045014039,0.076121464,1.111982942
26.790596,-5.141006470,7.065567017,-8.369644165,-0.047333375,0.070384160,1.107954621
26.791221,-4.004226685,6.813796997,-8.606155396,-0.049896851,0.065867558,1.103560090
26.791847,-2.890335083,6.752761841,-8.735855103,-0.050263062,0.059275758,1.098555207
26.792472,-1.654373169,6.592544556,-8.842666626,-0.052582398,0.058421265,1.092451692
26.793098,-0.403152466,6.081375122,-8.766372681,-0.051361695,0.049510133,1.086470246
26.793724,0.642074585,5.860122681,-9.056289673,-0.054047242,0.042552125,1.083906770
26.794351,1.961959839,5.646499634,-9.033401489,-0.053925171,0.039500367,1.080488801
26.794976,3.319992065,5.409988403,-9.170730591,-0.053681031,0.034495484,1.072676301
26.795602,4.784835815,4.944595337,-9.231765747,-0.053681031,0.030833375,1.069624543
26.796229,5.868209839,4.570755005,-9.193618774,-0.054169312,0.024729859,1.068892121
26.796854,6.997360229,4.303726196,-9.247024536,-0.056000367,0.023265015,1.066084504
26.797481,8.477462769,4.196914673,-9.346206665,-0.053070679,0.015696656,1.064863801
26.798106,9.789718628,3.731521606,-9.254653931,-0.050629273,0.014109742,1.060957551
26.798731,10.888351440,3.235610962,-9.315689087,-0.051239625,0.009104859,1.056929231
26.799357,12.070907593,2.922805786,-9.491165161,-0.051239625,0.007273804,1.055708528
26.799984,13.222946167,2.762588501,-9.163101196,-0.053070679,0.004222047,1.049360871
26.800609,14.428390503,2.075942993,-9.369094849,-0.054901734,-0.000294555,1.053511262
26.801235,15.710128784,1.992019653,-9.102066040,-0.047943726,0.000071656,1.050825715
26.801862,16.877426147,1.366409302,-8.972366333,-0.047943726,-0.003712524,1.050337434
26.802489,17.579330444,1.137527466,-9.102066040,-0.052826539,-0.005543578,1.050459504
26.803115,18.517745972,0.817092896,-8.827407837,-0.049042359,-0.007618774,1.051924348
26.803741,19.509567261,0.366958618,-8.697708130,-0.047577515,-0.007008422,1.049116731
26.804368,20.386947632,0.107559204,-8.667190552,-0.044891968,-0.005665649,1.048994660
26.804995,21.035446167,0.038894653,-8.552749634,-0.045136109,-0.005421508,1.050703645
26.805620,21.699203491,-0.296798706,-8.178909302,-0.044525757,-0.005299438,1.051436067
26.806246,22.408737183,-0.510421753,-8.239944458,-0.044647828,-0.005665649,1.051924348
26.806872,22.874130249,-0.922409058,-7.957656860,-0.045868531,-0.000172485,1.051924348
26.807498,23.270858765,-1.067367554,-8.003433228,-0.045624390,-0.002369750,1.054854035
26.808123,23.614181519,-1.448837280,-7.843215942,-0.043793336,0.001902711,1.058027864
26.809948,24.171127319,-2.089706421,-7.469375610,-0.041351929,0.009715211,1.059126496
26.810575,24.247421265,-2.433029175,-7.240493774,-0.037689820,0.015330445,1.059492707
26.811201,24.087203979,-2.455917358,-6.920059204,-0.038910523,0.016184937,1.060225129
26.811827,23.827804565,-2.783981323,-6.927688599,-0.037567750,0.016307008,1.058272004
26.812454,23.537887573,-3.150192261,-6.576736450,-0.036591187,0.016429078,1.057417512
26.813081,23.164047241,-3.409591675,-6.416519165,-0.038178101,0.018504273,1.059980989
26.813707,22.744430542,-3.455368042,-6.164749146,-0.037201539,0.021067750,1.061567903
26.814334,22.340072632,-3.859725952,-6.027420044,-0.034393921,0.022654664,1.055708528
26.814986,21.775497437,-3.775802612,-5.798538208,-0.035858765,0.025462281,1.060103059
26.815612,20.898117065,-4.286972046,-5.653579712,-0.033905640,0.026316773,1.058882356
26.816237,20.249618530,-4.378524780,-5.394180298,-0.035858765,0.026560914,1.056685090
26.816863,19.677413940,-4.759994507,-5.264480591,-0.034149781,0.032054078,1.057661653
26.817488,19.097579956,-4.821029663,-5.249221802,-0.032807007,0.033274781,1.055098176
26.818115,18.212570190,-5.156723022,-4.867752075,-0.031952515,0.034495484,1.054365754
26.818741,17.342819214,-5.400863647,-4.554946899,-0.033295289,0.036204468,1.055098176
26.819366,16.747726440,-5.629745483,-4.501541138,-0.033905640,0.036082398,1.054976106
26.819992,15.801681519,-5.812850952,-4.097183228,-0.031830445,0.040965211,1.052900910
26.820619,14.870895386,-6.041732788,-3.853042603,-0.029511109,0.040721070,1.054976106
26.834624,-5.293594360,-8.238998413,0.114242554,-0.005951539,0.044749390,1.111982942
26.835406,-6.788955688,-7.994857788,0.518600464,-0.000946656,0.047312867,1.113569856
26.836033,-7.429824829,-7.880416870,0.694076538,-0.001557007,0.047068726,1.117720246
26.836660,-7.849441528,-7.636276245,0.716964722,-0.003388062,0.049632203,1.118208528
26.837287,-8.696304321,-7.369247437,0.755111694,-0.000702515,0.049754273,1.121748567
26.837913,-9.398208618,-7.308212280,1.014511108,-0.000702515,0.048777711,1.121382356
26.838539,-9.756790161,-7.025924683,1.121322632,0.004790649,0.049388062,1.127730012
26.839166,-10.222183228,-6.789413452,1.113693237,0.006987914,0.053538453,1.129194856
26.839791,-10.740982056,-6.705490112,1.701156616,0.007842407,0.053172242,1.132979035
26.840417,-10.931716919,-6.179061890,1.693527222,0.009917602,0.055247437,1.136030793
26.841044,-11.374221802,-6.056991577,1.708786011,0.011382446,0.054759156,1.137373567
26.841670,-11.679397583,-5.927291870,1.785079956,0.011382446,0.053660523,1.140669465
26.842297,-11.938796997,-5.767074585,1.876632690,0.017363891,0.055247437,1.142012239
26.842922,-12.213455200,-5.179611206,1.899520874,0.020537719,0.055369508,1.146895051
26.843548,-12.396560669,-4.874435425,2.044479370,0.021392211,0.052439820,1.144819856
26.844173,-12.366043091,-4.973617554,2.021591187,0.025542602,0.052439820,1.147627473
26.844798,-12.594924927,-4.561630249,2.105514526,0.025420532,0.059153687,1.151411653
26.845424,-12.839065552,-4.050460815,2.105514526,0.029326782,0.060496461,1.151167512
26.846049,-12.861953735,-4.134384155,2.242843628,0.033355102,0.063304082,1.150190949
26.846674,-12.999282837,-3.577438354,2.227584839,0.030547485,0.060130250,1.148237824
26.847300,-12.755142212,-3.119674683,2.189437866,0.033721313,0.061717164,1.149336457
26.847927,-12.678848267,-2.967086792,2.265731812,0.036651000,0.062815800,1.147993684
26.848553,-12.633071899,-2.776351929,2.334396362,0.035918579,0.063914433,1.149824739
26.849178,-12.655960083,-2.593246460,2.372543335,0.038848266,0.062571660,1.148604035
26.849804,-12.388931274,-2.219406128,2.410690308,0.036406860,0.062815800,1.145674348
26.850430,-12.289749146,-1.937118530,2.280990601,0.041167602,0.063914433,1.145674348
26.851055,-11.801467896,-1.700607300,2.158920288,0.039336547,0.065013066,1.144697785
26.851680,-11.511550903,-1.525131226,2.357284546,0.041289672,0.063426152,1.142988801
26.852306,-11.145339966,-1.227584839,2.265731812,0.041411743,0.067576542,1.139448762
26.852931,-10.992752075,-1.120773315,2.151290894,0.042510375,0.065257207,1.135542512
26.854758,-9.360061646,-0.708786011,1.853744507,0.044097289,0.068919316,1.128096223
26.855383,-8.902297974,-0.601974487,2.029220581,0.043120727,0.065745488,1.122114778
26.856011,-8.261428833,-0.426498413,1.800338745,0.042022094,0.067088261,1.126753449
26.856636,-7.727371216,-0.388351440,1.907150269,0.042632446,0.064646855,1.120527864
26.857261,-6.903396606,-0.380722046,1.869003296,0.045195922,0.066844121,1.117231965
26.857886,-6.293045044,-0.273910522,1.945297241,0.044463500,0.064646855,1.115156770
26.858512,-5.484329224,-0.395980835,1.609603882,0.044951782,0.065501347,1.110762239
26.859138,-4.751907349,-0.327316284,1.685897827,0.043609008,0.067454472,1.108809114
26.859763,-4.103408813,-0.220504761,1.556198120,0.043853149,0.065257207,1.107954621
26.860388,-3.226028442,-0.418869019,1.395980835,0.044341430,0.067698613,1.103071809
26.861013,-2.524124146,-0.296798706,1.273910522,0.046782836,0.068553105,1.101973176
26.861640,-1.974807739,-0.304428101,1.319686890,0.044585571,0.068919316,1.099775910
26.862267,-1.044021606,-0.502792358,1.182357788,0.046904907,0.070140019,1.097212434
26.862893,-0.258193970,-0.441757202,1.106063843,0.048491821,0.072215214,1.094526887
26.863518,0.367416382,-0.533309937,0.968734741,0.045195922,0.071971074,1.091841340
26.864145,1.069320679,-0.449386597,0.999252319,0.046904907,0.073680058,1.091963410
26.864772,2.038253784,-0.479904175,1.006881714,0.046660766,0.073802128,1.088911653
26.865397,2.534164429,-0.472274780,0.953475952,0.049834594,0.073680058,1.087690949
26.866023,3.327621460,-0.601974487,0.892440796,0.045928344,0.076243535,1.086470246
26.880254,6.936325073,0.321182251,-0.511367798,0.024443969,0.107981816,1.068403840
26.880977,6.730331421,0.366958618,-0.839431763,0.019194946,0.104807988,1.064741731
26.881602,6.623519897,0.427993774,-0.816543579,0.019194946,0.104075566,1.064375520
26.882229,6.501449585,0.611099243,-0.793655396,0.022368774,0.102000371,1.060713410
26.882854,6.150497437,0.550064087,-0.908096313,0.016875610,0.105052128,1.060713410
26.883479,5.929244995,0.641616821,-0.915725708,0.015532836,0.100169316,1.058760285
26.884104,5.540145874,0.542434692,-0.869949341,0.014556274,0.102976933,1.057051301
26.884729,5.303634644,0.542434692,-1.060684204,0.012359008,0.100657597,1.052534699
26.885356,5.189193726,0.450881958,-1.060684204,0.009429321,0.099192753,1.052900910
26.885983,4.868759155,0.641616821,-1.159866333,0.011016235,0.101756230,1.052778840
26.886608,4.517807007,0.633987427,-1.045425415,0.008696899,0.102000371,1.051191926
26.887235,4.357589722,0.740798950,-1.243789673,0.009063110,0.099314824,1.047041535
26.887862,4.304183960,0.588211060,-1.114089966,0.012725219,0.098460332,1.045820832
26.888487,3.663314819,0.443252563,-1.182754517,0.011992797,0.098094121,1.044600129
26.889113,3.312362671,0.756057739,-1.281936646,0.009185180,0.099558964,1.041426301
26.889739,3.136886597,0.733169556,-1.457412720,0.010405883,0.096385136,1.040571809
26.890365,2.763046265,0.550064087,-1.335342407,0.009429321,0.096995488,1.038984895
26.890991,2.778305054,0.679763794,-1.526077271,0.007720336,0.096629277,1.038252473
26.891617,2.412094116,0.603469849,-1.587112427,0.007109985,0.093943730,1.039839387
26.892243,2.221359253,0.534805298,-1.419265747,0.009551391,0.094432011,1.034224153
26.892868,1.717819214,0.290664673,-1.548965454,0.007720336,0.092478886,1.036177278
26.893495,1.511825562,0.565322876,-1.602371216,0.011992797,0.088328496,1.034224153
26.894122,1.160873413,0.305923462,-1.594741821,0.011870727,0.088084355,1.034590364
26.894749,1.176132202,0.550064087,-1.487930298,0.012236938,0.094187871,1.034224153
26.895375,0.794662476,0.206741333,-1.671035767,0.016631469,0.089427128,1.031782746
26.896001,0.458969116,0.305923462,-1.831253052,0.021636352,0.083811894,1.028486848
26.896626,0.291122437,0.237258911,-1.571853638,0.021026000,0.083323613,1.029463410
26.897251,-0.075088501,0.473770142,-1.854141235,0.020659789,0.079417363,1.027510285
26.897877,-0.082717896,0.336441040,-1.503189087,0.022857055,0.078318730,1.026167512
26.898504,-0.281082153,0.405105591,-1.648147583,0.023955688,0.077098027,1.023848176
26.900304,-1.112686157,0.321182251,-1.579483032,0.024077758,0.074046269,1.020918489
26.900929,-1.288162231,0.412734985,-1.770217896,0.025176391,0.072337285,1.023359895
26.901556,-1.654373169,0.283035278,-1.831253052,0.023345336,0.074656621,1.019941926
26.902182,-1.990066528,0.191482544,-1.617630005,0.022857055,0.069651738,1.019453645
26.902808,-2.196060181,0.229629517,-1.709182739,0.020171508,0.068308964,1.014937043
26.903433,-2.333389282,0.092300415,-1.823623657,0.022246704,0.066844121,1.014082551
26.904058,-2.615676880,0.122817993,-1.739700317,0.019805297,0.063670292,1.010176301
26.904683,-2.829299927,0.023635864,-1.838882446,0.021392211,0.063304082,1.011030793
26.905310,-2.974258423,-0.083175659,-1.770217896,0.019194946,0.060130250,1.008345246
26.905935,-3.218399048,0.008377075,-1.754959106,0.017241821,0.057932984,1.008223176
26.906561,-3.164993286,-0.563827515,-1.808364868,0.018584594,0.056468140,1.008223176
26.907187,-3.584609985,-0.373092651,-1.655776978,0.018584594,0.054026734,1.007124543
26.907813,-3.576980591,-0.418869019,-1.655776978,0.017608032,0.054148804,1.005659699
26.908439,-3.866897583,-0.724044800,-1.625259399,0.017852172,0.047434937,1.000776887
26.909065,-3.935562134,-0.624862671,-1.518447876,0.015410766,0.042918336,1.001997590
26.909691,-4.179702759,-0.853744507,-1.404006958,0.012969360,0.039866578,1.001021028
26.910317,-3.897415161,-1.082626343,-1.365859985,0.012359008,0.039988648,0.998945832
26.910943,-4.080520630,-0.907150269,-1.526077271,0.014312133,0.038523804,0.998823762
26.911570,-4.309402466,-1.296249390,-1.220901489,0.008574829,0.035227906,0.998823762
26.925529,-1.265274048,-2.600875854,0.381271362,-0.020111695,-0.017872680,1.013960481
26.926286,-0.860916138,-2.700057983,0.579635620,-0.026215211,-0.020192016,1.015059114
26.926912,-0.708328247,-2.562728882,0.678817749,-0.025971070,-0.021778930,1.017134309
26.927538,-0.532852173,-2.623764038,0.686447144,-0.026215211,-0.022999633,1.017134309
26.928164,-0.464187622,-2.433029175,0.938217163,-0.029144898,-0.022633422,1.017500520
26.928790,-0.021682739,-2.379623413,1.151840210,-0.027802125,-0.026905883,1.017378449
26.929417,0.336898804,-2.303329468,1.449386597,-0.032562867,-0.024464477,1.018965364
26.930042,0.268234253,-2.181259155,1.426498413,-0.032196656,-0.027027953,1.020430207
26.930669,0.642074585,-2.021041870,1.548568726,-0.034027711,-0.020558227,1.021772981
26.931296,0.657333374,-2.082077026,1.678268433,-0.036347046,-0.022389282,1.021406770
26.931923,0.840438843,-2.143112183,1.861373901,-0.035248414,-0.021534789,1.020918489
26.932548,1.054061890,-1.891342163,2.212326050,-0.037079468,-0.021168578,1.019697785
26.933174,1.313461304,-1.662460327,2.021591187,-0.037811890,-0.021168578,1.021040559
26.933800,1.549972534,-1.723495483,2.334396362,-0.040619507,-0.022999633,1.021284699
26.934426,1.702560425,-1.822677612,2.578536987,-0.039642945,-0.021656860,1.021162629
26.935053,1.961959839,-1.502243042,2.677719116,-0.041718140,-0.018849242,1.019453645
26.935678,2.167953491,-1.441207886,2.700607300,-0.043793336,-0.021656860,1.020063996
26.936304,2.404464722,-1.250473022,2.845565796,-0.041840211,-0.019703735,1.021040559
26.936930,2.709640503,-1.204696655,3.059188843,-0.045136109,-0.019459594,1.017378449
26.937556,2.984298706,-1.166549683,3.272811890,-0.045136109,-0.015431274,1.018477082
26.938181,2.953781128,-1.303878784,3.211776733,-0.048920289,-0.014576782,1.018965364
26.938807,3.289474487,-1.113143921,3.455917358,-0.046845093,-0.011036742,1.018110871
26.939432,3.251327515,-1.090255737,3.883163452,-0.045868531,-0.013234008,1.013960481
26.940058,3.899826050,-0.930038452,3.791610718,-0.043427125,-0.011769164,1.016157746
26.940683,3.785385132,-0.838485718,3.875534058,-0.046112671,-0.009693969,1.013960481
26.941309,4.166854858,-0.777450562,3.906051636,-0.048676148,-0.009205688,1.017988801
26.941934,4.197372437,-0.800338745,4.112045288,-0.050263062,-0.006398071,1.013716340
26.942560,4.410995483,-0.792709351,4.234115601,-0.050385132,-0.003346313,1.016768098
26.943187,4.639877319,-0.609603882,4.394332886,-0.051605836,-0.002858032,1.018232942
26.943812,4.586471558,-0.426498413,4.363815308,-0.052216187,0.000804078,1.015547395
26.945610,5.189193726,-0.144210815,4.844467163,-0.056366578,0.009226929,1.014082551
26.946237,5.227340698,-0.312057495,4.897872925,-0.057709351,0.010325562,1.017012239
26.946862,5.257858276,0.054153442,5.058090210,-0.061249390,0.009593140,1.017866731
26.947488,5.242599487,0.290664673,4.928390503,-0.060639039,0.013865601,1.015303254
26.948115,5.448593140,0.458511353,5.042831421,-0.062470093,0.014720093,1.017378449
26.948741,5.448593140,0.321182251,5.187789917,-0.065155640,0.016429078,1.017622590
26.949368,5.418075562,0.359329224,5.302230835,-0.070648804,0.016062867,1.018355012
26.949995,5.112899780,0.550064087,5.401412964,-0.068695679,0.016673218,1.017988801
26.950620,5.021347046,0.710281372,5.401412964,-0.068939820,0.016429078,1.019209504
26.951245,4.998458862,0.992568970,5.790512085,-0.069916382,0.021189820,1.019087434
26.951870,4.929794312,1.152786255,5.637924194,-0.072601929,0.026072633,1.020674348
26.952495,4.945053101,1.168045044,5.706588745,-0.074310914,0.024119508,1.020430207
26.953121,4.632247925,1.526626587,5.866806030,-0.074432984,0.026682984,1.019453645
26.953747,4.578842163,1.587661743,5.828659058,-0.073822632,0.028391968,1.023604035
26.954373,4.273666382,1.679214478,6.088058472,-0.076996461,0.024851929,1.021040559
26.954998,4.029525757,2.083572388,6.126205444,-0.075775757,0.027781617,1.021040559
26.955624,4.113449097,2.159866333,6.217758179,-0.077850953,0.027049195,1.019819856
26.956250,3.899826050,2.602371216,6.187240601,-0.081268921,0.031077515,1.018965364
26.970181,-0.677810669,7.233413696,8.201400757,-0.091156617,0.046946656,0.991743684
26.970892,-1.188980103,7.279190063,8.178512573,-0.090546265,0.048289429,0.988081574
26.971518,-0.921951294,7.485183716,8.285324097,-0.090057984,0.049632203,0.989180207
26.972143,-1.143203735,7.698806763,8.277694702,-0.088593140,0.050852906,0.989668489
26.972770,-1.288162231,7.851394653,8.239547729,-0.088715211,0.050364625,0.987471223
26.973397,-1.463638306,8.095535278,8.262435913,-0.090180054,0.052683961,0.986860871
26.974022,-1.753555298,8.110794067,8.476058960,-0.091034546,0.054515015,0.984663606
26.974647,-1.547561646,8.515151978,8.567611694,-0.087860718,0.054148804,0.984175324
26.975272,-1.761184692,8.568557739,8.720199585,-0.086884156,0.053782593,0.982588410
26.975899,-1.906143188,8.919509888,8.514205933,-0.090424195,0.053904664,0.981489778
26.976524,-2.104507446,8.797439575,8.582870483,-0.087860718,0.055979859,0.976118684
26.977151,-1.997695923,9.110244751,8.659164429,-0.086762086,0.057810914,0.977339387
26.977777,-1.944290161,9.300979614,8.857528687,-0.090057984,0.056346070,0.972944856
26.978402,-2.005325317,9.537490845,8.735458374,-0.093353882,0.057322633,0.971724153
26.979028,-1.974807739,9.690078735,8.720199585,-0.090790406,0.058055054,0.971235871
26.979654,-1.951919556,9.667190552,8.849899292,-0.093475953,0.058787476,0.969648957
26.980281,-2.058731079,9.979995728,8.827011108,-0.087250367,0.058055054,0.970381379
26.980907,-2.066360474,10.147842407,8.903305054,-0.087860718,0.059764039,0.969893098
26.981532,-2.051101685,10.239395142,8.743087769,-0.087982789,0.056468140,0.968184114
26.982158,-1.784072876,10.369094849,8.666793823,-0.086884156,0.054392945,0.966108918
26.982784,-1.730667114,10.544570923,9.017745972,-0.087494507,0.055369508,0.962324739
26.983409,-1.684890747,10.636123657,8.872787476,-0.085053101,0.056834351,0.962813020
26.984035,-1.547561646,10.926040649,8.773605347,-0.084076539,0.053782593,0.960005403
26.984662,-1.318679810,10.903152466,9.094039917,-0.084076539,0.055003297,0.958052278
26.985288,-1.150833130,11.177810669,9.086410522,-0.086029664,0.050852906,0.956221223
26.985914,-1.059280396,11.360916138,8.941452026,-0.082733765,0.050120484,0.953901887
26.986540,-0.876174927,11.658462524,8.811752319,-0.083099976,0.049388062,0.950972199
26.987165,-0.601516724,11.658462524,9.132186890,-0.079926148,0.050486695,0.950117707
26.987790,-0.365005493,11.910232544,9.078781128,-0.083466187,0.049265992,0.947188020
26.988417,-0.288711548,11.849197388,9.185592651,-0.083588257,0.048289429,0.944014192
26.990209,0.848068237,12.314590454,8.994857788,-0.082123414,0.046214234,0.933882356
26.990834,1.435531616,12.390884399,9.170333862,-0.084564820,0.046946656,0.931807160
26.991459,1.633895874,12.375625610,9.170333862,-0.085907593,0.045848023,0.931440949
26.992085,1.954330444,12.306961060,9.216110229,-0.084564820,0.043894898,0.924727082
26.992711,2.579940796,12.398513794,9.246627808,-0.082733765,0.047679078,0.923506379
26.993336,2.923263550,12.673171997,9.132186890,-0.085419312,0.046580445,0.921431184
26.993962,3.587020874,12.688430786,9.208480835,-0.085419312,0.045603883,0.918623567
26.994587,3.922714233,12.421401978,9.284774780,-0.081390992,0.039988648,0.917036653
26.995214,4.487289429,12.596878052,9.261886597,-0.086762086,0.042185914,0.911055207
26.995840,4.967941284,12.421401978,9.330551147,-0.083588257,0.041941773,0.907271028
26.996467,5.448593140,12.329849243,9.399215698,-0.082245484,0.040721070,0.904707551
26.997093,5.875839233,12.520584106,9.368698120,-0.083344117,0.046214234,0.900679231
26.997719,6.387008667,12.360366821,9.361068726,-0.080536500,0.042918336,0.896528840
26.998344,7.050765991,12.230667114,9.322921753,-0.083832398,0.045603883,0.892378449
26.998970,7.310165405,12.215408325,9.536544800,-0.081146851,0.045970093,0.891890168
26.999597,7.821334839,12.146743774,9.208480835,-0.081146851,0.049754273,0.884565949
27.000224,8.546127319,11.902603149,9.444992065,-0.083832398,0.046580445,0.885176301
27.000850,8.988632202,11.818679810,9.490768433,-0.079071656,0.051585328,0.880903840
27.001475,9.598983765,11.788162231,9.338180542,-0.080658570,0.051585328,0.878706574
27.022120,9.316696167,3.479751587,8.750717163,-0.063446656,0.168528691,0.859907746
27.022881,8.729232788,3.075393677,8.567611694,-0.059540406,0.172434941,0.864424348
27.023507,8.027328491,3.105911255,8.567611694,-0.058807984,0.177317753,0.865767121
27.024132,7.531417847,3.083023071,8.552352905,-0.056000367,0.176097050,0.870161653
27.024759,6.882919312,2.922805786,8.483688354,-0.055878296,0.182322636,0.873701692
27.025385,6.325973511,2.892288208,8.300582886,-0.051849976,0.179637089,0.879438996
27.026011,5.761398315,2.793106079,8.384506226,-0.049896851,0.184519902,0.882979035
27.026637,4.906906128,2.823623657,8.224288940,-0.046723023,0.185252324,0.885420442
27.027262,4.594100952,3.075393677,8.117477417,-0.048309937,0.186106816,0.889570832
27.027888,3.899826050,2.770217896,8.155624390,-0.044647828,0.189890996,0.892012239
27.028513,3.228439331,2.854141235,7.949630737,-0.046478882,0.187815800,0.892012239
27.029139,2.900375366,2.999099731,7.812301636,-0.044525757,0.190135136,0.898237824
27.029765,1.893295288,2.945693970,7.827560425,-0.044159546,0.193308964,0.901045442
27.030391,1.473678589,3.350051880,7.720748901,-0.040985718,0.190379277,0.903730989
27.031018,0.970138550,3.365310669,7.568161011,-0.039642945,0.190867558,0.906782746
27.031644,0.664962769,3.449234009,7.285873413,-0.039887086,0.189158574,0.910688996
27.032270,0.252975464,3.556045532,7.362167358,-0.038422242,0.188670292,0.912520051
27.032896,-0.120864868,3.876480103,7.125656128,-0.039154664,0.190989628,0.913862824
27.033523,-0.792251587,3.655227661,7.064620972,-0.038300171,0.187449589,0.915327668
27.034149,-1.166091919,4.029067993,6.995956421,-0.040741578,0.185130253,0.917158723
27.034774,-1.486526489,4.280838013,6.843368530,-0.039642945,0.186106816,0.919722199
27.035400,-1.967178345,4.433425903,6.652633667,-0.038300171,0.186839238,0.921553254
27.036026,-2.180801392,4.601272583,6.545822144,-0.036835328,0.184275761,0.918135285
27.036652,-2.531753540,4.479202271,6.522933960,-0.040741578,0.182688847,0.918501496
27.037278,-2.646194458,4.830154419,6.469528198,-0.041718140,0.181712285,0.918745637
27.037904,-3.042922974,5.066665649,6.309310913,-0.035980836,0.182688847,0.918257356
27.038529,-3.226028442,5.036148071,6.271163940,-0.039765015,0.183909550,0.916548371
27.039156,-3.264175415,5.120071411,5.828659058,-0.042816773,0.185130253,0.915205598
27.039782,-3.416763306,5.493911743,5.759994507,-0.040253296,0.182078496,0.913252473
27.040407,-3.500686646,5.448135376,5.668441772,-0.038666382,0.180247441,0.912397981
27.042178,-3.905044556,5.951675415,5.340377808,-0.045136109,0.179515019,0.910078645
27.042804,-3.676162720,5.890640259,5.050460815,-0.045868531,0.182078496,0.909468293
27.043430,-3.615127563,5.951675415,5.035202026,-0.046478882,0.179515019,0.904951692
27.044057,-3.576980591,5.799087524,4.943649292,-0.048554078,0.179515019,0.903853059
27.044682,-3.699050903,6.279739380,4.661361694,-0.048554078,0.178538457,0.899458528
27.045309,-3.645645142,6.111892700,4.752914429,-0.048798218,0.179148808,0.898970246
27.045935,-3.546463013,6.241592407,4.623214722,-0.053192750,0.178904667,0.900435090
27.046560,-3.683792114,6.539138794,4.562179565,-0.054047242,0.181590214,0.900923371
27.047187,-3.821121216,6.348403931,4.257003784,-0.055756226,0.182078496,0.898726106
27.047812,-3.798233032,6.340774536,4.302780151,-0.057221070,0.181346074,0.899336457
27.048438,-3.599868774,6.539138794,4.180709839,-0.058075562,0.184764042,0.900435090
27.049064,-3.668533325,6.500991821,3.852645874,-0.063690796,0.185008183,0.901045442
27.049690,-4.004226685,6.783279419,3.883163452,-0.061859742,0.186961308,0.900435090
27.050315,-4.111038208,6.661209106,3.616134644,-0.064545289,0.185374394,0.900557160
27.050941,-4.156814575,6.783279419,3.593246460,-0.066742554,0.188059941,0.900435090
27.051567,-4.423843384,6.935867310,3.600875854,-0.067474976,0.190379277,0.899580598
27.052193,-4.736648560,6.974014282,3.478805542,-0.070404664,0.188426152,0.900435090
27.052818,-4.950271606,7.050308228,3.234664917,-0.072235718,0.190867558,0.905806184
27.053444,-5.079971313,7.172378540,3.051559448,-0.075287476,0.188182011,0.904707551
27.067374,-13.258682251,11.124404907,0.671188354,-0.095551148,0.159739628,0.903853059
27.068120,-13.327346802,11.681350708,0.533859253,-0.099213257,0.157298222,0.901289582
27.068747,-13.426528931,11.521133423,0.343124390,-0.096771851,0.154734746,0.901899934
27.069372,-13.334976196,11.818679810,0.373641968,-0.099335328,0.150584355,0.897261262
27.069997,-13.518081665,11.887344360,0.282089233,-0.098602906,0.147776738,0.894331574
27.070624,-13.487564087,12.154373169,0.098983765,-0.102753296,0.143870488,0.895430207
27.071249,-13.518081665,12.390884399,0.022689819,-0.102631226,0.141184941,0.890425324
27.071874,-13.136611938,12.360366821,0.068466187,-0.102509156,0.139231816,0.887861848
27.072500,-13.228164673,12.505325317,0.022689819,-0.107269898,0.137522832,0.886763215
27.073125,-13.006912231,12.657913208,-0.190933228,-0.108856812,0.131663457,0.881758332
27.073750,-12.930618286,12.627395630,-0.007827759,-0.108490601,0.131663457,0.879316926
27.074377,-12.503372192,12.696060181,-0.160415649,-0.109833375,0.125559941,0.875776887
27.075011,-12.205825806,12.604507446,-0.305374146,-0.115570679,0.124461308,0.873945832
27.075636,-11.900650024,12.787612915,-0.358779907,-0.114472046,0.122264042,0.872236848
27.076263,-11.564956665,12.680801392,-0.320632935,-0.115448609,0.123606816,0.870894074
27.076890,-11.175857544,12.650283813,-0.526626587,-0.115936890,0.118113652,0.866865754
27.077516,-10.657058716,12.833389282,-0.534255981,-0.118988648,0.119944707,0.865889192
27.078142,-10.245071411,12.947830200,-0.518997192,-0.116425171,0.113841191,0.863569856
27.078769,-9.833084106,12.886795044,-0.709732056,-0.120331421,0.115672246,0.862349153
27.079394,-9.466873169,12.795242310,-0.808914185,-0.121796265,0.115183964,0.863936067
27.080021,-9.176956177,13.123306274,-0.839431763,-0.123383179,0.112376347,0.858809114
27.080646,-8.787857056,12.665542603,-0.915725708,-0.126801148,0.111399785,0.857954621
27.081272,-8.276687622,12.757095337,-0.839431763,-0.126557007,0.113230839,0.857344270
27.081897,-7.948623657,12.833389282,-1.022537231,-0.124603882,0.109080449,0.859175324
27.082523,-7.712112427,12.696060181,-0.999649048,-0.129608765,0.111399785,0.855269074
27.083148,-7.338272095,12.726577759,-1.068313599,-0.128388062,0.111643925,0.856733918
27.083774,-6.819473267,12.657913208,-1.114089966,-0.132904664,0.106639042,0.853682160
27.084400,-6.483779907,12.581619263,-1.404006958,-0.129486695,0.106516972,0.851118684
27.085026,-6.308303833,12.413772583,-1.327713013,-0.133148804,0.106272832,0.849165559
27.085652,-5.919204712,12.490066528,-1.365859985,-0.130707398,0.108103886,0.852461457
27.087418,-5.171524048,12.055191040,-1.350601196,-0.135224000,0.107981816,0.845991731
27.088044,-4.912124634,12.200149536,-1.541336060,-0.134247437,0.105906621,0.846602082
27.088669,-4.645095825,11.872085571,-1.495559692,-0.141083375,0.106516972,0.843672395
27.089295,-4.667984009,12.024673462,-1.518447876,-0.141083375,0.104441777,0.844404817
27.089921,-4.095779419,11.803421021,-1.472671509,-0.143158570,0.103709355,0.839277864
27.090546,-4.111038208,11.765274048,-1.777847290,-0.143036500,0.102122441,0.839888215
27.091171,-4.149185181,11.772903442,-1.548965454,-0.146454468,0.102244511,0.837690949
27.091796,-3.752456665,11.673721313,-1.579483032,-0.146698609,0.098826542,0.838545442
27.092422,-3.607498169,11.612686157,-1.823623657,-0.145599976,0.101512089,0.835127473
27.093047,-3.370986938,11.345657349,-1.754959106,-0.147675171,0.097361699,0.833418489
27.093674,-3.317581177,11.307510376,-1.678665161,-0.150116578,0.098094121,0.832197785
27.094299,-3.088699341,10.933670044,-1.877029419,-0.151825562,0.097117558,0.830732942
27.094925,-2.928482056,10.834487915,-1.548965454,-0.151459351,0.094432011,0.830977082
27.095551,-2.539382935,10.765823364,-1.503189087,-0.151581421,0.090891972,0.826582551
27.096177,-2.608047485,10.597976685,-1.777847290,-0.152313843,0.094065800,0.827192903
27.096803,-2.249465942,10.285171509,-1.762588501,-0.153412476,0.088694707,0.826948762
27.097428,-2.051101685,10.170730591,-1.617630005,-0.155609742,0.090647832,0.825239778
27.111415,3.167404175,4.784378052,-0.793655396,-0.141937867,0.089793339,0.829390168
27.112148,3.495468140,4.517349243,-0.930984497,-0.138397828,0.097239628,0.830366731
27.112774,3.396286011,4.235061646,-0.518997192,-0.138153687,0.096263066,0.830122590
27.113399,3.373397827,4.288467407,-0.511367798,-0.139374390,0.099681035,0.834272981
27.114025,3.098739624,3.929885864,-0.587661743,-0.136200562,0.106639042,0.833662629
27.114651,2.991928101,3.937515259,-0.374038696,-0.131073609,0.107005253,0.840986848
27.115276,2.892745972,4.036697388,-0.305374146,-0.129242554,0.111399785,0.839155793
27.115901,2.557052612,3.769668579,-0.396926880,-0.127289429,0.117137089,0.839155793
27.116526,2.351058960,3.289016724,-0.343521118,-0.125214234,0.116892949,0.842817903
27.117153,1.916183472,3.533157349,-0.313003540,-0.121674195,0.121409550,0.846846223
27.117778,1.527084351,3.365310669,-0.267227173,-0.119599000,0.127390996,0.847212434
27.118404,1.069320679,3.433975220,-0.076492310,-0.118378296,0.130686894,0.850752473
27.119030,0.794662476,3.105911255,0.053207397,-0.114227906,0.136668339,0.853315949
27.119655,0.382675171,3.113540649,-0.015457153,-0.114838257,0.140696660,0.855513215
27.120280,-0.281082153,3.243240356,0.037948608,-0.112152711,0.144114628,0.859175324
27.120906,-1.105056763,3.021987915,0.106613159,-0.111298218,0.147288457,0.861372590
27.121532,-1.570449829,3.174575806,0.167648315,-0.109833375,0.152049199,0.866987824
27.122158,-2.318130493,3.128799438,0.007431030,-0.105438843,0.156077519,0.867842317
27.122794,-2.920852661,3.243240356,0.228683472,-0.102631226,0.159861699,0.870527864
27.123419,-3.630386353,3.090652466,-0.007827759,-0.100800171,0.163523808,0.875410676
27.124044,-4.408584595,3.105911255,-0.015457153,-0.095062867,0.167185917,0.876143098
27.124670,-5.079971313,2.976211548,0.137130737,-0.092499390,0.165599003,0.877485871
27.125295,-5.873428345,3.365310669,0.007431030,-0.091644898,0.170359746,0.883223176
27.125920,-6.460891724,3.227981567,0.106613159,-0.089447632,0.169016972,0.887739778
27.126546,-7.467971802,3.212722778,0.091354370,-0.086029664,0.173533574,0.890181184
27.127172,-8.040176392,3.418716431,0.182907104,-0.084442750,0.171580449,0.893721223
27.127797,-8.986221313,3.670486450,0.137130737,-0.082001343,0.176951542,0.896406770
27.128424,-9.573684692,3.701004028,0.427047729,-0.082733765,0.175608769,0.899092317
27.129049,-10.420547485,3.914627075,0.266830444,-0.076141968,0.174998417,0.901533723
27.129676,-10.946975708,4.044326782,0.198165894,-0.075409546,0.176341191,0.904341340
27.131469,-12.823806763,4.349502563,0.243942261,-0.066132203,0.175120488,0.907148957
27.132095,-13.479934692,4.822525024,0.190536499,-0.068085328,0.172312871,0.910688996
27.132721,-14.013992310,5.020889282,0.556747437,-0.064911500,0.169993535,0.909834504
27.133347,-14.525161743,5.402359009,0.114242554,-0.067352906,0.170848027,0.910933137
27.133972,-14.899002075,5.409988403,0.213424683,-0.068085328,0.169139042,0.917036653
27.134598,-15.196548462,5.516799927,0.175277710,-0.065033570,0.170603886,0.917402864
27.135224,-15.379653931,5.570205688,0.030319214,-0.063080445,0.170848027,0.917524934
27.135849,-15.738235474,5.852493286,-0.145156860,-0.059784546,0.171580449,0.916182160
27.136476,-15.784011841,6.401809692,0.121871948,-0.058075562,0.169749394,0.917524934
27.137103,-16.005264282,6.378921509,-0.045974731,-0.060394898,0.170481816,0.918501496
27.137728,-16.051040649,6.546768188,-0.198562622,-0.056366578,0.167185917,0.920088410
27.138355,-16.096817017,6.882461548,0.022689819,-0.059540406,0.166575566,0.920698762
27.138981,-16.127334595,7.294448853,-0.358779907,-0.057465211,0.166819707,0.922773957
27.139606,-16.096817017,7.378372192,-0.442703247,-0.059540406,0.160838261,0.918135285
27.140233,-16.249404907,7.569107056,-0.404556274,-0.061127320,0.160227910,0.916060090
27.140860,-16.394363403,7.828506470,-0.442703247,-0.061005250,0.160960332,0.914961457
27.141486,-16.241775513,7.904800415,-0.328262329,-0.061249390,0.165232792,0.912520051
27.142111,-16.165481567,8.194717407,-0.595291138,-0.064545289,0.163157597,0.913130403
27.142738,-16.020523071,8.187088013,-0.602920532,-0.064057007,0.163157597,0.912275910
27.156643,-10.794387817,9.865554810,-2.769668579,-0.083466187,0.172557011,0.891401887
27.157377,-11.320816040,9.697708130,-2.899368286,-0.082245484,0.174876347,0.894331574
27.158012,-10.847793579,9.888442993,-3.120620728,-0.084686890,0.174876347,0.890913606
27.158639,-10.748611450,10.033401489,-3.112991333,-0.085297242,0.175608769,0.890181184
27.159264,-10.786758423,9.819778442,-3.227432251,-0.083954468,0.173411503,0.889814973
27.159891,-10.840164185,9.957107544,-3.235061646,-0.086517945,0.171702519,0.889326692
27.160516,-11.267410278,10.269912720,-3.326614380,-0.087128296,0.174876347,0.890425324
27.161142,-11.336074829,10.079177856,-3.532608032,-0.084686890,0.176097050,0.888350129
27.161767,-11.313186646,10.056289673,-3.494461060,-0.086517945,0.179148808,0.888105989
27.162393,-11.305557251,10.208877563,-3.647048950,-0.087372437,0.176219121,0.884688020
27.163018,-11.778579712,10.170730591,-3.776748657,-0.089813843,0.179392949,0.882734895
27.163643,-11.824356079,10.308059692,-3.853042603,-0.086762086,0.174510136,0.883101106
27.164268,-11.992202759,10.147842407,-3.914077759,-0.094452515,0.172557011,0.884077668
27.164893,-12.243972778,10.292800903,-3.853042603,-0.095551148,0.174388066,0.875532746
27.165518,-12.434707642,10.254653931,-4.020889282,-0.096649781,0.173045292,0.878096223
27.166143,-12.495742798,10.147842407,-4.097183228,-0.099091187,0.171092167,0.876021028
27.166770,-12.823806763,10.056289673,-4.165847778,-0.101654664,0.169383183,0.874312043
27.167397,-13.045059204,10.109695435,-4.303176880,-0.107269898,0.164622441,0.870772004
27.168022,-13.296829224,10.041030884,-4.364212036,-0.106903687,0.162791386,0.867354035
27.168649,-13.380752563,9.728225708,-4.440505981,-0.109955445,0.162913457,0.865400910
27.169275,-13.312088013,9.712966919,-4.722793579,-0.112396851,0.158518925,0.861006379
27.169901,-13.441787720,9.377273560,-4.471023560,-0.115570679,0.157786503,0.858198762
27.170526,-13.869033813,9.308609009,-4.547317505,-0.121796265,0.151927128,0.856733918
27.171152,-13.548599243,8.995803833,-4.791458130,-0.123627320,0.148020878,0.852827668
27.171778,-13.632522583,8.866104126,-4.951675415,-0.124237671,0.145335332,0.850508332
27.172405,-13.396011353,8.812698364,-4.738052368,-0.129364625,0.145579472,0.847456574
27.173031,-13.151870728,8.568557739,-4.753311157,-0.128265992,0.142527714,0.841963410
27.173658,-13.151870728,8.324417114,-5.035598755,-0.134735718,0.136424199,0.839644074
27.174284,-13.083206177,7.950576782,-5.081375122,-0.136200562,0.135203496,0.839155793
27.174909,-13.022171021,7.691177368,-4.913528442,-0.139008179,0.134349003,0.835249543
27.176691,-12.274490356,6.554397583,-4.936416626,-0.151581421,0.126902714,0.823897004
27.177317,-12.266860962,6.470474243,-5.188186646,-0.155853882,0.127024785,0.818647981
27.177943,-12.137161255,6.089004517,-5.043228149,-0.161591187,0.125804082,0.815352082
27.178569,-12.045608521,5.646499634,-5.127151489,-0.162201539,0.121897832,0.816328645
27.179196,-11.465774536,5.028518677,-4.913528442,-0.167328492,0.121775761,0.812056184
27.179822,-11.488662720,4.830154419,-5.218704224,-0.173187867,0.120921269,0.812666535
27.180447,-11.313186646,4.204544067,-5.111892700,-0.178558961,0.117381230,0.809004426
27.181072,-11.038528442,3.746780396,-5.104263306,-0.184784546,0.120921269,0.804976106
27.181699,-10.794387817,3.098281860,-5.310256958,-0.188934937,0.114695683,0.803755403
27.182324,-10.687576294,2.663406372,-5.111892700,-0.190888062,0.114329472,0.804976106
27.182949,-10.321365356,2.022537231,-5.333145142,-0.196991578,0.112986699,0.803511262
27.183574,-10.321365356,1.435073853,-4.974563599,-0.199799195,0.112986699,0.803389192
27.184201,-10.222183228,0.946792603,-5.020339966,-0.205292359,0.116648808,0.803145051
27.184826,-9.962783813,0.061782837,-5.020339966,-0.208710328,0.117015019,0.799849153
27.185453,-9.970413208,-0.312057495,-5.127151489,-0.208710328,0.115794316,0.798994660
27.186078,-9.802566528,-1.029220581,-5.111892700,-0.212616578,0.117869511,0.803755403
27.186705,-9.680496216,-1.578536987,-5.218704224,-0.219086304,0.116770878,0.802046418
27.200643,-14.311538696,-10.199752808,-5.294998169,-0.239594117,0.132151738,0.912275910
27.201393,-14.891372681,-10.489669800,-5.310256958,-0.234467164,0.133250371,0.920698762
27.202019,-15.249954224,-10.428634644,-5.294998169,-0.236176148,0.131663457,0.925825715
27.202644,-15.509353638,-10.199752808,-5.302627563,-0.236420289,0.131175175,0.935835481
27.203269,-15.738235474,-10.260787964,-5.554397583,-0.236786500,0.130320683,0.942061067
27.203896,-16.318069458,-10.359970093,-5.447586060,-0.234467164,0.126170292,0.949507356
27.204522,-16.417251587,-9.864059448,-5.172927856,-0.234100953,0.123484746,0.955366731
27.205149,-16.829238892,-9.940353394,-5.401809692,-0.230927125,0.123484746,0.956343293
27.205776,-16.989456177,-9.803024292,-5.302627563,-0.235443726,0.122264042,0.961958528
27.206401,-17.172561646,-9.574142456,-5.424697876,-0.233612671,0.119578496,0.965986848
27.207027,-17.538772583,-9.680953979,-5.378921509,-0.236298218,0.119944707,0.968672395
27.207653,-17.515884399,-9.322372437,-5.432327271,-0.235565796,0.111643925,0.972700715
27.208279,-17.843948364,-9.246078491,-5.432327271,-0.235077515,0.109202519,0.977827668
27.208905,-17.943130493,-9.070602417,-5.294998169,-0.233124390,0.104807988,0.979048371
27.209530,-17.935501099,-8.803573608,-5.500991821,-0.234955445,0.100657597,0.979780793
27.210156,-17.828689575,-8.765426636,-5.531509399,-0.234955445,0.101756230,0.982344270
27.210783,-17.874465942,-8.414474487,-5.729873657,-0.236054078,0.100169316,0.982222199
27.211410,-17.882095337,-8.330551147,-5.447586060,-0.231537476,0.094676152,0.983076692
27.212035,-17.615066528,-8.002487183,-5.600173950,-0.236298218,0.091746464,0.987105012
27.212661,-17.256484985,-8.086410522,-5.676467896,-0.235077515,0.087840214,0.984907746
27.213288,-17.073379517,-8.048263550,-5.516250610,-0.231049195,0.086619511,0.984663606
27.213913,-16.546951294,-7.682052612,-5.554397583,-0.234345093,0.084788457,0.985518098
27.214540,-16.073928833,-7.491317749,-5.775650024,-0.233124390,0.078684941,0.987471223
27.215167,-15.845046997,-7.682052612,-5.729873657,-0.231293336,0.077464238,0.985029817
27.215794,-15.417800903,-7.331100464,-5.684097290,-0.232147828,0.074778691,0.984419465
27.216420,-14.708267212,-7.422653198,-5.562026978,-0.230438843,0.070872441,0.986372590
27.217047,-14.425979614,-7.270065308,-5.851943970,-0.230072632,0.066844121,0.985029817
27.217672,-13.746963501,-7.216659546,-5.912979126,-0.227753296,0.066355839,0.990645051
27.218299,-13.182388306,-7.109848022,-5.668838501,-0.224335328,0.065867558,0.986494660
27.218924,-12.549148560,-7.155624390,-5.996902466,-0.224457398,0.066355839,0.987715364
27.220728,-10.924087524,-7.010665894,-5.829055786,-0.221161500,0.053660523,0.990522981
27.221353,-9.901748657,-6.697860718,-5.897720337,-0.219452515,0.057444703,0.992720246
27.221979,-9.451614380,-6.835189819,-5.752761841,-0.216766968,0.055491578,0.994673371
27.222605,-8.734451294,-6.667343140,-5.752761841,-0.215546265,0.052561890,0.997603059
27.223232,-8.208023071,-6.789413452,-5.836685181,-0.214691773,0.051341187,0.996748567
27.223858,-7.544265747,-6.682601929,-5.630691528,-0.210785523,0.049632203,0.998091340
27.224484,-6.705032349,-6.545272827,-5.943496704,-0.209442750,0.050486695,1.000410676
27.225135,-6.117568970,-6.499496460,-5.951126099,-0.209320679,0.053660523,1.003706574
27.225761,-5.751358032,-6.377426147,-5.737503052,-0.204682007,0.050608765,1.006514192
27.226387,-5.293594360,-6.262985229,-5.821426392,-0.204315796,0.047557008,1.009443879
27.227013,-4.606948853,-6.346908569,-5.851943970,-0.202850953,0.047801148,1.013716340
27.227640,-4.042373657,-6.118026733,-5.813796997,-0.202484742,0.045359742,1.011885285
27.228266,-3.401504517,-5.950180054,-5.790908813,-0.200165406,0.045115601,1.015547395
27.228891,-3.042922974,-5.942550659,-5.714614868,-0.198090211,0.044749390,1.020063996
27.229517,-2.669082642,-5.728927612,-6.019790649,-0.194306031,0.044627320,1.023848176
27.230142,-2.501235962,-5.568710327,-5.661209106,-0.195526734,0.041331422,1.029829621
27.230768,-1.791702271,-5.606857300,-5.661209106,-0.193939820,0.040965211,1.028853059
27.231394,-1.723037720,-5.439010620,-5.714614868,-0.191254273,0.037425172,1.030317903
27.245307,3.274215698,-3.134933472,-2.319534302,-0.162567750,0.002390992,1.009199739
27.246043,3.373397827,-3.432479858,-2.014358521,-0.156464234,0.003123414,1.010176301
27.246668,3.297103882,-3.417221069,-1.854141235,-0.154633179,0.004954468,1.008223176
27.247294,3.411544800,-3.493515015,-1.716812134,-0.156464234,0.006419312,1.007246614
27.247921,3.594650269,-3.577438354,-1.350601196,-0.156342164,0.009959351,1.005049348
27.248546,3.129257202,-3.630844116,-1.259048462,-0.153656617,0.011668336,1.004683137
27.249171,3.335250854,-3.676620483,-1.114089966,-0.151581421,0.012156617,1.003340364
27.249798,3.228439331,-3.936019897,-0.740249634,-0.150238648,0.019114625,0.998823762
27.250424,2.717269897,-3.882614136,-0.633438110,-0.148041382,0.017649781,1.000166535
27.251050,2.648605347,-3.920761108,-0.396926880,-0.147064820,0.024241578,1.000532746
27.251675,2.282394409,-4.386154175,-0.282485962,-0.149994507,0.026927125,1.001143098
27.252301,1.992477417,-4.538742065,0.198165894,-0.147919312,0.026194703,1.004072785
27.252926,1.511825562,-4.676071167,0.297348022,-0.142059937,0.029734742,1.003218293
27.253553,0.985397339,-4.706588745,0.274459839,-0.141571656,0.034983765,1.003950715
27.254180,0.764144897,-5.133834839,0.671188354,-0.140595093,0.038279664,1.005171418
27.254806,0.367416382,-5.294052124,0.892440796,-0.139496461,0.041453492,1.004438996
27.255431,-0.433670044,-5.385604858,0.922958374,-0.141205445,0.046214234,1.004316926
27.256057,-0.876174927,-5.645004272,1.045028687,-0.134735718,0.048045289,1.005659699
27.256684,-1.715408325,-5.950180054,1.395980835,-0.138153687,0.048777711,1.006392121
27.257311,-2.363906860,-5.973068237,1.472274780,-0.134979859,0.055613648,1.004805207
27.257936,-2.958999634,-6.217208862,1.617233276,-0.134003296,0.056346070,1.005537629
27.258563,-3.554092407,-6.621566772,1.746932983,-0.130585328,0.058055054,1.011641145
27.259188,-4.553543091,-6.636825562,1.907150269,-0.130707398,0.065501347,1.011641145
27.259814,-5.240188599,-6.827560425,2.105514526,-0.129486695,0.070994511,1.012251496
27.260440,-6.163345337,-6.896224976,2.113143921,-0.128510132,0.066477910,1.014570832
27.261065,-7.109390259,-7.010665894,2.448837280,-0.125702515,0.073924199,1.013472199
27.261692,-7.712112427,-7.209030151,2.555648804,-0.125092164,0.072581425,1.016279817
27.262318,-8.681045532,-7.415023804,2.860824585,-0.121185914,0.077220097,1.018477082
27.262943,-9.627090454,-7.659164429,2.921859741,-0.121552125,0.076365605,1.021040559
27.263569,-10.374771118,-7.483688354,3.021041870,-0.123016968,0.080882207,1.021772981
27.272110,-21.902786255,-8.071151733,4.218856812,-0.104828492,0.107005253,1.059370637
27.272737,-22.612319946,-8.300033569,3.989974976,-0.103119507,0.104685917,1.065230012
27.273362,-23.039566040,-8.315292358,3.890792847,-0.101410523,0.106394902,1.065474153
27.273987,-23.573623657,-8.330551147,4.302780151,-0.098114625,0.103709355,1.069624543
27.274614,-24.199234009,-8.452621460,4.264633179,-0.100067750,0.104930058,1.072432160
27.275239,-24.405227661,-8.200851440,3.974716187,-0.094696656,0.104685917,1.073286653
27.275865,-25.007949829,-8.231369019,3.936569214,-0.094574586,0.101756230,1.074263215
27.276491,-25.267349243,-8.238998413,4.127304077,-0.095917359,0.096873417,1.081465364
27.277117,-25.542007446,-8.139816284,3.944198608,-0.094208375,0.100535527,1.082075715
27.277742,-25.793777466,-8.155075073,3.837387085,-0.092377320,0.096140996,1.082319856
27.278369,-25.900588989,-7.971969604,3.921310425,-0.094208375,0.092600957,1.084272981
27.278995,-25.976882935,-8.063522339,3.814498901,-0.092133179,0.091380253,1.088545442
27.279622,-26.015029907,-8.086410522,3.639022827,-0.092499390,0.086131230,1.088057160
27.280248,-25.900588989,-8.040634155,3.753463745,-0.091766968,0.084544316,1.090010285
27.280874,-25.595413208,-7.964340210,3.631393433,-0.090546265,0.080882207,1.089888215
27.281501,-25.679336548,-8.200851440,3.501693726,-0.094940796,0.078807011,1.094893098
27.282126,-25.313125610,-8.048263550,3.272811890,-0.089691773,0.076609746,1.096235871
27.282751,-25.091873169,-8.017745972,3.196517944,-0.093475953,0.072703496,1.093062043
27.296809,-7.040725708,-6.705490112,0.884811401,-0.059174195,0.020701539,1.145186067
27.297596,-5.194412231,-6.537643433,0.724594116,-0.048920289,0.014964234,1.152022004
27.298223,-4.294143677,-6.346908569,0.457565308,-0.045502320,0.014598023,1.150313020
27.298849,-3.332839966,-6.247726440,0.343124390,-0.042206421,0.015208375,1.153975129
27.299475,-2.547012329,-5.858627319,0.419418335,-0.034882203,0.010203492,1.156782746
27.300102,-1.532302856,-5.835739136,0.297348022,-0.028778687,0.007640015,1.155806184
27.300729,-0.761734009,-5.660263062,0.243942261,-0.022431031,0.007273804,1.161055207
27.301355,0.199569702,-5.263534546,0.167648315,-0.018158570,0.006541383,1.162275910
27.301980,0.855697632,-5.011764526,0.373641968,-0.013031617,0.003001343,1.165449739
27.302605,1.763595581,-4.958358765,0.137130737,-0.006317750,0.003977906,1.166060090
27.303232,2.625717163,-4.515853882,0.358383179,0.000640258,0.003245484,1.167158723
27.303857,3.587020874,-4.241195679,0.343124390,0.004302368,-0.000538696,1.166182160
27.304484,4.182113647,-4.126754761,0.182907104,0.007842407,-0.000294555,1.170942903
27.305109,5.006088257,-3.874984741,0.381271362,0.013701782,-0.000416625,1.167158723
27.305734,5.707992554,-3.577438354,0.350753784,0.016387329,-0.001759399,1.163008332
27.306361,6.539596558,-3.485885620,0.114242554,0.021026000,-0.002247680,1.166914582
27.306986,7.210983276,-3.127304077,0.381271362,0.025786743,-0.002125610,1.165327668
27.307611,7.859481812,-2.669540405,0.373641968,0.028106079,-0.006276000,1.167158723
27.308237,8.622421265,-2.463546753,0.533859253,0.028716430,-0.008229125,1.169844270
27.308864,9.232772827,-2.326217651,0.556747437,0.029326782,-0.006642211,1.165205598
27.309490,9.789718628,-2.166000366,0.510971069,0.033721313,-0.008595336,1.166182160
27.310115,10.354293823,-1.723495483,0.526229858,0.035918579,-0.009938110,1.157881379
27.310741,10.888351440,-1.593795776,0.724594116,0.037017211,-0.012379516,1.155806184
27.311366,11.346115112,-1.334396362,0.427047729,0.037993774,-0.010548461,1.158003449
27.311992,11.864913940,-1.319137573,0.640670776,0.039214477,-0.014210571,1.153608918
27.312617,12.612594604,-1.143661499,0.884811401,0.036528930,-0.013966430,1.153242707
27.313242,13.108505249,-0.937667847,1.106063843,0.034697875,-0.014698852,1.151899934
27.313867,13.489974976,-0.922409058,0.991622925,0.034697875,-0.015553344,1.145063996
27.314492,13.978256226,-0.785079956,1.159469604,0.035308227,-0.016651977,1.143232942
27.315119,14.382614136,-0.624862671,1.128952026,0.034209594,-0.017994750,1.143355012
27.316935,15.710128784,-0.266281128,1.685897827,0.013945922,-0.024342407,1.132979035
27.317560,16.328109741,0.260147095,2.143661499,0.002227172,-0.029225219,1.134565949
27.318186,16.640914917,0.427993774,1.975814819,-0.006928101,-0.034352172,1.135420442
27.318812,17.297042847,0.611099243,1.937667847,-0.016083375,-0.040699828,1.139692903
27.319439,18.456710815,0.519546509,1.708786011,-0.018890992,-0.035206664,1.150190949
27.320065,18.677963257,-0.029769897,1.617233276,-0.011688843,-0.026661742,1.159834504
27.320691,19.181503296,-0.342575073,1.876632690,0.008086547,-0.017018188,1.161421418
27.321317,18.944992065,-0.640121460,2.181808472,0.032378539,-0.003468383,1.148481965
27.321943,18.845809937,-0.807968140,2.494613647,0.057891235,-0.006276000,1.127974153
27.322569,18.349899292,-0.853744507,3.036300659,0.074736938,-0.007008422,1.116499543
27.323195,18.037094116,0.008377075,3.402511597,0.076934204,-0.011036742,1.114912629
27.323820,17.976058960,0.481399536,3.173629761,0.070342407,-0.014942992,1.113569856
27.324446,17.602218628,0.672134399,3.463546753,0.063628539,-0.016041625,1.115156770
27.325071,17.586959839,1.099380493,3.448287964,0.057158813,-0.017506469,1.114790559
27.325696,17.640365601,0.946792603,3.883163452,0.052031860,-0.017994750,1.119795442
27.326322,17.472518921,1.015457153,4.127304077,0.051299438,-0.012379516,1.123457551
27.326970,17.159713745,0.962051392,4.508773804,0.050689086,-0.011647094,1.125166535
27.327597,17.075790405,0.870498657,4.783432007,0.051299438,-0.003468383,1.121260285
27.341527,-2.981887817,0.046524048,9.422103882,0.059966430,0.073557988,1.087690949
27.342269,-3.737197876,0.405105591,9.727279663,0.059234008,0.073924199,1.089522004
27.342896,-4.629837036,0.359329224,9.811203003,0.055693969,0.073069707,1.091963410
27.343521,-5.545364380,0.298294067,9.826461792,0.054107055,0.072581425,1.092085481
27.344147,-6.041275024,0.160964966,9.956161499,0.052520141,0.074656621,1.093184114
27.344773,-6.796585083,-0.151840210,10.207931519,0.051421508,0.076243535,1.096724153
27.345399,-7.208572388,-0.052658081,10.146896362,0.049712524,0.079173222,1.095869660
27.346026,-7.864700317,-0.205245972,10.330001831,0.051787719,0.079417363,1.101362824
27.346651,-8.345352173,-0.235763550,10.307113647,0.052520141,0.080882207,1.100142121
27.347276,-8.940444946,-0.312057495,10.391036987,0.056182250,0.083445683,1.106123567
27.347902,-9.512649536,-0.281539917,10.474960327,0.056670532,0.084666386,1.104414582
27.348527,-9.787307739,-0.373092651,10.566513062,0.058013305,0.083079472,1.107222199
27.349153,-10.206924438,-0.205245972,10.711471558,0.058013305,0.083811894,1.110029817
27.349779,-10.435806274,-0.144210815,10.619918823,0.057647094,0.084544316,1.112715364
27.350404,-10.519729614,-0.136581421,10.764877319,0.056914672,0.087107792,1.114546418
27.351030,-10.733352661,-0.121322632,10.757247925,0.056182250,0.087474003,1.114912629
27.351656,-10.863052368,0.183853149,10.848800659,0.053008422,0.087962285,1.115278840
27.352282,-10.702835083,-0.029769897,10.696212769,0.054473266,0.091136113,1.116743684
27.352907,-10.664688110,-0.075546265,10.818283081,0.050933227,0.089793339,1.115400910
27.353533,-10.435806274,-0.052658081,10.787765503,0.053618774,0.091380253,1.120161653
27.354158,-10.336624146,0.069412231,10.543624878,0.055205688,0.093211308,1.120283723
27.354783,-10.153518677,0.321182251,10.391036987,0.049224243,0.093089238,1.121016145
27.355409,-9.932266235,0.183853149,10.604660034,0.050444946,0.089305058,1.118696809
27.356034,-9.512649536,0.466140747,10.406295776,0.051055297,0.090281621,1.119063020
27.356659,-9.039627075,0.595840454,10.314743042,0.042510375,0.090037480,1.120772004
27.357284,-8.467422485,0.870498657,10.207931519,0.036284789,0.086741582,1.124312043
27.357910,-8.108840942,0.908645630,10.093490601,0.037017211,0.086375371,1.122358918
27.358535,-7.544265747,1.015457153,9.979049683,0.034819946,0.089671269,1.123457551
27.359161,-7.338272095,1.038345337,10.032455444,0.034087524,0.086985722,1.120894074
27.359787,-6.621109009,0.962051392,9.589950562,0.036773071,0.091502324,1.123579621
27.361595,-4.278884888,0.939163208,9.216110229,0.033233032,0.103953496,1.113813996
27.362220,-3.744827271,0.588211060,8.926193237,0.031768188,0.109446660,1.108076692
27.362845,-3.096328735,0.626358032,8.971969604,0.030425414,0.110301152,1.107588410
27.363470,-2.432571411,0.839981079,8.804122925,0.031401977,0.111521855,1.105635285
27.364096,-1.730667114,0.801834106,8.323471069,0.029082641,0.110667363,1.104170442
27.364722,-1.066909790,0.786575317,8.209030151,0.029082641,0.111765996,1.098311067
27.365347,-0.197158813,0.778945923,8.094589233,0.025054321,0.111643925,1.097212434
27.365973,0.397933960,0.733169556,7.819931030,0.016753539,0.109812871,1.097212434
27.366599,1.099838257,0.862869263,7.324020386,0.014312133,0.108714238,1.096602082
27.367224,1.832260132,0.588211060,7.301132202,0.009795532,0.109202519,1.094526887
27.367849,2.633346558,0.542434692,7.255355835,0.001983032,0.105418339,1.098188996
27.368475,3.220809937,0.359329224,6.988327026,-0.000092164,0.105174199,1.094038606
27.369101,3.930343628,0.305923462,6.652633667,-0.004486695,0.104075566,1.093550324
27.369726,4.838241577,0.252517700,6.408493042,-0.007050171,0.102610722,1.092451692
27.370353,5.501998901,0.122817993,6.233016968,-0.009003296,0.103709355,1.089399934
27.370978,6.219161987,-0.128952026,6.011764526,-0.008026734,0.101390019,1.086226106
27.371605,6.806625366,-0.113693237,5.798141479,-0.010712281,0.103831425,1.087690949
27.372231,7.424606323,-0.121322632,5.386154175,-0.013031617,0.104685917,1.084272981
27.372857,8.248580933,-0.258651733,5.195419312,-0.015350953,0.102610722,1.088179231
27.386852,20.615829468,-0.991073608,2.105514526,-0.049652711,0.014720093,1.077559114
27.387649,21.371139526,-0.998703003,1.815597534,-0.047943726,0.006053101,1.073897004
27.388275,21.935714722,-0.983444214,1.945297241,-0.047211304,0.002757203,1.072676301
27.388900,22.568954468,-1.013961792,1.754562378,-0.050995484,-0.007130492,1.073652864
27.389526,23.408187866,-1.143661499,1.869003296,-0.051605836,-0.008595336,1.069014192
27.390151,23.919357300,-1.387802124,1.617233276,-0.048798218,-0.013844360,1.067183137
27.390777,24.811996460,-1.334396362,1.739303589,-0.052216187,-0.022023071,1.065962434
27.391403,25.368942261,-1.517501831,1.685897827,-0.051117554,-0.022389282,1.065474153
27.392028,26.047958374,-1.395431519,1.807968140,-0.050385132,-0.028736938,1.065352082
27.392653,27.169479370,-1.662460327,1.769821167,-0.051849976,-0.034840453,1.060225129
27.393279,27.787460327,-1.723495483,1.708786011,-0.049896851,-0.035450805,1.065718293
27.393904,28.466476440,-1.822677612,1.823226929,-0.050995484,-0.040943969,1.061567903
27.394529,29.122604370,-2.120223999,2.052108765,-0.051117554,-0.047169555,1.056685090
