time,gyro x,gyro y,gyro z,accel x,accel y,accel z
36.000534,-0.351936340,13.470092773,-6.071075439,-0.107174680,0.058508668,1.051282167
36.001160,-0.351936340,13.782897949,-5.903228760,-0.104977414,0.060583863,1.049573183
36.001785,-0.748664856,13.676086426,-5.941375732,-0.105953977,0.059729371,1.051770449
36.002412,-0.947029114,14.126220703,-5.849822998,-0.107662961,0.056921754,1.051648378
36.003037,-1.198799133,14.377990723,-5.949005127,-0.105343625,0.061438356,1.050671816
36.003663,-1.412422180,14.507690430,-5.842193604,-0.104611203,0.059363160,1.048962831
36.004288,-1.351387024,14.835754395,-5.941375732,-0.104122922,0.054968629,1.050427675
36.004915,-1.580268860,15.163818359,-5.926116943,-0.104977414,0.056921754,1.049939394
36.005541,-2.007514954,15.240112305,-5.758270264,-0.105343625,0.057532106,1.049084902
36.006166,-2.228767395,15.430847168,-5.834564209,-0.104977414,0.054358277,1.045789003
36.006793,-2.190620422,15.980163574,-5.537017822,-0.106320187,0.053625856,1.048718691
36.007420,-2.495796204,16.003051758,-5.620941162,-0.105831906,0.051794801,1.048230410
36.008046,-2.747566223,16.155639648,-5.666717529,-0.107540891,0.053381715,1.047375917
36.008671,-2.747566223,16.834655762,-5.506500244,-0.103634641,0.052405152,1.044690371
36.009297,-2.976448059,17.155090332,-5.338653564,-0.106076047,0.051062379,1.046399355
36.009924,-3.014595032,17.177978516,-5.613311768,-0.107296750,0.052405152,1.042737246
36.010549,-3.342658997,17.452636719,-5.537017822,-0.107540891,0.049231324,1.043835878
36.011175,-3.510505676,17.879882812,-5.331024170,-0.106442258,0.049841676,1.040051699
36.011841,-3.670722961,18.047729492,-5.353912354,-0.103512570,0.049841676,1.037732363
36.012468,-3.762275696,17.956176758,-5.361541748,-0.107296750,0.047156129,1.038830996
36.013094,-3.754646301,18.505493164,-5.231842041,-0.101315305,0.050452027,1.034802675
36.013721,-3.876716614,18.757263184,-5.262359619,-0.102902219,0.046057496,1.032727480
36.014346,-3.991157532,18.970886230,-5.269989014,-0.105953977,0.043371949,1.033581972
36.014971,-4.235298157,19.314208984,-5.140289307,-0.105099484,0.040076051,1.031995058
36.016830,-4.189521790,20.229736328,-5.071624756,-0.105709836,0.038367067,1.029065371
36.017455,-4.136116028,20.100036621,-4.972442627,-0.106808469,0.036413942,1.029309511
36.018081,-4.273445129,20.588317871,-4.926666260,-0.106686398,0.034094606,1.027478456
36.018707,-4.052192688,20.908752441,-4.835113525,-0.107418820,0.034704957,1.029919863
36.019333,-4.212409973,21.076599121,-4.842742920,-0.104733273,0.032263551,1.027478456
36.019959,-4.273445129,21.572509766,-4.644378662,-0.106930539,0.030920777,1.023083925
36.020585,-4.120857239,21.702209473,-4.697784424,-0.105709836,0.029578004,1.022717714
36.021210,-4.120857239,21.877685547,-4.621490479,-0.104977414,0.031164918,1.025647402
36.021837,-3.975898743,22.091308594,-4.499420166,-0.103512570,0.027136598,1.025281191
36.029116,-2.221138000,24.570861816,-3.568634033,-0.120968625,0.013953004,0.991467714
36.029743,-2.076179504,24.769226074,-3.660186768,-0.122067258,0.013708863,0.987439394
36.030368,-1.954109192,24.639526367,-3.545745850,-0.124874875,0.011389527,0.982434511
36.030994,-1.336128235,24.929443359,-3.583892822,-0.121823117,0.009558473,0.981335878
36.031619,-1.305610657,24.769226074,-3.637298584,-0.125607297,0.011145387,0.973645449
36.032287,-0.924140930,24.868408203,-3.477081299,-0.125119016,0.009436402,0.969739199
36.032913,-0.710517883,25.020996094,-3.316864014,-0.127194211,0.007971559,0.964734316
36.033539,-0.168830872,24.776855469,-3.591522217,-0.121945187,0.004309449,0.962537050
36.046413,4.630058289,25.226989746,-2.027496338,-0.125363156,0.002722535,0.932629824
36.047148,4.736869812,25.181213379,-1.790985107,-0.127194211,0.000891481,0.931531191
36.047774,4.851310730,25.455871582,-1.699432373,-0.128170773,0.002356324,0.929578066
36.048399,4.645317078,25.394836426,-1.722320557,-0.127804562,0.000281129,0.924939394
36.049024,4.645317078,25.448242188,-1.699432373,-0.124508664,-0.001305785,0.921765566
36.049651,4.424064636,25.432983398,-1.455291748,-0.123898312,0.002478395,0.921155214
36.050278,4.408805847,25.623718262,-1.325592041,-0.127316281,0.003088746,0.919690371
36.050905,4.347770691,25.471130371,-1.356109619,-0.125119016,-0.001549926,0.917859316
36.051530,4.324882507,25.494018555,-1.150115967,-0.124386594,0.001379762,0.914075136
36.052157,4.462211609,25.638977051,-1.173004150,-0.127682492,0.001501832,0.913708925
36.052782,4.256217957,25.753417969,-1.127227783,-0.127926633,0.002112184,0.906872988
36.053408,4.370658875,25.600830078,-0.936492920,-0.129757687,-0.001183715,0.904065371
36.054034,4.057853699,25.692382812,-1.066192627,-0.128659055,0.001501832,0.901868105
36.054659,3.989189148,25.646606445,-0.829681396,-0.130368039,-0.001061644,0.898816347
36.055285,3.958671570,25.524536133,-0.661834717,-0.127194211,-0.001305785,0.895886660
36.055911,3.836601257,25.577941895,-0.493988037,-0.129879758,0.000525270,0.893445253
36.056536,3.851860046,25.509277344,-0.425323486,-0.128903195,-0.001183715,0.890515566
36.057162,3.592460632,25.478759766,-0.448211670,-0.128292844,0.000769410,0.888196230
36.057789,3.661125183,25.310913086,-0.410064697,-0.128659055,-0.001916137,0.882703066
36.058415,3.531425476,25.486389160,0.009552002,-0.128414914,-0.002526488,0.879163027
36.059042,3.462760925,25.333801270,-0.051483154,-0.132077023,-0.000573363,0.873914003
36.059667,3.447502136,25.165954590,-0.051483154,-0.129635617,-0.003747191,0.872327089
36.060294,3.302543640,25.074401855,0.360504150,-0.130368039,-0.002770629,0.870618105
36.060919,3.127067566,25.219360352,0.116363525,-0.130612180,-0.003380980,0.869519472
36.061544,3.088920593,25.089660645,0.429168701,-0.129025266,-0.004235473,0.864758730
36.062171,3.104179382,24.753967285,0.413909912,-0.131466672,-0.004235473,0.863415956
36.062796,3.256767273,24.792114258,0.612274170,-0.132443234,-0.002404418,0.863660097
36.063423,3.317802429,24.799743652,0.635162354,-0.132443234,-0.003869262,0.856702089
36.064048,3.256767273,24.395385742,0.780120850,-0.131954953,-0.003747191,0.857312441
36.064674,3.424613953,24.380126953,0.825897217,-0.135128781,-0.004845824,0.856335878
36.065300,3.416984558,24.326721191,1.169219971,-0.138180539,-0.004601683,0.854382753
36.067132,3.149955750,23.907104492,1.443878174,-0.137692258,-0.002526488,0.843884706
36.067758,3.516166687,23.548522949,1.283660889,-0.135739133,-0.002526488,0.842786074
36.068384,3.149955750,23.128906250,1.375213623,-0.136105344,0.001501832,0.840832949
36.069011,3.066032410,23.228088379,1.779571533,-0.134518430,0.000036988,0.836560488
36.069636,3.249137878,22.945800781,1.855865479,-0.135739133,0.002844606,0.832776308
36.070261,3.378837585,22.648254395,1.817718506,-0.137936398,0.002356324,0.829236269
36.070886,3.439872742,22.350708008,1.886383057,-0.139279172,0.006262574,0.827527285
36.071511,3.478019714,21.969238281,2.077117920,-0.141110227,0.009070192,0.824353456
36.072138,3.439872742,21.740356445,2.229705811,-0.140377805,0.011145387,0.819470644
36.072765,3.569572449,21.519104004,2.344146729,-0.140255734,0.014441285,0.818127871
36.073392,3.729789734,21.244445801,2.336517334,-0.142208859,0.016882692,0.815076113
36.074019,3.935783386,20.801940918,2.191558838,-0.141354367,0.018469606,0.812146425
36.074646,3.935783386,20.504394531,2.374664307,-0.144039914,0.019568238,0.810925722
36.075271,3.890007019,20.351806641,2.229705811,-0.138790891,0.022742067,0.804455996
36.075896,3.905265808,19.924560547,2.351776123,-0.145138547,0.028601442,0.806287050
36.076521,4.172294617,19.489685059,2.443328857,-0.142208859,0.028967652,0.802991152
36.077147,4.141777039,19.367614746,2.527252197,-0.142086789,0.028357301,0.800549746
36.090007,3.920524597,9.449401855,2.542510986,-0.156124875,0.051306520,0.766980410
36.090767,4.088371277,8.839050293,2.588287354,-0.160031125,0.048376832,0.764294863
36.091392,4.332511902,8.488098145,2.679840088,-0.159786984,0.049109254,0.762463808
36.092019,4.088371277,7.908264160,2.656951904,-0.159909055,0.048987184,0.763684511
36.092644,4.439323425,7.313171387,2.435699463,-0.161129758,0.050574098,0.763806581
36.093271,4.172294617,6.832519531,2.397552490,-0.162472531,0.057287965,0.766247988
36.093897,4.591911316,6.100097656,2.443328857,-0.164181516,0.054724488,0.764416933
36.094523,4.599540710,5.535522461,2.496734619,-0.164181516,0.054358277,0.766003847
36.095148,4.881828308,4.978576660,2.450958252,-0.165768430,0.055090699,0.763562441
36.095775,4.767387390,4.360595703,2.397552490,-0.161862180,0.059485231,0.767224550
36.096400,4.950492859,3.910461426,2.565399170,-0.161373898,0.057410035,0.769910097
36.097025,5.255668640,3.376403809,2.359405518,-0.162106320,0.057532106,0.773328066
36.097650,5.438774109,3.071228027,2.214447021,-0.159909055,0.059973512,0.771497011
36.098275,5.431144714,1.758972168,2.313629150,-0.160153195,0.059607301,0.776746035
36.098900,5.766838074,1.476684570,2.267852783,-0.161740109,0.062536985,0.779431581
36.099527,5.766838074,0.942626953,2.328887939,-0.161984250,0.064123899,0.781995058
36.100154,5.949943542,0.561157227,2.077117920,-0.166989133,0.063879758,0.784924746
36.100780,5.934684753,0.065246582,2.107635498,-0.168453977,0.064734250,0.787122011
36.101406,6.018608093,-0.506958008,2.130523682,-0.175289914,0.065100461,0.792004824
36.102031,6.056755066,-0.781616211,2.229705811,-0.176998898,0.063879758,0.794690371
36.102657,6.148307800,-1.369079590,1.794830322,-0.182003781,0.063147336,0.794568300
36.103282,6.163566589,-1.880249023,1.794830322,-0.181393430,0.062781125,0.797742128
36.103908,6.148307800,-2.482971191,1.878753662,-0.187496945,0.066687375,0.801770449
36.104534,6.247489929,-2.833923340,1.619354248,-0.186764523,0.068518430,0.803479433
36.105161,6.300895691,-3.184875488,1.749053955,-0.184445187,0.069128782,0.803967714
36.105788,6.163566589,-3.955444336,1.474395752,-0.185055539,0.069983274,0.805798769
36.106413,6.033866882,-4.382690430,1.436248779,-0.179684445,0.073035032,0.804089785
36.107039,6.270378113,-4.733642578,1.359954834,-0.178463742,0.076086789,0.802624941
36.107665,6.155937195,-5.260070801,1.314178467,-0.176510617,0.076575071,0.804944277
36.108291,6.186454773,-5.694946289,1.207366943,-0.174069211,0.077307492,0.807873964
36.108917,6.010978699,-6.084045410,1.161590576,-0.175656125,0.081824094,0.805310488
36.109543,6.056755066,-6.595214844,1.230255127,-0.176998898,0.082556516,0.804211855
36.110169,5.789726257,-6.915649414,1.283660889,-0.175045773,0.081457883,0.807751894
36.110794,5.812614441,-7.114013672,0.986114502,-0.179318234,0.081457883,0.812390566
36.111419,5.614250183,-7.747253418,1.001373291,-0.174801633,0.082434446,0.812634706
36.112044,5.545585632,-8.151611328,1.024261475,-0.178341672,0.081579953,0.814587831
36.112670,5.667655945,-8.472045898,0.925079346,-0.176632687,0.086706907,0.813977480
36.113295,5.621879578,-8.998474121,0.825897217,-0.172482297,0.088904172,0.817517519
36.113921,5.187004089,-9.288391113,0.787750244,-0.173703000,0.089026242,0.818982363
36.114547,5.118339539,-9.654602051,0.810638428,-0.172970578,0.092566282,0.824231386
36.115172,4.935234070,-10.036071777,0.627532959,-0.174191281,0.097082883,0.825207949
36.115799,4.881828308,-10.287841797,0.726715088,-0.173092648,0.098181516,0.832043886
36.117600,4.126518250,-11.043151855,0.246063232,-0.174191281,0.103796750,0.836194277
36.118227,4.057853699,-11.401733398,0.230804443,-0.173092648,0.103430539,0.844006777
36.118852,3.638237000,-11.561950684,-0.143035889,-0.172238156,0.102087766,0.847790956
36.119477,3.424613953,-11.882385254,-0.074371338,-0.172482297,0.108923703,0.853039980
36.120103,2.654045105,-12.645324707,-0.287994385,-0.175045773,0.102942258,0.862073183
36.120728,2.181022644,-12.950500488,-0.486358643,-0.174557492,0.105994016,0.864270449
36.121353,1.692741394,-13.141235352,-0.539764404,-0.175900266,0.106482297,0.866345644
36.134094,-5.074531555,-17.993530273,-2.614959717,-0.151242062,0.100989133,0.916760683
36.134859,-5.372077942,-17.970642090,-2.645477295,-0.149044797,0.098303586,0.919568300
36.135484,-5.723030090,-18.031677246,-2.531036377,-0.144284055,0.103308469,0.924329042
36.136110,-6.112129211,-18.207153320,-2.660736084,-0.142819211,0.100134641,0.926892519
36.136736,-6.417304993,-18.268188477,-2.729400635,-0.138668820,0.095495969,0.932019472
36.137363,-6.752998352,-18.352111816,-2.927764893,-0.138912961,0.093054563,0.938245058
36.137988,-6.836921692,-18.664916992,-3.042205811,-0.137448117,0.093664914,0.942395449
36.138613,-6.913215637,-18.771728516,-3.179534912,-0.137326047,0.091467649,0.946423769
36.139239,-7.279426575,-18.970092773,-3.217681885,-0.132809445,0.095862180,0.953625917
36.139864,-7.363349915,-19.168457031,-3.423675537,-0.129879758,0.090979367,0.956799746
36.140491,-7.782966614,-19.198974609,-3.454193115,-0.123776242,0.092566282,0.967419863
36.141117,-8.011848450,-19.252380371,-3.942474365,-0.122677609,0.088049680,0.970959902
36.141743,-8.263618469,-19.275268555,-3.835662842,-0.116696164,0.089148313,0.976208925
36.142370,-8.179695129,-19.443115234,-3.835662842,-0.114376828,0.082922727,0.982190371
36.143004,-8.919746399,-19.054016113,-3.972991943,-0.109371945,0.076941282,0.989148378
36.143629,-8.736640930,-19.336303711,-4.087432861,-0.105099484,0.075354367,0.994153261
36.144255,-9.140998840,-19.290527344,-4.171356201,-0.102169797,0.071814328,0.999036074
36.144882,-9.346992493,-19.534667969,-4.270538330,-0.099362180,0.069739133,1.000134706
36.145508,-9.560615540,-19.496520996,-4.163726807,-0.098141477,0.065344602,1.004895449
36.146133,-9.858161926,-19.488891602,-4.438385010,-0.097897336,0.060950074,1.007458925
36.146758,-10.064155579,-19.366821289,-4.224761963,-0.094479367,0.058264527,1.010876894
36.147383,-10.071784973,-19.450744629,-4.232391357,-0.093136594,0.053747926,1.013806581
36.148008,-10.109931946,-19.397338867,-4.148468018,-0.093258664,0.050329957,1.018323183
36.148634,-10.071784973,-19.160827637,-4.293426514,-0.092037961,0.048620973,1.021741152
36.149259,-9.995491028,-19.092163086,-4.270538330,-0.092648312,0.043616090,1.019421816
36.149886,-9.934455872,-19.084533691,-4.499420166,-0.086178586,0.043127809,1.023328066
36.150512,-9.728462219,-19.145568848,-4.545196533,-0.085324094,0.042883668,1.025647402
36.151139,-9.514839172,-19.122680664,-4.499420166,-0.083981320,0.042029176,1.028577089
36.151765,-9.392768860,-19.046386719,-4.713043213,-0.079098508,0.037390504,1.028455019
36.152391,-9.324104309,-19.084533691,-4.514678955,-0.074826047,0.036780152,1.034680605
36.153016,-9.110481262,-19.046386719,-4.606231689,-0.068234250,0.034460817,1.035535097
36.153641,-8.896858215,-18.832763672,-4.735931396,-0.062985227,0.035437379,1.034314394
36.154266,-8.828193665,-18.825134277,-4.705413818,-0.055050660,0.034827027,1.043591738
36.154893,-8.782417297,-18.794616699,-4.629119873,-0.053219605,0.033728395,1.046277285
36.155519,-8.545906067,-18.436035156,-4.568084717,-0.050656129,0.030188356,1.046887636
36.156144,-8.500129700,-18.214782715,-4.552825928,-0.046749879,0.026770387,1.049939394
36.156769,-8.400947571,-18.016418457,-4.537567139,-0.042111207,0.025305543,1.053235292
36.157394,-8.400947571,-18.085083008,-4.446014404,-0.041378785,0.024817262,1.057263613
36.158020,-8.439094543,-17.779907227,-4.575714111,-0.041989136,0.023840699,1.059705019
36.158645,-8.362800598,-17.566284180,-4.217132568,-0.040524293,0.022742067,1.064954042
36.159272,-8.553535461,-17.291625977,-4.178985596,-0.041622926,0.021521363,1.067761660
36.159897,-8.652717590,-17.078002930,-3.957733154,-0.036007691,0.026770387,1.072644472
36.160523,-8.683235168,-16.635498047,-3.995880127,-0.036984254,0.027014527,1.075940371
36.161150,-9.140998840,-16.490539551,-3.644927979,-0.041134644,0.026648317,1.078747988
36.161775,-9.415657043,-16.505798340,-3.789886475,-0.041012574,0.027869020,1.082654238
36.162401,-9.781867981,-16.048034668,-3.599151611,-0.044430543,0.029333863,1.084485292
36.163028,-10.232002258,-15.834411621,-3.477081299,-0.046505738,0.032141481,1.089123964
36.177126,-15.221626282,-11.447509766,-1.722320557,-0.029782105,-0.028771605,1.113049746
36.177926,-14.969856262,-11.516174316,-1.653656006,-0.025631715,-0.037926879,1.115369081
36.178552,-14.489204407,-11.188110352,-1.554473877,-0.026852418,-0.038171019,1.119153261
36.179178,-14.107734680,-11.340698242,-1.371368408,-0.025143433,-0.042077269,1.119763613
36.179804,-13.161689758,-11.043151855,-1.218780518,-0.025509644,-0.046105590,1.118909121
36.180430,-13.268501282,-11.165222168,-1.241668701,-0.022702027,-0.050133910,1.116711855
36.181057,-12.284309387,-10.867675781,-0.860198975,-0.022702027,-0.058922973,1.116345644
36.181682,-11.658699036,-10.699829102,-0.822052002,-0.021603394,-0.059167113,1.116711855
36.182309,-10.972053528,-10.615905762,-0.776275635,-0.024533082,-0.062707156,1.119275331
36.182936,-10.308296204,-10.745605469,-0.425323486,-0.024166871,-0.062951297,1.116955996
36.183563,-9.545356750,-10.501464844,-0.349029541,-0.023312379,-0.062096801,1.120740175
36.184188,-8.873970032,-10.348876953,-0.387176514,-0.023556519,-0.064294070,1.116711855
36.184814,-8.095771790,-10.364135742,0.001922607,-0.018063355,-0.061974730,1.115247011
36.185440,-7.058174133,-10.203918457,0.261322021,-0.021115113,-0.063317508,1.115124941
36.186067,-6.463081360,-10.593017578,0.062957764,-0.022824097,-0.067467898,1.116589785
36.186693,-5.501777649,-10.417541504,0.352874756,-0.020504761,-0.065758914,1.116467714
36.187319,-4.937202454,-10.356506348,0.642791748,-0.015988160,-0.063683718,1.114514589
36.187944,-3.975898743,-10.463317871,0.696197510,-0.020870972,-0.066491336,1.116101503
36.188570,-3.136665344,-10.295471191,0.886932373,-0.018917847,-0.065880984,1.117566347
36.189196,-2.488166809,-10.394653320,0.963226318,-0.015621949,-0.064294070,1.119031191
36.189822,-1.900703430,-10.448059082,1.016632080,-0.015499879,-0.065636843,1.121960878
36.190448,-1.015693665,-10.486206055,1.123443604,-0.013912965,-0.066979617,1.123914003
36.191074,-0.412971497,-10.577758789,1.253143311,-0.010983277,-0.065758914,1.122693300
36.191699,0.464408875,-10.486206055,1.581207275,-0.011593629,-0.065636843,1.124890566
36.192324,1.021354675,-10.676940918,1.726165771,-0.005368043,-0.061364379,1.125378847
36.192949,1.692741394,-10.531982422,1.840606689,-0.004269410,-0.063927859,1.124646425
36.193575,2.432792664,-10.539611816,1.894012451,-0.004025269,-0.060631957,1.126477480
36.194200,3.203361511,-10.676940918,2.092376709,-0.003536988,-0.062707156,1.127454042
36.194826,3.752677917,-10.821899414,2.328887939,-0.003292847,-0.061852660,1.132580996
36.195451,4.225700378,-10.524353027,2.412811279,-0.004757691,-0.060143676,1.131604433
36.196076,4.752128601,-10.852416992,2.786651611,-0.002316285,-0.059777465,1.129040956
36.196702,5.446403503,-10.753234863,2.992645264,-0.002560426,-0.060265746,1.133313417
36.197329,5.866020203,-10.928710938,3.129974365,-0.004879761,-0.057946410,1.133679628
36.197983,6.461112976,-10.844787598,3.221527100,-0.001583863,-0.058068480,1.130505800
36.198608,6.842582703,-11.180480957,3.297821045,-0.002072144,-0.060143676,1.134534121
36.199233,7.681816101,-11.188110352,3.374114990,-0.003903199,-0.058190551,1.128796816
36.199858,8.315055847,-11.340698242,3.564849854,-0.000973511,-0.057091918,1.130872011
36.200484,8.818595886,-11.470397949,3.656402588,-0.001095582,-0.055871215,1.130261660
36.201110,9.322135925,-11.691650391,3.824249268,-0.003903199,-0.056237426,1.129040956
36.201735,9.741752625,-11.821350098,4.053131104,-0.000119019,-0.054406371,1.128674746
36.202361,10.291069031,-11.813720703,4.205718994,0.000125121,-0.055260863,1.126965761
36.202986,10.809867859,-12.111267090,4.182830811,0.002810668,-0.053185668,1.128674746
36.203612,11.450737000,-12.126525879,4.465118408,0.002810668,-0.051476683,1.127698183
36.204237,12.122123718,-12.561401367,4.571929932,0.004275512,-0.050988402,1.129040956
36.204862,12.640922546,-12.546142578,4.640594482,0.007571410,-0.050744262,1.131604433
36.205487,13.319938660,-12.744506836,4.922882080,0.006838989,-0.049523558,1.131726503
36.206112,13.861625671,-12.698730469,4.838958740,0.006961059,-0.049279418,1.133923769
36.218927,17.012565613,-15.040954590,7.082000732,0.060305785,0.027136598,1.179455996
36.219686,16.631095886,-14.812072754,7.143035889,0.062869266,0.029700074,1.181042910
36.220311,16.432731628,-14.751037598,7.287994385,0.065066531,0.034949098,1.191785097
36.220936,15.967338562,-15.086730957,7.211700439,0.068240359,0.038367067,1.192395449
36.221563,15.669792175,-14.979919434,7.249847412,0.072390750,0.040442262,1.195203066
36.222188,15.143363953,-14.827331543,7.089630127,0.073489383,0.041785035,1.199109316
36.222813,14.540641785,-14.888366699,7.379547119,0.079104617,0.045203004,1.202893496
36.223438,14.121025085,-14.903625488,7.074371338,0.081179813,0.047034059,1.203625917
36.224064,13.731925964,-14.743408203,7.219329834,0.083255008,0.047522340,1.207654238
36.224690,12.991874695,-14.842590332,7.333770752,0.084963992,0.049963746,1.213025331
36.225316,12.450187683,-14.674743652,7.417694092,0.092776492,0.052771363,1.210461855
36.227160,11.107414246,-14.468750000,7.295623779,0.103030398,0.052893434,1.221570253
36.227786,10.680168152,-14.552673340,7.242218018,0.107058719,0.057287965,1.226330996
36.228413,10.001152039,-14.339050293,7.181182861,0.112063602,0.057165895,1.226086855
36.229039,9.695976257,-14.270385742,7.341400146,0.118411258,0.057410035,1.228894472
36.229664,9.390800476,-14.064392090,7.303253174,0.119754031,0.059119020,1.227429628
36.230290,8.704154968,-14.117797852,7.440582275,0.123538211,0.058630738,1.234143496
36.230917,8.559196472,-13.927062988,7.333770752,0.127688602,0.058386598,1.233411074
36.231543,8.330314636,-13.850769043,7.341400146,0.129641727,0.060950074,1.238904238
36.232168,8.025138855,-13.797363281,7.577911377,0.135989383,0.060705934,1.240124941
36.232793,7.590263367,-13.721069336,7.287994385,0.138674930,0.062048707,1.242200136
36.233419,7.544487000,-13.347229004,7.364288330,0.141360477,0.063879758,1.243542910
36.234045,7.254570007,-12.996276855,7.265106201,0.143313602,0.063879758,1.247937441
36.234672,7.063835144,-12.881835938,7.249847412,0.142214969,0.064490110,1.252087831
36.235315,6.743400574,-12.897094727,7.303253174,0.146731570,0.068030149,1.254895449
36.235940,6.506889343,-12.836059570,7.204071045,0.148440555,0.069739133,1.255261660
36.236600,6.560295105,-12.385925293,7.234588623,0.152102664,0.068274289,1.254773378
36.237225,6.461112976,-12.363037109,7.127777100,0.153201297,0.069128782,1.264294863
36.237851,6.285636902,-12.279113770,7.074371338,0.154910281,0.073035032,1.265637636
36.238478,6.255119324,-11.981567383,7.005706787,0.159060672,0.071326047,1.266614199
36.239104,6.339042664,-11.905273438,6.990447998,0.161013797,0.074377805,1.269299746
36.239729,6.140678406,-11.767944336,7.043853760,0.162722781,0.074866086,1.270398378
36.240355,6.049125671,-11.592468262,6.944671631,0.163821414,0.075598508,1.272229433
36.240980,5.804985046,-11.203369141,6.807342529,0.166384891,0.075720578,1.273938417
36.241605,5.873649597,-11.272033691,6.631866455,0.163699344,0.076086789,1.276868105
36.242230,5.812614441,-11.020263672,6.662384033,0.164797977,0.078772336,1.281872988
36.242855,5.759208679,-10.600646973,6.570831299,0.168215945,0.078650266,1.281995058
36.243481,5.637138367,-10.425170898,6.334320068,0.169558719,0.078772336,1.286145449
36.244108,5.690544128,-10.432800293,6.372467041,0.174075320,0.080115110,1.286755800
36.244733,5.736320496,-10.005554199,6.311431885,0.178958133,0.079260617,1.292859316
36.245359,5.530326843,-9.883483887,6.135955811,0.177737430,0.081457883,1.296033144
36.245986,5.522697449,-9.639343262,5.830780029,0.177127078,0.079382688,1.295666933
36.246612,5.530326843,-9.303649902,5.960479736,0.181399539,0.083655149,1.299817324
36.247237,5.232780457,-8.937438965,5.853668213,0.184695438,0.084631711,1.302014589
36.247863,5.377738953,-8.731445312,5.624786377,0.184695438,0.085852414,1.301770449
36.248490,5.415885925,-8.617004395,5.601898193,0.187136844,0.084265500,1.307141542
36.249115,5.232780457,-8.441528320,5.449310303,0.186404422,0.085852414,1.307751894
36.249742,5.339591980,-7.976135254,5.281463623,0.184817508,0.083166867,1.309216738
36.262603,1.479118347,-1.269897461,3.625885010,0.169314578,0.087805539,1.314465761
36.263388,1.227348328,-1.109680176,3.282562256,0.167239383,0.088660032,1.313245058
36.264015,0.929801941,-0.934204102,2.992645264,0.164431766,0.086584836,1.318494081
36.264640,0.670402527,-0.400146484,3.068939209,0.166751102,0.087683469,1.313000917
36.265267,0.090568542,-0.056823730,3.313079834,0.165530398,0.089270383,1.311169863
36.265894,0.136344910,0.126281738,2.939239502,0.162844852,0.083655149,1.313367128
36.266520,-0.206977844,0.530639648,2.725616455,0.161624148,0.085486203,1.311047792
36.267146,-0.504524231,0.835815430,2.779022217,0.162356570,0.081946164,1.311902285
36.267771,-0.649482727,1.324096680,2.687469482,0.158816531,0.081702024,1.313977480
36.268398,-0.741035461,1.621643066,2.450958252,0.158450320,0.078161985,1.311780214
36.269023,-1.076728821,1.842895508,2.588287354,0.156863406,0.077795774,1.312512636
36.269648,-1.503974915,2.407470703,2.450958252,0.157351688,0.077063352,1.312268496
36.270273,-1.694709778,2.529541016,2.367034912,0.154422000,0.075598508,1.310193300
36.270898,-1.832038879,3.178039551,2.305999756,0.152957156,0.073035032,1.309460878
36.271525,-2.129585266,3.521362305,2.267852783,0.154299930,0.074377805,1.310437441
36.272150,-2.434761047,3.895202637,2.260223389,0.151980594,0.071448117,1.308240175
36.280665,-2.877265930,7.114807129,1.840606689,0.130374148,0.031653199,1.277478456
36.281292,-2.953559875,7.450500488,1.779571533,0.125857547,0.028479371,1.274548769
36.281917,-2.549201965,7.549682617,1.840606689,0.128054813,0.026160035,1.273328066
36.282543,-2.388984680,7.839599609,1.810089111,0.126712039,0.022497926,1.272351503
36.283168,-1.877815247,7.839599609,1.825347900,0.124026492,0.017981324,1.269421816
36.283794,-1.442939758,8.190551758,1.771942139,0.124514773,0.011145387,1.267468691
36.284420,-1.107246399,8.190551758,1.817718506,0.120364383,0.013953004,1.268323183
36.285045,-0.565559387,8.442321777,1.993194580,0.120486453,0.011023317,1.262707949
36.285670,-0.000984192,8.587280273,2.008453369,0.120120242,0.007239137,1.261365175
36.286295,0.433891296,8.549133301,1.916900635,0.119754031,0.004797731,1.255749941
36.286920,1.097648621,8.984008789,1.916900635,0.119631961,0.007849488,1.255994081
36.287547,1.692741394,9.045043945,1.955047607,0.117556766,0.004065309,1.254285097
36.288172,2.097099304,8.984008789,2.161041260,0.113528445,0.003821168,1.253186464
36.288799,2.737968445,9.304443359,1.916900635,0.114993289,0.002844606,1.252942324
36.289426,3.310173035,9.670654297,2.008453369,0.113284305,0.002356324,1.252942324
36.290051,3.813713074,9.525695801,2.305999756,0.111575320,0.004309449,1.248914003
36.290677,4.507987976,9.937683105,2.115264893,0.110476688,0.005896363,1.248303652
36.291303,4.965751648,10.273376465,2.206817627,0.111819461,0.001135621,1.247815371
36.291929,5.606620789,10.471740723,2.138153076,0.111697391,0.002722535,1.245862246
36.292555,6.079643250,10.692993164,2.176300049,0.108401492,0.007971559,1.248914003
36.293180,6.613700867,10.754028320,2.275482178,0.105593875,0.007849488,1.248181581
36.293807,7.025688171,11.051574707,2.267852783,0.106204227,0.008459840,1.249524355
36.294432,7.536857605,11.310974121,2.321258545,0.106082156,0.012854371,1.247327089
36.295057,7.903068542,11.593261719,2.237335205,0.103884891,0.012366090,1.249036074
36.295682,8.360832214,11.822143555,2.275482178,0.103152469,0.013342652,1.246960878
36.296307,8.650749207,12.195983887,2.420440674,0.102786258,0.012976442,1.245251894
36.296932,8.925407410,12.272277832,2.275482178,0.099124148,0.017004762,1.245862246
36.297558,9.535758972,12.485900879,2.405181885,0.097537234,0.020056520,1.245618105
36.298183,9.627311707,12.981811523,2.458587646,0.100466922,0.022864137,1.248181581
36.298810,9.825675964,13.203063965,2.573028564,0.097415164,0.026648317,1.246838808
36.299435,9.955375671,13.607421875,2.275482178,0.097781375,0.027136598,1.244763613
36.300060,10.031669617,14.103332520,2.450958252,0.096560672,0.027746949,1.245251894
36.300685,9.970634460,14.255920410,2.275482178,0.094851688,0.029578004,1.245740175
36.301310,10.474174500,14.606872559,2.389923096,0.093386844,0.030432496,1.245618105
36.314164,10.786979675,21.274963379,2.214447021,0.051760864,0.040076051,1.167737246
36.314926,10.588615417,21.374145508,2.176300049,0.049075317,0.039343629,1.165051699
36.315552,10.619132996,21.686950684,2.145782471,0.050418090,0.040808473,1.163464785
36.316177,10.802238464,22.129455566,2.206817627,0.046389770,0.043860231,1.162244081
36.316803,10.954826355,22.259155273,2.214447021,0.041995239,0.043616090,1.154919863
36.317430,10.863273621,22.480407715,2.214447021,0.043826293,0.046545777,1.154065371
36.318056,10.886161804,22.991577148,2.122894287,0.042849731,0.047156129,1.149182558
36.318682,11.000602722,23.144165039,2.183929443,0.039309692,0.049841676,1.149548769
36.319308,10.840385437,23.411193848,2.061859131,0.038943481,0.050329957,1.147107363
36.319933,10.825126648,23.670593262,1.985565186,0.036990356,0.048132692,1.143689394
36.320559,10.817497253,23.746887207,1.977935791,0.036135864,0.051184449,1.142712831
36.321184,10.642021179,24.372497559,1.962677002,0.037966918,0.051306520,1.139416933
36.321810,10.542839050,24.593750000,1.939788818,0.035769653,0.052893434,1.136975527
36.322435,10.634391785,24.967590332,1.962677002,0.033206176,0.055701051,1.133923769
36.323062,10.214775085,25.196472168,1.993194580,0.030764770,0.055701051,1.135266542
36.323689,10.123222351,25.570312500,1.901641846,0.029544067,0.057410035,1.133435488
36.324316,10.085075378,25.806823730,1.810089111,0.026858520,0.057165895,1.128918886
36.324941,9.856193542,26.287475586,1.848236084,0.025759887,0.058264527,1.126355410
36.325568,9.909599304,26.585021973,1.611724854,0.024539184,0.059729371,1.123303652
36.326193,9.505241394,26.981750488,1.749053955,0.023440551,0.059119020,1.121594667
36.326818,9.291618347,27.271667480,1.726165771,0.022097778,0.059241090,1.118054628
36.327443,9.428947449,27.531066895,1.436248779,0.018557739,0.056799684,1.115002871
36.328068,8.963554382,27.958312988,1.443878174,0.017337035,0.060950074,1.113293886
36.328695,8.826225281,28.171936035,1.520172119,0.015261840,0.062536985,1.111096621
36.329320,8.757560730,28.355041504,1.520172119,0.015872192,0.061926637,1.105725527
36.331164,8.208244324,29.545227051,1.443878174,0.015139770,0.061194215,1.090955019
36.331790,7.956474304,29.812255859,1.108184814,0.010623168,0.062048707,1.084851503
36.332417,7.964103699,30.346313477,1.283660889,0.009890746,0.058874879,1.076428652
36.333044,7.986991882,30.521789551,1.138702393,0.005007934,0.057776246,1.074841738
36.333669,7.758110046,30.811706543,1.001373291,0.002200317,0.056921754,1.072888613
36.334296,7.575004578,31.109252930,1.016632080,-0.002316285,0.056555543,1.065808535
36.334921,7.765739441,31.254211426,0.925079346,-0.004757691,0.056555543,1.056409121
36.335547,7.620780945,31.597534180,0.642791748,-0.007687379,0.055334840,1.050671816
36.336173,7.697074890,31.803527832,0.787750244,-0.009762574,0.053015504,1.043713808
36.336798,7.834403992,31.826416016,0.757232666,-0.015011597,0.049719606,1.033826113
36.337424,7.880180359,32.184997559,0.597015381,-0.016598511,0.049841676,1.029797792
36.338051,7.803886414,32.406250000,0.558868408,-0.018307496,0.045325074,1.020154238
36.338698,7.849662781,32.551208496,0.642791748,-0.022457886,0.046545777,1.018323183
36.339324,8.200614929,32.589355469,0.589385986,-0.027706910,0.045935426,1.009167910
36.339949,8.437126160,32.757202148,0.513092041,-0.027584840,0.046057496,1.001477480
36.340575,8.528678894,32.902160645,0.429168701,-0.027340699,0.046423707,0.995373964
36.341200,8.757560730,33.047119141,0.513092041,-0.033444215,0.047278199,0.989880800
36.341825,8.780448914,33.077636719,0.558868408,-0.031246949,0.049353395,0.981335878
36.342450,8.910148621,33.146301270,0.307098389,-0.030148316,0.048620973,0.975232363
36.343077,9.116142273,33.390441895,0.207916260,-0.036129761,0.046667848,0.971326113
36.343703,9.276359558,33.611694336,0.261322021,-0.034542847,0.049231324,0.965100527
36.344328,9.070365906,33.276000977,0.070587158,-0.038693238,0.048987184,0.957898378
36.344953,9.428947449,33.375183105,0.146881104,-0.039303590,0.052405152,0.953747988
36.345579,9.749382019,33.504882812,0.078216553,-0.042233277,0.051184449,0.948987246
36.358506,7.758110046,32.452026367,-1.081451416,-0.095700070,0.046911988,0.831677675
36.359291,7.666557312,31.948486328,-0.967010498,-0.096920773,0.043616090,0.822766542
36.359916,7.239311218,31.979003906,-1.096710205,-0.102169797,0.040686402,0.819226503
36.360541,7.124870300,31.681457520,-1.050933838,-0.105709836,0.042395387,0.807507753
36.361166,7.056205750,31.467834473,-1.058563232,-0.107785031,0.039221559,0.803479433
36.361792,6.674736023,31.208435059,-1.218780518,-0.112667844,0.038977418,0.798230410
36.362419,6.689994812,30.826965332,-1.287445068,-0.118527219,0.041540895,0.788098574
36.363045,6.514518738,30.651489258,-1.356109619,-0.117550656,0.041296754,0.782727480
36.363672,6.392448425,30.308166504,-1.211151123,-0.124020383,0.040320192,0.774792910
36.364297,6.163566589,29.995361328,-1.203521729,-0.126095578,0.037390504,0.770886660
36.364922,6.232231140,29.629150391,-1.333221436,-0.128170773,0.033484254,0.766125917
36.365547,5.942314148,29.240051270,-1.386627197,-0.132931516,0.035925660,0.759900331
36.366172,5.896537781,28.805175781,-1.249298096,-0.133175656,0.038367067,0.755139589
36.366798,5.705802917,28.614440918,-1.554473877,-0.134030148,0.035925660,0.753430605
36.367423,5.553215027,28.164306641,-1.539215088,-0.135617062,0.036413942,0.746716738
36.368049,5.499809265,27.798095703,-1.417144775,-0.137692258,0.034582887,0.742322206
36.368674,5.202262878,27.180114746,-1.562103271,-0.140744016,0.033850465,0.741833925
36.369300,4.973381042,26.981750488,-1.462921143,-0.141964719,0.030554567,0.735120058
36.369926,4.713981628,26.737609863,-1.234039307,-0.144650266,0.031286988,0.729993105
36.370551,4.454582214,26.333251953,-1.279815674,-0.152096555,0.027991090,0.726086855
36.371178,3.996818542,25.463500977,-1.447662354,-0.152828977,0.027624879,0.724744081
36.371804,3.920524597,25.371948242,-1.424774170,-0.151364133,0.026282106,0.723645449
36.372430,3.890007019,24.876037598,-1.256927490,-0.154171750,0.025915895,0.718396425
36.373057,3.500907898,24.380126953,-1.333221436,-0.157711789,0.028723512,0.721448183
36.373684,3.264396667,23.868957520,-1.302703857,-0.161740109,0.031042848,0.715588808
36.374310,2.760856628,23.518005371,-1.424774170,-0.159298703,0.027991090,0.712170839
36.374935,2.631156921,23.373046875,-1.569732666,-0.161129758,0.026770387,0.707776308
36.375561,2.364128113,22.869506836,-1.325592041,-0.161618039,0.029333863,0.705823183
36.376188,2.066581726,22.564331055,-1.134857178,-0.167599484,0.031897340,0.704846621
36.376814,1.753776550,22.076049805,-1.256927490,-0.168820187,0.028357301,0.701550722
36.377439,1.341789246,21.671691895,-1.417144775,-0.171017453,0.029578004,0.702649355
36.378065,1.196830750,21.244445801,-1.386627197,-0.174557492,0.027502809,0.702771425
36.378692,0.838249207,20.931640625,-1.455291748,-0.174679562,0.024573121,0.702039003
36.379317,0.411003113,20.389953613,-1.394256592,-0.176998898,0.026526246,0.699109316
36.381163,-0.245124817,19.176879883,-1.607879639,-0.176754758,0.024817262,0.693127871
36.381790,-0.390083313,18.574157715,-1.539215088,-0.178585812,0.021277223,0.687512636
36.382415,-0.512153625,18.398681641,-1.760467529,-0.181027219,0.016516481,0.688367128
36.383041,-0.702888489,17.933288574,-1.676544189,-0.182003781,0.020788942,0.684460878
36.383667,-0.969917297,17.292419434,-1.569732666,-0.177853391,0.014807496,0.684705019
36.384292,-1.336128235,16.842285156,-1.623138428,-0.179806516,0.012488160,0.685193300
36.384917,-1.076728821,16.750732422,-1.607879639,-0.180416867,0.010535035,0.679822206
36.385543,-1.374275208,16.125122070,-1.638397217,-0.180294797,0.011145387,0.675427675
36.386170,-1.526863098,15.568176270,-1.523956299,-0.183712766,0.009192262,0.675915956
36.386795,-1.450569153,15.285888672,-1.707061768,-0.179928586,0.007605348,0.669934511
36.387420,-1.465827942,14.713684082,-1.630767822,-0.182003781,0.010779176,0.670056581
36.388045,-1.481086731,14.355102539,-1.333221436,-0.180172727,0.007971559,0.667737246
36.388670,-1.595527649,14.004150391,-1.646026611,-0.181759641,0.006750856,0.662366152
36.389296,-1.473457336,13.485351562,-1.455291748,-0.182247922,0.005163942,0.661755800
36.402151,-1.854927063,3.010192871,-1.699432373,-0.189572141,0.004675660,0.649792910
36.402883,-2.007514954,2.293029785,-1.493438721,-0.186886594,0.006506715,0.651623964
36.403510,-2.335578918,1.957336426,-1.630767822,-0.185055539,0.007727418,0.653577089
36.404135,-2.434761047,1.736083984,-1.554473877,-0.181149289,0.008826051,0.653943300
36.404760,-2.564460754,1.102844238,-1.737579346,-0.183834836,0.013464723,0.656750917
36.405386,-2.823860168,0.690856934,-1.653656006,-0.179928586,0.010535035,0.660290956
36.406011,-2.892524719,0.317016602,-1.630767822,-0.180783078,0.011511598,0.660290956
36.406637,-3.136665344,-0.003417969,-1.584991455,-0.176510617,0.016394410,0.662854433
36.407262,-3.258735657,-0.316223145,-1.478179932,-0.175167844,0.013830934,0.663586855
36.407888,-3.533393860,-0.796875000,-1.745208740,-0.175289914,0.016638551,0.667248964
36.408513,-3.899604797,-0.804504395,-1.623138428,-0.171505734,0.016760621,0.669690371
36.409138,-4.097969055,-1.437744141,-1.562103271,-0.173825070,0.017004762,0.671277285
36.409764,-4.250556946,-1.597961426,-1.707061768,-0.168698117,0.018103395,0.671887636
36.410389,-4.799873352,-1.887878418,-1.699432373,-0.167721555,0.020056520,0.673962831
36.411014,-4.982978821,-2.414306641,-1.646026611,-0.166989133,0.022864137,0.678479433
36.411639,-5.478889465,-2.597412109,-1.821502686,-0.165036008,0.023596559,0.681897402
36.412265,-5.661994934,-2.872070312,-1.821502686,-0.165280148,0.021643434,0.680066347
36.412892,-6.035835266,-3.123840332,-1.714691162,-0.166378781,0.020911012,0.683484316
36.413518,-6.356269836,-3.596862793,-1.790985107,-0.162960812,0.025061402,0.687390566
36.414143,-6.730110168,-3.406127930,-1.676544189,-0.163693234,0.022497926,0.687634706
36.414770,-6.966621399,-3.940185547,-1.699432373,-0.162594602,0.023840699,0.691174746
36.415395,-7.180244446,-4.176696777,-1.760467529,-0.162716672,0.024451051,0.693860292
36.416022,-7.638008118,-4.283508301,-1.813873291,-0.158810422,0.022864137,0.696301699
36.416649,-8.088142395,-4.359802246,-1.821502686,-0.160153195,0.018469606,0.694592714
36.417276,-8.126289368,-4.748901367,-1.699432373,-0.158810422,0.020544801,0.697400331
36.417901,-8.362800598,-4.878601074,-1.966461182,-0.160397336,0.021643434,0.699841738
36.418527,-8.820564270,-5.008300781,-1.867279053,-0.157955930,0.022986207,0.701794863
36.419153,-8.889228821,-5.427917480,-1.890167236,-0.158932492,0.017370973,0.701916933
36.419780,-9.133369446,-5.641540527,-2.103790283,-0.159176633,0.019934449,0.704114199
36.420406,-9.362251282,-5.794128418,-1.897796631,-0.155392453,0.019324098,0.706311464
36.421033,-9.652168274,-5.992492676,-2.073272705,-0.156979367,0.016150270,0.704602480
36.421659,-9.568244934,-6.122192383,-1.920684814,-0.156857297,0.017370973,0.706067324
36.422286,-9.797126770,-6.251892090,-2.004608154,-0.153927609,0.014197145,0.708752871
36.422911,-10.163337708,-6.671508789,-2.149566650,-0.150265500,0.012488160,0.713025331
36.423537,-10.087043762,-6.747802734,-2.347930908,-0.150387570,0.014197145,0.711560488
36.424163,-10.056526184,-6.915649414,-2.195343018,-0.149411008,0.010779176,0.713147402
36.424790,-10.071784973,-7.182678223,-1.935943604,-0.145504758,0.011877809,0.715222597
36.425415,-10.323554993,-7.480224609,-2.439483643,-0.146237180,0.013098512,0.711194277
36.426042,-10.155708313,-7.937988281,-2.157196045,-0.144772336,0.011267457,0.717053652
36.426668,-10.178596497,-7.808288574,-2.340301514,-0.142453000,0.009314332,0.716077089
36.427295,-10.026008606,-8.266052246,-2.309783936,-0.143673703,0.007727418,0.715588808
36.427920,-10.247261047,-8.197387695,-2.218231201,-0.141598508,0.006628785,0.717908144
36.428546,-10.026008606,-8.571228027,-2.340301514,-0.139645383,0.007971559,0.721326113
36.429173,-10.117561340,-8.456787109,-2.294525146,-0.138668820,0.008215699,0.722180605
36.429800,-10.094673157,-8.563598633,-2.248748779,-0.136349484,0.007605348,0.722302675
36.431617,-9.690315247,-9.288391113,-2.225860596,-0.132565305,0.005774293,0.730359316
36.432242,-9.598762512,-9.425720215,-2.470001221,-0.132199094,0.006384645,0.732312441
36.445063,-7.767707825,-11.401733398,-3.103240967,-0.114620969,0.006506715,0.773816347
36.445835,-7.752449036,-11.218627930,-3.087982178,-0.113400266,0.002722535,0.776379824
36.446460,-7.531196594,-11.569580078,-3.187164307,-0.115109250,0.002356324,0.775891542
36.447087,-7.302314758,-11.752685547,-3.202423096,-0.114010617,0.001135621,0.770276308
36.447714,-7.203132629,-11.882385254,-3.095611572,-0.117306516,-0.001183715,0.769910097
36.448340,-6.905586243,-12.012084961,-3.217681885,-0.117794797,-0.005334105,0.771252871
36.448966,-6.630928040,-12.157043457,-3.057464600,-0.120968625,-0.010827269,0.769055605
36.449593,-6.363899231,-12.507995605,-3.164276123,-0.121945187,-0.010338988,0.767590761
36.450219,-6.173164368,-12.691101074,-3.042205811,-0.124752805,-0.014367308,0.768323183
36.450845,-5.753547668,-12.950500488,-3.255828857,-0.128414914,-0.018151488,0.766858339
36.451471,-5.471260071,-13.347229004,-3.194793701,-0.136471555,-0.021935668,0.764294863
36.452096,-5.181343079,-13.797363281,-3.278717041,-0.132077023,-0.022912230,0.763806581
36.452723,-4.654914856,-14.209350586,-3.408416748,-0.138180539,-0.026818480,0.763074160
36.453348,-4.372627258,-14.567932129,-3.271087646,-0.136959836,-0.030602660,0.759534121
36.453974,-3.846199036,-15.231689453,-3.309234619,-0.135250852,-0.033410277,0.759412050
36.454600,-3.502876282,-15.559753418,-3.461822510,-0.139035031,-0.038903441,0.759412050
36.455225,-2.862007141,-15.719970703,-3.225311279,-0.134884641,-0.042565551,0.760144472
36.455850,-2.587348938,-16.559204102,-3.339752197,-0.135006711,-0.048424926,0.761853456
36.456475,-2.045661926,-16.872009277,-3.316864014,-0.133175656,-0.050744262,0.761609316
36.457102,-1.603157043,-17.093261719,-3.194793701,-0.130856320,-0.055260863,0.763806581
36.457728,-1.183540344,-17.619689941,-3.042205811,-0.128536984,-0.062585086,0.765637636
36.458353,-0.390083313,-17.901977539,-2.996429443,-0.126583859,-0.062096801,0.767956972
36.458978,0.075309753,-18.268188477,-2.912506104,-0.125851437,-0.065270633,0.772595644
36.459603,0.433891296,-18.741210938,-2.721771240,-0.124508664,-0.065758914,0.775891542
36.460241,0.967948914,-18.848022461,-2.447113037,-0.122433469,-0.068810672,0.781018496
36.460868,1.791923523,-19.137939453,-2.279266357,-0.122555539,-0.068200320,0.784802675
36.461493,2.036064148,-19.633850098,-2.004608154,-0.119869992,-0.070763797,0.791394472
36.462120,2.448051453,-19.763549805,-1.928314209,-0.121212766,-0.070275515,0.797620058
36.462745,2.715080261,-19.954284668,-1.722320557,-0.120480344,-0.069665164,0.801648378
36.463372,2.982109070,-20.495971680,-1.729949951,-0.115963742,-0.071007937,0.804333925
36.464003,3.317802429,-20.618041992,-1.577362061,-0.120236203,-0.064660281,0.811658144
36.464628,3.455131531,-20.831665039,-1.432403564,-0.119015500,-0.064538211,0.819714785
36.465253,3.714530945,-21.060546875,-1.150115967,-0.117672727,-0.062340941,0.826916933
36.465879,3.890007019,-21.396240234,-1.272186279,-0.116696164,-0.058800902,0.833752871
36.466504,3.958671570,-21.510681152,-1.058563232,-0.115109250,-0.056725707,0.835705996
36.467130,3.928153992,-21.609863281,-0.967010498,-0.116696164,-0.058312621,0.841077089
36.467757,4.034965515,-21.869262695,-0.860198975,-0.111691281,-0.057336058,0.848645449
36.468382,3.935783386,-21.869262695,-0.600799561,-0.110104367,-0.056725707,0.852673769
36.469007,3.966300964,-22.021850586,-0.516876221,-0.109738156,-0.056847777,0.860242128
36.469632,3.928153992,-21.983703613,-0.318511963,-0.107052609,-0.060021605,0.868787050
36.470259,3.607719421,-22.067626953,-0.188812256,-0.107296750,-0.057213988,0.867444277
36.470884,3.607719421,-22.220214844,0.101104736,-0.104855344,-0.056237426,0.875134706
36.471509,3.371208191,-22.021850586,0.215545654,-0.102780148,-0.058434691,0.877942324
36.472134,3.188102722,-22.136291504,0.490203857,-0.099240109,-0.053185668,0.880139589
36.472759,2.814262390,-22.151550293,0.734344482,-0.101925656,-0.056237426,0.887585878
36.473384,2.737968445,-22.006591797,0.902191162,-0.099484250,-0.054162230,0.888196230
36.474009,2.646415710,-22.067626953,1.146331787,-0.097164914,-0.052209105,0.890027285
36.488015,-0.504524231,-20.358642578,4.022613525,-0.060421754,-0.025353637,0.953381777
36.488767,-0.451118469,-20.251831055,4.289642334,-0.059445191,-0.024865355,0.959363222
36.489392,-0.489265442,-20.450195312,4.472747803,-0.057492066,-0.020837035,0.961926699
36.490017,-0.245124817,-20.145019531,4.579559326,-0.056393433,-0.020226683,0.963635683
36.490644,-0.321418762,-20.076354980,4.831329346,-0.054074097,-0.019860473,0.965222597
36.491269,0.128715515,-20.015319824,4.785552979,-0.053341676,-0.013146605,0.971448183
36.491895,-0.100166321,-20.053466797,4.671112061,-0.054928590,-0.015710082,0.974744081
36.492521,0.082939148,-20.022949219,5.022064209,-0.051754761,-0.009606566,0.974011660
36.493147,0.029533386,-20.183166504,5.029693604,-0.049801636,-0.008507933,0.978284121
36.493774,0.044792175,-19.900878906,5.136505127,-0.049801636,-0.007775512,0.980725527
36.494399,0.197380066,-20.228942871,5.052581787,-0.050656129,-0.005089965,0.984265566
36.495024,0.319450378,-20.114501953,5.174652100,-0.048458863,-0.003014769,0.982068300
36.495650,0.601737976,-20.183166504,5.205169678,-0.044674683,0.000159059,0.986584902
36.496276,0.700920105,-20.122131348,5.304351807,-0.044674683,0.002722535,0.987439394
36.496901,1.021354675,-20.045837402,5.403533936,-0.042355347,0.006872926,0.989270449
36.497527,1.074760437,-20.053466797,5.380645752,-0.040646363,0.009314332,0.990369081
36.498153,1.273124695,-20.145019531,5.617156982,-0.038815308,0.015539918,0.993787050
36.498779,1.326530457,-20.152648926,5.350128174,-0.035641480,0.018835817,0.999036074
36.499404,1.723258972,-19.908508301,5.617156982,-0.033322144,0.024328981,1.004407167
36.500029,1.883476257,-20.091613770,5.456939697,-0.034542847,0.025061402,1.005017519
36.500656,1.936882019,-19.733032227,5.441680908,-0.033810426,0.032751832,1.009900331
36.501282,2.127616882,-19.839843750,5.151763916,-0.029537965,0.038855348,1.013928652
36.501907,2.402275085,-19.656738281,5.395904541,-0.029782105,0.041052613,1.017468691
36.502534,2.577751160,-19.458374023,5.357757568,-0.024899293,0.049353395,1.019177675
36.503159,2.867668152,-19.366821289,5.197540283,-0.021725465,0.052893434,1.026746035
36.503785,2.898185730,-19.389709473,5.189910889,-0.023556519,0.058508668,1.031506777
36.504412,2.852409363,-19.244750977,5.144134521,-0.019284058,0.067419797,1.036755800
36.505037,2.905815125,-19.023498535,4.884735107,-0.016110230,0.071203977,1.040906191
36.505663,2.760856628,-18.855651855,5.136505127,-0.011105347,0.076086789,1.044812441
36.506289,2.692192078,-18.680175781,4.877105713,-0.012081910,0.078406125,1.051892519
36.506916,2.425163269,-18.359741211,4.732147217,-0.011593629,0.082190305,1.054333925
36.507541,2.676933289,-18.176635742,4.808441162,-0.007565308,0.087683469,1.061536074
36.508167,2.356498718,-18.130859375,4.686370850,-0.005856324,0.093420774,1.064099550
36.508792,2.165763855,-17.604431152,4.625335693,-0.004513551,0.098059446,1.071179628
36.509418,1.967399597,-17.276367188,4.480377197,-0.000241090,0.101965696,1.075818300
36.510044,1.540153503,-17.123779297,4.091278076,-0.004025269,0.102331907,1.077283144
36.510670,1.578300476,-16.688903809,4.106536865,-0.008053590,0.109289914,1.084973574
36.511297,1.189201355,-16.223510742,4.121795654,-0.002926636,0.113074094,1.089368105
36.511924,0.861137390,-16.025146484,3.938690186,-0.001950074,0.115271360,1.088147402
36.512549,0.533073425,-15.735229492,3.892913818,-0.001217652,0.118933469,1.094983339
36.513175,0.266044617,-15.224060059,3.717437744,-0.000729371,0.121985227,1.100110292
36.513801,-0.115425110,-15.071472168,3.427520752,-0.000119019,0.124182492,1.103528261
36.514426,-0.397712708,-14.682373047,3.259674072,-0.002194215,0.127722532,1.104260683
36.515052,-0.702888489,-14.094909668,3.297821045,-0.001950074,0.132605344,1.108044863
36.515677,-1.091987610,-13.782104492,3.076568604,-0.002926636,0.130163938,1.108777285
36.516303,-1.618415833,-13.263305664,2.908721924,-0.002926636,0.135657102,1.115735292
36.516928,-1.870185852,-12.805541992,2.832427979,-0.004513551,0.134924680,1.115124941
36.517553,-2.450019836,-12.530883789,2.481475830,-0.000119019,0.139197141,1.114148378
36.538371,-8.416206360,-0.209411621,-3.042205811,-0.019284058,0.113196164,1.124036074
36.539174,-8.317024231,-0.133117676,-3.164276123,-0.020748902,0.108069211,1.123669863
36.539800,-8.141548157,0.225463867,-3.164276123,-0.023800660,0.107092649,1.120740175
36.540425,-8.019477844,0.355163574,-3.217681885,-0.028927613,0.105749875,1.120984316
36.541050,-8.194953918,0.706115723,-3.492340088,-0.031246949,0.103308469,1.110974550
36.541675,-8.255989075,0.904479980,-3.576263428,-0.036618043,0.099646360,1.113782167
36.542301,-8.118659973,0.965515137,-3.858551025,-0.033566285,0.100012571,1.109875917
36.542927,-8.027107239,1.140991211,-3.576263428,-0.041378785,0.100012571,1.110852480
36.543552,-8.057624817,1.240173340,-3.911956787,-0.045895386,0.100256711,1.110120058
36.544226,-7.599861145,1.491943359,-4.018768311,-0.043942261,0.093664914,1.109631777
36.544851,-7.561714172,1.873413086,-4.178985596,-0.050778199,0.095129758,1.108411074
36.545477,-7.363349915,2.109924316,-4.339202881,-0.049923707,0.093909055,1.107556581
36.546104,-7.500679016,2.048889160,-4.499420166,-0.054318238,0.092566282,1.111340761
36.546729,-7.409126282,2.247253418,-4.484161377,-0.052487183,0.091223508,1.112683535
36.547354,-7.378608704,2.491394043,-4.514678955,-0.058590699,0.090491086,1.113293886
36.547979,-7.454902649,2.590576172,-4.835113525,-0.055050660,0.085486203,1.117322206
36.548605,-7.134468079,2.819458008,-4.919036865,-0.057247926,0.082800657,1.115979433
36.549231,-7.424385071,3.055969238,-5.002960205,-0.058712769,0.077795774,1.122937441
36.549858,-7.378608704,3.239074707,-4.690155029,-0.059323121,0.079260617,1.120251894
36.550483,-7.393867493,3.536621094,-5.125030518,-0.061398316,0.074988157,1.128918886
36.551108,-7.294685364,3.879943848,-4.835113525,-0.061764527,0.072668821,1.130505800
36.551734,-7.370979309,4.032531738,-4.873260498,-0.061642457,0.070349485,1.134900331
36.552361,-7.470161438,4.421630859,-4.949554443,-0.058956910,0.066199094,1.135754824
36.552986,-7.882148743,4.757324219,-4.835113525,-0.062130738,0.064001828,1.138928652
36.553612,-7.790596008,5.093017578,-4.880889893,-0.060665894,0.059241090,1.141003847
36.554237,-7.821113586,5.329528809,-4.796966553,-0.063595578,0.055701051,1.141614199
36.554863,-7.737190247,5.665222168,-4.888519287,-0.064572141,0.052893434,1.145398378
36.555490,-7.905036926,5.718627930,-4.880889893,-0.066403195,0.048987184,1.147473574
36.556116,-8.011848450,6.290832520,-4.774078369,-0.067379758,0.048010621,1.146863222
36.556741,-8.141548157,6.649414062,-4.636749268,-0.067501828,0.042517457,1.145398378
36.557383,-7.966072083,7.168212891,-4.835113525,-0.067379758,0.039953981,1.146985292
36.558008,-7.889778137,7.374206543,-4.606231689,-0.067745969,0.035803590,1.145642519
36.558635,-7.775337219,7.526794434,-4.644378662,-0.071286008,0.030676637,1.144665956
36.559260,-7.805854797,8.030334473,-4.301055908,-0.068966672,0.027502809,1.140515566
36.559885,-7.630378723,8.282104492,-4.301055908,-0.073727414,0.022375856,1.140759706
36.560510,-7.218391418,8.472839355,-4.461273193,-0.074948117,0.020178590,1.141370058
36.561137,-7.050544739,8.808532715,-4.293426514,-0.077389523,0.016394410,1.141492128
36.561762,-6.867439270,9.266296387,-4.148468018,-0.079586789,0.010290895,1.139050722
36.562388,-6.508857727,9.281555176,-4.011138916,-0.079586789,0.008215699,1.134534121
36.563013,-5.814582825,9.701171875,-3.942474365,-0.082272336,0.005652223,1.132336855
36.563638,-5.456001282,9.960571289,-4.041656494,-0.082760617,0.002844606,1.127576113
36.564263,-5.074531555,10.227600098,-3.652557373,-0.079953000,0.001257692,1.129040956
36.564888,-4.441291809,10.250488281,-3.629669189,-0.082150266,-0.000939574,1.125622988
36.565513,-4.021675110,10.570922852,-3.736480713,-0.082272336,-0.005944457,1.123547792
36.566139,-3.090888977,10.799804688,-3.705963135,-0.081417844,-0.003991332,1.119275331
36.566776,-2.816230774,10.555664062,-3.347381592,-0.079342648,-0.006676879,1.117932558
36.567431,-2.129585266,11.135498047,-3.171905518,-0.081295773,-0.007287230,1.114880800
36.568057,-1.435310364,11.150756836,-3.019317627,-0.082638547,-0.005944457,1.112927675
36.580895,6.018608093,15.606323242,-1.256927490,-0.073727414,0.033850465,1.125745058
36.581667,5.766838074,16.155639648,-1.028045654,-0.070919797,0.039953981,1.122082949
36.582292,5.866020203,16.460815430,-1.188262939,-0.067013547,0.040442262,1.120618105
36.582918,5.591362000,16.659179688,-1.119598389,-0.067379758,0.042639527,1.119763613
36.583571,5.537956238,16.842285156,-1.035675049,-0.067379758,0.040808473,1.120862246
36.584196,5.286186218,17.208496094,-1.028045654,-0.065304562,0.042761598,1.117688417
36.584822,5.240409851,17.452636719,-0.883087158,-0.065792844,0.044470582,1.117322206
36.585447,4.996269226,17.589965820,-0.753387451,-0.064328000,0.044226442,1.108655214
36.586074,4.904716492,17.696777344,-0.860198975,-0.064205930,0.042883668,1.107068300
36.586700,4.843681335,17.986694336,-0.768646240,-0.060177613,0.045691285,1.103406191
36.588554,4.301994324,18.314758301,-0.410064697,-0.058346558,0.052893434,1.089612246
36.589180,4.584281921,18.345275879,-0.532135010,-0.058712769,0.052038942,1.083874941
36.589805,4.469841003,18.581787109,-0.188812256,-0.058346558,0.054114137,1.080579042
36.590431,4.370658875,18.589416504,-0.303253174,-0.055172730,0.058508668,1.075452089
36.591056,4.507987976,18.688598633,-0.303253174,-0.055783082,0.062292848,1.070325136
36.591683,4.553764343,18.772521973,-0.173553467,-0.055661011,0.065588742,1.063855410
36.592308,4.454582214,18.764892578,-0.257476807,-0.054196168,0.063879758,1.059582949
36.592933,4.500358582,18.864074707,0.154510498,-0.053341676,0.067175657,1.055798769
36.593559,4.332511902,19.024291992,0.040069580,-0.053952027,0.069128782,1.057019472
36.594184,4.706352234,18.963256836,-0.127777100,-0.054562379,0.073157102,1.060315371
36.594809,4.813163757,19.100585938,0.024810791,-0.054928590,0.076086789,1.059338808
36.595442,4.477470398,19.359985352,-0.059112549,-0.056759644,0.080359250,1.059216738
36.596068,4.645317078,19.489685059,0.047698975,-0.057003785,0.082678586,1.058728456
36.596693,4.576652527,19.413391113,0.070587158,-0.060665894,0.087317258,1.061658144
36.597320,4.591911316,19.642272949,0.101104736,-0.058712769,0.088904172,1.061291933
36.597947,4.530876160,19.718566895,-0.005706787,-0.057492066,0.095251828,1.061536074
36.598574,4.233329773,20.061889648,0.085845947,-0.058468629,0.099036008,1.070813417
36.599199,4.073112488,20.306030273,-0.043853760,-0.059323121,0.101477414,1.073743105
36.599824,3.912895203,20.374694824,0.040069580,-0.062008668,0.108069211,1.074841738
36.600450,3.546684265,20.725646973,-0.097259521,-0.060665894,0.110388547,1.077283144
36.601076,3.081291199,20.870605469,0.146881104,-0.059078980,0.115027219,1.082410097
36.601702,2.730339050,21.244445801,-0.135406494,-0.060910035,0.118445188,1.083264589
36.602327,2.425163269,21.488586426,-0.196441650,-0.061886597,0.122229367,1.085950136
36.602953,1.898735046,21.877685547,-0.204071045,-0.060787965,0.126501828,1.093884706
36.603580,1.547782898,22.205749512,-0.516876221,-0.063717648,0.126745969,1.093518496
36.604207,1.227348328,22.678771973,-0.402435303,-0.059567261,0.132239133,1.094006777
36.604832,0.884025574,22.816101074,-0.394805908,-0.062741086,0.133337766,1.095959902
36.605458,0.266044617,23.395935059,-0.570281982,-0.061154176,0.134070188,1.096204042
36.606083,-0.008613586,23.723999023,-0.654205322,-0.060299683,0.139807492,1.094739199
36.606709,-0.458747864,24.120727539,-0.806793213,-0.057247926,0.144446164,1.092908144
36.607336,-0.969917297,24.586120605,-0.905975342,-0.055538941,0.149451047,1.087048769
36.607962,-1.404792786,24.868408203,-1.020416260,-0.055661011,0.145911008,1.087659121
36.608588,-1.839668274,25.234619141,-1.279815674,-0.057003785,0.151526242,1.084119081
36.609215,-2.190620422,25.539794922,-1.256927490,-0.060055543,0.151892453,1.072156191
36.609840,-2.747566223,25.898376465,-1.340850830,-0.060299683,0.150061399,1.073987246
36.610465,-2.953559875,26.470581055,-1.417144775,-0.061154176,0.150305539,1.063977480
36.611091,-3.441841125,26.585021973,-1.539215088,-0.067135617,0.151160032,1.058484316
36.611716,-3.518135071,26.646057129,-1.859649658,-0.069821164,0.154211789,1.051892519
36.624557,-3.945381165,24.654785156,-5.117401123,-0.121090695,0.158240110,0.958142519
36.625328,-3.838569641,24.441162109,-5.247100830,-0.123532102,0.154333860,0.960828066
36.625953,-3.739387512,24.189392090,-5.773529053,-0.118527219,0.153113157,0.966687441
36.626580,-3.785163879,23.975769043,-5.598052979,-0.123654172,0.155066282,0.964978456
36.627207,-3.884346008,23.922363281,-5.834564209,-0.121823117,0.156897336,0.964368105
36.627834,-4.075080872,23.937622070,-6.055816650,-0.123898312,0.154455930,0.969128847
36.628459,-3.975898743,23.807922363,-6.315216064,-0.124630734,0.149573117,0.971448183
36.629085,-4.136116028,23.586669922,-6.414398193,-0.123043820,0.147131711,0.976330996
36.629710,-3.922492981,23.701110840,-6.658538818,-0.120968625,0.143713742,0.975598574
36.630336,-4.029304504,23.731628418,-6.856903076,-0.125485227,0.137854367,0.975354433
36.630961,-4.197151184,23.495117188,-7.032379150,-0.125119016,0.137244016,0.977795839
36.631586,-4.227668762,23.365417480,-7.162078857,-0.126339719,0.130163938,0.976330996
36.632213,-4.441291809,23.281494141,-7.123931885,-0.126950070,0.126257688,0.979260683
36.632839,-4.364997864,23.342529297,-7.215484619,-0.126828000,0.120398313,0.978772402
36.633465,-4.303962708,23.144165039,-7.429107666,-0.128536984,0.115637571,0.979993105
36.634091,-4.311592102,23.083129883,-7.459625244,-0.130734250,0.112585813,0.972546816
36.634716,-4.159004211,23.022094727,-7.612213135,-0.130245969,0.105261594,0.972790956
36.635342,-4.113227844,23.083129883,-7.741912842,-0.134152219,0.101111203,0.972913027
36.635967,-3.907234192,23.044982910,-7.764801025,-0.136227414,0.092444211,0.966321230
36.636594,-3.609687805,22.716918945,-7.612213135,-0.137448117,0.088415891,0.962781191
36.637220,-3.327400208,22.526184082,-7.711395264,-0.136715695,0.083899289,0.960828066
36.639044,-2.266914368,22.274414062,-7.711395264,-0.144284055,0.069250852,0.948987246
36.639670,-2.038032532,21.999755859,-7.909759521,-0.146237180,0.062781125,0.940320253
36.640295,-1.473457336,21.946350098,-7.978424072,-0.146725461,0.059973512,0.936902285
36.640921,-0.893623352,21.847167969,-7.932647705,-0.145993039,0.057287965,0.934827089
36.641548,-0.634223938,21.473327637,-7.772430420,-0.142086789,0.048743043,0.934094667
36.642173,0.189750671,21.343627930,-8.069976807,-0.145626828,0.047156129,0.927502871
36.642799,0.632255554,21.053710938,-7.795318604,-0.145993039,0.042029176,0.925915956
36.643424,1.341789246,20.946899414,-7.963165283,-0.147702023,0.039221559,0.925915956
36.644049,1.898735046,20.725646973,-7.741912842,-0.146481320,0.033972535,0.927136660
36.644675,2.387016296,20.656982422,-7.886871338,-0.146115109,0.032263551,0.924329042
36.645300,3.233879089,20.420471191,-7.726654053,-0.146359250,0.026770387,0.925305605
36.645925,3.531425476,20.054260254,-7.734283447,-0.146359250,0.022375856,0.927136660
36.646551,4.103630066,19.718566895,-7.711395264,-0.146725461,0.024206910,0.927747011
36.647177,4.729240417,19.680419922,-7.612213135,-0.149777219,0.015417848,0.929333925
36.647803,5.026786804,19.573608398,-7.459625244,-0.148556516,0.017004762,0.930066347
36.648428,5.507438660,19.253173828,-7.574066162,-0.148434445,0.013953004,0.929822206
36.649054,5.904167175,19.359985352,-7.314666748,-0.148190305,0.011877809,0.933728456
36.649680,6.255119324,18.848815918,-7.291778564,-0.145016477,0.009802613,0.935925722
36.650305,6.499259949,18.864074707,-7.238372803,-0.146969602,0.009314332,0.937146425
36.650931,6.934135437,18.833557129,-7.062896729,-0.149044797,0.004919801,0.938977480
36.651557,7.239311218,18.665710449,-6.895050049,-0.149288937,0.003577027,0.938000917
36.652184,7.338493347,18.391052246,-6.986602783,-0.149899289,0.003210817,0.943005800
36.652810,7.544487000,18.284240723,-6.902679443,-0.151486203,-0.000573363,0.942883730
36.653436,7.956474304,18.032470703,-6.612762451,-0.154537961,-0.000939574,0.944470644
36.654063,8.025138855,17.948547363,-6.658538818,-0.149533078,-0.003625121,0.948987246
36.654688,7.971733093,17.856994629,-6.566986084,-0.149777219,-0.004113402,0.946912050
36.655315,8.315055847,17.689147949,-6.231292725,-0.149655148,-0.007409301,0.947644472
36.668097,7.857292175,16.689697266,-2.981170654,-0.111813352,-0.027550902,0.945325136
36.668816,7.880180359,16.544738770,-2.668365479,-0.106442258,-0.025597777,0.945569277
36.669441,7.475822449,16.552368164,-2.622589111,-0.105221555,-0.023400512,0.944348574
36.670066,7.315605164,16.689697266,-2.241119385,-0.101559445,-0.021935668,0.944470644
36.670693,7.056205750,16.926208496,-2.195343018,-0.098263547,-0.023766723,0.947522402
36.671320,6.552665710,16.819396973,-1.981719971,-0.097897336,-0.022668090,0.948498964
36.671946,6.392448425,16.918579102,-1.623138428,-0.094113156,-0.022423949,0.953381777
36.672572,5.820243835,17.055908203,-1.279815674,-0.089962766,-0.020714965,0.953992128
36.673199,5.614250183,16.788879395,-0.974639893,-0.089718625,-0.024743285,0.955090761
36.673825,5.003898621,17.071166992,-0.898345947,-0.088986203,-0.021691527,0.957043886
36.674450,4.790275574,17.200866699,-0.631317139,-0.087765500,-0.019494262,0.960705996
36.675077,4.294364929,17.246643066,-0.219329834,-0.083370969,-0.017174926,0.962781191
36.675702,3.790824890,17.498413086,-0.204071045,-0.079098508,-0.016686644,0.963269472
36.676327,3.302543640,17.750183105,0.192657471,-0.078244016,-0.011925902,0.965832949
36.676954,2.776115417,17.574707031,0.627532959,-0.076657102,-0.009606566,0.969495058
36.677579,2.303092957,18.131652832,0.551239014,-0.076779172,-0.008141723,0.968396425
36.678205,2.272575378,18.246093750,0.528350830,-0.070309445,-0.007165160,0.971692324
36.678830,1.677482605,18.452087402,0.726715088,-0.069454953,-0.004357543,0.970959902
36.679456,1.273124695,18.589416504,1.070037842,-0.068600461,-0.001427855,0.977429628
36.680081,0.884025574,18.955627441,0.963226318,-0.066525266,0.000403199,0.976941347
36.680706,0.533073425,19.268432617,1.382843018,-0.056027222,-0.000451293,0.982068300
36.681331,0.075309753,19.245544434,1.420989990,-0.054806519,-0.000695433,0.978406191
36.681958,-0.268013000,20.107666016,1.443878174,-0.054318238,-0.001061644,0.980603456
36.682583,-0.725776672,20.084777832,1.710906982,-0.049801636,0.001379762,0.983411074
36.683208,-1.008064270,20.191589355,1.932159424,-0.044308472,-0.000451293,0.986462831
36.683834,-1.236946106,20.756164551,1.939788818,-0.042477418,-0.001916137,0.985120058
36.684459,-1.526863098,20.824829102,2.038970947,-0.034542847,-0.002404418,0.988049746
36.685085,-1.580268860,21.160522461,2.336517334,-0.033200074,0.000891481,0.983777285
36.685710,-1.900703430,21.519104004,2.626434326,-0.031979371,0.000403199,0.982068300
36.686337,-2.137214661,21.633544922,2.611175537,-0.027828980,0.001868043,0.979993105
36.686962,-2.083808899,22.106567383,2.695098877,-0.029293824,0.003210817,0.978528261
36.687587,-2.198249817,22.419372559,2.893463135,-0.026486207,0.002966676,0.975720644
36.689389,-1.725227356,22.922912598,3.290191650,-0.019772340,0.001257692,0.963757753
36.690015,-1.595527649,23.289123535,3.038421631,-0.020382691,0.005286012,0.958386660
36.690640,-1.206428528,23.373046875,3.259674072,-0.017208863,0.006872926,0.955945253
36.691265,-0.847846985,23.479858398,3.374114990,-0.017697144,0.006628785,0.952283144
36.691890,-0.535041809,23.548522949,3.381744385,-0.017086793,0.006506715,0.946423769
36.692515,-0.084907532,23.518005371,3.114715576,-0.013790894,0.008215699,0.938489199
36.693140,0.334709167,23.739257812,3.358856201,-0.012326051,0.010046754,0.936536074
36.693765,0.922172546,23.792663574,3.480926514,-0.012203980,0.009192262,0.931164980
36.694390,1.296012878,23.708740234,3.397003174,-0.010861207,0.011877809,0.927869081
36.695016,1.868217468,23.670593262,3.541961670,-0.006588746,0.008703981,0.921033144
36.695642,2.188652039,23.868957520,3.641143799,-0.005245972,0.010657106,0.915662050
36.696267,2.753227234,23.632446289,3.458038330,-0.004269410,0.011999879,0.909924746
36.696892,3.256767273,23.708740234,3.557220459,-0.003781129,0.010901246,0.905652285
36.697518,3.806083679,23.563781738,3.847137451,-0.002438355,0.017004762,0.900159121
36.698143,4.439323425,23.510375977,3.717437744,-0.003170777,0.019568238,0.894299746
36.698770,5.080192566,23.296752930,3.557220459,0.002932739,0.023840699,0.886731386
36.711584,5.888908386,17.895141602,3.053680420,0.016848754,0.103918821,0.826428652
36.712339,5.690544128,17.872253418,3.068939209,0.010867309,0.108557492,0.822400331
36.712964,5.347221375,17.307678223,3.114715576,0.005374145,0.113562375,0.821301699
36.713589,4.637687683,17.086425781,2.855316162,-0.000729371,0.114416867,0.820080996
36.714214,4.439323425,17.025390625,3.000274658,-0.004757691,0.116858274,0.817883730
36.714840,4.034965515,16.682067871,2.656951904,-0.012814332,0.120520383,0.816052675
36.715465,3.729789734,16.201416016,2.794281006,-0.018307496,0.122473508,0.812268496
36.716092,3.210990906,15.797058105,2.305999756,-0.020504761,0.126868039,0.811169863
36.716718,2.959220886,15.629211426,2.183929443,-0.026242066,0.127234250,0.809827089
36.717343,2.516716003,15.110412598,1.695648193,-0.026730347,0.126745969,0.802991152
36.717969,2.165763855,14.522949219,1.565948486,-0.026608277,0.127234250,0.801770449
36.718595,2.081840515,13.920227051,1.276031494,-0.032711793,0.126868039,0.799695253
36.719220,1.708000183,13.271728516,1.321807861,-0.030270386,0.121374875,0.793957949
36.719846,1.471488953,12.943664551,0.978485107,-0.031124879,0.119299680,0.789441347
36.720473,1.440971375,12.127319336,0.680938721,-0.029171754,0.113806516,0.786877871
36.721100,1.242607117,11.646667480,0.665679932,-0.030758668,0.107825071,0.785046816
36.721726,1.219718933,11.158386230,0.246063232,-0.027096558,0.104773313,0.781628847
36.722351,1.349418640,10.433593750,0.246063232,-0.032223511,0.096838742,0.778821230
36.722976,1.372306824,9.937683105,0.146881104,-0.029904176,0.095007688,0.775037050
36.723601,1.601188660,9.403625488,0.139251709,-0.031979371,0.088415891,0.772107363
36.724227,2.005546570,8.701721191,0.017181396,-0.032955933,0.085974485,0.770764589
36.724853,2.631156921,8.190551758,-0.204071045,-0.037228394,0.080115110,0.768201113
36.725478,2.821891785,7.519165039,0.009552002,-0.036984254,0.074621946,0.765759706
36.726104,3.569572449,6.878295898,-0.287994385,-0.044308472,0.072668821,0.760022402
36.726731,4.279106140,6.191650391,-0.501617432,-0.049557496,0.069250852,0.762463808
36.727356,5.057304382,5.710998535,-0.532135010,-0.054318238,0.062414918,0.763196230
36.727981,5.759208679,4.940429688,-0.745758057,-0.049313355,0.058630738,0.766736269
36.728607,6.651847839,4.642883301,-0.844940186,-0.055172730,0.059851442,0.766003847
36.729234,7.536857605,4.055419922,-0.951751709,-0.055538941,0.058386598,0.767102480
36.729860,8.238761902,3.330627441,-1.180633545,-0.059323121,0.059973512,0.766858339
36.730486,9.001701355,3.025451660,-1.394256592,-0.060177613,0.055823121,0.765881777
36.731111,9.634941101,2.460876465,-1.462921143,-0.062496949,0.054724488,0.766736269
36.731736,10.512321472,1.728454590,-1.569732666,-0.065060422,0.049109254,0.769055605
36.732363,11.237113953,1.072326660,-1.798614502,-0.070309445,0.045569215,0.772595644
36.732988,12.160270691,0.477233887,-1.844390869,-0.070309445,0.039465699,0.770398378
36.733613,12.846916199,-0.232299805,-1.951202393,-0.072384641,0.035559449,0.772961855
36.734239,13.678520203,-0.964721680,-2.103790283,-0.074826047,0.033850465,0.772351503
36.734865,14.365165710,-1.536926270,-2.195343018,-0.074581906,0.035193238,0.769788027
36.735491,14.891593933,-2.696594238,-2.195343018,-0.076535031,0.031286988,0.773572206
36.736117,15.524833679,-3.070434570,-2.218231201,-0.078610227,0.025671754,0.774914980
36.736743,15.883415222,-3.749450684,-2.294525146,-0.077389523,0.026770387,0.772717714
36.737369,16.554801941,-4.695495605,-2.447113037,-0.079708859,0.021277223,0.768445253
36.738004,17.065971375,-5.290588379,-2.401336670,-0.076046750,0.021155152,0.769055605
36.739825,18.530815125,-7.617553711,-2.401336670,-0.078121945,0.023596559,0.763806581
36.740452,18.568962097,-8.441528320,-2.515777588,-0.075314328,0.022742067,0.762463808
36.741079,19.156425476,-9.112915039,-2.347930908,-0.076412961,0.022497926,0.762707949
36.741704,19.217460632,-9.662231445,-2.653106689,-0.076657102,0.024328981,0.766247988
36.742329,19.721000671,-10.516723633,-2.416595459,-0.075070187,0.026282106,0.768079042
36.742955,19.804924011,-11.317810059,-2.485260010,-0.077511594,0.023596559,0.765271425
36.755707,11.260002136,-19.931396484,-2.065643311,-0.034542847,0.061804567,0.890149355
36.756448,10.176628113,-19.885620117,-2.134307861,-0.030270386,0.066687375,0.897961855
36.757075,9.261100769,-20.106872559,-2.172454834,-0.031002808,0.065344602,0.900647402
36.757702,8.017509460,-19.931396484,-1.928314209,-0.023922730,0.068762571,0.904675722
36.758328,7.155387878,-19.763549805,-1.661285400,-0.024411011,0.068518430,0.907483339
36.758954,5.820243835,-19.862731934,-1.691802979,-0.022335816,0.068396360,0.910779238
36.759580,4.858940125,-20.030578613,-1.707061768,-0.021969605,0.067297727,0.911023378
36.760205,3.859489441,-20.160278320,-1.684173584,-0.018429566,0.073279172,0.912854433
36.760830,2.676933289,-19.923767090,-1.607879639,-0.018917847,0.071692258,0.912854433
36.761456,1.723258972,-20.122131348,-1.501068115,-0.017697144,0.072790891,0.910779238
36.762083,0.708549500,-20.099243164,-1.455291748,-0.015744019,0.071936399,0.913586855
36.762708,-0.184089661,-20.183166504,-1.470550537,-0.018063355,0.070471555,0.916150331
36.763335,-1.145393372,-20.236572266,-1.562103271,-0.016598511,0.073645383,0.919568300
36.763962,-1.809150696,-20.259460449,-1.317962646,-0.012326051,0.069372922,0.920300722
36.764588,-2.587348938,-20.190795898,-1.424774170,-0.013668824,0.065832883,0.918591738
36.765214,-3.335029602,-20.289978027,-1.531585693,-0.011837769,0.066199094,0.923474550
36.765840,-4.159004211,-20.389160156,-1.340850830,-0.007687379,0.062903196,0.922742128
36.766465,-4.540473938,-20.671447754,-1.317962646,-0.006344605,0.062292848,0.921033144
36.767091,-5.387336731,-20.564636230,-1.310333252,-0.003659058,0.060339723,0.924329042
36.767716,-5.951911926,-20.595153809,-1.287445068,0.001712035,0.057410035,0.923352480
36.768341,-6.356269836,-20.755371094,-1.302703857,0.003665160,0.058630738,0.927502871
36.768968,-6.592781067,-20.717224121,-1.310333252,0.004275512,0.053137574,0.926526308
36.769593,-7.004768372,-20.831665039,-1.195892334,0.008059692,0.052038942,0.930066347
36.770220,-7.355720520,-20.938476562,-1.401885986,0.008059692,0.049109254,0.934094667
36.770845,-7.477790833,-20.946105957,-1.256927490,0.012332153,0.044470582,0.936902285
36.771471,-7.683784485,-21.342834473,-1.195892334,0.011599731,0.042273317,0.935559511
36.772097,-7.821113586,-21.174987793,-1.058563232,0.017703246,0.042151246,0.938000917
36.772723,-7.805854797,-21.205505371,-1.127227783,0.014651489,0.039099488,0.942395449
36.773348,-7.782966614,-21.403869629,-1.287445068,0.016116332,0.033972535,0.944714785
36.773974,-7.912666321,-21.541198730,-0.829681396,0.017092895,0.033484254,0.947034121
36.774600,-7.660896301,-21.541198730,-1.066192627,0.014773559,0.033118043,0.947888613
36.775226,-7.569343567,-21.892150879,-0.890716553,0.015505981,0.030432496,0.949475527
36.775853,-7.111579895,-21.991333008,-0.997528076,0.015628051,0.032263551,0.952283144
36.776479,-7.233650208,-22.059997559,-0.799163818,0.015261840,0.029578004,0.951428652
36.777106,-6.752998352,-22.456726074,-1.028045654,0.013064574,0.026770387,0.951306581
36.777732,-6.547004700,-22.502502441,-0.921234131,0.009158324,0.025183473,0.953015566
36.778358,-6.020576477,-22.632202148,-0.860198975,0.003176879,0.024451051,0.952039003
36.778983,-5.906135559,-22.754272461,-0.753387451,0.007815551,0.023718629,0.948743105
36.779609,-5.494148254,-23.082336426,-0.608428955,0.001101684,0.022986207,0.946912050
36.780235,-4.998237610,-23.585876465,-0.814422607,-0.001950074,0.025671754,0.946423769
36.787440,2.020805359,-27.385314941,-0.829681396,-0.021725465,0.050452027,0.957410097
36.788066,2.799003601,-27.667602539,-1.096710205,-0.019039918,0.055701051,0.961804628
36.789896,3.569572449,-28.354248047,-1.417144775,-0.014035035,0.066931516,0.968030214
36.790523,3.584831238,-28.247436523,-1.348480225,-0.009030152,0.071448117,0.976575136
36.791149,3.874748230,-28.606018066,-1.386627197,-0.006344605,0.075110227,0.978284121
36.791776,3.996818542,-28.674682617,-1.440032959,-0.008908082,0.078772336,0.982678652
36.792403,4.378288269,-28.750976562,-1.371368408,-0.005368043,0.080847532,0.988660097
36.805328,-1.214057922,-30.360778809,-3.545745850,-0.035763551,0.151160032,1.022473574
36.806125,-1.580268860,-30.543884277,-3.446563721,-0.035641480,0.153479367,1.022473574
36.806751,-2.045661926,-30.711730957,-3.652557373,-0.030758668,0.153723508,1.021741152
36.807376,-2.350837708,-30.612548828,-3.995880127,-0.034420777,0.157507688,1.022839785
36.808003,-2.732307434,-31.016906738,-4.293426514,-0.031613160,0.153845578,1.020642519
36.808628,-3.129035950,-30.971130371,-4.217132568,-0.028805543,0.156409055,1.019055605
36.809254,-3.640205383,-31.291564941,-4.423126221,-0.028317261,0.155920774,1.021374941
36.809881,-3.693611145,-31.413635254,-4.362091064,-0.029660035,0.155432492,1.021374941
36.810507,-4.067451477,-31.558593750,-4.606231689,-0.031979371,0.156286985,1.020154238
36.811132,-4.578620911,-31.894287109,-4.789337158,-0.034420777,0.157507688,1.020276308
36.811757,-4.883796692,-32.176574707,-4.926666260,-0.030270386,0.156775266,1.019910097
36.812384,-5.166084290,-32.588562012,-5.125030518,-0.035397340,0.157141477,1.021619081
36.813011,-5.394966125,-32.878479004,-5.491241455,-0.036373902,0.161413938,1.021130800
36.813636,-5.898506165,-33.450683594,-5.720123291,-0.039669801,0.156897336,1.024670839
36.814261,-6.249458313,-33.687194824,-5.956634521,-0.041012574,0.157629758,1.024060488
36.814886,-6.463081360,-33.855041504,-6.170257568,-0.038693238,0.159216672,1.028821230
36.815512,-6.737739563,-34.228881836,-6.368621826,-0.036862183,0.159949094,1.035290956
36.816139,-6.775886536,-34.534057617,-6.483062744,-0.040280152,0.157507688,1.037976503
36.816764,-6.943733215,-35.113891602,-6.818756104,-0.036862183,0.158240110,1.045789003
36.817389,-7.256538391,-35.350402832,-6.978973389,-0.034176636,0.158118039,1.048474550
36.818015,-7.340461731,-35.388549805,-7.192596436,-0.033078004,0.156653196,1.055920839
36.818641,-7.729560852,-35.770019531,-7.574066162,-0.031002808,0.152502805,1.065198183
36.819266,-7.584602356,-35.968383789,-7.680877686,-0.031369019,0.147864133,1.069592714
36.819892,-7.996589661,-36.288818359,-7.833465576,-0.030636597,0.144568235,1.076184511
36.820519,-8.049995422,-36.563476562,-8.207305908,-0.026852418,0.146155149,1.083997011
36.821175,-8.294136047,-36.670288086,-8.298858643,-0.023312379,0.139441282,1.088025331
36.821802,-8.126289368,-36.510070801,-8.520111084,-0.021603394,0.136877805,1.096204042
36.822427,-8.255989075,-36.906799316,-8.733734131,-0.018795777,0.133215696,1.103650331
36.823053,-8.713752747,-36.769470215,-8.863433838,-0.016964722,0.126013547,1.115613222
36.823678,-8.500129700,-36.723693848,-8.970245361,-0.012081910,0.123572141,1.123425722
36.824303,-8.347541809,-36.761840820,-9.031280518,-0.009884644,0.122107297,1.130627871
36.824929,-8.576423645,-36.555847168,-9.290679932,-0.009762574,0.113440305,1.137707949
36.825555,-8.591682434,-36.532958984,-9.458526611,-0.007687379,0.111365110,1.144177675
36.826180,-8.378059387,-36.555847168,-9.496673584,-0.004025269,0.106116086,1.151746035
36.826806,-8.362800598,-36.182006836,-9.778961182,-0.003903199,0.105139524,1.160290956
36.827432,-8.385688782,-36.120971680,-9.801849365,-0.003292847,0.096716672,1.170300722
36.828058,-7.996589661,-35.976013184,-9.786590576,0.000247192,0.091589719,1.172497988
36.828685,-7.950813293,-35.487731934,-9.885772705,0.002688598,0.086706907,1.182019472
36.829311,-7.836372375,-35.251220703,-10.015472412,0.001834106,0.085119992,1.187146425
36.829938,-7.561714172,-35.075744629,-10.137542725,0.005007934,0.079993039,1.193127871
36.830564,-7.370979309,-34.785827637,-10.061248779,0.006838989,0.077185422,1.199841738
36.831189,-7.370979309,-34.160217285,-10.267242432,0.007205199,0.069128782,1.204236269
36.831815,-6.905586243,-33.885559082,-10.282501221,0.009036254,0.069250852,1.210705996
36.832440,-6.806404114,-33.450683594,-10.366424561,0.012942504,0.061682496,1.216565371
36.833065,-6.485969543,-33.114990234,-10.366424561,0.012942504,0.058996949,1.218762636
36.833690,-6.073982239,-32.794555664,-10.503753662,0.018435668,0.051672731,1.223889589
36.834316,-5.944282532,-31.978210449,-10.419830322,0.018801879,0.052893434,1.230481386
36.848391,-4.616767883,-20.732482910,-8.588775635,0.067874148,0.000647340,1.266370058
36.849155,-4.937202454,-20.251831055,-8.390411377,0.072756961,0.001257692,1.269055605
36.849780,-5.227119446,-19.885620117,-8.352264404,0.069338992,-0.003014769,1.267346621
36.850406,-5.318672180,-19.244750977,-8.138641357,0.071536258,-0.002282348,1.270032167
36.851033,-5.646736145,-18.863281250,-8.031829834,0.074465945,-0.004357543,1.270520449
36.851696,-6.157905579,-18.130859375,-7.566436768,0.076052859,-0.003747191,1.271252871
36.852323,-6.554634094,-17.421325684,-7.375701904,0.078860477,-0.000085082,1.276868105
36.852948,-6.562263489,-17.070373535,-7.390960693,0.079470828,0.000281129,1.279797792
36.853574,-7.233650208,-16.658386230,-7.062896729,0.086184695,0.001135621,1.278332949
36.854199,-7.401496887,-16.131958008,-6.978973389,0.090945438,0.001623902,1.282605410
36.854825,-7.844001770,-15.353759766,-6.933197021,0.091311648,0.007361207,1.279797792
36.855451,-8.271247864,-14.812072754,-6.467803955,0.095462039,0.008215699,1.286877871
36.856076,-8.637458801,-14.155944824,-6.200775146,0.095095828,0.010168824,1.285290956
36.856701,-9.072334290,-13.492187500,-6.315216064,0.098635867,0.009924684,1.290784121
36.857327,-9.446174622,-12.782653809,-6.071075439,0.099490359,0.011511598,1.290051699
36.857952,-9.858161926,-12.462219238,-5.918487549,0.098269656,0.009802613,1.293835878
36.858577,-10.193855286,-11.752685547,-5.811676025,0.103640750,0.014929567,1.296643496
36.859202,-10.697395325,-11.066040039,-5.453094482,0.101565555,0.013220582,1.302747011
36.859829,-10.872871399,-10.524353027,-5.414947510,0.098391727,0.012121949,1.305554628
36.860455,-11.277229309,-9.791931152,-5.269989014,0.103640750,0.014807496,1.304822206
36.861080,-11.651069641,-9.135803223,-4.888519287,0.102786258,0.015784059,1.309216738
36.861705,-12.238533020,-8.479675293,-4.766448975,0.103518680,0.016638551,1.309827089
36.862332,-12.597114563,-7.579406738,-4.781707764,0.105349734,0.013586793,1.312268496
36.862957,-13.184577942,-6.778320312,-4.735931396,0.105105594,0.016150270,1.312512636
36.863583,-13.527900696,-6.312927246,-4.430755615,0.104495242,0.014685426,1.318127871
36.864209,-13.657600403,-5.481323242,-4.590972900,0.107058719,0.013342652,1.317517519
36.864834,-14.008552551,-4.726013184,-4.293426514,0.105471805,0.015906129,1.320813417
36.865461,-14.565498352,-4.146179199,-3.889068604,0.104006961,0.012610231,1.318249941
36.866087,-14.695198059,-3.238281250,-4.240020752,0.105838016,0.012366090,1.319836855
36.866713,-15.076667786,-2.673706055,-3.789886475,0.105105594,0.010290895,1.321545839
36.867339,-15.328437805,-1.857360840,-3.690704346,0.104251102,0.008948121,1.320569277
36.867964,-15.450508118,-1.002868652,-3.736480713,0.102175906,0.006506715,1.316052675
36.868591,-15.793830872,-0.407775879,-3.507598877,0.102786258,0.005163942,1.317273378
36.869217,-16.053230286,0.339904785,-3.332122803,0.100222781,0.000525270,1.312146425
36.869844,-16.068489075,0.957885742,-3.278717041,0.100344852,-0.002282348,1.309949160
36.870471,-16.266853333,1.758972168,-2.820953369,0.099612430,-0.002526488,1.305554628
36.871097,-16.076118469,2.407470703,-2.782806396,0.102053836,-0.005578246,1.300549746
36.871723,-15.954048157,2.560058594,-2.599700928,0.095584109,-0.008263793,1.296765566
36.872350,-15.900642395,3.635803223,-2.584442139,0.097171023,-0.016686644,1.293347597
36.872976,-15.526802063,4.055419922,-2.492889404,0.102297977,-0.021325316,1.288830996
36.873602,-15.130073547,4.444519043,-2.103790283,0.098513797,-0.018029418,1.285657167
36.874227,-14.733345032,4.856506348,-2.264007568,0.098391727,-0.010094848,1.271130800
36.874853,-14.374763489,5.398193359,-2.012237549,0.097415164,-0.013390746,1.263806581
36.875478,-14.031440735,5.840698242,-1.661285400,0.101077273,-0.019738402,1.260144472
36.876103,-13.588935852,6.344238281,-1.821502686,0.101565555,-0.019616332,1.253552675
36.876729,-12.940437317,6.649414062,-1.516326904,0.101687625,-0.017541137,1.244763613
36.877356,-12.429267883,7.244506836,-1.081451416,0.100955203,-0.019250121,1.237683535
36.877982,-12.017280579,7.656494141,-0.951751709,0.099246219,-0.021081176,1.236218691
36.890817,-0.168830872,12.859741211,0.940338135,0.062869266,0.033728395,1.182873964
36.891607,0.441520691,13.348022461,1.153961182,0.059451293,0.038000856,1.176526308
36.892233,0.517814636,13.477722168,1.100555420,0.057742309,0.040686402,1.173230410
36.892858,0.884025574,13.698974609,1.085296631,0.052615356,0.043249879,1.168957949
36.893483,1.364677429,13.813415527,1.085296631,0.053347778,0.046667848,1.167371035
36.894109,1.440971375,14.187255859,1.146331787,0.054446410,0.050940309,1.165051699
36.894736,1.761405945,14.324584961,1.344696045,0.049807739,0.053137574,1.160168886
36.895361,1.944511414,14.545837402,1.199737549,0.047488403,0.056189332,1.159802675
36.895988,2.142875671,14.751831055,1.184478760,0.045901489,0.057776246,1.155041933
36.896615,2.425163269,14.866271973,1.298919678,0.045657348,0.059119020,1.150403261
36.898484,3.096549988,15.247741699,1.283660889,0.041873168,0.065710813,1.137585878
36.899110,3.165214539,15.446105957,1.253143311,0.040042114,0.067175657,1.132336855
36.899737,3.516166687,16.010681152,1.367584229,0.040896606,0.069372922,1.126355410
36.900363,3.897636414,15.804687500,1.222625732,0.034182739,0.069861203,1.118909121
36.900988,4.187553406,15.789428711,1.512542725,0.031863403,0.073401242,1.114514589
36.901614,4.385917664,16.033569336,1.466766357,0.028445434,0.075110227,1.110486269
36.902240,4.652946472,16.262451172,1.108184814,0.030764770,0.076208860,1.107922792
36.902866,5.057304382,16.292968750,1.283660889,0.024905395,0.078039914,1.101941347
36.903491,5.484550476,16.262451172,1.565948486,0.019900512,0.076575071,1.097790956
36.904116,5.568473816,16.559997559,1.184478760,0.016116332,0.076575071,1.093030214
36.904741,5.667655945,16.415039062,1.222625732,0.012942504,0.082312375,1.089978456
36.905414,6.178825378,16.613403320,1.253143311,0.011721801,0.080115110,1.088513613
36.906041,6.560295105,16.537109375,1.108184814,0.005130004,0.083288938,1.081555605
36.906667,6.689994812,16.529479980,1.062408447,0.005496215,0.084021360,1.079236269
36.907294,7.002799988,16.621032715,1.024261475,0.002322387,0.087195188,1.070080996
36.907920,7.300346375,16.720214844,1.009002686,0.000979614,0.089026242,1.072522402
36.908546,7.544487000,16.819396973,0.963226318,-0.001828004,0.090002805,1.069714785
36.909173,7.529228210,16.453186035,0.993743896,-0.005490113,0.090369016,1.063122988
36.909799,7.864921570,16.544738770,0.947967529,-0.010128785,0.092566282,1.062146425
36.910424,8.040397644,16.468444824,0.619903564,-0.013668824,0.093786985,1.055432558
36.911050,8.070915222,16.430297852,0.741973877,-0.014035035,0.099036008,1.052991152
36.911675,7.887809753,16.460815430,0.619903564,-0.017941285,0.102209836,1.049084902
36.912300,8.078544617,16.254821777,0.566497803,-0.016232301,0.104895383,1.044324160
36.912927,8.177726746,16.491333008,0.719085693,-0.022335816,0.099402219,1.041150331
36.913553,8.269279480,16.117492676,0.345245361,-0.023922730,0.102698117,1.039563417
36.914179,8.002250671,16.308227539,0.421539307,-0.025997926,0.106238157,1.038098574
36.914806,8.498161316,16.010681152,0.490203857,-0.028073121,0.109534055,1.034070253
36.915432,8.475273132,16.033569336,0.139251709,-0.031735230,0.107580930,1.032605410
36.916059,8.574455261,15.850463867,0.291839600,-0.031491090,0.107825071,1.032239199
36.916686,8.284538269,15.797058105,0.268951416,-0.033444215,0.110144407,1.031628847
36.917312,8.276908875,16.071716309,0.055328369,-0.035031129,0.113440305,1.024426699
36.917938,8.307426453,15.888610840,0.070587158,-0.039547730,0.110510617,1.021374941
36.918563,8.360832214,15.781799316,-0.097259521,-0.043576051,0.115027219,1.021374941
36.919190,8.070915222,15.858093262,-0.318511963,-0.045651246,0.118323117,1.019665956
36.919817,8.093803406,15.720764160,-0.097259521,-0.044796754,0.115759641,1.018933535
36.920443,8.032768250,15.957275391,-0.349029541,-0.049801636,0.117590696,1.011853456
36.921070,7.933586121,15.636840820,-0.333770752,-0.050534058,0.123816282,1.009534121
36.921696,7.903068542,15.377441406,-0.562652588,-0.051388551,0.124548703,1.006360292
36.922322,7.407157898,15.743652344,-0.547393799,-0.054928590,0.128332883,1.005139589
36.935138,1.051872253,12.264648438,-2.569183350,-0.079830930,0.161413938,0.932507753
36.935955,-0.016242981,11.616149902,-2.904876709,-0.083248898,0.165076047,0.927747011
36.936581,-0.145942688,11.623779297,-3.034576416,-0.083248898,0.168494016,0.924329042
36.937206,-0.756294250,11.135498047,-3.263458252,-0.084957883,0.170325071,0.927869081
36.937833,-1.259834290,11.028686523,-3.240570068,-0.084225461,0.174109250,0.925305605
36.938459,-1.679450989,10.815063477,-3.614410400,-0.084469602,0.173865110,0.926404238
36.939086,-2.144844055,10.601440430,-3.675445557,-0.090939328,0.179724485,0.925183535
36.939712,-2.755195618,10.372558594,-3.652557373,-0.087277219,0.179480344,0.921887636
36.940337,-3.327400208,10.105529785,-3.988250732,-0.091427609,0.181555539,0.922253847
36.940963,-3.975898743,10.181823730,-4.102691650,-0.094113156,0.180823117,0.918957949
36.941588,-4.487068176,9.678283691,-4.362091064,-0.093991086,0.180701047,0.921155214
36.942213,-5.097419739,9.609619141,-4.491790771,-0.095333859,0.182165891,0.920300722
36.942838,-5.532295227,9.464660645,-4.552825928,-0.099972531,0.184241086,0.919568300
36.943463,-6.165534973,9.296813965,-4.926666260,-0.101559445,0.182776242,0.920544863
36.944089,-6.691963196,9.029785156,-4.865631104,-0.102902219,0.183020383,0.921399355
36.944716,-7.256538391,8.991638184,-5.178436279,-0.106930539,0.182776242,0.921521425
36.945341,-7.721931458,8.694091797,-5.453094482,-0.105587766,0.180945188,0.922742128
36.945966,-8.446723938,8.793273926,-5.506500244,-0.107907102,0.177405149,0.920422792
36.946591,-8.667976379,8.488098145,-5.819305420,-0.109127805,0.179236203,0.918957949
36.948479,-10.331184387,8.068481445,-6.505950928,-0.110470578,0.175574094,0.917493105
36.949104,-10.613471985,7.702270508,-6.483062744,-0.112057492,0.169958860,0.917737246
36.949730,-10.979682922,7.755676270,-6.902679443,-0.111203000,0.168249875,0.914929628
36.950355,-11.223823547,7.618347168,-6.925567627,-0.111813352,0.167761594,0.915906191
36.950981,-11.467964172,7.412353516,-7.307037354,-0.111935422,0.165808469,0.915295839
36.951607,-11.658699036,7.091918945,-7.459625244,-0.108639523,0.162512571,0.911511660
36.952234,-12.024909973,7.015625000,-7.482513428,-0.110958859,0.157507688,0.910535097
36.952860,-12.223274231,7.114807129,-7.680877686,-0.109616086,0.152502805,0.908948183
36.953485,-12.269050598,6.527343750,-7.726654053,-0.109127805,0.149695188,0.905774355
36.954112,-12.497932434,6.527343750,-8.047088623,-0.110714719,0.146643430,0.905286074
36.954739,-12.352973938,6.374755859,-7.955535889,-0.112911984,0.140661985,0.904431581
36.955366,-12.269050598,6.122985840,-8.260711670,-0.107662961,0.136999875,0.903455019
36.955992,-12.383491516,5.978027344,-8.390411377,-0.109616086,0.138342649,0.896741152
36.956617,-12.047798157,5.810180664,-8.558258057,-0.108639523,0.134436399,0.898572206
36.957244,-11.818916321,5.573669434,-8.649810791,-0.108029172,0.132849485,0.897351503
36.957869,-11.796028137,5.497375488,-8.825286865,-0.106198117,0.126868039,0.894177675
36.958495,-11.445075989,5.337158203,-8.802398682,-0.102780148,0.126990110,0.895886660
36.959122,-11.338264465,5.054870605,-8.901580811,-0.105587766,0.123572141,0.896985292
36.959748,-11.010200500,4.887023926,-9.183868408,-0.107052609,0.122839719,0.895154238
36.960375,-10.788948059,4.604736328,-9.321197510,-0.104000852,0.119177610,0.893567324
36.961003,-10.491401672,4.459777832,-9.504302979,-0.102413937,0.118201047,0.894177675
36.961629,-10.415107727,4.452148438,-9.641632080,-0.102536008,0.113806516,0.891736269
36.962256,-10.071784973,4.116455078,-9.588226318,-0.103268430,0.113562375,0.891614199
36.962883,-9.797126770,3.857055664,-9.664520264,-0.101559445,0.113684446,0.896374941
36.963509,-9.499580383,3.696838379,-9.862884521,-0.102169797,0.110388547,0.892468691
36.964135,-9.163887024,3.704467773,-9.893402100,-0.099118039,0.107336789,0.892346621
36.964761,-9.163887024,3.414550781,-9.939178467,-0.098507687,0.103552610,0.893323183
36.965387,-8.667976379,3.422180176,-10.145172119,-0.099118039,0.103186399,0.891492128
36.966012,-8.507759094,3.071228027,-10.015472412,-0.100460812,0.101965696,0.894177675
36.978818,-7.569343567,0.355163574,-10.641082764,-0.096310422,0.081091672,0.890881777
36.979592,-7.691413879,0.217834473,-10.679229736,-0.101437375,0.075110227,0.889416933
36.980217,-7.767707825,0.004211426,-10.488494873,-0.100949094,0.067175657,0.892590761
36.980844,-7.874519348,-0.201782227,-10.580047607,-0.103268430,0.066077024,0.891492128
36.981470,-7.699043274,-0.346740723,-10.511383057,-0.101925656,0.063757688,0.887219667
36.982096,-7.813484192,-0.499328613,-10.442718506,-0.103024289,0.060095582,0.888806581
36.982722,-7.615119934,-0.918945312,-10.473236084,-0.105099484,0.057776246,0.885510683
36.983359,-7.393867493,-1.056274414,-10.404571533,-0.104611203,0.055212770,0.886243105
36.983986,-7.432014465,-1.178344727,-10.351165771,-0.108029172,0.049841676,0.884412050
36.984611,-6.737739563,-1.445373535,-10.175689697,-0.105953977,0.046301637,0.881482363
36.985237,-6.638557434,-1.475891113,-10.412200928,-0.104367062,0.042761598,0.885144472
36.985863,-6.112129211,-1.597961426,-10.183319092,-0.103512570,0.039465699,0.886487246
36.986489,-5.768806458,-2.017578125,-10.198577881,-0.106320187,0.038733277,0.886853456
36.987115,-5.448371887,-2.246459961,-10.313018799,-0.106564328,0.041418824,0.886975527
36.987740,-5.021125793,-2.330383301,-10.190948486,-0.104122922,0.037146363,0.883679628
36.988366,-4.540473938,-2.605041504,-10.190948486,-0.102413937,0.035925660,0.884534121
36.988993,-4.052192688,-2.719482422,-10.023101807,-0.097531125,0.030554567,0.888196230
36.989619,-3.754646301,-2.955993652,-10.152801514,-0.097409055,0.031653199,0.886609316
36.990244,-3.273994446,-3.039916992,-9.885772705,-0.095089719,0.030920777,0.887585878
36.990869,-2.839118958,-3.177246094,-9.710296631,-0.091915891,0.026770387,0.890027285
36.991496,-2.465278625,-3.169616699,-9.702667236,-0.092526242,0.028235231,0.890759706
36.992122,-1.725227356,-3.429016113,-9.572967529,-0.091183469,0.023596559,0.895154238
36.992748,-1.313240051,-3.398498535,-9.435638428,-0.088742062,0.024451051,0.893445253
36.993374,-0.885993958,-3.535827637,-9.290679932,-0.090084836,0.025061402,0.894910097
36.994004,-0.527412415,-3.642639160,-9.099945068,-0.092160031,0.024328981,0.897595644
36.994631,-0.252754211,-3.688415527,-9.222015381,-0.088986203,0.026770387,0.898083925
36.995256,0.411003113,-3.718933105,-9.122833252,-0.091915891,0.029578004,0.901013613
36.995882,0.716178894,-3.825744629,-8.764251709,-0.090817258,0.026770387,0.902234316
36.996508,0.868766785,-3.856262207,-8.779510498,-0.091183469,0.030066285,0.906628847
36.997133,1.234977722,-4.153808594,-8.680328369,-0.091305539,0.030188356,0.906262636
36.998933,1.860588074,-4.054626465,-8.367523193,-0.086544797,0.036169801,0.912854433
36.999559,1.791923523,-4.100402832,-8.192047119,-0.090451047,0.038855348,0.915906191
37.000184,1.967399597,-4.138549805,-8.268341064,-0.091549680,0.041174684,0.914685488
37.000811,2.203910828,-4.146179199,-8.039459229,-0.088131711,0.041174684,0.918103456
37.001437,2.104728699,-4.291137695,-8.176788330,-0.090573117,0.044836793,0.921399355
37.002063,2.188652039,-4.222473145,-8.016571045,-0.089230344,0.046667848,0.923108339
37.002690,2.234428406,-4.100402832,-7.963165283,-0.089840695,0.049719606,0.922986269
37.003317,1.868217468,-4.222473145,-7.734283447,-0.093624875,0.045935426,0.924084902
37.003943,1.883476257,-4.130920410,-7.848724365,-0.092892453,0.050574098,0.927624941
37.004570,1.509635925,-3.856262207,-7.680877686,-0.091183469,0.050207887,0.930798769
37.005195,1.425712585,-4.054626465,-7.650360107,-0.087033078,0.052771363,0.928723574
37.005821,1.234977722,-3.970703125,-7.581695557,-0.086300656,0.054602418,0.927747011
37.006447,0.945060730,-3.917297363,-7.421478271,-0.080929562,0.054358277,0.928845644
37.007072,0.845878601,-3.734191895,-7.246002197,-0.083859250,0.056677613,0.935437441
37.007697,0.479667664,-3.772338867,-7.146820068,-0.081417844,0.056067262,0.930798769
37.008323,0.494926453,-3.627380371,-7.307037354,-0.082394406,0.058386598,0.932141542
37.008948,0.067680359,-3.329833984,-7.040008545,-0.078976437,0.060828004,0.935437441
37.021703,-3.319770813,-0.156005859,-6.025299072,-0.082272336,0.083533078,0.926648378
37.022438,-3.586799622,-0.232299805,-5.857452393,-0.082638547,0.084387571,0.925305605
37.023063,-3.388435364,-0.239929199,-6.292327881,-0.077755734,0.084997922,0.920056581
37.023690,-3.319770813,-0.140747070,-6.299957275,-0.082638547,0.079260617,0.918835878
37.024315,-3.144294739,-0.293334961,-6.154998779,-0.083493039,0.083288938,0.913953066
37.024941,-3.258735657,-0.346740723,-6.048187256,-0.084103391,0.081091672,0.907727480
37.025567,-3.220588684,-0.445922852,-6.109222412,-0.083981320,0.083411008,0.907117128
37.026193,-3.136665344,-0.598510742,-6.017669678,-0.084469602,0.084143430,0.904797792
37.026818,-2.762825012,-0.636657715,-6.437286377,-0.085079953,0.081579953,0.901013613
37.027445,-2.739936829,-0.873168945,-6.200775146,-0.085690305,0.085119992,0.897351503
37.028070,-2.556831360,-1.071533203,-6.093963623,-0.087277219,0.081579953,0.893323183
37.028696,-2.083808899,-1.239379883,-6.383880615,-0.088497922,0.083533078,0.893445253
37.029322,-1.954109192,-1.369079590,-6.048187256,-0.089596555,0.087195188,0.889050722
37.029947,-1.832038879,-1.643737793,-6.124481201,-0.088009641,0.086828977,0.888562441
37.030572,-1.626045227,-1.880249023,-6.505950928,-0.087643430,0.090979367,0.882947206
37.037792,-0.809700012,-3.627380371,-6.727203369,-0.095578000,0.125525266,0.906872988
37.038417,-0.969917297,-3.818115234,-6.643280029,-0.091061398,0.130408078,0.910290956
37.039042,-1.084358215,-3.680786133,-6.711944580,-0.095700070,0.131872922,0.914685488
37.039667,-1.435310364,-3.680786133,-6.895050049,-0.089718625,0.132361203,0.917859316
37.040293,-2.190620422,-3.841003418,-6.925567627,-0.089352414,0.135046750,0.921277285
37.040919,-2.549201965,-3.459533691,-6.849273682,-0.086422727,0.138708860,0.926404238
37.041545,-2.991706848,-3.421386719,-7.062896729,-0.089718625,0.133093625,0.930920839
37.042171,-3.457099915,-3.558715820,-7.276519775,-0.089962766,0.134924680,0.931897402
37.042797,-3.808052063,-3.337463379,-7.177337646,-0.088986203,0.136267453,0.935437441
37.043423,-4.525215149,-3.352722168,-7.253631592,-0.091183469,0.134924680,0.940076113
37.044050,-5.143196106,-3.161987305,-7.261260986,-0.091427609,0.136023313,0.942639589
37.044675,-5.692512512,-3.108581543,-7.223114014,-0.091793820,0.131384641,0.943982363
37.045301,-6.081611633,-2.963623047,-7.482513428,-0.089474484,0.128577024,0.943249941
37.045927,-6.463081360,-2.902587891,-7.230743408,-0.091549680,0.127600461,0.944104433
37.046553,-7.088691711,-2.841552734,-7.307037354,-0.090573117,0.124914914,0.942883730
37.047179,-7.485420227,-2.666076660,-7.467254639,-0.093380734,0.125036985,0.942517519
37.048995,-8.355171204,-2.261718750,-7.352813721,-0.098141477,0.112585813,0.936169863
37.049621,-8.622200012,-1.895507812,-7.490142822,-0.096188352,0.115027219,0.938367128
37.050247,-8.843452454,-1.956542969,-7.612213135,-0.097775266,0.110754758,0.936902285
37.050872,-8.660346985,-1.994689941,-7.322296143,-0.101681516,0.103796750,0.934949160
37.051497,-8.843452454,-1.887878418,-7.612213135,-0.103268430,0.100256711,0.933606386
37.052124,-8.866340637,-1.948913574,-7.711395264,-0.103146359,0.099036008,0.929700136
37.052751,-8.912117004,-1.796325684,-7.535919189,-0.105709836,0.097327024,0.927380800
37.053377,-8.301765442,-1.941284180,-7.574066162,-0.104733273,0.091833860,0.924084902
37.054003,-8.301765442,-1.872619629,-7.696136475,-0.108761594,0.087195188,0.924817324
37.054628,-8.103401184,-1.773437500,-7.574066162,-0.106198117,0.088049680,0.920300722
37.055253,-7.660896301,-2.116760254,-7.467254639,-0.109616086,0.083411008,0.917615175
37.055922,-7.302314758,-1.750549316,-7.528289795,-0.109127805,0.078528196,0.915417910
37.056547,-6.997138977,-2.093872070,-7.383331299,-0.111813352,0.077917844,0.913098574
37.057173,-6.539375305,-1.971801758,-7.574066162,-0.110470578,0.074499875,0.910657167
37.057799,-6.356269836,-2.154907227,-7.459625244,-0.111447141,0.075964719,0.906384706
37.058426,-5.761177063,-2.208312988,-7.390960693,-0.113888547,0.072058469,0.907605410
37.059052,-5.257637024,-2.185424805,-7.535919189,-0.114132687,0.069250852,0.908337831
37.071925,0.571220398,-3.680786133,-7.047637939,-0.114743039,0.066199094,0.946545839
37.072699,0.472038269,-3.459533691,-6.864532471,-0.114987180,0.059607301,0.947522402
37.073325,0.372856140,-3.337463379,-7.032379150,-0.119015500,0.060828004,0.947888613
37.073950,0.563591003,-3.451904297,-6.834014893,-0.114743039,0.059607301,0.952405214
37.074577,0.296562195,-3.299316406,-6.826385498,-0.117550656,0.058508668,0.949963808
37.075204,0.288932800,-3.261169434,-6.681427002,-0.117428586,0.055701051,0.952283144
37.075831,0.060050964,-3.062805176,-6.902679443,-0.116207883,0.054236207,0.950818300
37.076457,0.159233093,-3.177246094,-6.544097900,-0.117550656,0.048254762,0.950207949
37.077083,0.174491882,-2.955993652,-6.765350342,-0.117550656,0.048254762,0.947644472
37.077709,0.327079773,-3.039916992,-6.582244873,-0.117306516,0.048254762,0.948621035
37.078336,0.220268250,-2.948364258,-6.528839111,-0.116696164,0.044348512,0.949841738
37.078961,0.388114929,-3.009399414,-6.299957275,-0.113522336,0.040320192,0.949353456
37.079587,0.182121277,-2.872070312,-6.254180908,-0.116207883,0.036902223,0.946789980
37.080212,0.235527039,-2.803405762,-6.132110596,-0.116452023,0.033972535,0.945080996
37.080837,0.426261902,-2.887329102,-6.040557861,-0.114743039,0.031286988,0.945813417
37.081463,0.594108582,-2.917846680,-5.880340576,-0.115109250,0.029211793,0.945935488
37.082089,0.540702820,-2.795776367,-5.636199951,-0.114865109,0.026282106,0.944226503
37.082714,0.533073425,-2.803405762,-5.590423584,-0.117672727,0.026648317,0.942517519
37.083340,1.036613464,-2.719482422,-5.529388428,-0.112179562,0.026892457,0.942395449
37.083965,1.059501648,-2.589782715,-5.216583252,-0.110714719,0.022742067,0.942517519
37.084592,1.189201355,-2.627929688,-5.201324463,-0.112179562,0.023840699,0.943982363
37.085218,1.608818054,-2.795776367,-4.972442627,-0.107052609,0.024328981,0.946789980
37.085844,1.913993835,-2.582153320,-4.934295654,-0.107540891,0.022742067,0.948254824
37.086469,1.875846863,-2.582153320,-4.903778076,-0.106442258,0.022375856,0.947888613
37.087096,2.119987488,-2.498229980,-4.636749268,-0.104489133,0.020788942,0.950452089
37.087721,2.387016296,-2.406677246,-4.674896240,-0.104000852,0.019934449,0.949841738
37.088346,2.585380554,-2.070983887,-4.507049561,-0.103634641,0.021277223,0.953747988
37.088972,2.844779968,-2.292236328,-4.415496826,-0.103146359,0.023352418,0.953992128
37.089598,3.027885437,-2.070983887,-4.171356201,-0.105099484,0.024451051,0.957165956
37.090224,3.111808777,-1.918395996,-4.125579834,-0.102291867,0.021887574,0.962048769
37.090851,3.226249695,-1.948913574,-4.163726807,-0.096798703,0.024328981,0.965100527
37.091477,3.424613953,-1.918395996,-3.881439209,-0.096920773,0.028113160,0.965100527
37.092103,3.416984558,-1.460632324,-3.942474365,-0.096188352,0.026648317,0.967541933
37.092728,3.493278503,-1.559814453,-3.820404053,-0.093869016,0.026770387,0.971936464
37.093353,3.516166687,-1.346191406,-3.499969482,-0.092282102,0.028235231,0.970227480
37.093980,3.546684265,-0.995239258,-3.507598877,-0.091549680,0.028113160,0.976819277
37.094605,3.447502136,-0.766357422,-3.400787354,-0.090451047,0.030676637,0.978284121
37.095232,3.508537292,-0.667175293,-2.912506104,-0.088131711,0.034582887,0.981457949
37.095859,3.378837585,-0.255187988,-2.859100342,-0.085202023,0.035681520,0.981335878
37.096484,3.218620300,-0.011047363,-2.721771240,-0.082760617,0.039465699,0.983289003
37.097110,3.378837585,0.095764160,-2.538665771,-0.085690305,0.038000856,0.983899355
37.098985,3.073661804,1.095214844,-2.439483643,-0.081906125,0.044592652,0.988538027
37.099611,2.974479675,1.301208496,-2.210601807,-0.078976437,0.046057496,0.988660097
37.100237,2.867668152,1.552978516,-2.096160889,-0.081539914,0.049353395,0.985120058
37.100863,2.829521179,1.774230957,-2.073272705,-0.083126828,0.051550660,0.986340761
37.101488,2.814262390,2.201477051,-1.958831787,-0.085934445,0.050696168,0.989392519
37.102114,2.585380554,2.521911621,-2.195343018,-0.083615109,0.056433473,0.986584902
37.102739,2.684562683,2.537170410,-1.966461182,-0.080441281,0.053992067,0.985852480
37.116283,4.622428894,5.855957031,-1.607879639,-0.096188352,0.078039914,0.944104433
37.117007,4.759757996,5.588928223,-1.859649658,-0.097775266,0.079504758,0.944714785
37.117633,5.156486511,5.878845215,-1.996978760,-0.093502805,0.083533078,0.947034121
37.118258,5.217521667,6.046691895,-2.119049072,-0.095822141,0.082800657,0.947522402
37.118885,5.240409851,6.191650391,-1.661285400,-0.096188352,0.081091672,0.948865175
37.119512,5.270927429,6.214538574,-1.722320557,-0.099606320,0.080481321,0.947766542
37.120137,5.515068054,6.489196777,-1.829132080,-0.098873898,0.079016477,0.948743105
37.120764,5.759208679,6.618896484,-1.829132080,-0.098507687,0.079748899,0.950085878
37.121389,5.904167175,6.863037109,-2.042755127,-0.101925656,0.078161985,0.949963808
37.122014,6.239860535,6.946960449,-1.859649658,-0.101925656,0.081702024,0.955823183
37.122640,6.346672058,7.122436523,-1.790985107,-0.100094602,0.082434446,0.960339785
37.123266,6.224601746,7.397094727,-1.844390869,-0.100094602,0.088660032,0.961194277
37.123893,6.583183289,7.717529297,-2.065643311,-0.099484250,0.084875852,0.963025331
37.124518,6.682365417,7.801452637,-2.233489990,-0.099728391,0.085364133,0.960828066
37.125144,6.766288757,8.327880859,-2.180084229,-0.101315305,0.086584836,0.965344667
37.125769,6.689994812,8.495727539,-2.370819092,-0.104367062,0.090857297,0.966687441
37.126395,6.484001160,8.823791504,-2.180084229,-0.101437375,0.093298703,0.967053652
37.127021,6.499259949,9.052673340,-2.309783936,-0.102047727,0.091589719,0.962292910
37.127646,6.239860535,9.510437012,-2.279266357,-0.107174680,0.089392453,0.958020449
37.128272,6.041496277,9.640136719,-2.408966064,-0.108517453,0.091101438,0.963757753
37.128898,5.896537781,10.174194336,-2.180084229,-0.109860227,0.090369016,0.959973574
37.129524,5.621879578,10.120788574,-2.302154541,-0.110836789,0.094641477,0.954724550
37.130150,5.316703796,10.273376465,-2.302154541,-0.112179562,0.093176633,0.956067324
37.130777,4.927604675,10.708251953,-2.103790283,-0.114987180,0.090124875,0.950452089
37.131402,4.614799500,10.876098633,-2.302154541,-0.116329953,0.087073117,0.947644472
37.132029,4.599540710,10.967651367,-2.241119385,-0.118771359,0.087805539,0.940686464
37.132654,4.355400085,11.578002930,-2.119049072,-0.122555539,0.087439328,0.936902285
37.133281,3.966300964,11.478820801,-2.286895752,-0.122433469,0.086340696,0.934582949
37.133907,3.745048523,11.707702637,-2.271636963,-0.126095578,0.087927610,0.928967714
37.134533,3.607719421,11.814514160,-2.202972412,-0.128781125,0.085242063,0.925549746
37.135159,3.416984558,12.066284180,-2.119049072,-0.131466672,0.081946164,0.922375917
37.135784,3.256767273,11.989990234,-2.126678467,-0.131588742,0.086218625,0.913342714
37.136409,3.088920593,12.020507812,-2.393707275,-0.130368039,0.084753782,0.910535097
37.137035,2.867668152,12.226501465,-2.271636963,-0.134884641,0.082800657,0.907727480
37.137661,2.806632996,12.424865723,-2.378448486,-0.137814328,0.083411008,0.903210878
37.138287,2.608268738,12.287536621,-2.294525146,-0.138546750,0.086096555,0.901868105
37.138912,2.417533875,12.470642090,-2.386077881,-0.141842648,0.080725461,0.900281191
37.139537,2.287834167,12.249389648,-2.416595459,-0.143429562,0.076575071,0.892712831
37.140164,2.051322937,12.447753906,-2.218231201,-0.147457883,0.076575071,0.890759706
37.140790,1.860588074,12.333312988,-2.401336670,-0.148434445,0.075232297,0.891736269
37.141415,1.868217468,12.112060547,-2.355560303,-0.152706906,0.070227414,0.887463808
37.142041,1.875846863,12.134948730,-2.431854248,-0.150387570,0.070227414,0.882825136
37.142667,1.616447449,12.165466309,-2.431854248,-0.154660031,0.069617063,0.881726503
37.143293,1.242607117,11.806884766,-2.401336670,-0.156979367,0.063879758,0.877698183
37.143918,1.456230164,11.692443848,-2.546295166,-0.159420773,0.062536985,0.874890566
37.144543,1.471488953,11.791625977,-2.386077881,-0.159542844,0.058142457,0.875745058
37.145168,1.402824402,11.478820801,-2.119049072,-0.159786984,0.054358277,0.876721621
37.145793,1.311271667,11.509338379,-2.553924561,-0.161251828,0.049475465,0.874280214
37.146418,1.418083191,11.150756836,-2.340301514,-0.164913937,0.047156129,0.873791933
37.160528,11.618583679,6.641784668,-1.310333252,-0.173703000,-0.039269652,0.834973574
37.161326,12.068717957,6.382385254,-1.218780518,-0.173214719,-0.040368285,0.833752871
37.161952,12.686698914,6.267944336,-1.119598389,-0.170651242,-0.042809691,0.838147402
37.162577,13.197868347,5.955139160,-1.050933838,-0.172726437,-0.038415160,0.833630800
37.163204,13.731925964,5.726257324,-0.715240479,-0.171017453,-0.040612426,0.831799746
37.163829,14.075248718,5.512634277,-0.478729248,-0.170162961,-0.044396605,0.836194277
37.164456,14.525382996,5.100646973,-0.318511963,-0.169674680,-0.042931762,0.834607363
37.165082,14.922111511,4.978576660,-0.188812256,-0.170651242,-0.044884887,0.836560488
37.165709,15.112846375,4.711547852,-0.112518311,-0.172848508,-0.042321410,0.834363222
37.166336,15.570610046,4.490295410,0.131622314,-0.173336789,-0.043053832,0.835339785
37.166962,15.730827332,4.185119629,0.276580811,-0.174801633,-0.040612426,0.834729433
37.167588,15.837638855,3.765502930,0.207916260,-0.178829953,-0.039757933,0.837048769
37.168214,16.058891296,3.559509277,0.505462646,-0.174923703,-0.042565551,0.840100527
37.168841,15.959709167,3.300109863,0.612274170,-0.174801633,-0.041833129,0.840588808
37.169466,16.150444031,3.010192871,0.688568115,-0.173703000,-0.042077269,0.837781191
37.170093,15.959709167,2.598205566,0.894561768,-0.172604367,-0.043053832,0.840344667
37.170719,15.730827332,2.102294922,1.024261475,-0.174679562,-0.040612426,0.838269472
37.171344,15.685050964,1.903930664,1.039520264,-0.168942258,-0.042565551,0.840710878
37.171969,15.433280945,1.415649414,1.420989990,-0.171505734,-0.046715941,0.840466738
37.172595,15.288322449,1.209655762,1.543060303,-0.165890500,-0.043786254,0.837170839
37.173222,14.677970886,0.934997559,1.909271240,-0.165768430,-0.045861449,0.838147402
37.173848,14.578788757,0.797668457,2.000823975,-0.166744992,-0.041344848,0.834729433
37.174474,14.151542664,0.385681152,2.336517334,-0.163082883,-0.040490355,0.832776308
37.175100,13.754814148,0.248352051,2.603546143,-0.161495969,-0.039147582,0.832532167
37.175727,13.258903503,0.057617188,2.756134033,-0.162106320,-0.034997191,0.830334902
37.176362,12.938468933,-0.514587402,3.198638916,-0.163327023,-0.033654418,0.828992128
37.176987,12.465446472,-0.545104980,3.511444092,-0.163082883,-0.031457152,0.830456972
37.177613,12.228935242,-0.842651367,3.496185303,-0.162350461,-0.026574340,0.828747988
37.178240,11.702507019,-0.888427734,3.900543213,-0.162838742,-0.022912230,0.832776308
37.178865,11.168449402,-1.559814453,4.144683838,-0.161984250,-0.019616332,0.828381777
37.179491,10.657279968,-1.529296875,4.220977783,-0.158444211,-0.016442504,0.830090761
37.180116,10.245292664,-1.826843262,4.510894775,-0.154415891,-0.012780394,0.830823183
37.180743,10.024040222,-2.345642090,4.732147217,-0.154537961,-0.009606566,0.834607363
37.181369,9.398429871,-2.414306641,4.724517822,-0.152584836,-0.006310668,0.836926699
37.181994,8.803337097,-2.566894531,5.098358154,-0.148312375,-0.001183715,0.836682558
37.182620,8.513420105,-2.948364258,5.197540283,-0.146359250,0.005774293,0.844250917
37.183245,8.017509460,-2.902587891,5.067840576,-0.145260617,0.009802613,0.848157167
37.183872,7.155387878,-3.062805176,5.373016357,-0.141476437,0.009924684,0.851575136
37.184499,6.628959656,-3.306945801,5.662933350,-0.141598508,0.015661988,0.854260683
37.185125,6.041496277,-3.268798828,5.815521240,-0.143307492,0.018347535,0.859753847
37.185750,5.362480164,-3.528198242,5.937591553,-0.137570187,0.020056520,0.859509706
37.186376,4.637687683,-3.406127930,6.181732178,-0.140133664,0.023962770,0.863538027
37.187004,3.966300964,-3.703674316,6.204620361,-0.136837766,0.023840699,0.866101503
37.187629,3.630607605,-3.940185547,6.380096436,-0.135861203,0.026037965,0.876111269
37.188254,3.203361511,-3.963073730,6.380096436,-0.135861203,0.031653199,0.877698183
37.188879,2.501457214,-4.039367676,6.502166748,-0.130978391,0.032507692,0.883313417
37.189504,2.089469910,-4.252990723,6.349578857,-0.129879758,0.034460817,0.885632753
37.190129,1.906364441,-4.191955566,6.555572510,-0.129513547,0.037878785,0.890149355
37.202876,4.210441589,-8.319458008,6.044403076,-0.153073117,0.080725461,0.858166933
37.203600,4.759757996,-8.983215332,5.868927002,-0.156246945,0.084631711,0.860852480
37.204227,5.049674988,-9.082397461,5.838409424,-0.155148312,0.094031125,0.862561464
37.204852,5.385368347,-9.387573242,5.708709717,-0.156857297,0.099158078,0.866345644
37.205479,5.774467468,-9.677490234,5.426422119,-0.156491086,0.105261594,0.869275331
37.206106,5.873649597,-10.074218750,5.411163330,-0.159786984,0.110876828,0.873669863
37.206731,6.224601746,-10.234436035,5.014434814,-0.161740109,0.114661008,0.877942324
37.207356,6.445854187,-10.753234863,4.831329346,-0.161984250,0.117102414,0.888196230
37.207981,6.415336609,-10.760864258,4.747406006,-0.160275266,0.127112180,0.893933535
37.208606,6.453483582,-11.073669434,4.388824463,-0.160885617,0.130896360,0.903455019
37.209232,6.476371765,-11.195739746,4.037872314,-0.161984250,0.134558469,0.908093691
37.211034,5.682914734,-11.737426758,3.580108643,-0.156735227,0.142493039,0.930432558
37.211661,5.309074402,-11.645874023,3.343597412,-0.154537961,0.144446164,0.935681581
37.212286,4.721611023,-11.554321289,3.061309814,-0.151974484,0.149817258,0.941174746
37.212913,4.485099792,-11.508544922,2.908721924,-0.152462766,0.150549680,0.949841738
37.213540,3.951042175,-11.691650391,2.824798584,-0.151974484,0.153967649,0.956067324
37.214165,3.287284851,-11.432250977,2.183929443,-0.150753781,0.149206907,0.959241152
37.214790,2.562492371,-11.180480957,2.443328857,-0.150753781,0.155066282,0.964734316
37.215416,2.181022644,-11.264404297,2.183929443,-0.148800656,0.152746946,0.965344667
37.216042,1.563041687,-10.913452148,1.894012451,-0.149655148,0.154211789,0.972180605
37.216668,1.044242859,-10.860046387,1.825347900,-0.148800656,0.153723508,0.973889589
37.217295,0.533073425,-10.448059082,1.596466064,-0.153561398,0.152502805,0.974377871
37.217922,0.006645203,-10.470947266,1.398101807,-0.147457883,0.154578000,0.972913027
37.218549,-0.420600891,-10.165771484,1.344696045,-0.152462766,0.151892453,0.979871035
37.219174,-0.908882141,-9.929260254,0.986114502,-0.151974484,0.148230344,0.980481386
37.219800,-1.091987610,-9.761413574,0.642791748,-0.151730344,0.150671750,0.982190371
37.220425,-1.351387024,-9.311279297,0.627532959,-0.155026242,0.151892453,0.983411074
37.221051,-1.938850403,-9.227355957,0.284210205,-0.153683469,0.147986203,0.983899355
37.221676,-2.015144348,-9.082397461,0.085845947,-0.151730344,0.148108274,0.984143496
37.222302,-2.411872864,-8.891662598,-0.150665283,-0.153317258,0.140784055,0.984631777
37.222928,-2.411872864,-8.578857422,-0.127777100,-0.152584836,0.140295774,0.985364199
37.223554,-2.816230774,-8.357604980,-0.654205322,-0.152951047,0.136877805,0.987439394
37.224179,-2.678901672,-8.029541016,-0.753387451,-0.151364133,0.136633664,0.985242128
37.224804,-2.862007141,-7.953247070,-1.012786865,-0.151608273,0.132361203,0.984021425
37.225430,-3.251106262,-7.648071289,-1.165374756,-0.148556516,0.129309446,0.986218691
37.226057,-2.823860168,-7.541259766,-1.424774170,-0.148312375,0.126379758,0.987683535
37.226683,-2.930671692,-7.358154297,-1.668914795,-0.148800656,0.122107297,0.984021425
37.227309,-2.953559875,-7.289489746,-1.737579346,-0.145016477,0.119910032,0.982434511
37.227934,-2.823860168,-6.816467285,-1.874908447,-0.142941281,0.114538938,0.985120058
37.228559,-2.991706848,-6.938537598,-1.966461182,-0.141110227,0.108435422,0.985974550
37.229185,-2.724678040,-6.793579102,-2.302154541,-0.137936398,0.104651242,0.983411074
37.229812,-2.549201965,-6.648620605,-2.500518799,-0.134274289,0.100012571,0.984021425
37.230438,-2.205879211,-6.206115723,-2.401336670,-0.136715695,0.099036008,0.983411074
37.231065,-2.091438293,-6.267150879,-2.569183350,-0.133175656,0.093176633,0.984753847
37.231691,-1.877815247,-6.030639648,-2.698883057,-0.131710812,0.091589719,0.982922792
37.232316,-1.885444641,-5.885681152,-2.737030029,-0.128414914,0.086462766,0.984875917
37.232943,-1.313240051,-5.839904785,-2.866729736,-0.129513547,0.084265500,0.983777285
37.233568,-1.297981262,-5.664428711,-2.950653076,-0.125729367,0.078772336,0.982434511
37.246392,-0.542671204,-6.671508789,-2.378448486,-0.090328977,0.035925660,0.956555605
37.247148,-0.672370911,-6.991943359,-2.202972412,-0.083737180,0.033972535,0.953747988
37.247775,-0.756294250,-7.060607910,-1.874908447,-0.080319211,0.030066285,0.952527285
37.248400,-0.702888489,-7.220825195,-2.065643311,-0.077633664,0.028479371,0.950696230
37.249026,-1.030952454,-7.480224609,-1.760467529,-0.075314328,0.027502809,0.954480410
37.249653,-1.221687317,-7.556518555,-1.699432373,-0.071041867,0.028113160,0.952283144
37.250279,-1.244575500,-7.960876465,-1.546844482,-0.072750852,0.023474488,0.955212831
37.250905,-1.519233704,-7.983764648,-1.272186279,-0.070065305,0.021643434,0.954724550
37.251531,-1.885444641,-8.205017090,-1.127227783,-0.067257687,0.023108277,0.953992128
37.252156,-1.976997375,-8.250793457,-0.883087158,-0.066647336,0.016516481,0.956921816
37.252781,-2.137214661,-8.510192871,-0.600799561,-0.065060422,0.017737184,0.956799746
37.253407,-2.129585266,-8.716186523,-0.669464111,-0.062863156,0.016394410,0.955090761
37.254033,-2.388984680,-9.204467773,-0.410064697,-0.063107297,0.017615113,0.954114199
37.254658,-2.488166809,-9.257873535,-0.127777100,-0.063107297,0.016272340,0.957776308
37.255283,-2.549201965,-9.639343262,-0.013336182,-0.058834840,0.015417848,0.956433535
37.255910,-2.602607727,-9.891113281,0.246063232,-0.057003785,0.012244020,0.953870058
37.256536,-2.739936829,-10.295471191,0.276580811,-0.056515504,0.011267457,0.952405214
37.257162,-2.762825012,-10.570129395,0.696197510,-0.056271363,0.010046754,0.951062441
37.257788,-2.785713196,-10.791381836,0.650421143,-0.055050660,0.009924684,0.950940371
37.258414,-2.602607727,-11.119445801,0.925079346,-0.054562379,0.013464723,0.951184511
37.259039,-2.572090149,-11.638244629,1.070037842,-0.053707886,0.014563356,0.950574160
37.259664,-2.274543762,-11.905273438,1.153961182,-0.051632691,0.011023317,0.950940371
37.261704,-1.725227356,-13.019165039,1.703277588,-0.045285035,0.012854371,0.952893496
37.262330,-1.526863098,-13.187011719,1.932159424,-0.046139527,0.016638551,0.952283144
37.262956,-1.153022766,-13.400634766,2.290740967,-0.045407105,0.015295777,0.957043886
37.263582,-0.847846985,-13.576110840,2.313629150,-0.044552613,0.016150270,0.957898378
37.264207,-0.390083313,-14.430603027,2.511993408,-0.042477418,0.018103395,0.958264589
37.264834,-0.054389954,-14.567932129,2.641693115,-0.043576051,0.019690309,0.961438417
37.265459,0.334709167,-14.690002441,2.565399170,-0.040402222,0.020666871,0.961438417
37.266085,0.800102234,-15.048583984,2.870574951,-0.045162965,0.023962770,0.966565371
37.266712,1.204460144,-15.460571289,2.847686768,-0.040646363,0.029578004,0.968152285
37.267337,1.486747742,-15.704711914,3.000274658,-0.040158082,0.030798707,0.972058535
37.267962,1.845329285,-15.941223145,3.160491943,-0.041744996,0.033850465,0.974133730
37.268589,2.325981140,-16.086181641,3.511444092,-0.038082886,0.038000856,0.978039980
37.269214,2.760856628,-16.223510742,3.366485596,-0.038815308,0.041174684,0.982800722
37.269840,3.203361511,-16.772827148,3.664031982,-0.039669801,0.042517457,0.984387636
37.270465,3.294914246,-16.803344727,3.519073486,-0.036007691,0.046789918,0.988415956
37.271091,3.684013367,-17.078002930,3.755584717,-0.040280152,0.054602418,0.992566347
37.271717,4.034965515,-17.444213867,3.641143799,-0.039547730,0.056311402,0.994763613
37.272343,4.157035828,-17.551025391,3.877655029,-0.040280152,0.060950074,0.998181581
37.272969,4.301994324,-17.818054199,3.953948975,-0.040890504,0.067175657,1.000622988
37.273594,4.569023132,-17.818054199,3.892913818,-0.040646363,0.070227414,1.003674746
37.274219,4.813163757,-18.367370605,3.946319580,-0.043331910,0.078284055,1.005872011
37.274845,4.919975281,-18.512329102,3.999725342,-0.039913941,0.078528196,1.009045839
37.275471,4.965751648,-18.725952148,3.931060791,-0.042111207,0.085730344,1.013562441
37.276096,5.225151062,-18.848022461,4.007354736,-0.043453980,0.090613157,1.014905214
37.276721,5.309074402,-19.099792480,3.740325928,-0.041744996,0.092322141,1.014661074
37.277348,5.476921082,-19.206604004,3.915802002,-0.042477418,0.099646360,1.017956972
37.296870,4.096000671,-20.816406250,-1.378997803,0.024295043,0.180701047,1.138928652
37.297646,3.760307312,-20.488342285,-1.584991455,0.028079223,0.177893430,1.149182558
37.298272,3.951042175,-20.289978027,-2.172454834,0.032595824,0.179968625,1.149548769
37.298897,3.867118835,-20.091613770,-2.264007568,0.031008910,0.182165891,1.149548769
37.299524,3.844230652,-19.771179199,-2.401336670,0.035647582,0.178503782,1.151257753
37.300149,3.828971863,-19.618591309,-2.752288818,0.037478637,0.174475461,1.153943300
37.300776,3.836601257,-19.511779785,-3.026947021,0.037600707,0.178259641,1.157605410
37.301402,3.874748230,-18.970092773,-3.286346436,0.039920043,0.173498899,1.160657167
37.302029,4.111259460,-18.931945801,-3.606781006,0.044924926,0.168982297,1.161267519
37.302655,4.065483093,-18.588623047,-3.751739502,0.046633910,0.168371946,1.161145449
37.303281,4.065483093,-18.489440918,-4.255279541,0.050418090,0.167761594,1.164197206
37.303906,4.385917664,-18.024047852,-4.392608643,0.050662231,0.167273313,1.163708925
37.304531,4.477470398,-17.909606934,-4.743560791,0.050418090,0.166174680,1.164563417
37.305156,4.874198914,-17.657836914,-5.025848389,0.054812621,0.157385617,1.169568300
37.305781,5.011528015,-17.169555664,-5.308135986,0.054446410,0.161536008,1.172620058
37.306406,5.423515320,-17.108520508,-5.369171143,0.057131957,0.166296750,1.170666933
37.307033,5.476921082,-16.727050781,-5.796417236,0.060061645,0.164709836,1.172253847
37.307659,5.507438660,-16.307434082,-6.048187256,0.062136840,0.163855344,1.174084902
37.308286,5.454032898,-16.170104980,-6.162628174,0.064089969,0.159094602,1.174451113
37.308911,5.835502625,-15.857299805,-6.536468506,0.065188602,0.160315305,1.172864199
