time,gyro x,gyro y,gyro z,accel x,accel y,accel z
74.616993,-2.265415192,1.666996002,-4.888423920,0.041887760,0.045254946,0.987708569
74.655260,-5.393466949,-2.178218842,-4.232295990,0.032488346,0.030240295,0.969764233
74.669494,-6.415805817,-2.033260345,-3.202327728,0.030291080,0.032315493,0.995032787
74.684812,-4.790744781,-1.651790619,-3.339656830,0.058123112,0.027554749,1.032752514
74.685573,-4.790744781,-1.651790619,-3.339656830,0.058123112,0.027554749,1.032752514
74.686169,-4.790744781,-1.651790619,-3.339656830,0.058123112,0.027554749,1.032752514
74.686803,-4.790744781,-1.651790619,-3.339656830,0.058123112,0.027554749,1.032752514
74.687381,-4.790744781,-1.651790619,-3.339656830,0.058123112,0.027554749,1.032752514
74.688001,-4.790744781,-1.651790619,-3.339656830,0.058123112,0.027554749,1.032752514
74.688588,-4.790744781,-1.651790619,-3.339656830,0.058123112,0.027554749,1.032752514
74.689222,-4.790744781,-1.651790619,-3.339656830,0.058123112,0.027554749,1.032752514
74.689807,-4.790744781,-1.651790619,-3.339656830,0.058123112,0.027554749,1.032752514
74.727932,-3.089389801,-1.537349701,-3.690608978,0.017839909,0.013272522,0.970618725
74.766193,-3.249607086,0.102970123,-3.850826263,0.024431705,0.029019592,1.026648998
74.780422,-2.791843414,0.179264069,-4.056819916,0.037249088,0.027310608,1.017982006
74.809547,-4.630527496,0.019046783,-4.087337494,-0.026593685,0.028287170,0.942298412
74.847923,-4.332981110,-4.978206635,-2.454647064,0.011492252,0.029996155,1.043616772
74.886195,-4.683933258,-1.789119720,-1.317867279,-0.012311459,0.024502991,0.957190990
74.900432,-7.644138336,-1.300838470,0.520816803,0.000139713,0.020962952,0.972205639
74.915757,-6.568393707,-3.124263763,-0.821956635,0.013811588,0.060269594,1.031165600
74.954062,-4.783115387,-0.034358978,0.780216217,0.001238346,0.050748110,0.998939037
74.992308,-4.378757477,1.857730865,-0.028499603,0.016741276,0.050015688,1.031775951
75.006562,-2.608737946,-0.034358978,1.962772369,0.002947330,0.029874085,1.016273022
75.021878,-4.271945953,-2.857234955,4.549137115,0.021135807,0.037686586,1.007850170
75.060181,-4.264316559,-1.262691498,3.824344635,0.042986393,0.024502991,0.998328686
75.098431,-2.562961578,-3.009822845,3.641239166,0.047502995,0.039029360,1.035926342
75.127925,-3.547153473,2.689334869,3.427616119,0.054216862,0.037808657,1.004188061
75.142249,-3.982028961,2.574893951,0.932804108,0.062639713,0.039639711,1.033607006
75.180453,-0.564060211,-5.664852142,1.665225983,0.044573307,0.051968813,1.017249584
75.218728,-0.632724762,-6.557491302,2.092472076,0.070574284,0.063687563,1.003211498
75.232963,-1.937351227,-2.651241302,0.047794342,0.036272526,0.043423891,1.025794506
75.248260,0.557460785,-1.743343353,0.711551666,0.036272526,0.072476625,1.024451733
75.286565,-1.059970856,1.850101471,3.679386139,0.063127995,0.040494204,0.999549389
75.324849,-1.464328766,-5.786922455,2.306095123,0.027239323,0.011197327,0.976111889
75.339085,-0.731906891,-8.335140228,2.794376373,0.041643620,0.038785219,0.992103100
75.354395,-0.144443512,-8.243587494,2.336612701,0.027483463,-0.001131775,0.962928295
75.392687,0.725307465,3.437015533,0.215641022,0.042376041,-0.011263611,1.007606030
75.431001,-1.235446930,4.283878326,2.687564850,0.039324284,-0.001375915,0.961951733
75.445247,-1.784763336,4.177066803,4.312625885,0.045061588,-0.004793884,0.966468334
75.460549,-1.616916656,5.802127838,2.313724518,0.081316471,0.013516663,0.984046459
75.498860,0.961818695,3.101322174,2.367130280,0.029070377,0.012418030,0.931556225
75.537152,-1.380405426,2.254459381,4.114261627,0.059221745,0.008023499,0.948401928
75.551394,-0.457248688,1.163455963,2.100101471,0.055071354,-0.006136658,0.961707592
75.566719,-0.197849274,-0.316646576,2.428165436,0.053118229,-0.003695251,0.969764233
75.605045,-2.685031891,-2.750423431,4.968753815,0.046648502,-0.001497986,0.950843334
75.643314,-1.479587555,1.064273834,1.596561432,0.037615299,0.011319397,0.975989819
75.657566,-2.616367340,2.094242096,2.275577545,0.040789127,0.028531311,0.983069897
75.672882,-1.380405426,5.924198151,2.901187897,0.060686588,0.014737366,1.005042553
75.673635,-1.380405426,5.924198151,2.901187897,0.060686588,0.014737366,1.005042553
75.674237,-1.380405426,5.924198151,2.901187897,0.060686588,0.014737366,1.005042553
75.674851,-1.380405426,5.924198151,2.901187897,0.060686588,0.014737366,1.005042553
75.675437,-1.380405426,5.924198151,2.901187897,0.060686588,0.014737366,1.005042553
75.676066,-1.380405426,5.924198151,2.901187897,0.060686588,0.014737366,1.005042553
75.676658,-1.380405426,5.924198151,2.901187897,0.060686588,0.014737366,1.005042553
75.677288,-1.380405426,5.924198151,2.901187897,0.060686588,0.014737366,1.005042553
75.677884,-1.174411774,7.755252838,2.473941803,0.084490299,0.003628967,1.014564037
75.678501,-1.174411774,7.755252838,2.473941803,0.084490299,0.003628967,1.014564037
75.679111,-1.174411774,7.755252838,2.473941803,0.084490299,0.003628967,1.014564037
75.679731,-1.174411774,7.755252838,2.473941803,0.084490299,0.003628967,1.014564037
75.717811,0.763454437,6.969425201,-1.294979095,0.048601627,0.016690491,1.004554272
75.756102,1.396694183,6.153079987,-0.646480560,0.066423893,0.032315493,1.009192944
75.770363,2.258815765,5.168888092,-0.127681732,0.048601627,0.000455139,1.014564037
75.785672,2.365627289,4.016849518,0.864139557,0.054216862,-0.003939392,1.003089428
75.823973,2.441921234,-1.407649994,3.847232819,0.048113346,0.000943420,1.014319897
75.877088,5.234279633,-7.915523529,4.427066803,0.032610416,0.030850647,0.991370678
75.908272,4.631557465,-3.551509857,4.510990143,0.054949284,0.018399475,0.999061108
75.922574,5.920925140,-1.094844818,1.474491119,0.060320377,-0.007967712,0.988318920
75.960799,5.219020844,-7.007625580,5.777469635,0.026262760,-0.005038025,0.965003490
75.999081,-2.242527008,1.636478424,6.372562408,0.070208073,-0.060335875,0.958777905
76.013310,-1.609287262,3.932926178,2.351871490,0.067644596,-0.046419859,0.970618725
76.028602,-2.425632477,4.589054108,4.984012604,0.010637760,-0.093050718,0.922278881
76.082509,-5.980930328,5.710575104,2.817264557,0.055193424,-0.072787046,0.940833569
76.120915,-6.659946442,-7.961299896,5.006900787,0.016252995,-0.017489197,0.947181225
76.135161,-7.110080719,-9.960201263,2.481571198,0.038713932,-0.018954040,0.951819897
76.150511,-8.124790192,-8.899715424,2.344242096,0.031755924,-0.030184509,0.959022045
76.188838,-11.413059235,-1.796749115,0.887027740,0.000994205,-0.032503843,0.972083569
76.227126,-7.499179840,6.175968170,-2.187618256,0.025286198,-0.055086851,0.980628490
76.241373,-9.162387848,5.283329010,-1.584896088,0.012835026,-0.055453062,0.985755444
76.256725,-9.292087555,-0.667598724,1.253238678,0.027727604,-0.052889585,1.041053295
76.257486,-9.292087555,-0.667598724,1.253238678,0.027727604,-0.052889585,1.041053295
76.295603,-8.079013824,-4.573848724,1.794925690,0.016863346,-0.049593687,0.977454662
76.333884,-7.270298004,-2.368953705,0.803104401,0.012590885,-0.029330017,1.020423412
76.348116,-8.552036285,-0.652339935,2.756229401,0.017473698,-0.049593687,1.036292553
76.363435,-7.171115875,1.087162018,2.428165436,0.022966862,-0.024325134,1.044593334
76.401733,-6.659946442,5.985233307,3.366580963,0.037737370,-0.057284117,1.054603100
76.440029,-2.326450348,5.657169342,2.420536041,0.049456120,-0.038851500,1.027259350
76.454281,-6.003818512,10.738346100,1.665225983,0.057634830,-0.061678648,1.025428295
76.469607,-7.392368317,12.454959869,1.054874420,0.063860416,-0.056429625,1.058631420
76.507907,0.458278656,8.090946198,-0.936397552,0.044329166,-0.019564392,1.063514233
76.546203,-1.845798492,-4.161861420,1.772037506,0.076067448,0.000455139,1.093177319
76.560442,1.091518402,-5.176570892,-0.646480560,0.068377018,0.009488342,1.112708569
76.575769,5.417385101,-3.879573822,-1.294979095,0.054583073,-0.022005798,1.109168530
76.576538,5.417385101,-3.879573822,-1.294979095,0.054583073,-0.022005798,1.109168530
76.577154,5.417385101,-3.879573822,-1.294979095,0.054583073,-0.022005798,1.109168530
76.577788,5.417385101,-3.879573822,-1.294979095,0.054583073,-0.022005798,1.109168530
76.578389,5.417385101,-3.879573822,-1.294979095,0.054583073,-0.022005798,1.109168530
76.579023,5.417385101,-3.879573822,-1.294979095,0.054583073,-0.022005798,1.109168530
76.579638,5.417385101,-3.879573822,-1.294979095,0.054583073,-0.022005798,1.109168530
76.580270,5.417385101,-3.879573822,-1.294979095,0.054583073,-0.022005798,1.109168530
76.580879,5.417385101,-3.879573822,-1.294979095,0.054583073,-0.022005798,1.109168530
76.581513,5.417385101,-3.879573822,-1.294979095,0.054583073,-0.022005798,1.109168530
76.582130,5.417385101,-3.879573822,-1.294979095,0.054583073,-0.022005798,1.109168530
76.582773,7.828273773,-1.758602142,-2.126583099,0.056902409,-0.018221619,1.087317944
76.583376,7.828273773,-1.758602142,-2.126583099,0.056902409,-0.018221619,1.087317944
76.584008,7.828273773,-1.758602142,-2.126583099,0.056902409,-0.018221619,1.087317944
76.584619,7.828273773,-1.758602142,-2.126583099,0.056902409,-0.018221619,1.087317944
76.585253,7.828273773,-1.758602142,-2.126583099,0.056902409,-0.018221619,1.087317944
76.585864,7.828273773,-1.758602142,-2.126583099,0.056902409,-0.018221619,1.087317944
76.586497,7.828273773,-1.758602142,-2.126583099,0.056902409,-0.018221619,1.087317944
76.587110,7.828273773,-1.758602142,-2.126583099,0.056902409,-0.018221619,1.087317944
76.587751,7.828273773,-1.758602142,-2.126583099,0.056902409,-0.018221619,1.087317944
76.625845,3.769435883,8.655521393,-3.667720795,0.063372135,-0.035433531,1.063880444
76.687856,7.713832855,-4.352596283,-7.993587494,-0.020856380,-0.092806578,0.954993725
76.727924,8.575954437,-16.780879974,-5.239376068,-0.012433529,-0.069613218,0.985755444
76.742240,7.942714691,-15.842464447,-3.255733490,-0.010846615,-0.021273376,0.962317944
76.780449,0.755825043,-12.912776947,3.694644928,-0.017194271,-0.112581968,0.934974194
76.818754,1.816310883,4.314395905,-1.546749115,-0.000592709,-0.081576109,0.948157787
76.832988,-1.090488434,12.676212311,-0.921138763,-0.013898373,-0.092562437,0.892005444
76.848303,-4.821262360,15.468570709,1.306644440,-0.014874935,-0.084017515,0.911780834
76.886636,-0.243625641,25.272342682,-1.607784271,0.046892643,-0.116122007,0.929969311
76.924920,-6.644687653,12.554141998,2.023807526,0.002703190,-0.061800718,0.955970287
76.939166,-5.782566071,7.541629791,2.306095123,0.025042057,-0.060824156,0.961829662
76.954477,-6.774387360,3.452274323,1.268497467,0.042131901,-0.110140562,1.001014233
76.992805,-5.317173004,-1.445796967,1.299015045,0.029070377,-0.102816343,1.043006420
77.031090,-0.815830231,-10.860469818,4.762760162,0.042620182,-0.122835875,1.032020092
77.045366,-0.480136871,-8.800533295,3.145328522,0.068132877,-0.101473570,1.037513256
77.060676,1.450099945,-3.139522552,-1.996883392,0.044207096,-0.101839781,1.031287670
77.098984,2.975978851,1.285526276,-0.577816010,0.043596745,-0.090853453,0.984534740
77.137247,-2.852878571,8.693668365,-0.829586029,0.066301823,-0.086825132,0.934852123
77.151472,-1.807651520,4.688236237,-4.499324799,-0.000714779,-0.049227476,0.969520092
77.166791,0.359096527,-0.103023529,-0.394710541,-0.009259701,-0.055575132,0.943519115
77.205073,-0.434360504,-10.608699799,0.589481354,0.004412174,-0.037630796,0.924232006
77.243350,-1.807651520,-7.724788666,-0.471004486,-0.008405209,-0.025912048,0.924964428
77.257590,-1.601657867,-7.747676849,1.871219635,-0.002057552,-0.025667908,0.907874584
77.272876,-5.515537262,-4.779842377,1.085391998,0.028704166,-0.031283140,0.872840405
77.311185,-9.810886383,9.502384186,-4.453548431,0.023088932,-0.042513609,0.921546459
77.349440,-11.870822906,6.961795807,0.276676178,-0.006085873,-0.030428650,0.889686108
77.363677,-14.029941559,6.946537018,0.719181061,0.013567448,-0.018954040,0.910193920
77.378984,-14.075717926,11.592838287,-1.722225189,0.049944401,-0.035555601,0.969886303
77.417302,-9.398899078,1.361820221,-1.424678802,-0.030499935,-0.037020445,1.015906811
77.470836,-3.951511383,-19.100215912,5.212894440,0.007830143,-0.070589781,1.050330639
77.485188,-1.708469391,-19.535091400,4.564395905,0.002825260,-0.043490171,1.063270092
77.500565,0.656642914,-20.404842377,8.997074127,-0.020490170,-0.077669859,1.052161694
77.538863,2.647914886,-9.838130951,7.654300690,-0.003766537,-0.070467710,1.027625561
77.577155,5.997219086,-12.035396576,15.077701569,-0.000592709,-0.071566343,1.031409740
77.591392,6.401576996,-9.693172455,15.840641022,0.023821354,-0.066195250,1.008948803
77.606725,2.007045746,0.148746490,14.261356354,0.047991276,-0.106478453,0.980506420
77.645047,2.632656097,11.539432526,10.591617584,0.039446354,-0.024203064,1.015906811
77.683336,3.555812836,18.520328522,14.085880280,0.040789127,-0.130038023,0.987464428
77.697590,-0.152072906,20.656558990,13.445011139,0.058489323,-0.116366148,1.019202709
77.712954,0.511684418,20.359012604,12.819400787,0.063372135,-0.116366148,1.010047436
77.751250,-1.891574860,2.834293365,15.306583405,-0.004376888,-0.087069273,1.038611889
77.789555,1.091518402,-3.986385345,18.861881256,0.055681705,-0.203036070,1.107825756
77.803811,4.021205902,-7.152584076,17.091861725,0.052263737,-0.199618101,1.097938061
77.819138,4.700222015,-16.826656342,20.662418365,0.001970768,-0.195589781,1.046668530
77.819903,4.700222015,-16.826656342,20.662418365,0.001970768,-0.195589781,1.046668530
77.820495,4.700222015,-16.826656342,20.662418365,0.001970768,-0.195589781,1.046668530
77.821131,4.700222015,-16.826656342,20.662418365,0.001970768,-0.195589781,1.046668530
77.821735,4.700222015,-16.826656342,20.662418365,0.001970768,-0.195589781,1.046668530
77.822373,4.700222015,-16.826656342,20.662418365,0.001970768,-0.195589781,1.046668530
77.872356,-0.327548981,-20.061519623,21.852603912,-0.014997005,-0.111117125,1.082923412
77.910751,7.034816742,-18.734004974,27.879825592,-0.016217709,-0.138338804,0.989539623
77.925017,2.945461273,-9.471920013,30.527225494,0.046648502,-0.166537046,0.966956615
77.940371,-1.609287262,-1.850154877,25.598636627,0.083269596,-0.147127867,0.956946850
77.978675,-2.784214020,18.054935455,24.622074127,0.005510807,-0.143465757,0.954871655
78.016989,-5.469760895,31.734439850,16.939273834,0.077166080,-0.152987242,0.975989819
78.031256,-6.453952789,31.658145905,14.215579987,0.066912174,-0.140414000,0.957190990
78.046611,-10.116062164,23.136112213,14.154544830,0.023699284,-0.149325132,0.965980053
78.084917,-8.071384430,10.005924225,11.201969147,0.092791080,-0.200960875,0.993079662
78.123202,-6.179294586,-0.316646576,8.875003815,0.025652409,-0.125887632,1.016883373
78.137449,-4.302463531,-5.931880951,9.019962311,0.059465885,-0.152254820,1.038856030
78.152792,-2.616367340,-5.550411224,6.845584869,0.057024479,-0.163851500,1.038856030
78.153566,-0.937900543,-3.978755951,5.716434479,0.051653385,-0.188631773,1.021888256
78.154175,-0.937900543,-3.978755951,5.716434479,0.051653385,-0.188631773,1.021888256
78.154809,-0.937900543,-3.978755951,5.716434479,0.051653385,-0.188631773,1.021888256
78.155407,-0.937900543,-3.978755951,5.716434479,0.051653385,-0.188631773,1.021888256
78.193577,2.121486664,-9.517696381,2.527347565,-0.018292904,-0.116732359,1.003577709
78.243903,-2.807102203,-18.116024017,4.686466217,-0.004498959,-0.089754820,0.968177319
78.258251,-0.823459625,-17.093685150,3.168216705,-0.007916927,-0.079989195,0.981360912
78.273592,1.289882660,-15.361812592,3.633609772,-0.029035091,-0.117953062,0.981238842
78.311902,-1.128635406,-5.382564545,4.503360748,0.024797916,-0.124789000,0.942298412
78.350202,-1.166782379,6.854984283,0.467411041,0.012957096,-0.082796812,0.985023022
78.364429,-0.739536285,7.427188873,-0.135311127,0.036150455,-0.092806578,0.973670483
78.379720,-0.266513824,7.808658600,-1.058467865,0.038469791,-0.095370054,0.955482006
78.418046,-5.637607574,9.052249908,-6.887325287,0.044695377,-0.087191343,0.960853100
78.456326,-5.591831207,8.769962311,-8.329280853,0.051287174,-0.095980406,0.940223217
78.470580,-6.484470367,10.929080963,-9.832271576,0.067888737,-0.111117125,0.948768139
78.485885,-6.133518219,13.652774811,-13.578304291,0.077166080,-0.121248960,0.952918530
78.524205,-5.309543610,9.067508698,-19.956478119,0.023088932,-0.104647398,0.932410717
78.562480,-3.760776520,-3.154781342,-22.695430756,0.020159245,-0.155062437,1.000281811
78.576738,-1.304111481,-8.525875092,-20.635494232,0.004778385,-0.149447203,0.991004467
78.592055,1.747646332,-13.149288177,-22.779354095,0.031511784,-0.149325132,0.937293530
78.630352,-5.088291168,-11.631038666,-23.656734467,-0.012555599,-0.162874937,0.918250561
78.668640,8.263149261,-9.685543060,-22.397884369,-0.017682552,-0.192660093,0.972327709
78.682895,10.002651215,-6.481197357,-24.572261810,-0.002301693,-0.288241148,0.899573803
78.698213,3.540554047,-4.611995697,-24.305233002,0.003801823,-0.330477476,0.889686108
78.736515,1.656093597,-0.629451752,-22.397884369,-0.033795834,-0.151888609,0.947303295
78.774817,-7.285556793,9.174320221,-16.675838470,0.041155338,-0.185580015,0.970740795
78.789067,-7.567844391,12.996646881,-17.553218842,0.089739323,-0.168123960,1.032752514
78.804382,-3.570041656,18.772098541,-21.917232513,0.066668034,-0.173250914,1.081336498
78.805150,-3.570041656,18.772098541,-21.917232513,0.066668034,-0.173250914,1.081336498
78.805755,-3.570041656,18.772098541,-21.917232513,0.066668034,-0.173250914,1.081336498
78.806394,-3.570041656,18.772098541,-21.917232513,0.066668034,-0.173250914,1.081336498
78.807002,-3.570041656,18.772098541,-21.917232513,0.066668034,-0.173250914,1.081336498
78.807636,-3.570041656,18.772098541,-21.917232513,0.066668034,-0.173250914,1.081336498
78.808241,-3.570041656,18.772098541,-21.917232513,0.066668034,-0.173250914,1.081336498
78.808888,-3.570041656,18.772098541,-21.917232513,0.066668034,-0.173250914,1.081336498
78.809484,-3.570041656,18.772098541,-21.917232513,0.066668034,-0.173250914,1.081336498
78.859863,-2.715549469,24.768802643,-25.518306732,0.120134830,-0.131258726,1.144080639
78.898237,9.354152679,11.791202545,-23.412593842,0.063005924,-0.126497984,1.038611889
78.912486,0.565090179,1.186344147,-18.468746185,0.045427799,-0.181307554,1.031653881
78.927834,-0.335178375,-4.673030853,-18.102535248,0.080339909,-0.131869078,1.097083569
78.979718,3.075160980,-18.154170990,-16.904720306,0.037737370,-0.151522398,1.096229076
79.018134,12.688198090,-9.906795502,-20.910152435,0.030657291,-0.149569273,1.169105053
79.032386,19.547023773,-8.411434174,-19.826778412,0.014666080,-0.155672789,1.057776928
79.047718,16.747035980,-7.473018646,-18.148311615,-0.008527279,-0.175936460,1.010169506
79.086042,14.320888519,-0.759151459,-18.041500092,0.016619205,-0.136629820,1.062171459
79.124340,12.260951996,-3.078487396,-15.020259857,-0.072858334,-0.127108335,0.850745678
79.138591,2.472438812,-3.192928314,-9.267696381,-0.007062435,-0.117953062,0.902625561
79.153939,2.937831879,-1.697566986,-13.074764252,0.001360416,-0.088900328,0.943641186
79.192236,5.348720551,1.415225983,-10.900386810,-0.076032162,-0.111117125,0.819617748
79.230510,-6.041965485,-0.759151459,-5.872615814,-0.062116146,-0.154940367,0.825721264
79.244758,-7.163486481,-1.438167572,-3.888973236,-0.077130795,-0.163851500,0.832557201
79.260068,-7.354221344,-2.979305267,-0.211605072,-0.085797787,-0.141634703,0.830604076
79.298363,-15.464267731,-2.079036713,5.746952057,-0.019025326,-0.207918882,0.959388256
79.336634,-15.540561676,-3.009822845,10.004154205,0.003801823,-0.233065367,0.998328686
79.350888,-17.280063629,-1.331356049,9.843936920,0.042131901,-0.215121031,1.056190014
79.366214,-16.646823883,0.369998932,6.837955475,0.056536198,-0.205965757,1.108558178
79.404510,-5.919895172,-5.435970306,8.188358307,0.038836002,-0.225374937,1.199622631
79.442819,-9.108982086,-7.778194427,10.355106354,0.099382877,-0.227694273,1.223182201
79.457072,-5.065402985,-8.167293549,5.838504791,0.067156315,-0.142367125,1.317542553
79.472375,0.458278656,-9.616878510,8.333316803,0.045427799,-0.147738218,1.320350170
79.473130,0.458278656,-9.616878510,8.333316803,0.045427799,-0.147738218,1.320350170
79.473720,0.458278656,-9.616878510,8.333316803,0.045427799,-0.147738218,1.320350170
79.474339,0.458278656,-9.616878510,8.333316803,0.045427799,-0.147738218,1.320350170
79.474932,0.458278656,-9.616878510,8.333316803,0.045427799,-0.147738218,1.320350170
79.475555,0.458278656,-9.616878510,8.333316803,0.045427799,-0.147738218,1.320350170
79.513622,1.633205414,-0.766780853,9.996524811,0.095110416,-0.164095640,1.245154858
79.551894,7.713832855,3.276798248,6.418338776,0.048601627,-0.067904234,1.209998608
79.566118,8.949794769,2.513858795,8.104434967,0.020769596,-0.038851500,1.129798412
79.581434,7.027187347,1.857730865,11.415592194,0.032854557,-0.091830015,1.114783764
79.619741,5.569972992,13.095829010,5.479923248,0.076433659,-0.094393492,1.138953686
79.658043,1.404323578,11.241886139,8.234134674,0.000261784,-0.115999937,1.039222240
79.672288,-0.907382965,8.441898346,12.224308014,0.062517643,-0.092196226,1.091102123
79.687583,5.661525726,12.157413483,4.579654694,0.096819401,-0.042635679,1.107215405
79.739688,5.562343597,1.239749908,6.975284576,-0.013043880,-0.115633726,0.932532787
79.778111,4.974880219,2.307865143,0.543704987,0.094622135,-0.068392515,0.997352123
79.792365,4.654445648,6.038639069,-4.217037201,0.064714909,-0.093050718,0.978919506
79.807657,4.395046234,2.857181549,-1.546749115,-0.039899349,-0.070223570,0.907874584
79.845947,5.051174164,-5.374935150,0.902286530,0.036028385,-0.101961851,0.962073803
79.884227,1.106777191,0.484439850,-3.164180756,-0.026837826,-0.079989195,0.883338451
79.898457,-0.052890778,-3.116634369,1.283756256,-0.014630795,-0.069369078,0.898475170
79.913778,-0.655612946,-6.031063080,-0.860103607,0.034441471,-0.053988218,0.939002514
79.952062,2.701320648,-1.468685150,-2.599605560,0.018572330,-0.072298765,0.907996655
79.990340,-2.730808258,-2.422359467,1.695743561,0.051287174,-0.080233335,0.969886303
80.004576,-0.182590485,6.175968170,-2.660640717,0.041399479,-0.099520445,0.965003490
80.033912,-1.876316071,4.512760162,-1.500972748,-0.032941341,-0.072909117,0.950355053
80.072302,1.640834808,-1.956966400,-0.539669037,0.063127995,-0.112215757,1.064246655
80.110603,1.862087250,-5.016353607,-2.355464935,0.032488346,-0.115633726,1.030311108
80.124857,-1.975498199,-13.103511810,4.137149811,0.001848698,-0.162386656,1.044349194
80.140179,-3.852329254,-12.577083588,7.249942780,0.055803776,-0.144442320,1.098426342
80.178463,2.136745453,6.290409088,-4.995235443,0.030901432,-0.106234312,1.138465405
80.216740,3.990688324,-6.801631927,8.104434967,0.040911198,-0.128084898,1.120032787
80.230989,5.707302094,-5.252864838,4.259220123,0.100847721,-0.113436460,1.142859936
80.246310,8.713283539,3.322574615,-1.638301849,0.043962955,-0.118685484,1.131263256
80.284624,13.680019379,0.698062897,2.649417877,-0.014386654,-0.070223570,1.114661694
80.322900,19.463100433,2.681705475,-1.973995209,0.053606510,-0.085116148,1.106482983
80.337161,20.218410492,1.483890533,-2.714046478,0.011126041,-0.113070250,1.083411694
80.352489,22.606410980,-7.442501068,1.634708405,-0.031354427,-0.067904234,1.030921459
80.390827,21.072902679,-8.533504486,4.953495026,0.054461002,-0.079622984,1.028724194
80.443855,14.198818207,8.083316803,1.802555084,-0.052350521,-0.056795835,0.911414623
80.458194,11.467494965,11.013004303,6.670108795,-0.023663998,-0.054232359,0.924476147
80.473562,10.643520355,25.432559967,1.604190826,0.050432682,-0.054476500,0.902747631
80.511864,6.706752777,29.247257233,-3.118404388,-0.054425716,-0.090365171,0.852454662
80.550187,2.731838226,24.593326569,-2.126583099,-0.011823177,0.003628967,0.947059155
80.564422,3.746547699,23.899051666,-1.806148529,-0.018292904,0.020596741,0.930335522
80.579736,2.983608246,14.072391510,-1.119503021,-0.053082943,-0.008333923,0.866614819
80.618049,-1.662693024,4.718753815,7.753482819,0.041765690,-0.006502869,0.947791576
80.656321,-0.846347809,5.756351471,-0.089534760,-0.041486263,0.033536196,0.958289623
80.670573,-4.806003571,-5.374935150,7.059207916,-0.063703060,0.015225647,0.925452709
80.685863,-1.121006012,-5.970027924,8.043399811,-0.003888607,-0.042269468,1.005164623
80.724175,-2.219638824,5.771610260,-2.248653412,-0.016217709,-0.008211853,1.067420483
80.762447,1.564540863,-12.134578705,6.799808502,-0.047345638,-0.014315369,0.966346264
80.776687,-0.182590485,-11.417415619,6.776920319,0.016375065,0.024136780,0.987464428
80.791999,2.380886078,-1.422908783,-1.867183685,0.065081120,-0.034701109,1.001868725
80.792744,2.380886078,-1.422908783,-1.867183685,0.065081120,-0.034701109,1.001868725
80.793331,2.380886078,-1.422908783,-1.867183685,0.065081120,-0.034701109,1.001868725
80.793957,2.380886078,-1.422908783,-1.867183685,0.065081120,-0.034701109,1.001868725
80.794539,2.380886078,-1.422908783,-1.867183685,0.065081120,-0.034701109,1.001868725
80.795164,2.380886078,-1.422908783,-1.867183685,0.065081120,-0.034701109,1.001868725
80.795752,2.380886078,-1.422908783,-1.867183685,0.065081120,-0.034701109,1.001868725
80.796371,2.380886078,-1.422908783,-1.867183685,0.065081120,-0.034701109,1.001868725
80.834435,0.359096527,-14.881160736,0.444522858,-0.033429623,0.030606506,0.893592358
80.872721,-5.897006989,-6.160762787,-3.194698334,0.004778385,-0.000887634,0.972815990
80.886967,-7.262668610,-2.689388275,-5.399593353,-0.025250912,0.006436585,0.972449780
80.902273,-6.850681305,-6.061580658,-2.126583099,-0.060529232,0.050381899,0.973792553
80.940567,-6.316623688,12.172672272,-2.324947357,0.035051823,-0.020907165,0.997230053
80.978855,-4.035434723,22.724124908,-15.081295013,-0.027570248,0.017056702,1.023475170
80.993103,-1.098117828,18.871280670,-9.260066986,-0.058942318,0.019131897,0.997474194
81.008421,-2.158603668,18.146488190,-7.551082611,0.027361393,-0.060457945,0.986609936
81.046715,-3.097019196,29.903385162,-17.965206146,-0.040631771,-0.024935486,1.044471264
81.085045,3.212490082,5.023929596,-10.785945892,-0.114728451,0.076504946,0.982703686
81.099287,6.119289398,-3.765132904,-2.370723724,-0.062238216,-0.054842710,0.998572826
81.130431,-0.861606598,-5.802181244,-8.550533295,-0.063214779,-0.078036070,1.006873608
81.184505,5.051174164,-15.842464447,2.306095123,-0.060407162,-0.053499937,0.965125561
81.222818,1.076259613,-1.743343353,-5.918392181,-0.083844662,0.023770569,0.965980053
81.237053,4.173793793,-2.414730072,-3.827938080,-0.131574154,0.009488342,0.908973217
81.252379,2.266445160,-1.636531830,2.534976959,-0.140241146,-0.029085876,0.906775951
81.290665,-2.097568512,30.490848541,-5.956539154,0.037371159,-0.193148375,0.890174389
81.328972,-9.170017242,35.129520416,-2.447017670,-0.112164974,0.106290102,0.895301342
81.343214,-1.075229645,35.869571686,-0.242122650,-0.084088802,0.070279360,0.897132397
81.358568,1.305141449,36.350223541,-5.124935150,-0.035871029,-0.079378843,0.845008373
81.396869,-6.057224274,10.730716705,1.390567780,-0.112653255,-0.028841736,0.898231030
81.435187,-3.608188629,2.101871490,3.648868561,-0.066754818,-0.128084898,0.815345287
81.449423,-9.330234528,-0.545528412,1.680484772,-0.044415951,-0.160433531,0.844642162
81.464780,-13.923130035,-6.877925873,0.436893463,-0.065045834,-0.140047789,0.978187084
81.503094,-6.354770660,-4.299190521,4.625431061,-0.052106380,-0.136629820,0.940955639
81.541407,-14.106235504,-0.377681732,-3.927120209,-0.102887630,-0.120882750,1.002479076
81.555664,-5.706272125,-5.664852142,1.566043854,-0.072247982,-0.116610289,1.031653881
81.571019,-5.065402985,-5.146053314,-1.890071869,-0.086652279,-0.123690367,0.986976147
81.609322,-14.235935211,-9.510066986,-3.522762299,-0.055768490,-0.066439390,1.078162670
81.647631,11.909999847,-29.087093353,10.416141510,-0.072980404,-0.178744078,1.018226147
81.661897,9.338893890,-28.102901459,6.532779694,-0.069440365,-0.192660093,0.975379467
81.677257,-5.462131500,-25.226619720,1.794925690,-0.122052670,-0.117342710,0.883704662
81.715582,-0.945529938,-38.860347748,5.869022369,-0.159162045,0.014127014,0.977210522
81.753883,-9.528598785,-39.295223236,6.784549713,-0.108258724,0.054044008,0.935828686
81.768125,-9.818515778,-42.621639252,2.435794830,-0.198468685,0.042691469,0.982093334
81.783496,0.534572601,-43.773677826,19.136539459,-0.184064388,-0.013460876,1.020179272
81.784273,0.534572601,-43.773677826,19.136539459,-0.184064388,-0.013460876,1.020179272
81.784882,0.534572601,-43.773677826,19.136539459,-0.184064388,-0.013460876,1.020179272
81.785515,0.534572601,-43.773677826,19.136539459,-0.184064388,-0.013460876,1.020179272
81.786134,0.534572601,-43.773677826,19.136539459,-0.184064388,-0.013460876,1.020179272
81.840344,-9.635410309,-6.855037689,1.436344147,-0.033673763,-0.186190367,0.914222240
81.878752,-3.135166168,4.268619537,12.659183502,-0.093976498,-0.077181578,0.987708569
81.893003,-2.250156403,20.053836823,11.369815826,0.013933659,-0.209994078,0.940955639
81.908325,-4.447422028,30.689212799,5.426517487,0.026384830,-0.219637632,0.927772045
81.946658,-17.493686676,46.222660065,3.145328522,-0.102399349,-0.173006773,0.920203686
81.984998,-23.131809235,50.228092194,-3.576168060,-0.033917904,-0.077425718,1.043250561
81.999254,-16.791782379,48.946353912,-4.781612396,-0.062970638,-0.059481382,1.048133373
82.014581,-10.070285797,35.778018951,-3.911861420,-0.154279232,-0.170321226,0.989417553
82.052906,-8.269748688,6.763431549,-3.187068939,-0.082868099,-0.017245056,1.121985912
82.091219,1.778163910,-25.112178802,8.699527740,-0.138776302,-0.134920835,1.094886303
82.105462,1.686611176,-31.917598724,9.431949615,-0.120099545,-0.129793882,1.122596264
82.120786,10.468044281,-41.286495209,13.307682037,-0.106061459,-0.121126890,1.187415600
82.159120,21.454372406,-36.762264252,10.645023346,-0.050275326,-0.183016539,1.060828686
82.197429,10.902919769,-22.624996185,2.443424225,-0.058576107,-0.115145445,1.108191967
82.211667,16.624965668,-13.889339447,3.076663971,-0.026349545,-0.100374937,1.053992748
82.226992,14.275112152,-7.457759857,-0.844844818,-0.042706966,-0.099764585,1.016883373
82.265266,10.582485199,5.985233307,-0.226863861,-0.065900326,-0.077547789,1.029822826
82.303573,10.086574554,12.767765045,0.909915924,-0.071759701,-0.180330992,0.951697826
82.317816,6.905117035,15.766117096,2.031436920,-0.043805599,-0.216830015,0.937049389
82.349534,2.342739105,15.171024323,4.900089264,-0.073346615,-0.103914976,1.049109936
82.387931,5.135097504,21.533939362,4.671207428,-0.041364193,-0.167025328,1.040320873
82.426238,6.050624847,22.212955475,-2.942928314,-0.066022396,-0.165682554,1.102210522
82.440478,11.398830414,16.994449615,2.710453033,-0.029889584,-0.167513609,1.056190014
82.455819,8.759059906,17.169925690,1.756778717,-0.026837826,-0.193148375,1.062659740
82.505884,17.181911469,10.677310944,-3.591426849,-0.031110287,-0.127352476,1.040320873
82.544325,16.808071136,-4.444149017,-6.017574310,-0.029401302,-0.173006773,0.926795483
82.558578,7.034816742,-16.078975677,-10.663875580,-0.079205990,-0.106966734,1.000892162
82.573904,8.240261078,-24.120357513,-6.254085541,-0.125836849,-0.045687437,0.988563061
82.612243,11.429347992,-22.853878021,-5.880245209,-0.057233334,-0.065951109,0.895911694
82.650542,-6.522617340,-3.559139252,-9.511837006,-0.035993099,0.054776430,0.992103100
82.664799,-3.676853180,-0.057247162,-11.045345306,-0.062482357,0.076260805,0.975501537
82.680114,-0.380954742,9.601566315,-6.429561615,-0.037335873,-0.004427673,0.924354076
82.718445,-10.734043121,16.902896881,-13.158687592,-0.120221615,0.060513735,0.992835522
82.756756,-5.607089996,3.200504303,-5.964168549,-0.117658138,0.038174868,0.973792553
82.770999,-6.225070953,3.047916412,-3.919490814,-0.107648373,0.022671936,0.960853100
82.786310,-8.681735992,2.864810944,-4.346736908,-0.091168880,0.013516663,0.967811108
82.824642,-4.706821442,4.291507721,-0.562557220,-0.056989193,0.043668032,1.018592358
82.862925,-6.736240387,8.876773834,-6.833919525,-0.081891537,-0.022982361,1.039466381
82.877171,-4.783115387,-0.499752045,-4.270442963,-0.081403255,-0.011019470,1.146277905
82.892461,0.015773773,-5.313899994,-3.133663177,-0.080304623,0.005093811,1.132361889
82.930781,-2.372226715,-8.129146576,-6.215938568,-0.078107357,0.056607485,1.065589428
82.969094,4.837551117,-22.876766205,2.504459381,-0.085675716,-0.009798767,1.130164623
82.983364,7.683315277,-22.365596771,0.352970123,-0.080670834,-0.022494080,1.116126537
82.998669,15.251674652,-17.765071869,0.993839264,-0.084577084,-0.103060484,1.030799389
83.036992,0.847377777,-10.845211029,-0.509151459,-0.075910091,-0.067415953,1.099647045
83.075284,12.390651703,-8.449581146,-0.356563568,-0.092511654,-0.046297789,0.977942944
83.089548,10.704555511,-6.992366791,1.398197174,-0.109845638,-0.062899351,0.982947826
83.104851,13.855495453,-4.047420502,5.586734772,-0.048200130,-0.110018492,0.998206615
83.105626,13.855495453,-4.047420502,5.586734772,-0.048200130,-0.110018492,0.998206615
83.106225,13.855495453,-4.047420502,5.586734772,-0.048200130,-0.110018492,0.998206615
83.144404,9.979763031,5.870792389,5.220523834,-0.049420834,-0.042635679,0.939857006
83.194585,-2.990207672,28.087589264,2.847782135,0.030779362,-0.010287048,0.955482006
83.208952,-1.456699371,33.046695709,0.825992584,-0.021100521,0.001431702,0.980750561
83.224345,3.510036469,41.858646393,3.625980377,-0.028546810,-0.050326109,0.925086498
83.262663,-6.843051910,37.891361237,-3.736385345,-0.067609310,-0.024935486,0.961707592
83.301001,8.926906586,9.265872955,5.312076569,-0.090558529,0.069913149,0.945228100
83.315243,6.508388519,-4.039791107,13.445011139,-0.082990170,-0.027498962,0.907630444
83.330554,4.456081390,-9.159114838,10.988346100,-0.039166927,-0.019442322,0.945716381
83.368855,7.195034027,-26.866939545,12.384525299,-0.065778255,0.004605530,0.897010326
83.407174,1.534023285,-12.920406342,8.203617096,-0.014142513,-0.008333923,0.913001537
83.421423,-1.731357574,-9.044673920,3.938785553,-0.050519466,-0.001131775,0.926063061
83.436740,-1.159152985,-2.628353119,7.494083405,-0.057477474,0.047696352,0.943152905
83.475060,-9.734592438,8.815738678,2.344242096,-0.034039974,0.045377016,0.960486889
83.513363,-6.141147614,-0.232723236,1.344791412,-0.068585873,0.092984438,1.045203686
83.527615,-3.562412262,-3.299739838,2.664676666,-0.085065365,0.089200258,1.029578686
83.542958,-3.028354645,-0.926998138,8.287540436,-0.029889584,-0.022494080,1.022864819
83.581247,-5.820713043,4.795047760,-10.023006439,-0.069562435,0.006924866,1.088782787
83.631636,4.051723480,-22.258785248,2.985111237,-0.104108334,-0.018954040,1.057654858
83.645974,2.617397308,-24.601009369,0.101200104,-0.058331966,-0.041292906,1.106971264
83.661330,3.609218597,-26.790645599,-1.409420013,-0.109235287,-0.044466734,1.120154858
83.699654,16.068019867,-23.304012299,2.405277252,-0.048200130,-0.077669859,1.077186108
83.737958,7.500209808,-19.138362885,-1.081356049,-0.068341732,0.032925844,1.073646069
83.752201,15.587368011,-19.046810150,1.505008698,-0.085309505,0.039761782,1.026648998
83.767540,15.419521332,-15.941646576,2.725711823,-0.076764584,-0.021151306,0.973914623
83.805837,5.112209320,5.786869049,-5.796321869,-0.041364193,-0.059237242,0.977820873
83.844114,-1.296482086,11.676761627,-4.583248138,-0.061505795,-0.010164978,0.928382397
83.871791,-6.209812164,7.724735260,-6.864437103,-0.080182552,0.032681704,1.017127514
83.886126,-3.692111969,4.108402252,-3.782161713,-0.104352474,0.037930727,1.025062084
83.924312,-1.090488434,2.140018463,0.299564362,-0.095807552,-0.028597595,0.992957592
83.962619,1.251735687,-1.949337006,-3.408321381,-0.099957943,-0.022127869,1.031409740
83.976866,1.038112640,-7.556941986,-0.364192963,-0.124616146,-0.021761658,1.032142162
83.992142,3.120937347,-14.232662201,6.090274811,-0.106671810,0.003140686,1.029578686
84.030449,4.845180511,-3.376033783,2.252689362,-0.037457943,-0.005892517,1.035315990
84.068734,4.875698090,0.431034088,4.442325592,-0.059064388,-0.020296814,0.999793530
84.082976,5.188503265,7.022830963,0.864139557,-0.047589779,-0.028719665,0.972449780
84.098269,4.265346527,10.539981842,0.925174713,-0.045148373,-0.058260679,0.957068920
84.136589,2.289333344,9.494754791,-0.738033295,-0.044782162,-0.008211853,1.011878490
84.174882,5.150356293,-5.352046967,-0.806697845,-0.078229427,-0.035555601,0.976233959
84.189115,4.929103851,-15.468624115,1.039615631,-0.080914974,-0.026400330,0.989173412
84.204417,5.142726898,-19.359615326,4.282108307,-0.076154232,-0.001497986,1.000281811
84.242708,6.126918793,-13.027217865,1.527896881,-0.042340755,-0.033968687,0.965125561
84.281031,6.981410980,-10.234859467,5.434146881,-0.013776302,0.000210999,1.022986889
84.295282,8.209743500,-5.664852142,1.230350494,0.008806705,0.003262756,0.990272045
84.310573,6.454982758,5.245182037,-0.882991791,-0.027814388,-0.039217710,0.943030834
84.348864,1.221218109,11.737796783,-3.415950775,-0.008527279,-0.005770447,0.941199780
84.387177,-0.182590485,13.538333893,-3.682979584,0.003923893,0.034146547,0.950843334
84.401418,-2.471408844,14.774295807,-7.444271088,-0.023908138,-0.045321226,0.900672436
84.416734,-7.979831696,13.256046295,-6.711849213,-0.040021420,-0.024935486,0.922156811
84.417499,-10.772190094,10.219547272,-5.582698822,-0.034284115,0.013516663,0.966712475
84.418114,-10.772190094,10.219547272,-5.582698822,-0.034284115,0.013516663,0.966712475
84.418760,-10.772190094,10.219547272,-5.582698822,-0.034284115,0.013516663,0.966712475
84.419362,-10.772190094,10.219547272,-5.582698822,-0.034284115,0.013516663,0.966712475
84.419998,-10.772190094,10.219547272,-5.582698822,-0.034284115,0.013516663,0.966712475
84.420610,-10.772190094,10.219547272,-5.582698822,-0.034284115,0.013516663,0.966712475
84.421251,-10.772190094,10.219547272,-5.582698822,-0.034284115,0.013516663,0.966712475
84.421856,-10.772190094,10.219547272,-5.582698822,-0.034284115,0.013516663,0.966712475
84.422504,-10.772190094,10.219547272,-5.582698822,-0.034284115,0.013516663,0.966712475
84.423111,-10.772190094,10.219547272,-5.582698822,-0.034284115,0.013516663,0.966712475
84.423760,-10.772190094,10.219547272,-5.582698822,-0.034284115,0.013516663,0.966712475
84.424363,-10.772190094,10.219547272,-5.582698822,-0.034284115,0.013516663,0.966712475
84.425000,-10.772190094,10.219547272,-5.582698822,-0.034284115,0.013516663,0.966712475
84.425612,-10.772190094,10.219547272,-5.582698822,-0.034284115,0.013516663,0.966712475
84.426253,-10.772190094,10.219547272,-5.582698822,-0.034284115,0.013516663,0.966712475
84.426858,-10.772190094,10.219547272,-5.582698822,-0.034284115,0.013516663,0.966712475
84.478655,-4.569492340,6.748172760,-6.116756439,-0.058820248,-0.014559509,0.948279858
84.517049,-3.272495270,10.349246979,-8.367427826,0.041277409,-0.043734312,1.046058178
84.531293,-2.898654938,12.248966217,-8.863338470,0.015642643,-0.039950132,1.039100170
84.546628,-1.960239410,16.048404694,-7.596858978,0.030169010,-0.022860290,1.005286694
84.598710,-3.486118317,10.898563385,-11.915096283,-0.024274349,0.009366272,1.010047436
84.637135,-1.204929352,-10.189083099,-5.567440033,-0.005231380,-0.017733337,1.004676342
84.651387,-1.525363922,-14.301326752,-8.520015717,0.006121159,-0.008700134,1.016639233
84.666719,0.519313812,-24.433162689,-7.543453217,-0.068585873,-0.016634705,0.995521069
84.705058,-5.988559723,-26.699092865,-5.788692474,-0.001813412,-0.012484314,1.017249584
84.743367,-1.265964508,-20.984676361,-3.957637787,-0.016950130,0.062711000,1.061683178
84.757619,-0.602207184,-14.064815521,-3.042110443,-0.049542904,0.003751038,1.023475170
84.772949,-0.007114410,-9.113338470,-0.081905365,-0.014142513,-0.011751892,1.020423412
84.811248,-3.013095856,7.831546783,-5.926021576,-0.025861263,0.061734438,1.046180248
84.849536,1.114406586,-0.118282318,-2.599605560,-0.061139584,0.063077211,0.995887280
84.863800,0.748195648,-2.330806732,0.978580475,-0.029645443,0.044278383,0.989173412
84.879114,-1.265964508,-4.215267181,-2.523311615,0.013445377,0.052701235,1.018226147
84.917434,-0.594577789,-16.086605072,2.275577545,-0.041364193,0.037564516,0.986609936
84.955722,-4.081211090,-8.983638763,-0.341304779,0.018084049,0.034024477,1.038856030
84.969974,-1.494846344,-8.541133881,-3.202327728,0.008806705,0.050992250,1.036170483
84.985271,-1.281223297,-13.408687592,-0.066646576,-0.067121029,0.007169006,1.000037670
85.023594,-2.295932770,-6.717708588,1.367679596,-0.044782162,-0.003451111,0.996741772
85.061874,-0.030002594,-1.613643646,-5.628475189,-0.012677670,0.065762758,1.072425365
85.076112,3.471889496,-8.441951752,2.756229401,-0.058576107,0.044888735,1.052772045
85.091413,4.242458344,-11.241939545,3.206363678,-0.029279232,0.070523500,1.044837475
85.129710,2.640285492,-8.823421478,6.013980865,0.000505924,-0.012240173,1.042151928
85.168022,7.767238617,-12.577083588,7.387271881,-0.043561459,-0.007967712,1.006263256
85.182272,6.630458832,-10.875728607,8.722415924,-0.020734310,-0.005160095,0.997352123
85.197573,4.845180511,-1.712825775,7.539859772,-0.002545834,-0.033358335,0.986365795
85.235860,3.456630707,7.762882233,5.281558990,-0.040143490,0.004483460,0.983558178
85.288269,0.000514984,12.607547760,11.461368561,0.005266666,-0.030184509,0.964393139
85.302617,0.519313812,16.986820221,5.212894440,0.036760807,0.020474670,1.006507397
85.317987,2.563991547,16.269657135,2.763858795,0.001238346,0.007046936,0.995276928
85.356297,1.823940277,1.705142975,8.905521393,-0.010358334,-0.004427673,0.978675365
85.394614,0.191249847,-7.671382904,6.403079987,-0.006818295,-0.009920837,1.027137280
85.408857,1.846828461,-11.966732025,8.401981354,-0.034039974,-0.005160095,1.033607006
85.424163,5.081691742,-15.125301361,11.964908600,-0.012433529,-0.003084900,1.005897045
85.462465,1.671352386,-0.957515717,11.034122467,0.010271549,0.004239319,1.007483959
85.500790,6.851711273,7.579776764,9.050479889,0.005022526,0.027310608,0.968909740
85.515032,3.555812836,9.960147858,5.922428131,0.007463932,0.024258850,0.930335522
85.530342,0.977077484,9.845706940,7.043949127,-0.013410091,0.003384827,0.933753490
85.568635,-3.150424957,10.387393951,4.961124420,-0.019391537,0.040860415,0.969031811
85.606929,-6.499729156,12.844058990,5.540958405,-0.001691341,-0.024813415,0.956458569
85.621187,-9.101352692,13.042423248,5.937686920,0.027483463,0.027920960,1.036292553
85.636525,-7.590732574,13.034793854,4.465213776,0.036882877,0.046841860,1.055823803
85.674847,-2.150974274,11.966678619,0.581851959,0.011980534,0.019376038,1.011390209
85.713153,-4.065952301,3.368350983,-1.310237885,0.018084049,0.032925844,1.063270092
85.727396,-1.716098785,-0.026729584,-0.379451752,-0.003278255,0.049161196,1.069251537
85.742724,2.785243988,-4.467037201,-0.005611420,0.002947330,0.019009827,1.014441967
85.795798,-4.004917145,-4.993465424,2.206912994,-0.017316341,0.027066467,1.036902905
85.834197,-2.303562164,4.260990143,-1.432308197,-0.008771420,0.028775452,1.037879467
85.848433,-2.097568512,4.161808014,-0.142940521,-0.012555599,-0.003573181,1.045447826
85.863755,-0.815830231,4.932376862,-2.164730072,0.029436588,0.017178772,1.055213451
85.917506,2.693691254,-0.072505951,-4.865535736,0.018694401,-0.002474548,1.058021069
85.955908,4.158535004,-4.856136322,-6.482967377,0.015276432,0.010953186,1.068397045
85.970163,6.706752777,-1.796749115,-4.278072357,0.005877018,-0.004061462,1.050696850
85.985484,5.478420258,-1.590755463,-6.154903412,0.040300846,0.024380920,1.062903881
86.043399,16.327419281,-26.920345306,-6.025203705,-0.003766537,0.014127014,1.031287670
86.081835,11.780300140,-12.149837494,-9.046443939,0.042986393,-0.022738220,1.001624584
86.096084,11.314907074,-8.663204193,-10.106929779,0.014055729,-0.014803650,1.006873608
86.111431,12.009181976,1.392337799,-7.581600189,0.016985416,0.009122131,0.958167553
86.149725,5.951442719,30.467960358,-13.883480072,0.046160221,0.027310608,0.933509350
86.188040,2.480068207,26.096317291,-14.325984955,-0.031720638,0.083218813,0.882728100
86.202283,3.136196136,21.533939362,-13.257869720,-0.015729427,0.101773500,0.885291576
86.217622,3.334560394,10.448429108,-14.928707123,-0.025983334,0.078702211,0.861609936
86.255916,0.824489594,-13.858821869,-10.824092865,-0.068341732,0.111294985,0.897620678
86.294209,-0.968418121,-27.980831146,-2.241024017,-0.033673763,0.020596741,0.889319897
86.308450,-4.699192047,-25.119808197,-4.613765717,-0.033063412,0.005093811,0.919837475
86.323797,-7.918796539,-23.021724701,-4.255184174,-0.046491146,0.016324280,0.910071850
86.324565,-7.918796539,-23.021724701,-4.255184174,-0.046491146,0.016324280,0.910071850
86.325176,-7.918796539,-23.021724701,-4.255184174,-0.046491146,0.016324280,0.910071850
86.363333,-6.057224274,-10.990169525,1.382938385,-0.035382748,0.095059633,0.959754467
86.401624,-8.918247223,11.417362213,-5.903133392,-0.010480404,0.077725649,1.007972240
86.415880,-4.767856598,11.814090729,-2.096065521,-0.036725521,0.084805727,1.026282787
86.431224,-2.952060699,11.112186432,-0.486263275,-0.026105404,0.090665102,1.011634350
86.469519,-5.134067535,14.400455475,-2.912410736,0.027727604,0.064908266,1.003211498
86.507821,-4.233798981,7.785770416,-0.287899017,-0.009992123,0.119351625,1.036048412
86.522069,-2.990207672,7.816287994,-0.760921478,-0.014142513,0.095914125,1.031653881
86.537402,-4.607639313,6.580326080,-1.088985443,-0.000348568,0.104092836,1.026771069
86.575689,0.740566254,-10.692623138,2.061954498,-0.069196224,0.089200258,1.041785717
86.614006,-1.868686676,-10.158565521,4.961124420,0.008806705,0.038174868,1.036048412
86.628262,-3.219089508,-4.032161713,0.452152252,0.002581120,0.042447329,1.072547436
86.643585,-1.456699371,-4.291561127,-0.165828705,-0.010236263,0.066128969,1.092200756
86.644351,1.717128754,-6.610897064,0.047794342,-0.032697201,0.069546938,1.082679272
86.644932,1.717128754,-6.610897064,0.047794342,-0.032697201,0.069546938,1.082679272
86.645560,1.717128754,-6.610897064,0.047794342,-0.032697201,0.069546938,1.082679272
86.646142,1.717128754,-6.610897064,0.047794342,-0.032697201,0.069546938,1.082679272
86.646753,1.717128754,-6.610897064,0.047794342,-0.032697201,0.069546938,1.082679272
86.647341,1.717128754,-6.610897064,0.047794342,-0.032697201,0.069546938,1.082679272
86.647969,1.717128754,-6.610897064,0.047794342,-0.032697201,0.069546938,1.082679272
86.648551,1.717128754,-6.610897064,0.047794342,-0.032697201,0.069546938,1.082679272
86.649175,1.717128754,-6.610897064,0.047794342,-0.032697201,0.069546938,1.082679272
86.649775,1.717128754,-6.610897064,0.047794342,-0.032697201,0.069546938,1.082679272
86.650389,1.717128754,-6.610897064,0.047794342,-0.032697201,0.069546938,1.082679272
86.650971,1.717128754,-6.610897064,0.047794342,-0.032697201,0.069546938,1.082679272
86.651597,1.717128754,-6.610897064,0.047794342,-0.032697201,0.069546938,1.082679272
86.652183,1.717128754,-6.610897064,0.047794342,-0.032697201,0.069546938,1.082679272
86.652806,1.717128754,-6.610897064,0.047794342,-0.032697201,0.069546938,1.082679272
86.707062,1.053371429,1.453372955,2.069583893,0.026384830,-0.003206970,1.052405834
86.745428,5.432643890,-5.901363373,4.228702545,-0.021344662,0.065030336,1.062781811
86.777130,2.388515472,-1.209285736,8.493534088,0.031755924,-0.000521423,1.045203686
86.791451,2.686061859,4.634830475,3.786197662,0.054094791,0.018155335,1.052405834
86.829623,3.700771332,14.850589752,2.550235748,0.020769596,0.014859436,1.015662670
86.867916,2.342739105,15.323612213,-0.142940521,0.033098698,0.019009827,1.015174389
86.882162,2.159633636,13.385746002,-2.851375580,0.025164127,0.042081118,1.020301342
86.897453,3.494777679,5.069705963,-0.989803314,-0.029767513,0.064297915,0.999549389
86.898217,3.494777679,5.069705963,-0.989803314,-0.029767513,0.064297915,0.999549389
86.898811,3.494777679,5.069705963,-0.989803314,-0.029767513,0.064297915,0.999549389
86.899433,3.494777679,5.069705963,-0.989803314,-0.029767513,0.064297915,0.999549389
86.900024,3.494777679,5.069705963,-0.989803314,-0.029767513,0.064297915,0.999549389
86.900642,3.494777679,5.069705963,-0.989803314,-0.029767513,0.064297915,0.999549389
86.901236,3.494777679,5.069705963,-0.989803314,-0.029767513,0.064297915,0.999549389
86.901845,3.494777679,5.069705963,-0.989803314,-0.029767513,0.064297915,0.999549389
86.902434,3.494777679,5.069705963,-0.989803314,-0.029767513,0.064297915,0.999549389
86.940575,0.954189301,-7.259395599,2.122989655,-0.012189388,0.053067446,1.002601147
86.978864,4.898586273,-6.069210052,1.543155670,-0.027204037,0.051480532,1.016761303
86.993092,5.257167816,-3.032711029,2.809635162,-0.013898373,0.025601624,0.999305248
87.008380,5.005397797,-0.225093842,2.061954498,0.005266666,0.009610413,1.000281811
87.046668,3.967800140,2.925846100,-0.539669037,-0.037824154,0.053311586,0.998939037
87.084964,6.401576996,-5.344417572,1.199832916,-0.049787045,0.069669008,0.950355053
87.099204,5.531826019,-6.748226166,3.259769440,-0.031354427,0.051358461,0.953284740
87.114506,4.601039886,-8.663204193,0.879398346,-0.008161068,0.044278383,0.966956615
87.152825,3.067531586,-6.076839447,2.092472076,-0.017194271,0.017422913,0.971839428
87.191110,1.289882660,4.497501373,0.482669830,0.000383854,0.029019592,0.986365795
87.205361,1.251735687,5.954715729,-0.234493256,-0.020734310,0.024014710,0.986487865
87.220649,0.999965668,7.122013092,1.070133209,-0.028913021,0.024502991,0.991614819
87.258932,2.846279144,3.864261627,2.374759674,-0.021832943,0.063565493,0.976722240
87.297231,2.243556976,-8.411434174,5.106082916,-0.043683529,0.049405336,0.957923412
87.311465,2.319850922,-8.632686615,5.663028717,-0.020123959,0.048306704,0.968055248
87.326750,2.037563324,-6.557491302,5.258670807,-0.019635677,0.044278383,0.965003490
87.365059,1.457729340,0.827762604,2.527347565,-0.009015560,0.041470766,0.947913647
87.403348,-0.327548981,5.680057526,2.634159088,0.016985416,0.031827211,0.968177319
87.417590,-1.891574860,8.007022858,2.985111237,0.007463932,0.011929749,0.968055248
87.432881,-2.326450348,9.105655670,0.650516510,0.023943424,0.072720766,0.993812084
87.471180,-2.555332184,1.338932037,4.922977448,0.012346745,0.075894594,0.993079662
87.521188,0.793972015,2.773258209,-3.324398041,-0.008283138,0.065152407,0.982947826
87.535524,-0.022373199,-1.522090912,-0.341304779,-0.031842709,0.051480532,0.981116772
87.550873,0.084438324,-6.679561615,3.130069733,0.009172916,0.053799868,0.997718334
87.589173,-1.159152985,2.361270905,-0.623592377,0.015398502,0.041470766,0.992103100
87.627440,-2.715549469,1.514408112,2.657047272,-0.011334896,0.033658266,0.990149975
87.641675,-0.464878082,0.987979889,-2.195247650,0.018450260,0.062711000,0.997596264
87.656979,-0.297031403,1.728031158,-2.210506439,-0.014386654,0.032193422,0.985511303
87.695259,-3.135166168,-0.629451752,-1.088985443,-0.032453060,0.045254946,0.997596264
87.733563,-2.753696442,-0.804927826,0.665775299,-0.012311459,0.051480532,1.004188061
87.747804,-2.395114899,0.759098053,1.550785065,-0.012921810,0.044522524,1.001258373
87.763126,-3.829441071,3.047916412,0.566593170,0.006365299,0.016690491,1.022010326
87.813331,-0.739536285,1.094791412,0.558963776,0.016375065,0.034756899,1.024695873
87.851683,-0.037631989,-3.009822845,-0.181087494,-0.005841732,0.041836977,1.019690990
87.865920,0.710048676,-5.329158783,-0.242122650,-0.003034115,0.053555727,1.015418530
87.881218,0.748195648,-7.167842865,1.543155670,-0.015729427,0.031583071,1.017982006
87.919502,0.267543793,-0.476863861,-0.028499603,-0.003400326,0.029874085,0.994910717
87.957785,-0.129184723,-1.041439056,0.688663483,0.012590885,0.040738344,1.009925365
87.971989,-0.579319000,0.339481354,-1.180538177,0.012590885,0.045987368,1.010169506
87.987316,-0.510654449,2.017948151,-1.272090912,-0.000470638,0.046109438,1.009559155
88.025614,-1.075229645,-2.658870697,0.459781647,-0.011456966,0.040860415,1.026771069
88.063880,1.167812347,2.376529694,-1.584896088,0.005877018,0.023404358,1.032142162
88.078102,2.068080902,4.512760162,-3.759273529,0.025530338,0.032193422,1.033607006
88.093419,2.502956390,3.650638580,-5.056270599,0.004534245,0.029996155,1.027381420
88.131687,3.899135590,-3.452327728,-2.836116791,0.007586002,0.058560610,1.019935131
88.169995,2.022304535,-0.064876556,-3.713497162,0.014299870,0.026700256,1.017982006
88.184213,2.754726410,-0.110652924,-5.262264252,0.007952213,0.036465883,1.020545483
88.199537,4.128017426,-4.352596283,-4.156002045,-0.010114193,0.054288149,1.025916576
88.249892,4.051723480,-8.495357513,-1.729854584,-0.014874935,0.032437563,1.009315014
88.288301,6.683864594,-5.298641205,-2.744564056,-0.029645443,0.059537172,0.983191967
88.302550,5.943813324,-5.039241791,-2.302059174,-0.034650326,0.040494204,0.971595287
88.317831,4.509487152,-5.855587006,-1.264461517,-0.024152279,0.046719790,0.968665600
88.356126,2.235927582,-1.468685150,0.818363190,-0.005109310,0.047452211,0.978919506
88.394399,1.343288422,2.529117584,-0.013240814,-0.025372982,0.053799868,0.953528881
88.408639,0.992336273,0.934574127,0.421634674,-0.029157162,0.053555727,0.957679272
88.423935,0.694789886,-1.209285736,1.329532623,-0.030133724,0.062344790,0.952796459
88.462224,-0.556430817,2.780887604,2.222171783,-0.006696224,0.043790102,0.960853100
88.500482,-1.632175446,3.887149811,2.107730865,-0.009137630,0.062466860,0.973914623
88.514727,-1.647434235,3.116580963,1.382938385,-0.016828060,0.066373110,0.984900951
88.530035,-0.800571442,2.056095123,1.962772369,-0.012555599,0.068326235,0.984534740
88.568327,-0.548801422,0.453922272,1.901737213,0.005510807,0.067349672,0.995032787
88.606608,-0.449619293,0.865909576,1.146427155,0.009661198,0.055997133,1.005286694
88.620853,-0.266513824,0.270816803,0.230899811,-0.003522396,0.055997133,1.003455639
88.636156,0.488796234,-2.140071869,2.840152740,-0.009992123,0.061246157,0.993079662
88.674450,-0.228366852,-2.048519135,2.542606354,0.021990299,0.045987368,1.008826733
88.712724,-0.091037750,1.071903229,2.168766022,-0.000470638,0.055630922,0.992469311
88.726967,-0.358066559,1.110050201,1.634708405,0.001726627,0.059170961,0.991004467
88.742250,-0.556430817,-0.362422943,2.824893951,-0.004010677,0.054898500,0.992347240
88.780529,-1.639804840,1.819583893,2.657047272,-0.003034115,0.040616274,1.001380444
88.818815,-1.151523590,7.839176178,1.711002350,0.010759830,0.048428774,1.001990795
88.833059,-0.243625641,5.153629303,1.535526276,-0.010602474,0.055142641,0.989173412
88.848352,-0.724277496,2.956363678,3.168216705,-0.009503841,0.043545961,0.988807201
88.886646,-0.060520172,-2.719905853,3.442874908,-0.011090755,0.033658266,1.004676342
88.924904,0.763454437,-0.186946869,1.276126862,0.000261784,0.030240295,0.992835522
88.939153,-0.152072906,-2.124813080,2.451053619,-0.007794857,0.019009827,0.994666576
88.954452,0.061550140,-5.207088470,2.618900299,0.009539127,0.048917055,1.013099194
88.955218,0.061550140,-5.207088470,2.618900299,0.009539127,0.048917055,1.013099194
88.955799,0.061550140,-5.207088470,2.618900299,0.009539127,0.048917055,1.013099194
88.956431,0.061550140,-5.207088470,2.618900299,0.009539127,0.048917055,1.013099194
88.957021,0.061550140,-5.207088470,2.618900299,0.009539127,0.048917055,1.013099194
88.957646,0.061550140,-5.207088470,2.618900299,0.009539127,0.048917055,1.013099194
89.021557,0.793972015,5.847904205,1.749149323,0.009661198,0.064664125,1.010047436
89.059951,0.099697113,3.169986725,3.755680084,0.005022526,0.046475649,0.999183178
89.074175,0.702419281,2.704593658,2.245059967,0.027483463,0.044034243,1.009315014
89.089484,0.801601410,2.323123932,1.314273834,0.021257877,0.046841860,1.008582592
