time,gyro x,gyro y,gyro z,accel x,accel y,accel z
22.270368,-0.754795074,-3.147151947,0.154605865,0.017473698,-0.032381773,0.947425365
22.308880,-0.312290192,-9.532955170,0.642887115,-0.004376888,-0.029207947,1.013343334
22.323148,-0.426731110,-7.083919525,0.078311920,-0.002179623,-0.042025328,0.996131420
22.338475,-1.609287262,-2.742794037,0.299564362,-0.015363216,-0.033114195,0.988807201
22.376790,-0.762424469,-0.141170502,-0.150569916,0.007586002,-0.015169861,1.049354076
22.415096,0.839748383,5.825016022,-1.172908783,0.002825260,-0.023592712,1.045325756
22.429360,2.289333344,3.940555573,-1.333126068,-0.007306576,-0.029574158,1.032386303
22.444707,2.640285492,2.284976959,-0.944026947,-0.028913021,-0.033358335,1.023597240
22.445482,2.640285492,2.284976959,-0.944026947,-0.028913021,-0.033358335,1.023597240
22.446106,2.640285492,2.284976959,-0.944026947,-0.028913021,-0.033358335,1.023597240
22.446750,2.785243988,1.003238678,-0.059017181,-0.042951107,-0.035189390,1.019202709
22.447376,2.785243988,1.003238678,-0.059017181,-0.042951107,-0.035189390,1.019202709
22.448020,2.785243988,1.003238678,-0.059017181,-0.042951107,-0.035189390,1.019202709
22.448641,2.785243988,1.003238678,-0.059017181,-0.042951107,-0.035189390,1.019202709
22.449288,2.785243988,1.003238678,-0.059017181,-0.042951107,-0.035189390,1.019202709
22.487365,3.021755219,5.077335358,0.337711334,0.026995182,-0.023470642,1.011512280
22.525663,2.258815765,2.780887604,-1.851924896,0.045671940,-0.023592712,0.982825756
22.539910,1.427211761,-3.994014740,-2.859004974,0.019915104,-0.018221619,0.974891186
22.555227,-0.380954742,-8.167293549,-2.958187103,0.014299870,-0.024813415,0.977210522
22.593492,1.328029633,-15.819576263,-2.118953705,-0.020490170,-0.030062439,0.995032787
22.631826,0.771083832,-19.649532318,1.405826569,0.027361393,-0.027010681,0.986487865
22.646076,0.282802582,-13.462093353,0.139347076,0.043230534,-0.030550720,0.988318920
22.661430,0.473537445,-9.731319427,-1.264461517,0.059954166,-0.026766540,0.982947826
22.699692,0.656642914,-12.310054779,-1.691707611,0.003923893,-0.016390564,0.964881420
22.738025,0.038661957,-13.584163666,1.375308990,-0.000226498,-0.035677671,0.976844311
22.752274,-0.655612946,-12.332942963,1.138797760,0.001604557,-0.032870054,0.989661694
22.767608,-0.579319000,-10.707881927,1.871219635,0.014910221,-0.019320251,1.027137280
22.768385,-0.579319000,-10.707881927,1.871219635,0.014910221,-0.019320251,1.027137280
22.769017,-0.579319000,-10.707881927,1.871219635,0.014910221,-0.019320251,1.027137280
22.769679,-0.579319000,-10.707881927,1.871219635,0.014910221,-0.019320251,1.027137280
22.770309,-0.579319000,-10.707881927,1.871219635,0.014910221,-0.019320251,1.027137280
22.770957,-0.579319000,-10.707881927,1.871219635,0.014910221,-0.019320251,1.027137280
22.771601,-0.579319000,-10.707881927,1.871219635,0.014910221,-0.019320251,1.027137280
22.772252,-0.579319000,-10.707881927,1.871219635,0.014910221,-0.019320251,1.027137280
22.772882,-0.579319000,-10.707881927,1.871219635,0.014910221,-0.019320251,1.027137280
22.773548,-0.579319000,-10.707881927,1.871219635,0.014910221,-0.019320251,1.027137280
22.774179,-0.579319000,-10.707881927,1.871219635,0.014910221,-0.019320251,1.027137280
22.774829,0.618495941,-10.784175873,2.191654205,0.015276432,-0.019564392,1.038367748
22.775451,0.618495941,-10.784175873,2.191654205,0.015276432,-0.019564392,1.038367748
22.776115,0.618495941,-10.784175873,2.191654205,0.015276432,-0.019564392,1.038367748
22.776744,0.618495941,-10.784175873,2.191654205,0.015276432,-0.019564392,1.038367748
22.777400,0.618495941,-10.784175873,2.191654205,0.015276432,-0.019564392,1.038367748
22.778046,0.618495941,-10.784175873,2.191654205,0.015276432,-0.019564392,1.038367748
22.778692,0.618495941,-10.784175873,2.191654205,0.015276432,-0.019564392,1.038367748
22.816785,2.441921234,-0.484493256,2.359500885,0.058977604,-0.023470642,0.996863842
22.855085,-0.495395660,15.094730377,-1.706966400,0.062517643,-0.027865173,0.950355053
22.869344,-1.159152985,14.926883698,-1.401790619,0.045549870,-0.037630796,0.951941967
22.884674,-3.348789215,14.957401276,-1.867183685,0.059465885,-0.030672790,0.964026928
22.946522,-1.037082672,-5.657222748,0.528446198,0.030657291,-0.016512634,1.032996655
22.984965,1.328029633,-11.676815033,2.092472076,0.048967838,-0.022249939,1.027381420
22.999210,1.884975433,-8.289363861,0.986209869,0.055193424,-0.013460876,1.022498608
23.014535,2.899684906,-2.056148529,-0.989803314,0.054094791,-0.027376892,0.993934155
23.052822,0.748195648,-1.445796967,-1.134761810,0.034197330,-0.029452087,0.956580639
23.091133,-1.052341461,-0.202205658,-0.387081146,0.020647526,-0.035433531,0.957313061
23.105384,-1.632175446,-1.438167572,0.421634674,0.022600651,-0.028353455,0.972938061
23.120719,-1.662693024,-3.528621674,0.963321686,0.028704166,-0.029696228,0.982215405
23.159015,-0.754795074,-7.946041107,1.978031158,0.057390690,-0.022127869,1.023963451
23.197326,0.832118988,1.300785065,-0.432857513,0.070208073,-0.023836853,1.022010326
23.211575,1.099147797,2.681705475,-0.867733002,0.068132877,-0.023104431,1.015784740
23.226910,1.694240570,3.276798248,-1.439937592,0.055559635,-0.027865173,0.999793530
23.265198,0.938930511,4.474613190,-1.012691498,0.023699284,-0.032259703,0.968787670
23.303500,-0.503025055,0.438663483,0.917545319,0.025774479,-0.035189390,0.960364819
23.317732,-0.930271149,-1.712825775,1.367679596,0.030657291,-0.033236265,0.966834545
23.333044,-1.250705719,-3.437068939,1.978031158,0.044085026,-0.026888611,0.984046459
23.371308,-0.739536285,0.667545319,0.398746490,0.069719791,-0.020418884,1.017249584
23.409617,0.496425629,-0.858333588,-0.326045990,0.070208073,-0.026156189,1.017982006
23.423863,1.144924164,-2.384212494,-0.608333588,0.060686588,-0.024325134,1.011878490
23.439166,1.350917816,-1.941707611,-0.898250580,0.056658268,-0.024569275,1.005530834
23.477426,1.549282074,-2.613094330,-0.753292084,0.038347721,-0.029940369,0.974036694
23.515726,0.076808929,-7.122066498,0.803104401,0.037615299,-0.029818298,0.962440014
23.529971,-0.754795074,-5.245235443,0.825992584,0.043962955,-0.030184509,0.971839428
23.545291,-1.021823883,-4.207637787,0.757328033,0.050188541,-0.028475525,0.979163647
23.595701,-0.670871735,-4.665401459,0.673404694,0.065935612,-0.027132751,1.011512280
23.634136,0.595607758,2.422306061,-0.921138763,0.059832096,-0.026034119,1.014441967
23.648386,0.908412933,3.597232819,-0.783809662,0.056536198,-0.025179626,1.010657787
23.663705,1.328029633,4.596683502,-0.921138763,0.046160221,-0.028597595,0.999061108
23.702012,0.954189301,3.131839752,0.208011627,0.039202213,-0.030794861,0.969031811
23.740325,-0.312290192,-0.797298431,1.253238678,0.056292057,-0.032381773,0.963538647
23.754573,-0.678501129,-1.537349701,1.299015045,0.063250065,-0.028841736,0.968421459
23.769872,-1.159152985,-0.995662689,0.894657135,0.069963932,-0.027010681,0.982825756
23.808135,-1.273593903,0.781986237,-0.219234467,0.073748112,-0.023836853,1.005774975
23.846443,0.488796234,-4.161861420,-0.753292084,0.065325260,-0.024447205,1.010413647
23.860680,1.343288422,-7.946041107,0.009647369,0.058245182,-0.026400330,1.007117748
23.875988,1.617946625,-8.770015717,-0.196346283,0.059343815,-0.024935486,1.001136303
23.914241,1.511135101,-7.495906830,0.009647369,0.054338932,-0.030306580,0.974524975
23.952527,-0.541172028,1.010868073,-0.127681732,0.051897526,-0.027987244,0.968055248
23.966790,-0.785312653,3.421756744,-0.471004486,0.051531315,-0.027865173,0.971229076
23.982076,-1.281223297,4.970523834,-0.120052338,0.053484440,-0.029574158,0.982459545
24.020362,-0.808200836,2.521488190,0.726810455,0.055681705,-0.026766540,1.010413647
24.058663,0.771083832,4.230472565,0.467411041,0.070696354,-0.023714783,1.009803295
24.072900,1.167812347,4.169437408,0.002017975,0.070452213,-0.021395447,1.007728100
24.088185,1.465358734,2.521488190,0.040164948,0.070330143,-0.031161072,0.988929272
24.088933,1.465358734,2.521488190,0.040164948,0.070330143,-0.031161072,0.988929272
24.089509,1.465358734,2.521488190,0.040164948,0.070330143,-0.031161072,0.988929272
24.090140,1.465358734,2.521488190,0.040164948,0.070330143,-0.031161072,0.988929272
24.090726,1.465358734,2.521488190,0.040164948,0.070330143,-0.031161072,0.988929272
24.091340,1.465358734,2.521488190,0.040164948,0.070330143,-0.031161072,0.988929272
24.141741,0.282802582,1.949283600,-0.471004486,0.062395573,-0.026644470,0.966834545
24.180171,-0.983676910,-0.934627533,-0.181087494,0.055437565,-0.028353455,0.970984936
24.194397,-0.869235992,-3.498104095,0.131717682,0.055925846,-0.028231384,0.976966381
24.223402,-0.701389313,-8.792903900,0.902286530,0.061541080,-0.026400330,0.999793530
24.261839,0.099697113,-2.223995209,-0.181087494,0.067400455,-0.020174744,1.016517162
24.300171,1.083889008,1.232120514,-0.562557220,0.059587955,-0.025789978,1.000281811
24.314410,1.259365082,0.659915924,-0.585445404,0.058245182,-0.026400330,0.993323803
24.329708,1.122035980,0.415775299,-0.158199310,0.050676823,-0.028231384,0.981360912
24.368009,0.198879242,1.407596588,0.391117096,0.053850651,-0.030672790,0.966468334
24.406306,-0.976047516,0.514957428,0.749698639,0.064348698,-0.027132751,0.979651928
24.420536,-1.098117828,1.438114166,0.627628326,0.066790104,-0.025057556,0.986243725
24.435819,-0.983676910,2.689334869,0.063053131,0.071550846,-0.027376892,0.994422436
24.474103,-0.258884430,0.484439850,-0.020870209,0.071550846,-0.025789978,1.009315014
24.512415,0.961818695,0.209781647,-0.409969330,0.062151432,-0.024813415,1.001868725
24.526658,1.053371429,0.873538971,-0.425228119,0.057268620,-0.029574158,0.990882397
24.541946,1.099147797,0.621768951,-0.409969330,0.056047916,-0.027254822,0.985023022
24.580222,0.565090179,-4.138973236,0.581851959,0.058489323,-0.029940369,0.967566967
24.618506,-0.945529938,-0.080135345,0.436893463,0.061663151,-0.030794861,0.976111889
24.632734,-1.304111481,2.323123932,-0.036128998,0.063616276,-0.025912048,0.983436108
24.648010,-0.960788727,3.452274323,-0.409969330,0.065447330,-0.027010681,0.995521069
24.686291,0.130214691,-1.697566986,0.131717682,0.059465885,-0.025179626,1.009315014
24.724607,1.091518402,2.017948151,-0.112422943,0.060076237,-0.027132751,0.997230053
24.738854,1.083889008,1.697513580,-0.020870209,0.063616276,-0.029085876,0.992225170
24.754126,1.328029633,-0.698116302,0.093570709,0.063372135,-0.027743103,0.981482983
24.754875,1.328029633,-0.698116302,0.093570709,0.063372135,-0.027743103,0.981482983
24.755451,1.328029633,-0.698116302,0.093570709,0.063372135,-0.027743103,0.981482983
24.756076,1.328029633,-0.698116302,0.093570709,0.063372135,-0.027743103,0.981482983
24.756660,1.328029633,-0.698116302,0.093570709,0.063372135,-0.027743103,0.981482983
24.757283,1.328029633,-0.698116302,0.093570709,0.063372135,-0.027743103,0.981482983
24.757873,1.328029633,-0.698116302,0.093570709,0.063372135,-0.027743103,0.981482983
24.758494,1.328029633,-0.698116302,0.093570709,0.063372135,-0.027743103,0.981482983
24.759090,1.328029633,-0.698116302,0.093570709,0.063372135,-0.027743103,0.981482983
24.759713,1.328029633,-0.698116302,0.093570709,0.063372135,-0.027743103,0.981482983
24.797761,0.237026215,0.713321686,0.002017975,0.061052799,-0.029207947,0.972693920
24.836033,-0.876865387,0.347110748,0.063053131,0.060686588,-0.030062439,0.976600170
24.868381,-0.533542633,-3.841426849,0.658145905,0.064836979,-0.026034119,0.994666576
24.882746,-0.709018707,-1.140621185,0.612369537,0.062395573,-0.029207947,1.008826733
24.920964,0.565090179,4.749271393,-0.615962982,0.061052799,-0.025667908,1.008704662
24.959249,1.053371429,1.964542389,-0.158199310,0.051775455,-0.027498962,0.995887280
24.973486,0.961818695,3.772708893,0.063053131,0.050798893,-0.025301697,0.985511303
24.988777,1.053371429,4.108402252,-0.089534760,0.053240299,-0.026278259,0.979773998
25.027062,0.137844086,-1.644161224,0.940433502,0.061785221,-0.028841736,0.971595287
25.065363,-1.021823883,4.886600494,-0.493892670,0.061419010,-0.023104431,0.990027905
25.079608,-0.800571442,5.931827545,-0.638851166,0.060686588,-0.026644470,0.993201733
25.094935,-0.907382965,3.688785553,-0.829586029,0.059099674,-0.025179626,0.998450756
25.133208,0.443019867,-2.826717377,0.330081940,0.049944401,-0.025301697,1.005042553
25.171494,1.038112640,-4.558589935,0.398746490,0.060198307,-0.028475525,0.987464428
25.185747,1.068630219,-4.932430267,0.558963776,0.060320377,-0.029207947,0.985023022
25.201055,0.626125336,-2.819087982,0.047794342,0.059832096,-0.028841736,0.981482983
25.253423,-0.533542633,3.124210358,-0.684627533,0.051287174,-0.031039001,0.982581615
25.291842,-0.358066559,0.858280182,0.261417389,0.047136784,-0.029940369,0.993812084
25.306066,-0.319919586,0.392887115,0.360599518,0.048113346,-0.027254822,0.997474194
25.321343,0.084438324,0.804874420,0.566593170,0.050310612,-0.028841736,1.001380444
25.359612,0.786342621,-0.377681732,0.627628326,0.064470768,-0.028231384,0.994300365
25.397882,0.656642914,2.193424225,-0.173458099,0.061663151,-0.027498962,0.986121655
25.412112,0.107326508,6.053897858,-0.844844818,0.054216862,-0.028597595,0.983314037
25.427433,-0.091037750,7.190677643,-0.982173920,0.050676823,-0.027254822,0.980994701
25.465694,-0.266513824,0.400516510,0.108829498,0.043718815,-0.027621033,0.983314037
25.503998,-0.007114410,-4.871395111,1.077762604,0.055071354,-0.026766540,0.993201733
25.534207,0.313320160,-7.167842865,0.665775299,0.074480534,-0.024080994,0.996009350
25.548549,0.511684418,-9.182003021,0.520816803,0.079729557,-0.028841736,0.996131420
25.586761,0.824489594,-6.069210052,-0.608333588,0.069597721,-0.028109314,0.992469311
25.625067,0.122585297,2.170536041,-1.485713959,0.043108463,-0.030428650,0.989051342
25.639291,-0.297031403,4.436466217,-0.951656342,0.029924870,-0.027376892,0.988563061
25.654572,-0.174961090,4.947635651,-0.661739349,0.025164127,-0.029574158,0.989661694
25.692841,0.061550140,5.695316315,1.421085358,0.036394596,-0.028109314,0.991736889
25.731148,0.153102875,0.705692291,2.191654205,0.072039127,-0.026034119,0.992103100
25.745394,0.290431976,1.079532623,1.741519928,0.078264713,-0.022860290,0.992469311
25.760710,0.191249847,3.322574615,0.452152252,0.088152409,-0.025789978,0.990638256
25.799003,0.053920746,2.582523346,-1.287349701,0.075090885,-0.025301697,0.988074780
25.837300,0.023403168,-0.164058685,-1.195796967,0.040178776,-0.027743103,0.983191967
25.851551,0.237026215,-1.155879974,-1.012691498,0.033098698,-0.029940369,0.983680248
25.866843,-0.243625641,-3.055599213,0.261417389,0.030535221,-0.032747984,0.985633373
25.905105,-0.319919586,-0.980403900,0.833621979,0.037493229,-0.027254822,0.993934155
25.943403,-0.289402008,2.376529694,0.764957428,0.050798893,-0.033114195,0.996131420
25.957623,-0.335178375,6.534549713,0.368228912,0.053362370,-0.026156189,1.002723217
25.972945,-0.419101715,10.227176666,0.291934967,0.050432682,-0.030306580,1.004798412
26.011206,-0.304660797,23.006412506,-1.691707611,0.032000065,-0.032747984,1.006019115
26.049502,0.435390472,23.807498932,-3.675350189,0.061419010,-0.022494080,0.983436108
26.063759,-0.312290192,21.076175690,-3.980525970,0.046038151,-0.050204039,0.980018139
26.079073,-0.693759918,12.393924713,-2.477535248,0.044573307,-0.014315369,0.987464428
26.079837,-0.693759918,12.393924713,-2.477535248,0.044573307,-0.014315369,0.987464428
26.080437,-0.693759918,12.393924713,-2.477535248,0.044573307,-0.014315369,0.987464428
26.118579,-0.960788727,3.429386139,-2.866634369,0.026995182,-0.024691345,0.991004467
26.172548,-0.106296539,0.637027740,-2.439388275,-0.014264584,-0.042635679,0.985145092
26.186885,-1.021823883,1.102420807,-1.264461517,-0.011456966,-0.028231384,0.997962475
26.202231,-0.770053864,2.170536041,-1.676448822,-0.007672787,-0.023226501,1.002357006
26.240508,-0.876865387,4.703495026,-1.890071869,-0.030377865,-0.030306580,1.016150951
26.278840,0.557460785,4.024478912,-0.127681732,-0.017316341,-0.028841736,1.019935131
26.293078,0.786342621,4.573795319,-0.287899017,-0.016095638,-0.024447205,1.014441967
26.308371,1.251735687,4.619571686,0.200382233,-0.019635677,-0.032015562,1.000037670
26.346642,0.748195648,-1.407649994,1.428714752,0.000994205,-0.030428650,0.986365795
26.384946,-0.159702301,0.804874420,0.375858307,0.013567448,-0.028353455,0.984046459
26.399172,-0.480136871,1.987430573,-0.043758392,0.015642643,-0.029818298,0.985023022
26.414460,-1.326999664,3.650638580,-0.783809662,0.008806705,-0.031649351,0.993690014
26.452725,-0.892124176,4.360172272,-1.348384857,-0.012311459,-0.028719665,1.010901928
26.491040,0.221767426,-3.635433197,0.528446198,-0.023297787,-0.029574158,1.013221264
26.522373,0.710048676,-5.382564545,1.413455963,-0.011334896,-0.030794861,1.010047436
26.536708,2.724208832,-3.757503510,1.665225983,-0.012067318,-0.070101500,0.997230053
26.574854,0.687160492,-5.054500580,1.054874420,-0.013410091,-0.034945250,0.979407787
26.613163,-0.960788727,0.293704987,1.817813873,0.013689518,-0.022860290,0.972693920
26.627397,-1.807651520,3.070804596,0.581851959,0.016863346,-0.024080994,0.974891186
26.642717,-2.364597321,7.877323151,-0.272640228,0.018816471,-0.026156189,0.984656811
26.681014,-2.837619781,11.768314362,-1.821407318,0.024065495,-0.032015562,0.966468334
26.719323,-6.545505524,15.567752838,-3.759273529,0.012224674,-0.038607359,0.965857983
26.733575,-6.804904938,16.368839264,-4.720577240,-0.002545834,-0.032625914,0.988440990
26.748938,-6.644687653,16.902896881,-4.804500580,-0.017438412,-0.037630796,0.991370678
26.787218,-7.216892242,12.302371979,-4.102596283,-0.050153255,-0.050570250,1.008460522
26.841603,0.336208344,-14.415767670,-1.264461517,-0.008161068,-0.023348572,1.198035717
26.855958,3.700771332,-18.436458588,-1.455196381,-0.011456966,-0.014559509,1.219642162
26.871322,10.689296722,-24.570491791,-0.974544525,-0.030377865,-0.025301697,1.212684155
26.909615,17.822780609,-29.720333099,0.658145905,-0.035382748,-0.025789978,1.115394115
26.947921,23.468532562,-23.342159271,2.893558502,-0.027204037,-0.009188415,0.850501537
26.962164,16.975917816,-10.417964935,0.955692291,-0.015241146,-0.078280210,0.678016186
26.977457,9.247341156,-3.139522552,-0.005611420,-0.024274349,-0.099032164,0.621741772
26.978217,9.247341156,-3.139522552,-0.005611420,-0.024274349,-0.099032164,0.621741772
26.978799,9.247341156,-3.139522552,-0.005611420,-0.024274349,-0.099032164,0.621741772
26.979420,9.247341156,-3.139522552,-0.005611420,-0.024274349,-0.099032164,0.621741772
26.979993,-0.350437164,3.688785553,-0.577816010,-0.025250912,-0.108553648,0.614051342
26.980610,-0.350437164,3.688785553,-0.577816010,-0.025250912,-0.108553648,0.614051342
26.981196,-0.350437164,3.688785553,-0.577816010,-0.025250912,-0.108553648,0.614051342
26.981808,-0.350437164,3.688785553,-0.577816010,-0.025250912,-0.108553648,0.614051342
26.982395,-0.350437164,3.688785553,-0.577816010,-0.025250912,-0.108553648,0.614051342
26.983003,-0.350437164,3.688785553,-0.577816010,-0.025250912,-0.108553648,0.614051342
26.983589,-0.350437164,3.688785553,-0.577816010,-0.025250912,-0.108553648,0.614051342
26.984211,-0.350437164,3.688785553,-0.577816010,-0.025250912,-0.108553648,0.614051342
26.984794,-0.350437164,3.688785553,-0.577816010,-0.025250912,-0.108553648,0.614051342
26.985416,-0.350437164,3.688785553,-0.577816010,-0.025250912,-0.108553648,0.614051342
26.985989,-0.350437164,3.688785553,-0.577816010,-0.025250912,-0.108553648,0.614051342
26.986608,-0.350437164,3.688785553,-0.577816010,-0.025250912,-0.108553648,0.614051342
26.987194,-0.350437164,3.688785553,-0.577816010,-0.025250912,-0.108553648,0.614051342
26.987807,-0.350437164,3.688785553,-0.577816010,-0.025250912,-0.108553648,0.614051342
27.025836,-20.698032379,14.209720612,0.177494049,-0.026593685,-0.060457945,0.844886303
27.064147,-15.975437164,6.587955475,2.840152740,0.016008854,-0.004793884,1.233802319
27.078395,-11.985263824,4.901859283,2.168766022,0.030535221,0.002896545,1.294471264
27.093724,-0.884494781,2.460453033,0.803104401,0.035295963,0.024380920,1.322181225
27.132016,11.520900726,-3.276851654,0.223270416,0.013567448,-0.024325134,1.179969311
27.170317,18.585720062,-2.590206146,-0.966915131,0.013445377,-0.074496031,0.854041576
27.184571,13.718166351,0.354740143,-0.371822357,0.005266666,-0.063875914,0.778480053
27.199876,6.035366058,6.702396393,-1.867183685,-0.007184505,-0.054598570,0.679114819
27.238169,-9.353122711,9.075138092,-1.775630951,-0.026349545,-0.064486265,0.724402905
27.276466,-17.249546051,-4.520442963,2.184024811,-0.021832943,-0.029085876,1.040076733
27.290711,-13.022861481,-9.433773041,3.397098541,0.004412174,-0.007235290,1.201941967
27.306018,-9.376010895,-10.173824310,3.122440338,0.019182682,0.002164124,1.261146069
27.344297,8.774318695,-1.461055756,-0.738033295,0.046648502,0.006070374,1.264319897
27.398907,12.772121429,4.138919830,-2.385982513,-0.034894466,-0.058382750,0.807044506
27.413253,9.232082367,2.605411530,-1.562007904,-0.045026302,-0.059969664,0.750525951
27.428572,1.061000824,-0.560787201,0.452152252,-0.047101498,-0.065584898,0.704017162
27.466840,-11.367282867,-3.261592865,2.748600006,-0.022199154,-0.050814390,0.813758373
27.516902,-8.658847809,4.833194733,0.513187408,0.029802799,0.002530335,1.228797436
27.531250,-4.653415680,4.543277740,0.040164948,0.031023502,0.003140686,1.261512280
27.546603,3.807582855,1.323673248,-0.600704193,0.027971745,0.002652405,1.260657787
27.584872,13.268032074,-2.635982513,-1.188167572,0.011370182,-0.018831970,1.110023022
27.623187,11.383571625,0.415775299,-1.539119720,-0.016583920,-0.048983335,0.831824780
27.637417,4.768886566,0.354740143,-1.066097260,-0.022077084,-0.055697203,0.753577709
27.652733,0.961818695,-0.072505951,-0.638851166,-0.029523373,-0.061312437,0.741492748
27.691010,-11.962375641,-1.514461517,1.497379303,-0.020246029,-0.035555601,0.901282787
27.729304,-9.841403961,-1.102474213,1.550785065,0.011126041,-0.009432556,1.158240795
27.743563,-6.904087067,-2.216365814,1.306644440,0.018816471,-0.005648376,1.201819897
27.758875,0.061550140,-4.978206635,1.184574127,0.026506901,0.000577210,1.240394115
27.797165,12.199916840,-5.062129974,-0.661739349,0.026506901,-0.021395447,1.097083569
27.835463,10.407009125,-3.994014740,-1.378902435,0.000872135,-0.047152281,0.845496655
27.849709,7.813014984,-4.146602631,-1.539119720,-0.005719662,-0.045931578,0.801917553
27.865021,1.900234222,-6.984737396,-0.974544525,-0.015729427,-0.052401304,0.756751537
27.903295,-8.956394196,-11.920955658,2.290836334,-0.000104427,-0.033114195,0.846229076
27.941621,-12.725315094,4.451725006,1.558414459,0.029924870,-0.007845642,1.099769115
27.955874,-7.895908356,15.979740143,-1.203426361,0.030657291,0.005826233,1.205359936
27.971198,-4.126987457,19.268009186,-2.836116791,0.019793034,0.013028381,1.231849194
27.971961,-4.126987457,19.268009186,-2.836116791,0.019793034,0.013028381,1.231849194
27.972541,-4.126987457,19.268009186,-2.836116791,0.019793034,0.013028381,1.231849194
27.973177,-4.126987457,19.268009186,-2.836116791,0.019793034,0.013028381,1.231849194
27.973778,-4.126987457,19.268009186,-2.836116791,0.019793034,0.013028381,1.231849194
27.974405,0.145473480,19.229862213,-3.110774994,0.006487370,-0.004915955,1.231116772
27.974982,0.145473480,19.229862213,-3.110774994,0.006487370,-0.004915955,1.231116772
27.975620,0.145473480,19.229862213,-3.110774994,0.006487370,-0.004915955,1.231116772
27.976211,0.145473480,19.229862213,-3.110774994,0.006487370,-0.004915955,1.231116772
27.976845,0.145473480,19.229862213,-3.110774994,0.006487370,-0.004915955,1.231116772
27.977437,0.145473480,19.229862213,-3.110774994,0.006487370,-0.004915955,1.231116772
27.978071,0.145473480,19.229862213,-3.110774994,0.006487370,-0.004915955,1.231116772
27.978668,0.145473480,19.229862213,-3.110774994,0.006487370,-0.004915955,1.231116772
28.016804,11.696376801,12.836429596,-0.371822357,-0.025128841,-0.014925720,1.094886303
28.055116,10.544338226,3.467533112,1.787296295,-0.017926693,-0.053377867,0.843299389
28.069369,7.378139496,2.147647858,2.184024811,-0.005963802,-0.055086851,0.803138256
28.084703,-0.083408356,2.948734283,2.763858795,0.011492252,-0.053255796,0.781043530
28.123004,-9.910068512,13.790103912,-0.226863861,0.026751041,-0.037264585,0.865149975
28.173194,-5.805454254,-7.526424408,0.230899811,-0.015607357,-0.001620056,1.176673412
28.187553,-2.189121246,-12.714412689,0.825992584,-0.015241146,-0.010287048,1.198157787
28.202931,3.738918304,-20.031002045,1.695743561,-0.001325130,-0.002230408,1.192664623
28.241218,10.429897308,-18.024471283,0.528446198,0.020037174,-0.014315369,1.081214428
28.279525,9.590663910,0.492069244,-1.478084564,-0.005231380,-0.033968687,0.874549389
28.293776,3.166713715,9.838077545,-1.973995209,-0.028180599,-0.064974546,0.817664623
28.309074,-1.265964508,13.332340240,-2.752193451,-0.036237240,-0.059481382,0.814368725
28.347384,-9.871921539,8.884403229,0.642887115,-0.067243099,-0.047884703,0.932654858
28.397852,-4.859409332,2.162906647,3.442874908,0.004290104,-0.009920837,1.156165600
28.412184,0.389614105,1.224491119,2.382389069,0.029070377,-0.009920837,1.180457592
28.427528,2.754726410,1.674625397,1.741519928,0.038713932,-0.006991150,1.168738842
28.465834,9.773769379,3.681156158,-1.386531830,0.015764713,-0.026400330,1.017859936
28.504138,4.707851410,0.949832916,-1.745113373,-0.021588802,-0.048983335,0.848426342
28.518398,2.007045746,1.193973541,-1.539119720,-0.033795834,-0.050204039,0.833045483
28.533723,-3.074131012,1.552555084,-0.936397552,-0.042829037,-0.043612242,0.841834545
28.572021,-8.948764801,-2.086666107,1.550785065,-0.045148373,-0.031771421,0.988074780
28.610321,-6.370029449,-3.101375580,2.428165436,-0.015851498,-0.012118103,1.120521069
28.624577,-1.670322418,-1.369503021,1.611820221,0.002947330,-0.009554626,1.163123608
28.639876,0.679531097,-0.347164154,1.123538971,0.010027409,-0.007601501,1.166785717
28.678164,8.163967133,1.575443268,-1.134761810,-0.011456966,-0.022127869,1.056800365
28.716444,6.081142426,1.323673248,-0.028499603,-0.035748959,-0.042269468,0.886390209
28.730691,1.808681488,1.598331451,0.444522858,-0.030622005,-0.048372984,0.847571850
28.745994,-0.838718414,1.880619049,0.574222565,-0.028790951,-0.049105406,0.848670483
28.796524,-8.132419586,1.300785065,0.566593170,-0.015241146,-0.032747984,0.998694897
28.834936,-3.112277985,-5.138423920,1.001468658,-0.009137630,-0.015169861,1.140906811
28.849173,1.419582367,-4.619625092,0.986209869,-0.005963802,-0.006624939,1.154212475
28.864456,3.883876801,-3.574398041,0.429264069,-0.008893490,-0.009188415,1.143104076
28.902730,8.217372894,4.375431061,-0.997432709,-0.014020443,-0.028231384,0.997474194
28.941042,3.227748871,4.589054108,-0.944026947,-0.031720638,-0.043856382,0.864661694
28.955280,1.183071136,3.131839752,-0.509151459,-0.033429623,-0.045931578,0.856116772
28.970566,-3.234348297,-0.736263275,0.459781647,-0.033429623,-0.047762632,0.873084545
29.008848,-7.476291656,-2.109554291,1.672855377,-0.017072201,-0.028109314,1.004676342
29.047149,-4.859409332,0.453922272,0.528446198,-0.002179623,-0.016024353,1.108558178
29.061394,-1.121006012,1.201602936,-0.295528412,-0.008283138,-0.011507751,1.137244701
29.076683,1.106777191,0.980350494,-0.570186615,-0.010602474,-0.011751892,1.134192944
29.114990,6.958522797,-4.749324799,0.475040436,-0.022077084,-0.025423767,1.041419506
29.153254,4.883327484,1.575443268,-0.135311127,-0.022565365,-0.039461851,0.907264233
29.167494,1.167812347,3.269168854,-0.425228119,-0.018537045,-0.043734312,0.880164623
29.182781,0.290431976,3.185245514,-0.516780853,-0.015363216,-0.078646421,0.898353100
29.221067,-4.592380524,1.049015045,-0.043758392,-0.027570248,-0.013460876,0.953284740
29.259346,-4.622898102,-3.788021088,1.962772369,-0.022931576,-0.018343689,1.082801342
29.273591,-3.005466461,-4.291561127,2.046695709,-0.017682552,-0.014925720,1.098548412
29.288880,0.038661957,-3.520992279,1.146427155,-0.021466732,-0.021517517,1.097205639
29.289635,0.038661957,-3.520992279,1.146427155,-0.021466732,-0.021517517,1.097205639
29.290216,0.038661957,-3.520992279,1.146427155,-0.021466732,-0.021517517,1.097205639
29.290845,0.038661957,-3.520992279,1.146427155,-0.021466732,-0.021517517,1.097205639
29.291416,0.038661957,-3.520992279,1.146427155,-0.021466732,-0.021517517,1.097205639
29.292048,0.038661957,-3.520992279,1.146427155,-0.021466732,-0.021517517,1.097205639
29.292623,0.038661957,-3.520992279,1.146427155,-0.021466732,-0.021517517,1.097205639
29.293258,0.038661957,-3.520992279,1.146427155,-0.021466732,-0.021517517,1.097205639
29.293834,0.038661957,-3.520992279,1.146427155,-0.021466732,-0.021517517,1.097205639
29.294450,0.038661957,-3.520992279,1.146427155,-0.021466732,-0.021517517,1.097205639
29.295043,0.038661957,-3.520992279,1.146427155,-0.021466732,-0.021517517,1.097205639
29.295669,0.038661957,-3.520992279,1.146427155,-0.021466732,-0.021517517,1.097205639
29.296248,0.038661957,-3.520992279,1.146427155,-0.021466732,-0.021517517,1.097205639
29.296880,1.411952972,-3.414180756,0.940433502,-0.029035091,-0.023836853,1.086707592
29.348681,5.058803558,-10.112789154,3.572574615,-0.014142513,-0.027865173,1.021277905
29.387097,5.539455414,-6.618526459,3.076663971,0.009294987,-0.037142515,0.950232983
29.401334,3.395595551,-4.077938080,2.504459381,0.017961979,-0.022005798,0.933875561
29.416661,1.877346039,2.315494537,0.436893463,0.021746159,-0.042269468,0.914588451
29.475753,-3.653964996,3.009769440,0.536075592,-0.001080990,-0.032503843,0.985877514
29.514173,-3.715000153,5.954715729,-0.348934174,0.019426823,-0.017855408,1.017493725
29.528397,-4.088840485,11.218997955,-2.256282806,0.004900455,-0.032137632,1.024207592
29.543711,-3.730258942,12.294742584,-2.965816498,-0.014020443,-0.020540955,1.025428295
29.582023,-3.699741364,8.930179596,0.383487701,-0.024274349,-0.047884703,0.978797436
29.620311,-4.073581696,11.539432526,-1.554378510,-0.037457943,-0.041414976,1.016395092
29.634571,-2.906284332,6.847354889,-0.135311127,-0.012677670,-0.034456968,1.025428295
29.649874,-2.578220367,6.473514557,-0.036128998,0.013445377,-0.034945250,1.029090405
29.688169,-1.998386383,5.855533600,-4.651912689,-0.026593685,-0.017855408,1.037269115
29.726449,-0.464878082,-4.512813568,-2.736934662,-0.007550716,-0.043856382,1.022620678
29.740686,-0.235996246,-3.673580170,-4.056819916,-0.011579037,-0.023470642,1.025550365
29.755989,1.579799652,-5.275753021,-4.682430267,-0.065656185,-0.045321226,1.023353100
29.794253,3.227748871,-12.180355072,-0.089534760,-0.065534115,-0.047274351,0.968787670
29.832537,-1.166782379,-13.874080658,0.688663483,-0.080548763,-0.046175718,0.985999584
29.846799,0.511684418,-14.957454681,3.213993073,-0.069928646,-0.030062439,0.985877514
29.862094,1.167812347,-13.362911224,4.053226471,-0.047223568,-0.040926695,0.977332592
29.900400,-3.119907379,2.262088776,0.146976471,-0.046369076,-0.030550720,1.011146069
29.938685,-1.677951813,6.259891510,3.442874908,0.015764713,-0.035677671,1.015662670
29.952926,-1.685581207,14.865848541,-1.943477631,0.026628971,-0.028963806,1.022498608
29.968208,-2.128086090,15.689823151,-3.934749603,-0.011579037,-0.051302671,1.023597240
30.006483,1.541652679,-1.125362396,4.236331940,-0.007428646,-0.040194273,1.014564037
30.044793,1.053371429,0.965091705,-2.027400970,-0.062116146,-0.051913023,0.992103100
30.059035,0.687160492,-3.986385345,1.016727448,-0.092023373,-0.061312437,0.982337475
30.074321,0.664272308,-9.815242767,6.570926666,-0.033429623,-0.044955015,0.976356030
30.126693,-0.876865387,5.016300201,-1.768001556,-0.047101498,-0.051302671,1.002723217
30.165131,-2.303562164,0.148746490,1.604190826,0.033098698,-0.048861265,0.998816967
30.179381,-2.898654938,3.086063385,-1.035579681,0.045794010,-0.029330017,1.017737865
30.194700,-1.136264801,4.627201080,-3.736385345,-0.010480404,-0.028963806,1.041785717
30.233010,-1.052341461,0.331851959,-0.646480560,-0.016217709,-0.057284117,0.972815990
30.271308,-0.617465973,-2.986934662,-1.073726654,-0.059308529,-0.040438414,1.020057201
30.285571,0.320949554,-4.993465424,0.391117096,-0.058942318,-0.043001890,1.007972240
30.300876,-0.182590485,-4.779842377,0.627628326,-0.043073177,-0.053744078,0.975867748
30.339168,-2.318820953,-4.642513275,1.634708405,-0.056745052,-0.049593687,1.016150951
30.377464,0.855007172,3.047916412,0.108829498,-0.013288021,-0.045565367,1.005774975
30.391702,-1.067600250,4.619571686,0.139347076,-0.038190365,-0.062411070,0.987220287
30.406995,-1.662693024,3.208133698,0.917545319,-0.043317318,-0.053499937,1.001868725
30.445253,0.641384125,1.689884186,1.291385651,0.017717838,-0.046786070,1.013465405
30.483538,-0.190219879,1.338932037,-0.463375092,-0.030866146,-0.056429625,1.004676342
30.497800,-0.014743805,-0.995662689,0.993839264,-0.020001888,-0.047274351,1.009192944
30.513088,0.809230804,0.575992584,-0.165828705,0.026018620,-0.036898375,1.006019115
30.551388,-0.586948395,4.123661041,-3.095516205,-0.074079037,-0.061800718,0.970496655
30.589684,-2.372226715,3.284427643,-1.264461517,0.005266666,-0.037874937,0.991248608
30.603929,-2.349338531,6.435367584,-3.698238373,-0.008893490,-0.039705992,0.994666576
30.619221,-2.402744293,5.542728424,-3.095516205,-0.082013607,-0.062533140,0.981360912
30.672434,-4.538974762,-0.598934174,1.535526276,-0.014264584,-0.055575132,1.015784740
30.710854,-0.609836578,1.201602936,-0.654109955,-0.027936459,-0.048495054,1.045569897
30.741925,-0.884494781,1.666996002,-0.532039642,-0.006940365,-0.059115171,1.015418530
30.756247,-1.395664215,2.605411530,-1.302608490,-0.003278255,-0.058504820,1.030066967
30.794405,2.907314301,-0.240352631,-2.256282806,-0.062238216,-0.050081968,1.035560131
30.832709,0.786342621,-1.926448822,-0.539669037,-0.041364193,-0.054598570,0.995398998
30.846953,1.244106293,-1.628902435,-0.860103607,-0.045026302,-0.044710875,1.002112865
30.862238,1.480617523,-4.741695404,0.017276764,-0.066876888,-0.066195250,1.012610912
30.862995,1.480617523,-4.741695404,0.017276764,-0.066876888,-0.066195250,1.012610912
30.863576,1.480617523,-4.741695404,0.017276764,-0.066876888,-0.066195250,1.012610912
30.864202,1.480617523,-4.741695404,0.017276764,-0.066876888,-0.066195250,1.012610912
30.864791,1.480617523,-4.741695404,0.017276764,-0.066876888,-0.066195250,1.012610912
30.865398,1.480617523,-4.741695404,0.017276764,-0.066876888,-0.066195250,1.012610912
30.865979,1.480617523,-4.741695404,0.017276764,-0.066876888,-0.066195250,1.012610912
30.866593,1.480617523,-4.741695404,0.017276764,-0.066876888,-0.066195250,1.012610912
30.867181,1.480617523,-4.741695404,0.017276764,-0.066876888,-0.066195250,1.012610912
30.905294,2.701320648,-8.861568451,2.412906647,-0.065412045,-0.050204039,1.025062084
30.943624,3.387966156,-5.794551849,4.968753815,-0.030622005,-0.064974546,1.011023998
30.957863,3.197231293,0.972721100,1.779666901,0.003801823,-0.025789978,1.012488842
30.973146,4.372158051,3.765079498,1.405826569,-0.008038998,-0.043612242,0.996985912
31.011413,1.480617523,11.035892487,0.459781647,0.005266666,-0.042635679,0.968665600
31.049719,-1.693210602,15.712711334,-3.301509857,0.003191471,-0.040438414,0.975867748
31.063973,-1.250705719,14.797183990,-3.736385345,-0.005109310,-0.040194273,0.976356030
31.079268,-2.471408844,9.021732330,-3.438838959,-0.021344662,-0.059481382,0.986609936
31.117552,-0.457248688,-6.565120697,-2.324947357,-0.033917904,-0.044466734,1.049598217
31.155849,2.533473969,-9.700801849,-1.973995209,-0.050763607,-0.042269468,1.048377514
31.170090,3.311672211,-9.624507904,-1.493343353,-0.055402279,-0.043001890,1.045691967
31.185384,4.257717133,-9.410884857,-1.150020599,-0.053327084,-0.036776304,1.041785717
31.186142,5.157985687,-9.204891205,-1.188167572,-0.054791927,-0.042879820,1.036292553
31.186728,5.157985687,-9.204891205,-1.188167572,-0.054791927,-0.042879820,1.036292553
31.187345,5.157985687,-9.204891205,-1.188167572,-0.054791927,-0.042879820,1.036292553
31.187929,5.157985687,-9.204891205,-1.188167572,-0.054791927,-0.042879820,1.036292553
31.188551,5.157985687,-9.204891205,-1.188167572,-0.054791927,-0.042879820,1.036292553
31.189141,5.157985687,-9.204891205,-1.188167572,-0.054791927,-0.042879820,1.036292553
31.189784,5.157985687,-9.204891205,-1.188167572,-0.054791927,-0.042879820,1.036292553
31.190358,5.157985687,-9.204891205,-1.188167572,-0.054791927,-0.042879820,1.036292553
31.190982,5.157985687,-9.204891205,-1.188167572,-0.054791927,-0.042879820,1.036292553
31.191571,5.157985687,-9.204891205,-1.188167572,-0.054791927,-0.042879820,1.036292553
31.192202,5.157985687,-9.204891205,-1.188167572,-0.054791927,-0.042879820,1.036292553
31.192797,5.157985687,-9.204891205,-1.188167572,-0.054791927,-0.042879820,1.036292553
31.193422,5.157985687,-9.204891205,-1.188167572,-0.054791927,-0.042879820,1.036292553
31.194004,5.157985687,-9.204891205,-1.188167572,-0.054791927,-0.042879820,1.036292553
31.194633,5.157985687,-9.204891205,-1.188167572,-0.054791927,-0.042879820,1.036292553
31.195218,5.157985687,-9.204891205,-1.188167572,-0.054791927,-0.042879820,1.036292553
31.195847,5.180873871,-8.640316010,-0.936397552,-0.054791927,-0.050936460,1.031165600
31.196429,5.180873871,-8.640316010,-0.936397552,-0.054791927,-0.050936460,1.031165600
31.197060,5.180873871,-8.640316010,-0.936397552,-0.054791927,-0.050936460,1.031165600
31.235119,4.936733246,-5.489376068,-0.181087494,-0.053571224,-0.036654234,1.021033764
31.289267,4.227199554,3.169986725,-0.265010834,-0.045758724,-0.026644470,1.001014233
31.303598,4.761257172,4.100772858,-0.265010834,-0.039899349,-0.038241148,0.990882397
31.318915,3.288784027,7.289859772,-0.577816010,-0.032941341,-0.041537046,0.974280834
31.357215,0.961818695,8.213016510,-1.073726654,-0.040143490,-0.038851500,0.985877514
31.395506,1.892604828,2.773258209,-0.936397552,-0.016583920,-0.026156189,1.016639233
31.427003,2.357997894,0.987979889,-1.386531830,-0.032697201,-0.028109314,1.012855053
31.441354,2.785243988,0.820133209,-1.569637299,-0.039411068,-0.028719665,1.010047436
31.479551,2.731838226,-0.309017181,-1.088985443,-0.048810482,-0.035311460,0.968299389
31.517848,-0.373325348,0.080081940,-0.440486908,-0.055402279,-0.037874937,0.955848217
31.532066,-1.128635406,0.659915924,-0.387081146,-0.057477474,-0.036043882,0.961585522
31.547354,-2.105197906,1.666996002,-0.188716888,-0.059064388,-0.034579039,0.981482983
31.585614,-1.601657867,1.369449615,0.650516510,-0.054425716,-0.028719665,1.037269115
31.623884,1.076259613,2.704593658,0.299564362,-0.035993099,-0.021761658,1.052283764
31.638116,1.762905121,3.070804596,0.131717682,-0.036359310,-0.030306580,1.044349194
31.653429,2.159633636,3.711673737,-0.226863861,-0.030499935,-0.023958923,1.028235912
31.691692,2.808132172,1.178714752,-0.631221771,-0.036481380,-0.036288023,0.990027905
31.730014,0.755825043,-5.138423920,-0.387081146,-0.048810482,-0.043612242,0.944251537
31.744265,-1.769504547,-5.062129974,0.513187408,-0.059186459,-0.039461851,0.954871655
31.759571,-2.425632477,-3.963497162,0.673404694,-0.061261654,-0.036288023,0.965003490
31.797833,-2.326450348,1.186344147,-0.120052338,-0.050275326,-0.033358335,1.028235912
31.836125,-0.014743805,3.185245514,0.757328033,-0.054669857,-0.028719665,1.057654858
31.850383,0.313320160,4.779788971,0.452152252,-0.048810482,-0.027132751,1.053870678
31.865692,1.976528168,6.694766998,0.223270416,-0.042829037,-0.023958923,1.038489819
31.903999,3.113307953,2.803775787,2.481571198,-0.067121029,-0.070223570,0.990027905
31.942278,0.145473480,7.846805573,0.970951080,-0.051496029,-0.027865173,0.964759350
31.956520,-1.388034821,10.677310944,0.673404694,-0.056256771,-0.017367126,0.966834545
31.971834,-0.808200836,15.018436432,-0.791439056,-0.035871029,-0.037997007,0.983314037
32.010102,-3.081760406,13.217899323,-1.302608490,-0.051373959,-0.021273376,1.019202709
32.048420,-0.808200836,3.124210358,0.047794342,-0.072125912,-0.029330017,1.036780834
32.080111,1.549282074,-2.071407318,0.276676178,-0.072736263,-0.039705992,1.024085522
32.094449,1.427211761,-3.414180756,0.619998932,-0.072614193,-0.033114195,1.014319897
32.132637,1.915493011,2.483341217,-0.493892670,-0.063458920,-0.043856382,0.985999584
32.170905,-0.724277496,6.275150299,-1.218685150,-0.087750912,-0.035677671,0.988318920
32.185155,-0.991306305,6.053897858,-0.638851166,-0.094220638,-0.033480406,0.994178295
32.200450,-0.701389313,4.283878326,-0.173458099,-0.094953060,-0.035921812,1.004065990
32.238710,-0.174961090,-1.834896088,1.031986237,-0.090558529,-0.030062439,1.021033764
32.277033,0.816860199,-5.718257904,1.535526276,-0.062970638,-0.025545837,1.025916576
32.291285,0.992336273,-2.132442474,0.459781647,-0.054913998,-0.031893492,1.016517162
32.306594,0.732936859,-0.606563568,-0.028499603,-0.053327084,-0.029818298,1.013221264
32.344854,0.351467133,1.758548737,-1.371273041,-0.071027279,-0.033114195,0.998450756
32.383145,-0.113925934,-5.916622162,0.017276764,-0.086896420,-0.036410093,0.991492748
32.397394,-0.182590485,-7.053401947,0.406375885,-0.087506771,-0.033968687,0.996741772
32.412723,-0.525913239,-6.565120697,1.176944733,-0.082257748,-0.035921812,1.004676342
32.451011,-0.335178375,-0.659969330,0.223270416,-0.068463802,-0.031527281,1.019324780
32.489312,0.496425629,-0.263240814,-0.028499603,-0.067487240,-0.033480406,1.016761303
32.503567,0.549831390,-1.255062103,0.185123444,-0.067731380,-0.033724546,1.016273022
32.518877,0.656642914,-1.331356049,0.314823151,-0.067121029,-0.031283140,1.012122631
32.557143,0.755825043,2.696964264,-0.486263275,-0.069318295,-0.031039001,1.002845287
32.607181,-0.052890778,-4.093196869,0.734439850,-0.067121029,-0.035311460,0.994544506
32.621496,-0.174961090,-4.390743256,0.795475006,-0.062360287,-0.031039001,1.000892162
32.636826,-0.274143219,-3.406551361,0.459781647,-0.060285091,-0.031405210,1.005286694
32.675106,-0.396213531,-0.942256927,-0.165828705,-0.061505795,-0.032625914,1.018592358
32.713434,0.351467133,0.957462311,-0.539669037,-0.070294857,-0.031771421,1.016517162
32.740788,0.793972015,-0.888851166,0.085941315,-0.072858334,-0.031893492,1.011512280
32.755144,0.900783539,-1.377132416,0.360599518,-0.072736263,-0.033602476,1.007606030
32.793306,0.587978363,-1.277950287,0.566593170,-0.063336849,-0.034823179,0.995887280
32.831629,-0.121555328,-1.155879974,0.276676178,-0.055402279,-0.033480406,0.997718334
32.845870,-0.365695953,-0.926998138,0.108829498,-0.054303646,-0.031527281,1.000403881
32.861153,-0.434360504,-1.056697845,-0.120052338,-0.054303646,-0.031527281,1.007361889
32.899422,-0.052890778,-1.636531830,-0.341304779,-0.062238216,-0.031039001,1.018714428
32.937721,0.664272308,-3.124263763,0.124088287,-0.066022396,-0.033236265,1.014075756
32.951970,0.641384125,-2.849605560,0.208011627,-0.066388607,-0.032137632,1.012366772
32.967246,0.671901703,-0.705745697,0.101200104,-0.066876888,-0.032625914,1.006507397
33.005507,0.137844086,2.963993073,-0.005611420,-0.065778255,-0.032381773,1.001136303
33.043832,-0.136814117,2.254459381,0.368228912,-0.062604427,-0.033480406,0.997596264
33.058075,-0.098667145,0.438663483,0.543704987,-0.057477474,-0.031649351,1.002845287
33.085480,-0.228366852,-1.995113373,0.673404694,-0.051862240,-0.032992125,1.007361889
33.123894,0.122585297,-0.446346283,-0.142940521,-0.049542904,-0.031649351,1.013587475
33.162220,0.458278656,0.034305573,-0.638851166,-0.059918880,-0.033846617,1.009803295
33.176455,0.381984711,-1.544979095,-0.318416595,-0.065289974,-0.031161072,1.007483959
33.191775,0.595607758,-2.079036713,-0.120052338,-0.066632748,-0.030916931,1.006507397
33.230054,0.252285004,-1.804378510,0.330081940,-0.066022396,-0.031405210,1.001014233
33.268356,-0.304660797,-0.270870209,0.398746490,-0.059674740,-0.032870054,1.003333569
33.282607,-0.258884430,0.217411041,0.322452545,-0.058454037,-0.032137632,1.005530834
33.297942,-0.327548981,1.041385651,0.223270416,-0.054669857,-0.031405210,1.009681225
33.336213,0.015773773,-0.820186615,0.200382233,-0.052716732,-0.030428650,1.015296459
33.386969,0.381984711,-2.117183685,0.085941315,-0.056867123,-0.030672790,1.008582592
33.401306,0.465908051,-1.445796967,-0.051387787,-0.056378841,-0.030306580,1.008094311
33.416633,0.465908051,-0.804927826,-0.081905365,-0.057599545,-0.033358335,1.004554272
33.454895,0.053920746,-2.361324310,0.131717682,-0.058087826,-0.032015562,1.000403881
33.493228,-0.274143219,-1.750972748,0.406375885,-0.055890560,-0.031405210,1.004188061
33.507455,-0.121555328,-1.537349701,0.352970123,-0.052960873,-0.028597595,1.006263256
33.522738,-0.030002594,-2.544429779,0.459781647,-0.049054623,-0.034945250,1.007361889
33.561021,-0.091037750,-3.101375580,0.475040436,-0.045026302,-0.032015562,1.010413647
33.599317,0.198879242,0.858280182,-0.409969330,-0.050763607,-0.030916931,1.013953686
33.613575,0.458278656,0.225040436,-0.234493256,-0.051129818,-0.033358335,1.009070873
33.628867,0.397243500,-0.644710541,-0.043758392,-0.053082943,-0.033968687,1.009070873
33.667149,0.267543793,2.422306061,-0.173458099,-0.056256771,-0.031771421,1.007728100
33.705455,0.053920746,3.803226471,-0.013240814,-0.059674740,-0.034945250,0.999549389
33.719689,-0.068149567,2.872440338,0.276676178,-0.057721615,-0.032503843,1.000281811
33.734986,0.084438324,0.675174713,0.528446198,-0.053815365,-0.033358335,1.001746655
33.773238,0.175991058,-1.438167572,0.467411041,-0.041242123,-0.030184509,1.006629467
33.811526,0.130214691,-1.354244232,-0.226863861,-0.042829037,-0.031161072,1.006995678
33.825786,0.122585297,-1.049068451,-0.463375092,-0.043805599,-0.031039001,1.008094311
33.841060,0.221767426,-1.171138763,-0.638851166,-0.049542904,-0.032747984,1.006751537
33.879342,0.298061371,-3.986385345,-0.089534760,-0.056622982,-0.033480406,1.004188061
33.931338,-0.030002594,2.002689362,-0.181087494,-0.058820248,-0.032503843,1.007728100
33.945654,-0.037631989,2.796146393,-0.127681732,-0.058698177,-0.032992125,1.007972240
33.960994,-0.030002594,2.361270905,0.253787994,-0.057355404,-0.033358335,1.007239819
33.999275,0.237026215,0.057193756,0.719181061,-0.046857357,-0.032625914,1.010779858
34.055460,0.359096527,0.644657135,-0.142940521,-0.040265560,-0.031527281,1.004798412
34.069809,0.313320160,0.072452545,-0.303157806,-0.043683529,-0.032015562,1.002234936
34.085154,0.366725922,-0.576045990,-0.402339935,-0.045270443,-0.031405210,1.001258373
34.123421,0.153102875,-4.192378998,0.063053131,-0.048810482,-0.031649351,1.000525951
34.161727,-0.350437164,-1.781490326,0.085941315,-0.051496029,-0.033602476,1.009437084
34.175970,-0.457248688,0.102970123,-0.074275970,-0.052350521,-0.031405210,1.011756420
34.191267,-0.098667145,3.559085846,-0.585445404,-0.057721615,-0.029330017,1.017127514
34.229551,0.481166840,-0.064876556,0.604740143,-0.058576107,-0.034334898,1.010169506
34.267842,0.549831390,2.971622467,0.467411041,-0.048078060,-0.030306580,1.008338451
34.282086,0.389614105,4.955265045,0.078311920,-0.047345638,-0.032137632,1.007117748
34.297399,0.343837738,6.191226959,-0.142940521,-0.046491146,-0.032137632,1.003333569
34.335669,0.137844086,2.819034576,-0.028499603,-0.050031185,-0.035677671,1.000159740
34.373982,0.084438324,-3.520992279,0.352970123,-0.044415951,-0.031893492,0.998450756
34.388217,0.000514984,-5.588558197,0.619998932,-0.043195248,-0.032992125,1.003333569
34.403524,-0.106296539,-5.466487885,0.375858307,-0.042462826,-0.031893492,1.006019115
34.404293,-0.106296539,-5.466487885,0.375858307,-0.042462826,-0.031893492,1.006019115
34.404872,-0.106296539,-5.466487885,0.375858307,-0.042462826,-0.031893492,1.006019115
34.405490,-0.106296539,-5.466487885,0.375858307,-0.042462826,-0.031893492,1.006019115
34.406075,-0.106296539,-5.466487885,0.375858307,-0.042462826,-0.031893492,1.006019115
34.406694,-0.106296539,-5.466487885,0.375858307,-0.042462826,-0.031893492,1.006019115
34.407272,-0.190219879,-4.322078705,0.154605865,-0.043195248,-0.032015562,1.009315014
34.407897,-0.190219879,-4.322078705,0.154605865,-0.043195248,-0.032015562,1.009315014
34.408479,-0.190219879,-4.322078705,0.154605865,-0.043195248,-0.032015562,1.009315014
34.409109,-0.190219879,-4.322078705,0.154605865,-0.043195248,-0.032015562,1.009315014
34.409691,-0.190219879,-4.322078705,0.154605865,-0.043195248,-0.032015562,1.009315014
34.410313,-0.190219879,-4.322078705,0.154605865,-0.043195248,-0.032015562,1.009315014
34.410894,-0.190219879,-4.322078705,0.154605865,-0.043195248,-0.032015562,1.009315014
34.411518,-0.190219879,-4.322078705,0.154605865,-0.043195248,-0.032015562,1.009315014
34.412106,-0.190219879,-4.322078705,0.154605865,-0.043195248,-0.032015562,1.009315014
34.412733,-0.190219879,-4.322078705,0.154605865,-0.043195248,-0.032015562,1.009315014
34.413306,-0.190219879,-4.322078705,0.154605865,-0.043195248,-0.032015562,1.009315014
34.413931,-0.190219879,-4.322078705,0.154605865,-0.043195248,-0.032015562,1.009315014
34.414513,-0.190219879,-4.322078705,0.154605865,-0.043195248,-0.032015562,1.009315014
34.415143,-0.190219879,-4.322078705,0.154605865,-0.043195248,-0.032015562,1.009315014
34.453174,0.282802582,0.438663483,-0.951656342,-0.052594662,-0.031283140,1.012122631
34.491464,0.412502289,-3.894832611,0.337711334,-0.060285091,-0.033602476,1.008826733
34.505697,0.404872894,-3.093746185,0.482669830,-0.059186459,-0.033114195,1.008826733
34.521008,0.397243500,-0.461605072,0.269046783,-0.056745052,-0.031405210,1.006629467
34.559285,0.031032562,1.567813873,0.291934967,-0.051373959,-0.033236265,1.002234936
34.597619,0.008144379,1.094791412,0.429264069,-0.047955990,-0.032870054,1.004188061
34.611864,0.000514984,0.781986237,0.375858307,-0.044415951,-0.032992125,1.005897045
34.627155,0.069179535,-0.041988373,0.314823151,-0.043317318,-0.031527281,1.008948803
34.665422,0.343837738,-2.262142181,0.078311920,-0.040631771,-0.031405210,1.007117748
34.732590,0.122585297,-5.336788177,0.192752838,-0.044171810,-0.032870054,0.999793530
34.746948,-0.152072906,-3.650691986,-0.013240814,-0.044660091,-0.035189390,1.003089428
34.762287,-0.396213531,-2.101924896,-0.120052338,-0.046002865,-0.033236265,1.007361889
34.800590,-0.243625641,3.337833405,-0.455745697,-0.055158138,-0.033358335,1.016395092
34.838894,0.595607758,1.445743561,0.505558014,-0.054425716,-0.034212828,1.011390209
34.853151,0.633754730,0.469181061,0.825992584,-0.051618099,-0.033114195,1.010169506
34.868437,0.847377777,-0.080135345,0.940433502,-0.043195248,-0.031771421,1.007728100
34.906698,0.496425629,2.300235748,0.024906158,-0.032575130,-0.030184509,0.997596264
34.945029,-0.327548981,1.544925690,-0.532039642,-0.039899349,-0.032747984,0.995765209
34.959285,-0.403842926,0.858280182,-0.448116302,-0.042340755,-0.032381773,0.998939037
34.974561,-0.350437164,-0.865962982,-0.379451752,-0.047101498,-0.032015562,1.005286694
35.012835,-0.037631989,-3.482845306,0.116458893,-0.049420834,-0.031771421,1.012977123
35.051142,0.336208344,-2.399471283,0.169864655,-0.049542904,-0.032870054,1.009681225
35.065399,0.366725922,-0.835445404,0.131717682,-0.049054623,-0.032137632,1.010413647
35.080713,0.259914398,0.408145905,0.047794342,-0.048444271,-0.032992125,1.011023998
35.119008,0.305690765,3.963443756,-0.150569916,-0.050275326,-0.034334898,1.005774975
35.157300,0.298061371,-0.453975677,0.619998932,-0.045636654,-0.035189390,1.000037670
35.171564,0.198879242,-1.064327240,0.650516510,-0.042951107,-0.032503843,1.000648022
35.186858,0.153102875,-0.194576263,0.345340729,-0.039899349,-0.030794861,1.002601147
35.225130,-0.037631989,2.162906647,-0.432857513,-0.042340755,-0.032625914,1.005774975
35.263436,0.282802582,-2.346065521,0.009647369,-0.046491146,-0.033846617,1.005774975
35.277682,0.259914398,-3.177669525,0.192752838,-0.046735287,-0.033114195,1.006385326
35.292992,0.275173187,-2.597835541,0.139347076,-0.047711849,-0.030672790,1.009315014
35.331275,0.153102875,1.300785065,-0.257381439,-0.051007748,-0.030672790,1.009437084
35.385372,0.282802582,-1.461055756,0.566593170,-0.048200130,-0.034090757,1.002845287
35.399715,0.206508636,-1.583126068,0.665775299,-0.046002865,-0.033602476,1.003577709
35.415075,0.084438324,-0.583675385,0.436893463,-0.043073177,-0.030428650,1.005652905
35.453349,-0.106296539,2.216312408,-0.272640228,-0.041608334,-0.032259703,1.008094311
35.491648,0.191249847,-0.247982025,-0.028499603,-0.047955990,-0.032137632,1.006751537
35.505887,0.237026215,-0.728633881,0.055423737,-0.047589779,-0.032503843,1.008094311
35.521173,0.404872894,-1.010921478,0.063053131,-0.049298763,-0.033236265,1.004065990
35.559442,0.351467133,-1.613643646,0.208011627,-0.046491146,-0.032625914,1.002967358
35.597729,-0.075778961,-1.079586029,0.169864655,-0.044904232,-0.032503843,1.003211498
35.611972,-0.205478668,1.834842682,-0.219234467,-0.047589779,-0.032015562,1.009070873
35.627275,-0.258884430,3.162357330,-0.432857513,-0.047589779,-0.031771421,1.010169506
35.665563,0.175991058,0.209781647,0.169864655,-0.051007748,-0.032381773,1.010535717
35.703851,0.450649261,-2.880123138,0.719181061,-0.043927670,-0.032137632,1.005652905
35.718084,0.420131683,-1.544979095,0.475040436,-0.040753841,-0.030672790,1.006263256
35.733392,0.237026215,1.598331451,-0.219234467,-0.041120052,-0.033358335,1.004554272
35.734152,0.237026215,1.598331451,-0.219234467,-0.041120052,-0.033358335,1.004554272
35.734738,0.237026215,1.598331451,-0.219234467,-0.041120052,-0.033358335,1.004554272
35.735362,0.237026215,1.598331451,-0.219234467,-0.041120052,-0.033358335,1.004554272
35.735943,0.237026215,1.598331451,-0.219234467,-0.041120052,-0.033358335,1.004554272
35.774065,-0.068149567,2.513858795,-0.432857513,-0.049787045,-0.034334898,1.003089428
35.812361,0.015773773,0.644657135,0.131717682,-0.053449154,-0.035189390,1.006629467
35.826601,-0.022373199,0.331851959,0.208011627,-0.053082943,-0.032015562,1.006995678
35.841941,0.290431976,-0.072505951,0.368228912,-0.050397396,-0.033114195,1.007239819
35.880201,0.397243500,-0.003841400,0.208011627,-0.044293880,-0.032747984,1.006507397
35.918497,0.244655609,-0.751522064,0.070682526,-0.043073177,-0.033236265,1.003455639
35.949793,0.122585297,-0.110652924,-0.265010834,-0.045636654,-0.032137632,1.005164623
35.964117,0.183620453,-0.492122650,-0.287899017,-0.046369076,-0.033724546,1.003455639
36.002273,0.130214691,-2.269771576,0.085941315,-0.051129818,-0.032259703,1.007728100
36.056633,0.122585297,1.590702057,-0.135311127,-0.052350521,-0.030672790,1.010413647
36.070967,0.183620453,1.506778717,0.108829498,-0.052350521,-0.033602476,1.008826733
36.086327,0.229396820,1.071903229,0.253787994,-0.051373959,-0.031893492,1.009437084
36.124611,0.313320160,1.247379303,0.246158600,-0.047345638,-0.031161072,1.006263256
36.162914,0.214138031,0.865909576,0.108829498,-0.043439388,-0.031649351,1.000648022
36.177160,0.153102875,-0.209835052,0.047794342,-0.043561459,-0.033602476,0.999793530
36.192451,0.076808929,-0.995662689,0.047794342,-0.042340755,-0.031161072,1.001624584
36.230711,-0.106296539,-2.513912201,0.017276764,-0.043073177,-0.029574158,1.008094311
36.269042,-0.106296539,0.980350494,-0.509151459,-0.051251888,-0.031283140,1.010047436
36.283281,0.015773773,1.384708405,-0.432857513,-0.052350521,-0.031649351,1.010413647
36.298582,0.145473480,0.888797760,-0.196346283,-0.057233334,-0.032870054,1.010779858
36.336842,0.267543793,-0.713375092,0.688663483,-0.052838802,-0.033114195,1.008704662
36.375148,0.290431976,3.566715240,0.124088287,-0.047833920,-0.032992125,1.004554272
36.389389,0.114955902,4.398319244,-0.081905365,-0.046857357,-0.031039001,1.003943920
36.404716,0.168361664,3.673526764,-0.043758392,-0.046613216,-0.032747984,1.002112865
36.443018,0.107326508,-1.155879974,0.368228912,-0.043561459,-0.032381773,1.001990795
36.481323,0.076808929,-1.232173920,-0.112422943,-0.043439388,-0.033236265,1.004188061
36.495572,-0.068149567,-0.911739349,-0.326045990,-0.047467709,-0.030794861,1.007606030
36.510879,0.061550140,-0.934627533,-0.379451752,-0.048444271,-0.031161072,1.007972240
36.549167,0.252285004,-2.147701263,0.002017975,-0.054181576,-0.031649351,1.008826733
36.587457,0.221767426,0.072452545,0.085941315,-0.054791927,-0.032137632,1.006995678
36.601690,0.221767426,0.827762604,0.108829498,-0.053693295,-0.031893492,1.008094311
36.617003,0.214138031,1.377079010,0.154605865,-0.052350521,-0.033114195,1.004676342
36.655282,0.145473480,-0.804927826,0.513187408,-0.044660091,-0.032015562,1.005286694
36.718801,0.000514984,0.141117096,-0.249752045,-0.041730404,-0.031039001,1.007606030
36.733157,0.038661957,0.141117096,-0.280269623,-0.043439388,-0.032015562,1.007728100
36.748523,-0.007114410,-0.026729584,-0.333675385,-0.047589779,-0.031161072,1.008460522
36.786814,0.305690765,-2.002742767,0.070682526,-0.051129818,-0.031893492,1.005774975
36.825122,0.099697113,-1.033809662,0.253787994,-0.050031185,-0.033602476,1.003943920
36.839371,0.038661957,0.286075592,0.192752838,-0.050275326,-0.031161072,1.006263256
36.854665,-0.075778961,2.994510651,-0.142940521,-0.049787045,-0.032503843,1.009192944
36.892926,0.191249847,1.033756256,0.208011627,-0.048932552,-0.032625914,1.006995678
36.931229,0.229396820,-2.376583099,0.688663483,-0.042218685,-0.032259703,1.006263256
36.945465,0.267543793,-1.316097260,0.322452545,-0.039899349,-0.030672790,1.009315014
36.960776,0.237026215,-0.156429291,-0.013240814,-0.039777279,-0.031893492,1.006873608
36.999040,0.099697113,1.071903229,-0.509151459,-0.046979427,-0.032503843,1.005897045
37.037342,0.137844086,-1.689937592,0.116458893,-0.052106380,-0.033114195,1.004065990
37.051585,0.137844086,-0.644710541,0.108829498,-0.053449154,-0.031771421,1.007728100
37.066877,0.076808929,0.476810455,0.032535553,-0.052106380,-0.032503843,1.007606030
37.105167,0.099697113,1.430484772,0.307193756,-0.050397396,-0.035677671,1.005530834
37.143452,0.069179535,0.171634674,0.185123444,-0.044415951,-0.032625914,1.006019115
37.157688,0.076808929,0.728580475,0.040164948,-0.045148373,-0.029574158,1.007117748
37.172998,0.305690765,0.820133209,-0.158199310,-0.045026302,-0.032747984,1.005408764
37.211259,0.237026215,-3.963497162,0.398746490,-0.043683529,-0.034456968,1.001868725
37.249560,-0.060520172,-0.392940521,-0.211605072,-0.046369076,-0.030672790,1.006263256
37.276777,0.099697113,2.384159088,-0.684627533,-0.053327084,-0.034334898,1.007117748
37.291100,0.031032562,-0.614192963,-0.059017181,-0.054913998,-0.034212828,1.005408764
37.329279,0.183620453,-1.819637299,0.497928619,-0.052594662,-0.032259703,1.012000561
37.381894,0.374355316,0.949832916,0.124088287,-0.046247005,-0.032381773,1.003089428
37.396206,0.343837738,-0.301387787,0.269046783,-0.045758724,-0.033968687,1.001380444
37.411545,0.122585297,-1.796749115,0.459781647,-0.041730404,-0.032747984,1.004676342
37.449823,-0.007114410,1.628849030,-0.371822357,-0.043073177,-0.031039001,1.005897045
37.488132,-0.007114410,0.522586823,-0.295528412,-0.048322201,-0.032381773,1.004676342
37.502364,0.092067719,-1.094844818,-0.013240814,-0.051373959,-0.033602476,1.007483959
37.517653,0.053920746,-1.438167572,0.108829498,-0.050885677,-0.032992125,1.008338451
37.555914,0.198879242,1.186344147,-0.020870209,-0.051862240,-0.028963806,1.011146069
37.594228,0.191249847,-1.903560638,0.551334381,-0.046979427,-0.032747984,1.002479076
37.608459,0.267543793,-1.827266693,0.520816803,-0.042951107,-0.032137632,1.004310131
37.623749,0.122585297,-0.812557220,0.345340729,-0.042951107,-0.033724546,1.005530834
37.624505,0.122585297,-0.812557220,0.345340729,-0.042951107,-0.033724546,1.005530834
37.625100,0.122585297,-0.812557220,0.345340729,-0.042951107,-0.033724546,1.005530834
37.625720,0.122585297,-0.812557220,0.345340729,-0.042951107,-0.033724546,1.005530834
37.626299,0.122585297,-0.812557220,0.345340729,-0.042951107,-0.033724546,1.005530834
37.626917,0.122585297,-0.812557220,0.345340729,-0.042951107,-0.033724546,1.005530834
37.627492,0.122585297,-0.812557220,0.345340729,-0.042951107,-0.033724546,1.005530834
37.628117,0.122585297,-0.812557220,0.345340729,-0.042951107,-0.033724546,1.005530834
37.628692,-0.014743805,0.354740143,0.078311920,-0.041974545,-0.031039001,1.005897045
37.629315,-0.014743805,0.354740143,0.078311920,-0.041974545,-0.031039001,1.005897045
37.629886,-0.014743805,0.354740143,0.078311920,-0.041974545,-0.031039001,1.005897045
37.630502,-0.014743805,0.354740143,0.078311920,-0.041974545,-0.031039001,1.005897045
37.631081,-0.014743805,0.354740143,0.078311920,-0.041974545,-0.031039001,1.005897045
37.631698,-0.014743805,0.354740143,0.078311920,-0.041974545,-0.031039001,1.005897045
37.632279,-0.014743805,0.354740143,0.078311920,-0.041974545,-0.031039001,1.005897045
37.632887,-0.014743805,0.354740143,0.078311920,-0.041974545,-0.031039001,1.005897045
37.633468,-0.014743805,0.354740143,0.078311920,-0.041974545,-0.031039001,1.005897045
37.671594,-0.045261383,1.422855377,-0.356563568,-0.045758724,-0.032625914,1.004310131
37.709887,0.259914398,-2.849605560,0.307193756,-0.047101498,-0.031527281,1.007361889
37.724111,0.366725922,-2.964046478,0.291934967,-0.046369076,-0.030916931,1.006995678
37.739419,0.259914398,-2.300289154,0.269046783,-0.045880795,-0.033480406,1.004065990
37.777677,0.084438324,1.461002350,-0.265010834,-0.048200130,-0.033602476,1.006629467
37.816002,0.061550140,1.804325104,-0.135311127,-0.051984310,-0.031161072,1.005897045
37.830239,0.183620453,0.003787994,0.307193756,-0.050275326,-0.033968687,1.005530834
37.845549,0.298061371,-1.194026947,0.520816803,-0.047467709,-0.032381773,1.004554272
37.883820,0.137844086,-0.576045990,0.314823151,-0.041242123,-0.030672790,1.010535717
37.922124,0.114955902,2.567264557,-0.455745697,-0.043927670,-0.031527281,1.004188061
37.936373,0.137844086,1.293155670,-0.287899017,-0.045270443,-0.034090757,1.002723217
37.951669,0.313320160,-1.918819427,0.063053131,-0.046857357,-0.033480406,1.004798412
37.952419,0.313320160,-1.918819427,0.063053131,-0.046857357,-0.033480406,1.004798412
37.953018,0.313320160,-1.918819427,0.063053131,-0.046857357,-0.033480406,1.004798412
37.953636,0.313320160,-1.918819427,0.063053131,-0.046857357,-0.033480406,1.004798412
37.954222,0.313320160,-1.918819427,0.063053131,-0.046857357,-0.033480406,1.004798412
37.954833,0.313320160,-1.918819427,0.063053131,-0.046857357,-0.033480406,1.004798412
37.955423,0.313320160,-1.918819427,0.063053131,-0.046857357,-0.033480406,1.004798412
38.005690,0.069179535,0.720951080,-0.112422943,-0.045148373,-0.032625914,1.006019115
38.056376,0.160732269,-0.659969330,0.253787994,-0.048322201,-0.031771421,1.005652905
38.070690,0.153102875,-0.217464447,0.169864655,-0.049542904,-0.032870054,1.008460522
38.086032,0.183620453,1.178714752,0.017276764,-0.047589779,-0.030428650,1.008948803
38.124305,0.237026215,0.621768951,0.154605865,-0.046002865,-0.033602476,1.005530834
38.162633,0.130214691,-0.446346283,0.230899811,-0.043439388,-0.032503843,1.003699780
38.176871,0.168361664,0.774356842,-0.081905365,-0.043195248,-0.031039001,1.004920483
38.192160,0.198879242,0.949832916,-0.211605072,-0.043195248,-0.031893492,1.003455639
38.230429,0.053920746,-1.262691498,0.009647369,-0.044904232,-0.031771421,1.006751537
38.268726,0.053920746,-0.698116302,0.002017975,-0.047711849,-0.033602476,1.006629467
38.282973,0.000514984,-0.316646576,-0.036128998,-0.047833920,-0.032137632,1.007483959
38.298274,0.183620453,0.705692291,-0.051387787,-0.049542904,-0.031649351,1.009437084
38.336553,0.244655609,0.598880768,0.131717682,-0.049054623,-0.032992125,1.006019115
38.374847,0.206508636,0.766727448,0.230899811,-0.046002865,-0.031771421,1.005774975
38.389082,0.221767426,1.193973541,0.108829498,-0.045270443,-0.032015562,1.006141186
38.404390,0.137844086,1.445743561,0.047794342,-0.045270443,-0.032137632,1.004432201
38.442657,0.160732269,-0.995662689,0.230899811,-0.042340755,-0.034701109,1.001990795
38.480956,-0.075778961,0.942203522,-0.257381439,-0.045880795,-0.030794861,1.006629467
38.495191,0.038661957,2.338382721,-0.478633881,-0.049298763,-0.031893492,1.008582592
38.510513,0.084438324,1.850101471,-0.425228119,-0.049787045,-0.033846617,1.006385326
38.548811,0.305690765,-1.895931244,0.360599518,-0.050641537,-0.032137632,1.010291576
38.587120,0.252285004,1.010868073,0.063053131,-0.047467709,-0.030916931,1.005774975
38.601374,0.275173187,1.514408112,-0.028499603,-0.048078060,-0.031283140,1.004432201
38.616672,0.130214691,0.766727448,0.040164948,-0.046369076,-0.035067320,1.002845287
38.617418,0.130214691,0.766727448,0.040164948,-0.046369076,-0.035067320,1.002845287
38.617999,0.130214691,0.766727448,0.040164948,-0.046369076,-0.035067320,1.002845287
38.618621,0.130214691,0.766727448,0.040164948,-0.046369076,-0.035067320,1.002845287
38.619189,0.130214691,0.766727448,0.040164948,-0.046369076,-0.035067320,1.002845287
38.619805,0.130214691,0.766727448,0.040164948,-0.046369076,-0.035067320,1.002845287
38.620369,0.130214691,0.766727448,0.040164948,-0.046369076,-0.035067320,1.002845287
38.620992,0.130214691,0.766727448,0.040164948,-0.046369076,-0.035067320,1.002845287
38.621560,0.130214691,0.766727448,0.040164948,-0.046369076,-0.035067320,1.002845287
38.622179,0.130214691,0.766727448,0.040164948,-0.046369076,-0.035067320,1.002845287
38.622758,0.046291351,0.011417389,0.169864655,-0.045880795,-0.032625914,1.002479076
38.623374,0.046291351,0.011417389,0.169864655,-0.045880795,-0.032625914,1.002479076
38.623941,0.046291351,0.011417389,0.169864655,-0.045880795,-0.032625914,1.002479076
38.662073,0.076808929,-0.537899017,0.139347076,-0.044782162,-0.032870054,1.006385326
38.714391,0.168361664,-1.277950287,0.040164948,-0.046735287,-0.033480406,1.004920483
38.728728,0.191249847,-1.758602142,0.108829498,-0.048322201,-0.032747984,1.006507397
38.744070,0.153102875,-1.178768158,0.078311920,-0.048444271,-0.031649351,1.008460522
38.782350,0.244655609,1.659366608,-0.196346283,-0.051984310,-0.032992125,1.004920483
38.820652,0.153102875,-1.171138763,0.391117096,-0.050153255,-0.033480406,1.001990795
38.834891,0.214138031,-1.651790619,0.475040436,-0.046369076,-0.032137632,1.004920483
38.850176,0.183620453,-1.064327240,0.360599518,-0.045636654,-0.032747984,1.006507397
38.888440,0.099697113,1.491519928,-0.196346283,-0.043195248,-0.032137632,1.007361889
38.926720,0.183620453,-2.498653412,0.276676178,-0.044415951,-0.034334898,1.003699780
38.940976,0.130214691,-1.987483978,0.093570709,-0.045270443,-0.030550720,1.008826733
38.956267,0.168361664,-0.789669037,-0.036128998,-0.046124935,-0.029207947,1.008948803
39.008442,0.153102875,0.781986237,-0.097164154,-0.052472591,-0.032137632,1.005652905
39.046851,0.290431976,-1.560237885,0.513187408,-0.049298763,-0.033358335,1.003089428
39.061100,0.130214691,-0.873592377,0.467411041,-0.045026302,-0.032625914,1.005897045
39.076421,0.114955902,0.125858307,0.337711334,-0.044293880,-0.031527281,1.006019115
39.114692,0.046291351,1.850101471,-0.127681732,-0.044049740,-0.032015562,1.006019115
39.153031,0.191249847,-1.850154877,0.276676178,-0.045026302,-0.034334898,1.003211498
39.167272,0.137844086,-1.903560638,0.238529205,-0.043805599,-0.033236265,1.006385326
39.182594,0.183620453,-0.377681732,-0.051387787,-0.045026302,-0.031283140,1.007239819
39.220864,0.206508636,0.392887115,-0.135311127,-0.049420834,-0.032503843,1.006629467
39.259181,0.160732269,-0.743892670,0.253787994,-0.048444271,-0.031893492,1.006995678
39.273411,0.183620453,0.217411041,0.124088287,-0.049176693,-0.030916931,1.008216381
39.288737,0.160732269,1.911136627,-0.051387787,-0.048444271,-0.032137632,1.005408764
39.327020,0.122585297,0.667545319,0.200382233,-0.048200130,-0.032381773,1.004920483
39.380341,0.160732269,0.377628326,-0.028499603,-0.043805599,-0.031161072,1.005286694
39.394669,0.221767426,0.621768951,-0.150569916,-0.043195248,-0.031161072,1.005042553
39.410004,0.099697113,-0.064876556,-0.104793549,-0.044538021,-0.032625914,1.005530834
39.448286,0.137844086,-0.652339935,-0.066646576,-0.048566341,-0.032015562,1.006873608
39.486613,0.061550140,0.453922272,-0.081905365,-0.050763607,-0.032870054,1.005286694
39.500855,0.061550140,0.522586823,0.002017975,-0.051007748,-0.032503843,1.006995678
39.516126,0.130214691,0.369998932,0.093570709,-0.051129818,-0.031649351,1.007239819
39.554408,0.168361664,0.919315338,0.146976471,-0.048078060,-0.031527281,1.008826733
39.592700,0.214138031,0.492069244,0.185123444,-0.045270443,-0.031405210,1.004676342
39.606964,0.191249847,0.110599518,0.169864655,-0.044660091,-0.031893492,1.005408764
39.622244,0.175991058,0.209781647,0.055423737,-0.043805599,-0.032015562,1.005286694
39.660504,0.168361664,-0.392940521,-0.043758392,-0.045392513,-0.032870054,1.003577709
39.698837,0.084438324,-0.576045990,-0.135311127,-0.048810482,-0.031527281,1.006629467
39.713078,0.092067719,0.041934967,-0.112422943,-0.050641537,-0.033236265,1.007606030
39.728356,-0.037631989,1.285526276,-0.173458099,-0.052838802,-0.031039001,1.008948803
39.766627,0.206508636,0.431034088,0.230899811,-0.053082943,-0.032870054,1.006629467
39.804910,0.313320160,-1.270320892,0.589481354,-0.048200130,-0.031893492,1.004310131
39.819167,0.275173187,-0.179317474,0.391117096,-0.045514584,-0.031405210,1.006873608
39.834443,0.237026215,0.812503815,0.139347076,-0.043073177,-0.031405210,1.006507397
39.872713,0.038661957,1.193973541,-0.249752045,-0.046247005,-0.031893492,1.006751537
39.911032,0.122585297,-0.156429291,-0.104793549,-0.050153255,-0.031771421,1.007728100
39.925280,0.198879242,-0.232723236,-0.066646576,-0.051862240,-0.031039001,1.008582592
39.940558,0.237026215,-0.171688080,-0.036128998,-0.052228451,-0.032870054,1.007117748
39.941317,0.237026215,-0.171688080,-0.036128998,-0.052228451,-0.032870054,1.007117748
39.941896,0.237026215,-0.171688080,-0.036128998,-0.052228451,-0.032870054,1.007117748
39.942517,0.237026215,-0.171688080,-0.036128998,-0.052228451,-0.032870054,1.007117748
39.943088,0.237026215,-0.171688080,-0.036128998,-0.052228451,-0.032870054,1.007117748
39.943706,0.237026215,-0.171688080,-0.036128998,-0.052228451,-0.032870054,1.007117748
39.944276,0.237026215,-0.171688080,-0.036128998,-0.052228451,-0.032870054,1.007117748
39.982392,0.137844086,1.750919342,-0.059017181,-0.054913998,-0.031649351,1.010047436
40.040559,0.191249847,0.804874420,0.337711334,-0.051862240,-0.033236265,1.004676342
40.054898,0.229396820,0.522586823,0.368228912,-0.049298763,-0.031405210,1.006141186
40.070245,0.175991058,1.186344147,0.208011627,-0.049542904,-0.032503843,1.006141186
40.108513,-0.022373199,3.711673737,-0.371822357,-0.052106380,-0.031527281,1.007483959
40.146847,0.175991058,2.338382721,-0.188716888,-0.059186459,-0.032992125,1.004188061
40.177964,0.015773773,1.239749908,0.185123444,-0.060407162,-0.032015562,1.010047436
40.192289,-0.014743805,1.903507233,0.421634674,-0.060529232,-0.033846617,1.011146069
40.230440,0.313320160,5.489322662,-0.432857513,-0.062726498,-0.032992125,1.010169506
40.268740,0.290431976,2.284976959,0.108829498,-0.063458920,-0.034212828,1.003211498
40.282991,-0.022373199,1.964542389,0.246158600,-0.063580990,-0.031649351,1.005652905
40.298331,0.107326508,2.223941803,0.154605865,-0.062482357,-0.029818298,1.006629467
40.336609,-0.152072906,4.238101959,-0.272640228,-0.066144466,-0.030184509,1.009681225
40.374905,0.084438324,3.185245514,-0.120052338,-0.070172787,-0.033602476,1.007606030
40.389164,0.084438324,1.628849030,0.032535553,-0.069684505,-0.034823179,1.008216381
40.404492,0.198879242,0.087711334,0.345340729,-0.070172787,-0.031039001,1.010779858
40.442783,-0.068149567,3.116580963,0.116458893,-0.067243099,-0.030916931,1.009803295
40.481092,0.122585297,5.809757233,-0.638851166,-0.075788021,-0.035189390,1.006263256
40.495351,0.046291351,5.046817780,-0.532039642,-0.080670834,-0.031527281,1.006019115
40.510673,0.244655609,3.475162506,-0.226863861,-0.082379818,-0.035189390,1.005286694
40.511426,0.244655609,3.475162506,-0.226863861,-0.082379818,-0.035189390,1.005286694
40.511998,0.153102875,2.094242096,0.177494049,-0.081159115,-0.036288023,1.003577709
40.512623,0.153102875,2.094242096,0.177494049,-0.081159115,-0.036288023,1.003577709
40.513199,0.153102875,2.094242096,0.177494049,-0.081159115,-0.036288023,1.003577709
40.513812,0.153102875,2.094242096,0.177494049,-0.081159115,-0.036288023,1.003577709
40.514393,0.153102875,2.094242096,0.177494049,-0.081159115,-0.036288023,1.003577709
40.515022,0.153102875,2.094242096,0.177494049,-0.081159115,-0.036288023,1.003577709
40.515605,0.153102875,2.094242096,0.177494049,-0.081159115,-0.036288023,1.003577709
40.516227,0.153102875,2.094242096,0.177494049,-0.081159115,-0.036288023,1.003577709
40.516806,0.153102875,2.094242096,0.177494049,-0.081159115,-0.036288023,1.003577709
40.517430,0.153102875,2.094242096,0.177494049,-0.081159115,-0.036288023,1.003577709
40.518005,0.153102875,2.094242096,0.177494049,-0.081159115,-0.036288023,1.003577709
40.518634,0.153102875,2.094242096,0.177494049,-0.081159115,-0.036288023,1.003577709
40.519213,0.153102875,2.094242096,0.177494049,-0.081159115,-0.036288023,1.003577709
40.519832,0.153102875,2.094242096,0.177494049,-0.081159115,-0.036288023,1.003577709
40.520415,0.153102875,2.094242096,0.177494049,-0.081159115,-0.036288023,1.003577709
40.521042,0.153102875,2.094242096,0.177494049,-0.081159115,-0.036288023,1.003577709
40.521625,0.008144379,0.759098053,0.375858307,-0.082746029,-0.034090757,1.005652905
40.559761,0.107326508,0.843021393,0.497928619,-0.076276302,-0.033480406,1.010169506
40.598071,0.290431976,-1.789119720,0.337711334,-0.067487240,-0.033846617,1.004432201
40.612315,0.237026215,-4.337337494,0.558963776,-0.063825130,-0.033602476,1.006019115
40.627631,0.137844086,-4.421260834,0.398746490,-0.062848568,-0.032259703,1.009803295
40.665891,-0.022373199,0.972721100,-0.928768158,-0.072736263,-0.031649351,1.011634350
40.720081,0.259914398,-1.201656342,-0.089534760,-0.088971615,-0.033236265,1.008460522
40.734416,0.259914398,-1.720455170,0.642887115,-0.086041927,-0.035311460,1.008338451
40.749750,0.153102875,-1.491573334,0.780216217,-0.084210873,-0.033968687,1.009803295
40.788033,0.237026215,2.658817291,0.406375885,-0.072125912,-0.031893492,1.011634350
40.826329,0.214138031,4.108402252,-0.272640228,-0.072003841,-0.031649351,1.008094311
40.840566,0.053920746,0.812503815,0.032535553,-0.072980404,-0.035677671,1.006263256
40.855843,0.076808929,-0.736263275,0.360599518,-0.073102474,-0.032503843,1.007606030
40.894118,0.351467133,-4.253414154,0.269046783,-0.067853451,-0.031649351,1.005652905
40.932424,-0.129184723,-5.596187592,0.185123444,-0.066144466,-0.030916931,1.005164623
40.946664,-0.113925934,-3.597286224,-0.051387787,-0.067975521,-0.031405210,1.007483959
40.961966,-0.304660797,0.263187408,-0.753292084,-0.072858334,-0.031405210,1.011146069
41.000224,-0.335178375,1.712772369,-0.371822357,-0.089215755,-0.041414976,1.014441967
41.054597,0.725307465,1.583072662,0.887027740,-0.079816341,-0.025789978,1.012244701
41.068923,0.526943207,2.567264557,0.635257721,-0.073224545,-0.037997007,1.005530834
41.084247,0.305690765,2.185794830,0.673404694,-0.069196224,-0.030306580,1.004798412
41.122515,-0.106296539,-1.918819427,0.719181061,-0.057355404,-0.033968687,1.000525951
41.160843,-0.693759918,3.673526764,-0.951656342,-0.065900326,-0.031649351,1.008460522
41.175092,-0.525913239,4.520389557,-1.386531830,-0.070050716,-0.026278259,1.011268139
41.190418,0.023403168,1.407596588,-1.050838470,-0.080060482,-0.036043882,1.009803295
41.228685,0.359096527,-5.283382416,0.940433502,-0.084210873,-0.034579039,1.016639233
41.267013,0.732936859,-1.361873627,0.177494049,-0.073834896,-0.027254822,1.011146069
41.281268,0.633754730,-0.377681732,-0.028499603,-0.071515560,-0.034823179,1.004065990
41.296579,0.542201996,-1.308467865,0.040164948,-0.070783138,-0.033358335,1.000770092
41.334844,0.046291351,-0.438716888,0.055423737,-0.069684505,-0.030916931,1.003943920
41.389399,0.031032562,0.812503815,-0.043758392,-0.078351498,-0.035677671,1.008216381
41.403758,0.092067719,-1.621273041,0.337711334,-0.078717709,-0.034701109,1.011268139
41.419124,0.244655609,-4.116085052,1.047245026,-0.072492123,-0.032381773,1.013953686
41.457406,0.313320160,2.895328522,-0.295528412,-0.066144466,-0.029818298,1.014197826
41.495704,0.351467133,2.384159088,-0.638851166,-0.071515560,-0.034334898,1.002967358
41.509959,0.137844086,-0.598934174,0.070682526,-0.072858334,-0.033236265,1.002112865
41.525261,0.137844086,-1.476314545,0.108829498,-0.074689388,-0.031527281,1.004310131
41.563521,0.107326508,-1.537349701,0.192752838,-0.072858334,-0.034579039,1.003821850
41.601836,-0.113925934,-2.384212494,0.269046783,-0.069562435,-0.032015562,1.010779858
41.616076,-0.121555328,0.095340729,-0.051387787,-0.069440365,-0.030794861,1.015296459
41.631375,-0.014743805,1.331302643,-0.272640228,-0.070172787,-0.029696228,1.017371655
41.669631,0.336208344,-1.728084564,0.192752838,-0.071881771,-0.033236265,1.010535717
41.707922,0.381984711,-0.850704193,0.146976471,-0.070416927,-0.033358335,1.004188061
41.722165,0.381984711,-0.263240814,-0.020870209,-0.069806576,-0.032137632,1.002357006
41.737471,0.175991058,-0.408199310,0.177494049,-0.069440365,-0.035311460,1.001502514
41.775760,-0.213108063,0.438663483,-0.051387787,-0.068830013,-0.032137632,1.007728100
41.814060,-0.083408356,-2.033260345,0.291934967,-0.066998959,-0.033846617,1.009925365
41.828306,-0.052890778,-2.300289154,0.368228912,-0.067853451,-0.031527281,1.013099194
41.843605,-0.007114410,-1.430538177,0.307193756,-0.067975521,-0.030428650,1.016273022
41.881869,0.313320160,5.351993561,-0.882991791,-0.072980404,-0.029085876,1.017249584
41.920178,0.763454437,-1.758602142,0.505558014,-0.077374935,-0.033236265,1.001380444
41.934415,0.786342621,-6.000545502,1.230350494,-0.069806576,-0.036776304,0.998084545
41.949722,0.504055023,-6.916072845,1.413455963,-0.063703060,-0.034456968,0.998084545
41.988008,0.000514984,-3.040340424,-0.104793549,-0.050641537,-0.033724546,0.998694897
42.038029,-0.792942047,-0.408199310,-0.493892670,-0.066754818,-0.034701109,1.018592358
42.052365,-0.876865387,1.827213287,-0.646480560,-0.068341732,-0.031039001,1.022742748
42.067735,0.076808929,4.901859283,-1.455196381,-0.079816341,-0.026278259,1.027625561
42.106019,1.183071136,-2.178218842,0.902286530,-0.087628841,-0.034579039,1.012732983
42.144324,0.847377777,-1.064327240,1.390567780,-0.061872005,-0.031893492,0.996497631
42.158566,0.549831390,1.125308990,0.871768951,-0.055768490,-0.033846617,0.993323803
42.173875,-0.113925934,3.719303131,0.078311920,-0.049176693,-0.031893492,0.991248608
42.212135,-0.876865387,2.498600006,-0.493892670,-0.055890560,-0.032870054,1.006873608
42.250442,-0.373325348,-1.392391205,-0.272640228,-0.063092709,-0.030062439,1.018470287
42.264678,0.298061371,-3.879573822,-0.127681732,-0.065534115,-0.031039001,1.021155834
42.279996,0.526943207,-4.840877533,0.101200104,-0.066388607,-0.031527281,1.022498608
42.318248,0.725307465,-2.040889740,-0.036128998,-0.067487240,-0.030428650,1.011756420
42.368466,0.381984711,2.208683014,-0.226863861,-0.075055599,-0.036043882,0.991736889
42.382810,0.008144379,-0.896480560,0.536075592,-0.073956966,-0.036165953,0.994178295
42.398125,-0.190219879,-2.079036713,0.909915924,-0.070294857,-0.035433531,0.997352123
42.436407,-0.434360504,0.247928619,0.414005280,-0.056256771,-0.030794861,1.012122631
42.474700,-0.022373199,0.369998932,-0.181087494,-0.054425716,-0.030428650,1.019446850
42.488965,0.229396820,0.049564362,-0.249752045,-0.055036068,-0.030184509,1.019202709
42.504270,0.549831390,-0.492122650,-0.417598724,-0.058942318,-0.030794861,1.014808178
42.542525,0.801601410,-1.773860931,-0.226863861,-0.067731380,-0.032381773,1.004798412
42.580842,0.137844086,-1.606014252,0.238529205,-0.069074154,-0.033480406,0.995765209
42.595081,-0.030002594,-0.659969330,0.146976471,-0.069318295,-0.033358335,0.997718334
42.610378,-0.434360504,1.308414459,0.078311920,-0.067731380,-0.033480406,1.001624584
42.648640,-0.411472321,0.591251373,0.360599518,-0.062360287,-0.032992125,1.009559155
42.698945,0.427761078,1.483890533,-0.150569916,-0.055646420,-0.029696228,1.019690990
42.713268,0.542201996,2.330753326,-0.425228119,-0.055402279,-0.030794861,1.017493725
42.728610,0.641384125,2.483341217,-0.539669037,-0.057843685,-0.032015562,1.013953686
42.766877,0.656642914,-1.766231537,0.116458893,-0.064069271,-0.033480406,0.999061108
42.805175,-0.159702301,-0.225093842,-0.020870209,-0.066998959,-0.033846617,0.998939037
42.819384,-0.327548981,1.491519928,-0.188716888,-0.066632748,-0.032747984,1.001014233
42.834685,-0.449619293,1.537296295,-0.089534760,-0.066510677,-0.035189390,1.003821850
42.872966,-0.258884430,-2.292659760,0.665775299,-0.060895443,-0.034212828,1.015906811
42.911241,0.427761078,1.155826569,-0.120052338,-0.056500912,-0.032015562,1.017005444
42.925466,0.511684418,1.346561432,-0.265010834,-0.056745052,-0.030794861,1.015174389
42.940774,0.862636566,-0.713375092,-0.249752045,-0.057843685,-0.032870054,1.006751537
42.979034,0.427761078,-2.872493744,0.162235260,-0.060163021,-0.032503843,0.998939037
43.017316,-0.281772614,2.513858795,-0.493892670,-0.064923763,-0.033114195,0.999183178
43.031565,-0.319919586,2.757999420,-0.455745697,-0.067609310,-0.031649351,1.001136303
43.046873,-0.281772614,0.324222565,0.124088287,-0.067121029,-0.035189390,1.006019115
43.085155,-0.098667145,-3.749874115,1.016727448,-0.060163021,-0.031039001,1.014930248
43.123450,0.397243500,1.590702057,0.139347076,-0.060040951,-0.033358335,1.016150951
43.137679,0.427761078,2.521488190,-0.348934174,-0.057843685,-0.030916931,1.012488842
43.152989,0.603237152,2.178165436,-0.081905365,-0.058576107,-0.032015562,1.009192944
43.153748,0.603237152,2.178165436,-0.081905365,-0.058576107,-0.032015562,1.009192944
43.154341,0.603237152,2.178165436,-0.081905365,-0.058576107,-0.032015562,1.009192944
43.154973,0.603237152,2.178165436,-0.081905365,-0.058576107,-0.032015562,1.009192944
43.155558,0.603237152,2.178165436,-0.081905365,-0.058576107,-0.032015562,1.009192944
43.156189,0.603237152,2.178165436,-0.081905365,-0.058576107,-0.032015562,1.009192944
43.156794,0.641384125,1.308414459,-0.081905365,-0.056867123,-0.032747984,1.004065990
43.157408,0.641384125,1.308414459,-0.081905365,-0.056867123,-0.032747984,1.004065990
43.157994,0.641384125,1.308414459,-0.081905365,-0.056867123,-0.032747984,1.004065990
43.158611,0.641384125,1.308414459,-0.081905365,-0.056867123,-0.032747984,1.004065990
43.159210,0.641384125,1.308414459,-0.081905365,-0.056867123,-0.032747984,1.004065990
43.159840,0.641384125,1.308414459,-0.081905365,-0.056867123,-0.032747984,1.004065990
43.160420,0.641384125,1.308414459,-0.081905365,-0.056867123,-0.032747984,1.004065990
43.161056,0.641384125,1.308414459,-0.081905365,-0.056867123,-0.032747984,1.004065990
43.161645,0.641384125,1.308414459,-0.081905365,-0.056867123,-0.032747984,1.004065990
43.199787,0.343837738,-0.263240814,0.055423737,-0.060651302,-0.033236265,1.001868725
43.238080,-0.098667145,0.324222565,-0.089534760,-0.061505795,-0.034090757,0.999915600
43.252285,-0.274143219,-0.583675385,-0.013240814,-0.060895443,-0.033114195,1.001746655
43.279996,-0.228366852,-1.766231537,0.314823151,-0.062238216,-0.031527281,1.011878490
43.318394,0.023403168,1.934024811,-0.203975677,-0.061627865,-0.030794861,1.017737865
43.370590,0.580348969,-0.537899017,0.299564362,-0.063458920,-0.031527281,1.007850170
43.384918,0.641384125,-0.522640228,0.261417389,-0.061749935,-0.032992125,1.004798412
43.400255,0.526943207,-0.049617767,0.192752838,-0.059796810,-0.032992125,1.001868725
43.438538,-0.014743805,1.277896881,-0.120052338,-0.059308529,-0.032503843,1.000403881
43.476851,-0.075778961,-2.170589447,0.276676178,-0.058576107,-0.032747984,1.003455639
43.491084,-0.052890778,-3.261592865,0.352970123,-0.057843685,-0.032259703,1.006507397
43.506382,-0.007114410,-3.597286224,0.352970123,-0.055890560,-0.031771421,1.011878490
43.544642,0.137844086,2.063724518,-0.364192963,-0.063580990,-0.031893492,1.016150951
43.582923,0.450649261,0.705692291,0.024906158,-0.066754818,-0.032870054,1.008948803
43.597169,0.557460785,-1.247432709,0.421634674,-0.065656185,-0.033114195,1.006263256
43.612469,0.565090179,-1.567867279,0.627628326,-0.062482357,-0.032503843,1.004798412
43.650737,0.114955902,1.529666901,0.108829498,-0.058209896,-0.032747984,1.001868725
43.689044,-0.190219879,0.896427155,-0.020870209,-0.056500912,-0.033358335,1.002234936
43.703286,-0.152072906,-0.797298431,0.177494049,-0.057233334,-0.031893492,1.009681225
43.718578,-0.037631989,-1.140621185,0.116458893,-0.057599545,-0.031405210,1.011146069
43.756846,0.259914398,0.575992584,-0.226863861,-0.061505795,-0.031405210,1.013831615
43.795147,0.420131683,0.019046783,0.040164948,-0.064313412,-0.031283140,1.009803295
43.809394,0.435390472,0.354740143,0.002017975,-0.064557552,-0.032259703,1.007239819
43.824712,0.366725922,0.385257721,0.146976471,-0.064191341,-0.033846617,1.002967358
43.863012,0.076808929,-0.492122650,0.330081940,-0.059674740,-0.033358335,1.003089428
43.915119,-0.235996246,0.911685944,-0.104793549,-0.057721615,-0.031405210,1.009192944
43.930678,-0.159702301,1.277896881,-0.203975677,-0.058331966,-0.031161072,1.010779858
43.944953,-0.007114410,1.056644440,-0.287899017,-0.060040951,-0.031405210,1.013587475
43.983114,0.420131683,-0.347164154,-0.013240814,-0.064313412,-0.031283140,1.011512280
44.036925,0.397243500,0.080081940,0.253787994,-0.063580990,-0.032992125,1.002357006
44.051252,0.122585297,0.896427155,0.177494049,-0.063092709,-0.032381773,1.003211498
44.066590,0.031032562,1.605960846,0.063053131,-0.061749935,-0.032259703,1.002723217
44.104859,-0.144443512,2.689334869,-0.074275970,-0.063825130,-0.031527281,1.008460522
44.143173,0.183620453,-2.307918549,0.490299225,-0.059186459,-0.032137632,1.009192944
44.157397,0.206508636,-2.880123138,0.513187408,-0.058576107,-0.032137632,1.010779858
44.172707,0.198879242,-1.338985443,0.238529205,-0.056867123,-0.030916931,1.011268139
44.211020,0.259914398,3.536197662,-0.806697845,-0.065656185,-0.031039001,1.007117748
44.249313,0.359096527,-1.453426361,0.139347076,-0.068219662,-0.035555601,0.999915600
44.263571,0.229396820,-3.749874115,0.696292877,-0.066876888,-0.032870054,1.003455639
44.278873,0.183620453,-3.032711029,0.658145905,-0.065900326,-0.031527281,1.005652905
44.317152,-0.106296539,3.200504303,-0.364192963,-0.064801693,-0.031771421,1.009070873
44.355451,0.175991058,0.873538971,0.055423737,-0.065412045,-0.032259703,1.008948803
44.369686,0.237026215,-1.361873627,0.513187408,-0.064191341,-0.032747984,1.010779858
44.384993,0.343837738,-1.911190033,0.551334381,-0.062482357,-0.030672790,1.009925365
44.423268,0.412502289,1.293155670,-0.226863861,-0.060895443,-0.030794861,1.007483959
44.461570,0.252285004,-0.461605072,-0.120052338,-0.064435482,-0.033480406,1.000281811
44.475812,0.114955902,-1.659420013,0.078311920,-0.064557552,-0.033602476,1.001258373
44.491118,0.046291351,-2.773311615,0.261417389,-0.064557552,-0.031893492,1.004065990
44.529411,-0.106296539,1.216861725,-0.226863861,-0.065412045,-0.030428650,1.013465405
44.567700,0.015773773,2.078983307,-0.242122650,-0.068463802,-0.031893492,1.011146069
44.581939,0.298061371,-0.507381439,0.307193756,-0.068341732,-0.033358335,1.009803295
44.611913,0.504055023,-1.934078217,0.627628326,-0.062726498,-0.031649351,1.011146069
44.650262,0.282802582,2.086612701,-0.196346283,-0.060163021,-0.032992125,1.004920483
44.705047,0.031032562,-1.216915131,0.078311920,-0.064069271,-0.033358335,1.001868725
44.719376,0.015773773,-2.223995209,0.230899811,-0.063336849,-0.032259703,1.005530834
44.734726,0.008144379,-2.079036713,0.208011627,-0.063092709,-0.033114195,1.007361889
44.773017,-0.014743805,0.888797760,-0.211605072,-0.065045834,-0.031527281,1.014319897
44.811317,0.221767426,-0.118282318,0.124088287,-0.067243099,-0.032625914,1.009070873
44.825561,0.328578949,-0.469234467,0.223270416,-0.066632748,-0.031893492,1.008582592
44.840847,0.435390472,-0.354793549,0.276676178,-0.064679623,-0.032503843,1.007850170
44.879125,0.237026215,1.895877838,-0.013240814,-0.063703060,-0.032381773,1.005164623
44.917432,0.015773773,0.690433502,0.063053131,-0.064313412,-0.032381773,1.001502514
44.931668,0.069179535,-0.484493256,0.208011627,-0.063092709,-0.033480406,1.002845287
44.946961,-0.014743805,-2.140071869,0.429264069,-0.061505795,-0.031405210,1.006141186
44.985227,0.008144379,-1.255062103,0.093570709,-0.060773373,-0.032259703,1.011756420
45.023514,0.092067719,2.498600006,-0.493892670,-0.066998959,-0.033602476,1.010291576
45.037774,0.206508636,2.628299713,-0.440486908,-0.071393490,-0.030672790,1.011268139
45.053064,0.404872894,1.987430573,-0.310787201,-0.072247982,-0.032503843,1.009315014
45.053828,0.404872894,1.987430573,-0.310787201,-0.072247982,-0.032503843,1.009315014
45.054405,0.404872894,1.987430573,-0.310787201,-0.072247982,-0.032503843,1.009315014
45.055036,0.404872894,1.987430573,-0.310787201,-0.072247982,-0.032503843,1.009315014
45.055610,0.465908051,0.865909576,-0.074275970,-0.072370052,-0.034334898,1.006141186
45.056224,0.465908051,0.865909576,-0.074275970,-0.072370052,-0.034334898,1.006141186
45.056805,0.465908051,0.865909576,-0.074275970,-0.072370052,-0.034334898,1.006141186
45.057418,0.465908051,0.865909576,-0.074275970,-0.072370052,-0.034334898,1.006141186
45.057992,0.465908051,0.865909576,-0.074275970,-0.072370052,-0.034334898,1.006141186
45.058600,0.465908051,0.865909576,-0.074275970,-0.072370052,-0.034334898,1.006141186
45.059191,0.465908051,0.865909576,-0.074275970,-0.072370052,-0.034334898,1.006141186
45.059809,0.465908051,0.865909576,-0.074275970,-0.072370052,-0.034334898,1.006141186
45.060383,0.465908051,0.865909576,-0.074275970,-0.072370052,-0.034334898,1.006141186
45.098501,0.496425629,-2.605464935,0.749698639,-0.065534115,-0.033724546,1.004188061
45.136823,-0.052890778,1.430484772,-0.043758392,-0.058454037,-0.032503843,1.003333569
45.151063,-0.243625641,2.338382721,-0.265010834,-0.057965755,-0.032015562,1.003699780
45.166374,-0.190219879,1.766178131,-0.387081146,-0.060773373,-0.033236265,1.004920483
45.204639,0.137844086,-2.796199799,0.208011627,-0.063825130,-0.032015562,1.013343334
45.242949,0.412502289,-1.483943939,-0.051387787,-0.065167904,-0.030550720,1.011756420
45.257175,0.374355316,0.141117096,-0.226863861,-0.066510677,-0.032992125,1.009925365
45.272466,0.313320160,0.720951080,-0.234493256,-0.068463802,-0.032381773,1.009681225
45.310733,0.244655609,1.239749908,0.040164948,-0.069562435,-0.032259703,1.004188061
45.367407,-0.091037750,0.194522858,0.391117096,-0.061505795,-0.031893492,1.008216381
45.381758,-0.136814117,1.132938385,0.169864655,-0.060529232,-0.029452087,1.009192944
45.397128,0.000514984,1.750919342,-0.150569916,-0.059430599,-0.033114195,1.009803295
45.435412,0.328578949,-1.865413666,0.093570709,-0.061139584,-0.031283140,1.011512280
45.473715,0.343837738,-0.324275970,-0.287899017,-0.064313412,-0.031649351,1.008216381
45.487967,0.298061371,0.865909576,-0.417598724,-0.066632748,-0.033480406,1.006873608
45.503267,0.122585297,2.284976959,-0.448116302,-0.070538998,-0.031405210,1.005042553
45.541530,0.053920746,1.468631744,0.085941315,-0.074811459,-0.034212828,1.006995678
45.579841,0.107326508,-0.507381439,0.703922272,-0.066754818,-0.034701109,1.003333569
45.594085,0.053920746,-0.583675385,0.642887115,-0.061139584,-0.030916931,1.007361889
45.634307,0.092067719,-0.324275970,0.078311920,-0.054059505,-0.032503843,1.006995678
45.672674,0.114955902,0.598880768,-0.615962982,-0.061383724,-0.030794861,1.011146069
45.710998,0.221767426,-0.530269623,-0.394710541,-0.069196224,-0.032992125,1.006751537
45.725242,0.214138031,-2.079036713,0.055423737,-0.073590755,-0.034090757,1.006141186
45.740557,0.237026215,-1.979854584,0.146976471,-0.073590755,-0.032870054,1.008582592
45.778838,0.130214691,1.094791412,0.169864655,-0.071881771,-0.032992125,1.007361889
45.817145,-0.037631989,1.102420807,0.452152252,-0.064557552,-0.031283140,1.007728100
45.831399,0.099697113,1.316043854,0.261417389,-0.060529232,-0.031771421,1.009070873
45.846725,0.107326508,0.911685944,0.253787994,-0.060040951,-0.032015562,1.010779858
45.885009,0.221767426,-1.705196381,0.146976471,-0.056745052,-0.032381773,1.009192944
45.923307,0.252285004,0.019046783,-0.463375092,-0.063825130,-0.032625914,1.004676342
45.937571,0.137844086,0.492069244,-0.570186615,-0.066510677,-0.032381773,1.004676342
45.952874,0.175991058,0.858280182,-0.478633881,-0.071759701,-0.032137632,1.006751537
45.991163,0.175991058,-1.857784271,0.429264069,-0.073224545,-0.033602476,1.005286694
46.045778,0.015773773,1.125308990,0.322452545,-0.062970638,-0.032381773,1.010779858
46.060145,0.046291351,2.391788483,0.024906158,-0.061261654,-0.031893492,1.011146069
46.075500,0.137844086,2.468082428,-0.051387787,-0.061994076,-0.032259703,1.011023998
46.113805,0.420131683,0.408145905,-0.066646576,-0.061749935,-0.032992125,1.008582592
46.152107,0.473537445,-2.285030365,0.085941315,-0.062238216,-0.032992125,1.001624584
46.166358,0.366725922,-2.338436127,0.002017975,-0.062970638,-0.034212828,1.002479076
46.181649,0.008144379,-1.384761810,-0.066646576,-0.064069271,-0.032259703,1.005897045
46.219913,-0.243625641,2.857181549,-0.524410248,-0.072125912,-0.032137632,1.009315014
46.258222,0.168361664,-1.781490326,0.581851959,-0.071149349,-0.033480406,1.008582592
46.272459,0.328578949,-2.971675873,0.803104401,-0.067609310,-0.031039001,1.010657787
46.287770,0.412502289,-3.467586517,0.925174713,-0.064801693,-0.032137632,1.011268139
46.288527,0.404872894,-3.040340424,0.871768951,-0.061749935,-0.033358335,1.011023998
46.289116,0.404872894,-3.040340424,0.871768951,-0.061749935,-0.033358335,1.011023998
46.289738,0.404872894,-3.040340424,0.871768951,-0.061749935,-0.033358335,1.011023998
46.290328,0.404872894,-3.040340424,0.871768951,-0.061749935,-0.033358335,1.011023998
46.290948,0.404872894,-3.040340424,0.871768951,-0.061749935,-0.033358335,1.011023998
46.291536,0.404872894,-3.040340424,0.871768951,-0.061749935,-0.033358335,1.011023998
46.292162,0.404872894,-3.040340424,0.871768951,-0.061749935,-0.033358335,1.011023998
46.292743,0.404872894,-3.040340424,0.871768951,-0.061749935,-0.033358335,1.011023998
46.293371,0.404872894,-3.040340424,0.871768951,-0.061749935,-0.033358335,1.011023998
46.293962,0.404872894,-3.040340424,0.871768951,-0.061749935,-0.033358335,1.011023998
46.294585,0.404872894,-3.040340424,0.871768951,-0.061749935,-0.033358335,1.011023998
46.295177,0.404872894,-3.040340424,0.871768951,-0.061749935,-0.033358335,1.011023998
46.295808,0.404872894,-3.040340424,0.871768951,-0.061749935,-0.033358335,1.011023998
46.296392,0.404872894,-3.040340424,0.871768951,-0.061749935,-0.033358335,1.011023998
46.297020,0.404872894,-3.040340424,0.871768951,-0.061749935,-0.033358335,1.011023998
46.297606,0.404872894,-3.040340424,0.871768951,-0.061749935,-0.033358335,1.011023998
46.298231,0.244655609,-1.583126068,0.627628326,-0.059796810,-0.029818298,1.012977123
46.336250,0.191249847,4.413578033,-0.593074799,-0.059064388,-0.030550720,1.008216381
46.374563,0.244655609,-1.239803314,0.146976471,-0.067609310,-0.036898375,1.000037670
46.388802,0.282802582,-4.505184174,0.497928619,-0.064801693,-0.032259703,1.002479076
46.404115,0.130214691,-4.596736908,0.673404694,-0.062970638,-0.033846617,1.004065990
46.442409,-0.052890778,1.865360260,-0.570186615,-0.061139584,-0.030672790,1.013221264
46.480717,0.153102875,0.492069244,-0.165828705,-0.070294857,-0.032625914,1.009437084
46.507709,0.381984711,-1.636531830,0.513187408,-0.070294857,-0.030184509,1.013099194
46.522041,0.587978363,-1.026180267,0.398746490,-0.069196224,-0.031771421,1.013221264
46.560202,0.427761078,1.140567780,0.185123444,-0.063458920,-0.034334898,1.003943920
46.598493,0.000514984,1.239749908,0.078311920,-0.061994076,-0.033602476,1.001624584
46.612721,-0.075778961,1.560184479,-0.081905365,-0.062970638,-0.032992125,1.005408764
46.628056,-0.106296539,1.941654205,-0.226863861,-0.064435482,-0.030428650,1.007483959
46.628812,-0.106296539,1.941654205,-0.226863861,-0.064435482,-0.030428650,1.007483959
46.666843,0.069179535,-2.346065521,0.291934967,-0.064557552,-0.032259703,1.010901928
46.717061,0.229396820,1.232120514,-0.280269623,-0.066266537,-0.031771421,1.009559155
46.731388,0.237026215,1.964542389,-0.371822357,-0.067121029,-0.030550720,1.009070873
46.746733,0.290431976,1.476261139,-0.196346283,-0.069440365,-0.034212828,1.007361889
46.785021,0.275173187,-0.659969330,0.330081940,-0.069318295,-0.032381773,1.006507397
46.823332,0.114955902,1.811954498,0.063053131,-0.067853451,-0.032503843,1.003943920
46.837572,0.069179535,1.079532623,0.146976471,-0.064923763,-0.033358335,1.005897045
46.852867,0.092067719,-0.095394135,0.284305573,-0.063336849,-0.032015562,1.006629467
46.891150,0.053920746,-1.293209076,0.223270416,-0.061749935,-0.031039001,1.011268139
46.929450,0.084438324,2.536746979,-0.654109955,-0.068463802,-0.031893492,1.008704662
46.943683,0.160732269,1.926395416,-0.562557220,-0.069074154,-0.032259703,1.008338451
46.958991,0.359096527,-1.361873627,0.085941315,-0.071393490,-0.034334898,1.005286694
46.997249,0.275173187,-1.102474213,0.284305573,-0.068952084,-0.031527281,1.008216381
47.035534,0.008144379,2.483341217,-0.104793549,-0.068097591,-0.032625914,1.006629467
47.049783,0.023403168,1.735660553,0.024906158,-0.068341732,-0.034334898,1.006263256
47.065074,0.031032562,-0.270870209,0.337711334,-0.066632748,-0.032015562,1.006873608
47.103352,0.130214691,-0.171688080,0.208011627,-0.062726498,-0.031527281,1.012855053
47.141661,0.320949554,1.201602936,-0.211605072,-0.064069271,-0.032137632,1.007361889
47.155900,0.389614105,-0.194576263,-0.142940521,-0.066266537,-0.032992125,1.006873608
47.171209,0.343837738,-1.247432709,0.024906158,-0.065900326,-0.033602476,1.006629467
47.209469,0.122585297,0.614139557,-0.142940521,-0.070294857,-0.031405210,1.008216381
47.247791,0.145473480,0.392887115,0.040164948,-0.070538998,-0.034212828,1.003089428
47.262020,0.175991058,-1.567867279,0.436893463,-0.070294857,-0.034579039,1.003699780
47.277325,0.160732269,-4.306819916,0.841251373,-0.064923763,-0.031283140,1.008216381
47.278083,0.160732269,-4.306819916,0.841251373,-0.064923763,-0.031283140,1.008216381
47.278656,0.160732269,-4.306819916,0.841251373,-0.064923763,-0.031283140,1.008216381
47.279288,0.160732269,-4.306819916,0.841251373,-0.064923763,-0.031283140,1.008216381
47.279865,0.160732269,-4.306819916,0.841251373,-0.064923763,-0.031283140,1.008216381
47.280486,0.160732269,-4.306819916,0.841251373,-0.064923763,-0.031283140,1.008216381
47.281063,0.160732269,-4.306819916,0.841251373,-0.064923763,-0.031283140,1.008216381
47.281686,0.160732269,-4.306819916,0.841251373,-0.064923763,-0.031283140,1.008216381
47.282268,0.160732269,-4.306819916,0.841251373,-0.064923763,-0.031283140,1.008216381
47.282885,0.252285004,-4.299190521,0.787845612,-0.063458920,-0.032015562,1.009925365
47.283467,0.252285004,-4.299190521,0.787845612,-0.063458920,-0.032015562,1.009925365
47.284088,0.252285004,-4.299190521,0.787845612,-0.063458920,-0.032015562,1.009925365
47.284664,0.252285004,-4.299190521,0.787845612,-0.063458920,-0.032015562,1.009925365
47.285294,0.252285004,-4.299190521,0.787845612,-0.063458920,-0.032015562,1.009925365
47.285863,0.252285004,-4.299190521,0.787845612,-0.063458920,-0.032015562,1.009925365
47.286490,0.252285004,-4.299190521,0.787845612,-0.063458920,-0.032015562,1.009925365
47.287067,0.252285004,-4.299190521,0.787845612,-0.063458920,-0.032015562,1.009925365
47.287690,0.252285004,-4.299190521,0.787845612,-0.063458920,-0.032015562,1.009925365
47.337832,0.198879242,2.635929108,-0.631221771,-0.061749935,-0.034456968,1.008338451
47.388517,0.275173187,-1.796749115,0.146976471,-0.069440365,-0.032870054,1.006751537
47.402827,0.366725922,-0.995662689,0.124088287,-0.069684505,-0.031039001,1.007483959
47.418150,0.343837738,-0.537899017,0.108829498,-0.068097591,-0.034090757,1.006995678
47.456431,0.053920746,1.712772369,0.024906158,-0.068341732,-0.033602476,1.006019115
47.494729,0.137844086,2.178165436,0.047794342,-0.068341732,-0.032747984,1.005530834
47.508965,0.175991058,1.247379303,0.208011627,-0.065778255,-0.032381773,1.006263256
47.524243,0.359096527,-1.537349701,0.505558014,-0.061872005,-0.031161072,1.007483959
47.562510,0.198879242,-1.873043060,0.192752838,-0.057233334,-0.031161072,1.008582592
47.600841,-0.022373199,4.405948639,-1.035579681,-0.069196224,-0.031039001,1.008948803
47.615072,0.061550140,4.062625885,-0.928768158,-0.072736263,-0.032625914,1.007728100
47.630354,0.069179535,0.881168365,-0.173458099,-0.077374935,-0.035311460,1.006629467
47.668623,0.397243500,-1.445796967,0.536075592,-0.075788021,-0.031771421,1.010413647
47.706910,0.252285004,-1.628902435,0.787845612,-0.062360287,-0.034456968,1.004310131
47.721154,-0.014743805,1.255008698,0.223270416,-0.059308529,-0.030794861,1.009192944
47.736450,-0.091037750,3.543827057,-0.203975677,-0.060407162,-0.031039001,1.010901928
47.774723,0.168361664,3.406497955,-0.661739349,-0.070172787,-0.032625914,1.007483959
47.813041,0.389614105,-4.932430267,0.749698639,-0.069928646,-0.032137632,1.006751537
47.827279,0.420131683,-4.383113861,0.894657135,-0.067731380,-0.031893492,1.006385326
47.842567,0.328578949,-2.063777924,0.070682526,-0.062482357,-0.028231384,1.007606030
47.880842,-0.098667145,-1.438167572,-0.036128998,-0.063825130,-0.031283140,1.004798412
47.919148,-0.152072906,0.644657135,-0.387081146,-0.070783138,-0.030550720,1.009925365
47.933381,0.046291351,0.736209869,-0.348934174,-0.072247982,-0.031283140,1.012855053
47.948698,0.114955902,-0.217464447,0.002017975,-0.073956966,-0.033846617,1.011146069
47.949456,0.114955902,-0.217464447,0.002017975,-0.073956966,-0.033846617,1.011146069
47.987510,0.381984711,-1.033809662,0.452152252,-0.071515560,-0.031283140,1.012244701
48.039520,0.160732269,3.078433990,-0.005611420,-0.064679623,-0.032137632,1.005286694
48.053858,0.107326508,3.826114655,-0.127681732,-0.065289974,-0.032015562,1.006019115
48.069201,0.000514984,4.566165924,-0.341304779,-0.067365170,-0.029818298,1.007850170
48.107473,0.145473480,-2.002742767,0.436893463,-0.068707943,-0.033358335,1.005652905
48.145807,0.099697113,-1.804378510,0.497928619,-0.065289974,-0.032015562,1.008948803
48.160042,0.160732269,1.430484772,-0.379451752,-0.064435482,-0.027865173,1.011023998
48.175342,0.267543793,2.567264557,-0.608333588,-0.066876888,-0.031161072,1.009681225
48.213616,0.435390472,-1.453426361,-0.074275970,-0.072003841,-0.033724546,1.004554272
48.251913,0.389614105,-4.627254486,0.589481354,-0.068830013,-0.031527281,1.005408764
48.266167,0.206508636,-3.261592865,0.421634674,-0.066266537,-0.033480406,1.007239819
48.281463,-0.182590485,0.591251373,0.070682526,-0.065045834,-0.031039001,1.010291576
48.319727,-0.098667145,0.865909576,-0.295528412,-0.070661068,-0.032503843,1.009315014
48.358056,0.237026215,-2.079036713,0.558963776,-0.070172787,-0.031405210,1.012855053
48.372290,0.389614105,-1.102474213,0.414005280,-0.068097591,-0.029330017,1.011390209
48.387580,0.473537445,1.171085358,-0.013240814,-0.067365170,-0.032870054,1.008094311
48.425843,0.244655609,-0.858333588,0.246158600,-0.064679623,-0.033602476,1.003821850
48.464145,0.099697113,-0.675228119,0.154605865,-0.063703060,-0.030794861,1.005408764
48.478381,-0.190219879,2.056095123,-0.280269623,-0.066144466,-0.031649351,1.008582592
48.493679,-0.098667145,2.857181549,-0.509151459,-0.067609310,-0.029085876,1.008704662
48.531947,0.305690765,-3.040340424,0.528446198,-0.069806576,-0.034456968,1.007239819
48.570238,0.214138031,-1.163509369,0.307193756,-0.061994076,-0.029696228,1.009803295
48.584467,0.160732269,0.835391998,-0.226863861,-0.062116146,-0.029085876,1.011756420
48.599771,0.221767426,2.613040924,-0.486263275,-0.063336849,-0.031893492,1.008704662
48.651889,0.153102875,-1.567867279,0.230899811,-0.069562435,-0.031039001,1.006629467
48.704380,0.290431976,-0.591304779,0.253787994,-0.065167904,-0.033358335,1.004554272
48.718697,0.183620453,-1.384761810,0.459781647,-0.064801693,-0.035067320,1.008094311
48.734034,0.404872894,-0.835445404,0.200382233,-0.060407162,-0.027254822,1.013709545
48.772318,1.068630219,2.582523346,-0.326045990,-0.062360287,-0.016268494,1.007728100
48.810631,0.557460785,-0.988033295,0.185123444,-0.068463802,-0.024569275,1.003089428
48.824866,-0.289402008,-1.468685150,0.299564362,-0.069562435,-0.039950132,1.003211498
48.840156,-0.503025055,-0.568416595,0.391117096,-0.067975521,-0.026766540,1.008216381
48.878426,-0.358066559,1.995059967,-0.059017181,-0.067365170,-0.028963806,1.011268139
48.916720,0.038661957,-1.049068451,0.276676178,-0.066022396,-0.029574158,1.010901928
48.930968,0.412502289,-1.232173920,0.284305573,-0.065167904,-0.027621033,1.011146069
48.946257,0.282802582,-0.560787201,0.108829498,-0.063580990,-0.032992125,1.006873608
48.984512,0.145473480,1.407596588,-0.249752045,-0.067365170,-0.032625914,1.006263256
49.022834,0.061550140,-0.469234467,0.070682526,-0.069196224,-0.033358335,1.003089428
49.037068,-0.022373199,-1.148250580,0.215641022,-0.069684505,-0.032503843,1.005042553
49.052367,0.114955902,-1.697566986,0.352970123,-0.068097591,-0.031893492,1.005408764
49.090630,0.008144379,-0.713375092,0.253787994,-0.065045834,-0.030062439,1.012366772
49.128915,0.092067719,2.635929108,-0.318416595,-0.066998959,-0.029818298,1.012122631
49.143167,0.259914398,2.216312408,-0.242122650,-0.070050716,-0.031771421,1.010169506
49.158457,0.343837738,1.155826569,-0.089534760,-0.070416927,-0.031893492,1.008826733
49.196725,0.328578949,-1.895931244,0.528446198,-0.066510677,-0.031649351,1.004310131
49.235042,-0.060520172,2.643558502,-0.287899017,-0.065412045,-0.032747984,1.004065990
49.249281,-0.220737457,3.215763092,-0.387081146,-0.067731380,-0.031161072,1.004554272
49.264565,-0.014743805,1.880619049,-0.265010834,-0.069196224,-0.032259703,1.006019115
49.265325,-0.014743805,1.880619049,-0.265010834,-0.069196224,-0.032259703,1.006019115
49.265910,-0.014743805,1.880619049,-0.265010834,-0.069196224,-0.032259703,1.006019115
49.266533,-0.014743805,1.880619049,-0.265010834,-0.069196224,-0.032259703,1.006019115
49.267117,-0.014743805,1.880619049,-0.265010834,-0.069196224,-0.032259703,1.006019115
49.267737,-0.014743805,1.880619049,-0.265010834,-0.069196224,-0.032259703,1.006019115
49.268326,-0.014743805,1.880619049,-0.265010834,-0.069196224,-0.032259703,1.006019115
49.268948,-0.014743805,1.880619049,-0.265010834,-0.069196224,-0.032259703,1.006019115
49.269532,-0.014743805,1.880619049,-0.265010834,-0.069196224,-0.032259703,1.006019115
49.270160,-0.014743805,1.880619049,-0.265010834,-0.069196224,-0.032259703,1.006019115
49.308176,0.183620453,-2.849605560,0.505558014,-0.067487240,-0.030428650,1.011756420
49.362978,0.183620453,1.766178131,-0.234493256,-0.070050716,-0.031893492,1.008948803
49.377309,0.214138031,1.583072662,-0.226863861,-0.069806576,-0.031649351,1.007606030
49.392657,0.160732269,0.965091705,-0.005611420,-0.071637630,-0.033114195,1.006263256
49.430937,0.183620453,-1.621273041,0.429264069,-0.070050716,-0.033236265,1.004798412
49.469239,0.038661957,-0.736263275,0.299564362,-0.066266537,-0.032137632,1.005408764
49.483467,-0.174961090,1.720401764,-0.173458099,-0.066022396,-0.031283140,1.008948803
49.498776,-0.052890778,2.368900299,-0.341304779,-0.066510677,-0.030062439,1.009315014
49.537040,0.160732269,0.186893463,-0.051387787,-0.071393490,-0.030062439,1.010535717
49.575340,0.404872894,-1.956966400,0.391117096,-0.069196224,-0.030916931,1.008704662
49.589589,0.275173187,-0.934627533,0.169864655,-0.067853451,-0.031405210,1.008094311
49.604913,0.328578949,-0.385311127,0.047794342,-0.067365170,-0.029574158,1.007483959
49.643199,-0.068149567,-1.285579681,0.124088287,-0.067853451,-0.032992125,1.003943920
49.681502,-0.304660797,2.292606354,-0.104793549,-0.071271420,-0.031527281,1.010413647
49.695757,-0.243625641,3.108951569,-0.417598724,-0.070538998,-0.028475525,1.012855053
49.726771,0.160732269,0.110599518,0.040164948,-0.072125912,-0.032870054,1.010901928
49.765144,0.435390472,-3.917720795,0.818363190,-0.065412045,-0.031161072,1.009803295
49.803449,0.053920746,1.064273834,-0.333675385,-0.060651302,-0.033358335,1.001136303
49.817687,-0.136814117,1.453372955,-0.448116302,-0.064801693,-0.031649351,1.005408764
49.833021,-0.113925934,1.392337799,-0.532039642,-0.067975521,-0.032015562,1.006629467
49.871297,0.092067719,-0.690486908,0.024906158,-0.074201107,-0.032381773,1.009559155
49.909627,0.183620453,-0.461605072,0.406375885,-0.071637630,-0.033358335,1.011146069
49.923879,0.008144379,0.720951080,0.368228912,-0.070538998,-0.033602476,1.011878490
49.939195,0.160732269,2.933475494,-0.074275970,-0.068952084,-0.030794861,1.012122631
49.977458,0.313320160,3.948184967,-0.059017181,-0.071271420,-0.031771421,1.008216381
50.031387,0.290431976,-2.056148529,0.505558014,-0.065778255,-0.034212828,1.003577709
50.045711,0.122585297,-1.812007904,0.429264069,-0.064069271,-0.032137632,1.004432201
50.061064,0.015773773,0.392887115,-0.112422943,-0.066510677,-0.032381773,1.006141186
50.099356,-0.052890778,2.521488190,-0.585445404,-0.074567318,-0.032381773,1.008094311
50.137658,0.198879242,-1.880672455,0.406375885,-0.077252865,-0.031771421,1.010169506
50.151895,0.328578949,-1.491573334,0.406375885,-0.077008724,-0.031649351,1.011512280
50.167190,0.244655609,0.232669830,0.345340729,-0.074079037,-0.030916931,1.011390209
50.167936,0.244655609,0.232669830,0.345340729,-0.074079037,-0.030916931,1.011390209
50.168505,0.244655609,0.232669830,0.345340729,-0.074079037,-0.030916931,1.011390209
50.169124,0.244655609,0.232669830,0.345340729,-0.074079037,-0.030916931,1.011390209
50.169696,0.244655609,0.232669830,0.345340729,-0.074079037,-0.030916931,1.011390209
50.170304,0.244655609,0.232669830,0.345340729,-0.074079037,-0.030916931,1.011390209
50.170876,0.244655609,0.232669830,0.345340729,-0.074079037,-0.030916931,1.011390209
50.171486,0.244655609,0.232669830,0.345340729,-0.074079037,-0.030916931,1.011390209
50.172074,0.244655609,0.232669830,0.345340729,-0.074079037,-0.030916931,1.011390209
50.172685,0.244655609,0.232669830,0.345340729,-0.074079037,-0.030916931,1.011390209
50.173264,0.244655609,0.232669830,0.345340729,-0.074079037,-0.030916931,1.011390209
50.173877,0.244655609,0.232669830,0.345340729,-0.074079037,-0.030916931,1.011390209
50.174458,0.244655609,0.232669830,0.345340729,-0.074079037,-0.030916931,1.011390209
50.175077,0.244655609,0.232669830,0.345340729,-0.074079037,-0.030916931,1.011390209
50.175658,0.267543793,0.987979889,0.093570709,-0.074079037,-0.030184509,1.011146069
50.176265,0.267543793,0.987979889,0.093570709,-0.074079037,-0.030184509,1.011146069
50.176847,0.267543793,0.987979889,0.093570709,-0.074079037,-0.030184509,1.011146069
50.177456,0.267543793,0.987979889,0.093570709,-0.074079037,-0.030184509,1.011146069
50.178043,0.267543793,0.987979889,0.093570709,-0.074079037,-0.030184509,1.011146069
50.178653,0.267543793,0.987979889,0.093570709,-0.074079037,-0.030184509,1.011146069
50.216683,0.282802582,-0.690486908,0.421634674,-0.070538998,-0.032625914,1.004554272
50.255008,-0.098667145,0.873538971,0.185123444,-0.074811459,-0.033480406,1.006629467
50.269222,-0.129184723,2.246829987,0.246158600,-0.073590755,-0.031649351,1.009559155
50.284539,-0.235996246,3.459903717,-0.165828705,-0.073956966,-0.029696228,1.010047436
50.322825,0.031032562,1.781436920,0.093570709,-0.075421810,-0.032992125,1.009681225
50.361123,0.282802582,-4.344966888,0.650516510,-0.065534115,-0.030306580,1.005286694
50.375370,0.427761078,-4.436519623,0.810733795,-0.070905209,-0.032381773,1.007728100
50.390664,0.252285004,-3.360774994,0.436893463,-0.069684505,-0.031893492,1.007361889
50.428925,0.023403168,1.377079010,-0.211605072,-0.069928646,-0.033236265,1.006385326
50.467229,0.130214691,-1.056697845,0.040164948,-0.070905209,-0.033114195,1.005042553
50.481457,0.069179535,-1.674678802,0.215641022,-0.072125912,-0.033602476,1.007972240
50.496750,0.084438324,-1.606014252,0.162235260,-0.071515560,-0.031039001,1.012244701
50.551090,0.168361664,-0.125911713,0.146976471,-0.074811459,-0.033114195,1.007606030
50.589467,0.107326508,-0.141170502,0.177494049,-0.071881771,-0.031527281,1.004798412
50.603701,0.298061371,-2.010372162,0.322452545,-0.074201107,-0.035433531,1.001868725
50.619012,0.122585297,-3.597286224,0.726810455,-0.069440365,-0.034579039,1.001746655
50.657284,0.114955902,-8.708980560,1.283756256,-0.067853451,-0.033480406,1.003821850
50.711655,-0.022373199,-4.238155365,1.329532623,-0.070050716,-0.032503843,1.014808178
50.725984,-0.091037750,-0.278499603,1.085391998,-0.065778255,-0.033114195,1.019324780
50.741332,0.031032562,1.644107819,1.031986237,-0.060651302,-0.030428650,1.019935131
50.779622,0.267543793,6.450626373,0.482669830,-0.065900326,-0.030184509,1.020789623
50.817923,0.870265961,7.755252838,0.528446198,-0.066876888,-0.033724546,1.008094311
50.832159,0.809230804,6.175968170,0.673404694,-0.064191341,-0.032747984,1.001502514
50.847452,0.809230804,5.336734772,0.742069244,-0.065289974,-0.033968687,0.997840405
50.885730,0.237026215,2.300235748,0.513187408,-0.056256771,-0.033602476,0.991370678
50.924044,-0.571689606,0.385257721,-0.318416595,-0.054303646,-0.030794861,1.001990795
50.938285,-0.579319000,0.102970123,-0.448116302,-0.056867123,-0.031893492,1.006141186
50.953584,-0.533542633,-0.934627533,-0.829586029,-0.063458920,-0.029940369,1.014564037
50.991851,0.137844086,-3.444698334,-0.295528412,-0.078961849,-0.030794861,1.023719311
51.030160,0.656642914,-3.063228607,0.223270416,-0.082013607,-0.034579039,1.015540600
51.044394,0.687160492,-1.346614838,0.169864655,-0.079205990,-0.030794861,1.012000561
51.059713,0.816860199,-0.186946869,0.261417389,-0.080914974,-0.031649351,1.009803295
51.098015,0.359096527,3.017398834,0.208011627,-0.074445248,-0.033114195,0.997107983
51.136321,-0.342807770,0.637027740,0.688663483,-0.065412045,-0.033480406,0.999061108
51.150558,-0.373325348,0.598880768,0.215641022,-0.063092709,-0.031893492,1.007239819
51.165844,-0.335178375,0.675174713,0.330081940,-0.063092709,-0.033236265,1.009437084
51.166600,-0.335178375,0.675174713,0.330081940,-0.063092709,-0.033236265,1.009437084
51.167187,-0.335178375,0.675174713,0.330081940,-0.063092709,-0.033236265,1.009437084
51.167809,-0.335178375,0.675174713,0.330081940,-0.063092709,-0.033236265,1.009437084
51.168380,-0.335178375,0.675174713,0.330081940,-0.063092709,-0.033236265,1.009437084
51.168985,-0.335178375,0.675174713,0.330081940,-0.063092709,-0.033236265,1.009437084
51.207016,0.183620453,-0.530269623,-0.211605072,-0.062360287,-0.032259703,1.016883373
51.245306,0.603237152,-1.171138763,-0.364192963,-0.072614193,-0.032992125,1.011390209
51.259547,0.526943207,-0.194576263,-0.364192963,-0.075421810,-0.031771421,1.010535717
51.274839,0.595607758,0.179264069,-0.287899017,-0.077985287,-0.032503843,1.007483959
51.313119,0.343837738,-0.865962982,0.375858307,-0.076398373,-0.034212828,1.001624584
51.362993,-0.220737457,0.659915924,0.291934967,-0.066754818,-0.033602476,1.005530834
51.377354,-0.335178375,1.277896881,0.185123444,-0.065778255,-0.031649351,1.007117748
51.392740,-0.190219879,1.323673248,-0.005611420,-0.064679623,-0.031405210,1.012732983
51.431030,0.244655609,-1.644161224,0.055423737,-0.065289974,-0.030672790,1.013953686
51.469332,0.549831390,-0.057247162,-0.318416595,-0.070050716,-0.032992125,1.010047436
51.483570,0.534572601,0.400516510,-0.348934174,-0.072003841,-0.031649351,1.008094311
51.498874,0.504055023,-0.148799896,-0.203975677,-0.074079037,-0.033358335,1.001258373
51.537168,0.137844086,-1.598384857,0.345340729,-0.073956966,-0.032015562,1.001990795
51.575452,-0.213108063,1.461002350,0.101200104,-0.071027279,-0.031649351,1.006141186
51.589684,-0.213108063,2.010318756,0.017276764,-0.069318295,-0.032747984,1.009070873
51.604999,-0.205478668,1.453372955,0.116458893,-0.068097591,-0.032381773,1.009925365
51.643282,0.114955902,-0.141170502,0.223270416,-0.066144466,-0.030672790,1.017982006
51.681589,0.572719574,2.086612701,-0.348934174,-0.069318295,-0.033968687,1.008948803
51.695824,0.557460785,1.232120514,-0.249752045,-0.069928646,-0.033846617,1.004676342
51.723111,0.496425629,-2.124813080,0.322452545,-0.071149349,-0.035189390,1.001868725
51.761489,-0.174961090,2.628299713,-0.219234467,-0.074201107,-0.032503843,1.003821850
51.799830,-0.182590485,1.293155670,0.032535553,-0.075788021,-0.033602476,1.006019115
51.814076,-0.121555328,-0.629451752,0.421634674,-0.076154232,-0.034334898,1.009192944
51.829402,0.015773773,-2.330806732,0.719181061,-0.071637630,-0.031405210,1.014564037
51.867678,0.244655609,3.101322174,-0.005611420,-0.070416927,-0.030550720,1.017005444
51.905997,0.549831390,1.247379303,-0.089534760,-0.072370052,-0.034334898,1.003699780
51.920245,0.549831390,-0.392940521,0.246158600,-0.073346615,-0.034090757,1.003455639
51.935558,0.351467133,-1.659420013,0.375858307,-0.072247982,-0.032747984,1.001990795
51.973836,0.000514984,1.125308990,-0.234493256,-0.072247982,-0.032747984,1.005286694
52.024271,-0.342807770,1.445743561,-0.135311127,-0.079572201,-0.032381773,1.011023998
52.038600,-0.106296539,2.338382721,-0.112422943,-0.082013607,-0.031039001,1.016883373
52.053959,-0.014743805,2.803775787,-0.135311127,-0.081647396,-0.030794861,1.018714428
52.092232,0.595607758,1.125308990,0.414005280,-0.079938412,-0.033602476,1.011756420
52.130527,0.496425629,1.560184479,0.269046783,-0.073224545,-0.031405210,1.004065990
52.144776,0.290431976,3.810855865,-0.211605072,-0.075055599,-0.032381773,1.002967358
52.160063,0.168361664,4.512760162,-0.371822357,-0.077130795,-0.032747984,1.002357006
52.198345,-0.075778961,-0.133541107,0.124088287,-0.080060482,-0.033724546,1.003699780
52.236645,0.122585297,-4.421260834,0.467411041,-0.075177670,-0.033114195,1.008216381
52.250884,0.137844086,-4.489925385,0.429264069,-0.073468685,-0.031283140,1.012488842
52.266174,0.137844086,-3.406551361,0.116458893,-0.073468685,-0.031893492,1.013465405
52.304428,0.252285004,1.598331451,-0.799068451,-0.080914974,-0.030672790,1.015784740
52.342727,0.374355316,0.408145905,-0.303157806,-0.088483334,-0.034579039,1.007850170
52.356970,0.481166840,-1.560237885,0.421634674,-0.087628841,-0.033480406,1.004920483
52.372262,0.481166840,-1.888301849,0.612369537,-0.086408138,-0.032747984,1.005774975
52.410521,0.290431976,-1.491573334,0.650516510,-0.073346615,-0.030672790,1.006629467
52.448837,0.229396820,-3.818538666,0.261417389,-0.063214779,-0.029452087,1.003455639
52.463071,0.069179535,-4.512813568,0.146976471,-0.061383724,-0.034945250,1.005897045
52.478358,-0.167331696,-3.833797455,-0.020870209,-0.063825130,-0.031893492,1.009437084
52.479107,-0.167331696,-3.833797455,-0.020870209,-0.063825130,-0.031893492,1.009437084
52.479675,-0.167331696,-3.833797455,-0.020870209,-0.063825130,-0.031893492,1.009437084
52.480302,-0.167331696,-3.833797455,-0.020870209,-0.063825130,-0.031893492,1.009437084
52.480871,-0.167331696,-3.833797455,-0.020870209,-0.063825130,-0.031893492,1.009437084
52.481479,-0.167331696,-3.833797455,-0.020870209,-0.063825130,-0.031893492,1.009437084
52.482063,-0.167331696,-3.833797455,-0.020870209,-0.063825130,-0.031893492,1.009437084
52.482692,-0.091037750,-2.239253998,-0.333675385,-0.065656185,-0.027865173,1.011390209
52.483279,-0.091037750,-2.239253998,-0.333675385,-0.065656185,-0.027865173,1.011390209
52.483892,-0.091037750,-2.239253998,-0.333675385,-0.065656185,-0.027865173,1.011390209
52.484484,-0.091037750,-2.239253998,-0.333675385,-0.065656185,-0.027865173,1.011390209
52.485105,-0.091037750,-2.239253998,-0.333675385,-0.065656185,-0.027865173,1.011390209
52.485690,-0.091037750,-2.239253998,-0.333675385,-0.065656185,-0.027865173,1.011390209
52.486317,-0.091037750,-2.239253998,-0.333675385,-0.065656185,-0.027865173,1.011390209
52.486894,-0.091037750,-2.239253998,-0.333675385,-0.065656185,-0.027865173,1.011390209
52.487514,-0.091037750,-2.239253998,-0.333675385,-0.065656185,-0.027865173,1.011390209
52.488100,-0.091037750,-2.239253998,-0.333675385,-0.065656185,-0.027865173,1.011390209
52.488730,-0.091037750,-2.239253998,-0.333675385,-0.065656185,-0.027865173,1.011390209
52.489307,-0.091037750,-2.239253998,-0.333675385,-0.065656185,-0.027865173,1.011390209
52.527406,-0.197849274,4.436466217,-1.218685150,-0.085797787,-0.031283140,1.016273022
52.577850,0.641384125,-1.270320892,0.803104401,-0.091657162,-0.033602476,1.005164623
52.592180,0.702419281,-5.260494232,1.901737213,-0.081037045,-0.033968687,1.004188061
52.607528,0.542201996,-5.397823334,1.878849030,-0.072980404,-0.032015562,1.003577709
52.645827,-0.304660797,4.131290436,-0.173458099,-0.058087826,-0.030306580,1.006995678
52.697622,-0.014743805,1.026126862,-0.814327240,-0.075788021,-0.033602476,1.004676342
52.711963,-0.007114410,-4.497554779,0.261417389,-0.078473568,-0.034212828,1.008216381
52.727316,0.145473480,-6.404903412,0.497928619,-0.077374935,-0.030550720,1.009925365
52.765616,0.153102875,-5.741146088,0.627628326,-0.068707943,-0.032259703,1.009925365
52.803920,-0.167331696,2.445194244,-0.753292084,-0.072125912,-0.030306580,1.009803295
52.818160,-0.060520172,3.940555573,-0.913509369,-0.077374935,-0.032259703,1.010169506
52.833449,-0.258884430,5.748722076,-1.027950287,-0.075788021,-0.031039001,1.009070873
52.871722,-0.251255035,4.566165924,0.124088287,-0.092145443,-0.034701109,1.013465405
