time,gyro x,gyro y,gyro z,accel x,accel y,accel z
52.868989,1.263355255,-10.959377289,0.972732544,0.018579712,-0.037723694,0.907821417
52.907759,3.872608185,-11.897792816,-1.178756714,0.058496706,-0.019291077,0.983138800
52.922060,3.117298126,-5.458583832,-0.453964233,0.070581667,-0.011722717,0.976791143
52.922376,3.117298126,-5.458583832,-0.453964233,0.070581667,-0.011722717,0.976791143
52.922627,3.117298126,-5.458583832,-0.453964233,0.070581667,-0.011722717,0.976791143
52.922879,3.117298126,-5.458583832,-0.453964233,0.070581667,-0.011722717,0.976791143
52.923130,3.041004181,1.026401520,1.674636841,0.078027956,0.000972595,0.955917120
52.923382,3.041004181,1.026401520,1.674636841,0.078027956,0.000972595,0.955917120
52.923632,3.041004181,1.026401520,1.674636841,0.078027956,0.000972595,0.955917120
52.923883,3.041004181,1.026401520,1.674636841,0.078027956,0.000972595,0.955917120
52.924134,3.041004181,1.026401520,1.674636841,0.078027956,0.000972595,0.955917120
52.924384,3.041004181,1.026401520,1.674636841,0.078027956,0.000972595,0.955917120
52.925838,3.041004181,1.026401520,1.674636841,0.078027956,0.000972595,0.955917120
52.939961,2.735828400,7.152805328,3.787979126,0.062891237,-0.008793030,0.955550909
52.940310,2.735828400,7.152805328,3.787979126,0.062891237,-0.008793030,0.955550909
52.940560,2.735828400,7.152805328,3.787979126,0.062891237,-0.008793030,0.955550909
52.940810,2.735828400,7.152805328,3.787979126,0.062891237,-0.008793030,0.955550909
52.941063,2.735828400,7.152805328,3.787979126,0.062891237,-0.008793030,0.955550909
52.941316,2.735828400,7.152805328,3.787979126,0.062891237,-0.008793030,0.955550909
52.941569,2.735828400,7.152805328,3.787979126,0.062891237,-0.008793030,0.955550909
52.941820,2.735828400,7.152805328,3.787979126,0.062891237,-0.008793030,0.955550909
52.942073,2.735828400,7.152805328,3.787979126,0.062891237,-0.008793030,0.955550909
52.942326,2.735828400,7.152805328,3.787979126,0.062891237,-0.008793030,0.955550909
52.942579,2.735828400,7.152805328,3.787979126,0.062891237,-0.008793030,0.955550909
52.944038,1.278614044,12.676486969,5.069717407,0.032251589,-0.040775452,0.976791143
52.982354,-1.483226776,9.617099762,0.217422485,0.072046511,-0.045902405,1.013534307
53.020778,3.094409943,0.911960602,4.291519165,0.071314089,0.051875915,0.999007940
53.034939,1.461719513,8.480319977,7.541641235,-0.043309934,-0.063968807,1.081039190
53.035281,1.461719513,8.480319977,7.541641235,-0.043309934,-0.063968807,1.081039190
53.035533,1.461719513,8.480319977,7.541641235,-0.043309934,-0.063968807,1.081039190
53.035784,1.461719513,8.480319977,7.541641235,-0.043309934,-0.063968807,1.081039190
53.036034,1.461719513,8.480319977,7.541641235,-0.043309934,-0.063968807,1.081039190
53.036284,1.461719513,8.480319977,7.541641235,-0.043309934,-0.063968807,1.081039190
53.036534,1.461719513,8.480319977,7.541641235,-0.043309934,-0.063968807,1.081039190
53.036786,1.461719513,8.480319977,7.541641235,-0.043309934,-0.063968807,1.081039190
53.037040,1.461719513,8.480319977,7.541641235,-0.043309934,-0.063968807,1.081039190
53.037290,1.461719513,8.480319977,7.541641235,-0.043309934,-0.063968807,1.081039190
53.037540,1.461719513,8.480319977,7.541641235,-0.043309934,-0.063968807,1.081039190
53.039003,1.461719513,8.480319977,7.541641235,-0.043309934,-0.063968807,1.081039190
53.053251,-4.100109100,12.661228180,3.528579712,-0.073095091,-0.116214901,1.080917120
53.053564,-4.100109100,12.661228180,3.528579712,-0.073095091,-0.116214901,1.080917120
53.053820,-4.100109100,12.661228180,3.528579712,-0.073095091,-0.116214901,1.080917120
53.054073,-4.100109100,12.661228180,3.528579712,-0.073095091,-0.116214901,1.080917120
53.054327,-4.100109100,12.661228180,3.528579712,-0.073095091,-0.116214901,1.080917120
53.054580,-4.100109100,12.661228180,3.528579712,-0.073095091,-0.116214901,1.080917120
53.054830,-4.100109100,12.661228180,3.528579712,-0.073095091,-0.116214901,1.080917120
53.055083,-4.100109100,12.661228180,3.528579712,-0.073095091,-0.116214901,1.080917120
53.055337,-4.100109100,12.661228180,3.528579712,-0.073095091,-0.116214901,1.080917120
53.055590,-4.100109100,12.661228180,3.528579712,-0.073095091,-0.116214901,1.080917120
53.104462,-8.334423065,27.843723297,8.571609497,0.105982058,-0.095585018,1.111800909
53.142983,-8.921886444,17.574558258,0.980361938,-0.035375364,-0.004154358,0.914779425
53.157167,-5.603099823,25.402317047,1.277908325,-0.037694700,0.052120056,0.894637823
53.157504,-5.603099823,25.402317047,1.277908325,-0.037694700,0.052120056,0.894637823
53.157791,-5.603099823,25.402317047,1.277908325,-0.037694700,0.052120056,0.894637823
53.158045,-5.603099823,25.402317047,1.277908325,-0.037694700,0.052120056,0.894637823
53.158299,-5.603099823,25.402317047,1.277908325,-0.037694700,0.052120056,0.894637823
53.158551,-5.603099823,25.402317047,1.277908325,-0.037694700,0.052120056,0.894637823
53.158802,-5.603099823,25.402317047,1.277908325,-0.037694700,0.052120056,0.894637823
53.159054,-5.603099823,25.402317047,1.277908325,-0.037694700,0.052120056,0.894637823
53.159307,-5.603099823,25.402317047,1.277908325,-0.037694700,0.052120056,0.894637823
53.159560,-5.603099823,25.402317047,1.277908325,-0.037694700,0.052120056,0.894637823
53.161021,-5.603099823,25.402317047,1.277908325,-0.037694700,0.052120056,0.894637823
53.175280,-2.108837128,40.256748199,8.869155884,-0.034032591,0.001460876,0.985336065
53.175590,-2.108837128,40.256748199,8.869155884,-0.034032591,0.001460876,0.985336065
53.175845,-2.108837128,40.256748199,8.869155884,-0.034032591,0.001460876,0.985336065
53.176097,-2.108837128,40.256748199,8.869155884,-0.034032591,0.001460876,0.985336065
53.176349,-2.108837128,40.256748199,8.869155884,-0.034032591,0.001460876,0.985336065
53.176600,-2.108837128,40.256748199,8.869155884,-0.034032591,0.001460876,0.985336065
53.176850,-2.108837128,40.256748199,8.869155884,-0.034032591,0.001460876,0.985336065
53.177101,-2.108837128,40.256748199,8.869155884,-0.034032591,0.001460876,0.985336065
53.177353,-2.108837128,40.256748199,8.869155884,-0.034032591,0.001460876,0.985336065
53.177604,-2.108837128,40.256748199,8.869155884,-0.034032591,0.001460876,0.985336065
53.177854,-2.108837128,40.256748199,8.869155884,-0.034032591,0.001460876,0.985336065
53.179308,-2.108837128,40.256748199,8.869155884,-0.034032591,0.001460876,0.985336065
53.217647,-6.121898651,16.315708160,-0.621810913,-0.088353880,-0.070072323,0.985458136
53.256055,-1.864696503,31.246433258,3.078445435,-0.008641968,-0.011722717,0.931747198
53.270229,0.263904572,31.513462067,3.993972778,-0.006566772,-0.023929749,0.961654425
53.270562,0.263904572,31.513462067,3.993972778,-0.006566772,-0.023929749,0.961654425
53.270843,1.293872833,29.140720367,3.810867310,-0.008764038,-0.032474671,1.005843878
53.271095,1.293872833,29.140720367,3.810867310,-0.008764038,-0.032474671,1.005843878
53.271346,1.293872833,29.140720367,3.810867310,-0.008764038,-0.032474671,1.005843878
53.271596,1.293872833,29.140720367,3.810867310,-0.008764038,-0.032474671,1.005843878
53.271846,1.293872833,29.140720367,3.810867310,-0.008764038,-0.032474671,1.005843878
53.272096,1.293872833,29.140720367,3.810867310,-0.008764038,-0.032474671,1.005843878
53.272346,1.293872833,29.140720367,3.810867310,-0.008764038,-0.032474671,1.005843878
53.272596,1.293872833,29.140720367,3.810867310,-0.008764038,-0.032474671,1.005843878
53.274067,1.293872833,29.140720367,3.810867310,-0.008764038,-0.032474671,1.005843878
53.288211,1.805042267,27.057895660,2.902969360,-0.020848999,-0.035404358,1.038070440
53.288559,1.805042267,27.057895660,2.902969360,-0.020848999,-0.035404358,1.038070440
53.288828,1.805042267,27.057895660,2.902969360,-0.020848999,-0.035404358,1.038070440
53.289080,1.805042267,27.057895660,2.902969360,-0.020848999,-0.035404358,1.038070440
53.289330,1.805042267,27.057895660,2.902969360,-0.020848999,-0.035404358,1.038070440
53.289581,1.805042267,27.057895660,2.902969360,-0.020848999,-0.035404358,1.038070440
53.289833,1.805042267,27.057895660,2.902969360,-0.020848999,-0.035404358,1.038070440
53.290085,1.805042267,27.057895660,2.902969360,-0.020848999,-0.035404358,1.038070440
53.290337,1.805042267,27.057895660,2.902969360,-0.020848999,-0.035404358,1.038070440
53.290589,1.805042267,27.057895660,2.902969360,-0.020848999,-0.035404358,1.038070440
53.339272,-6.114269257,12.409458160,1.811965942,-0.046361692,-0.063602597,1.090926886
53.377782,-4.618907928,-9.593715668,-0.644699097,-0.044774778,-0.017337952,0.958358526
53.392074,-2.421642303,-10.188808441,1.033767700,-0.076879270,-0.059208069,0.948226690
53.392383,-2.421642303,-10.188808441,1.033767700,-0.076879270,-0.059208069,0.948226690
53.392633,-2.421642303,-10.188808441,1.033767700,-0.076879270,-0.059208069,0.948226690
53.392883,-2.421642303,-10.188808441,1.033767700,-0.076879270,-0.059208069,0.948226690
53.393133,-2.421642303,-10.188808441,1.033767700,-0.076879270,-0.059208069,0.948226690
53.393383,-2.421642303,-10.188808441,1.033767700,-0.076879270,-0.059208069,0.948226690
53.393633,-2.421642303,-10.188808441,1.033767700,-0.076879270,-0.059208069,0.948226690
53.393883,-2.421642303,-10.188808441,1.033767700,-0.076879270,-0.059208069,0.948226690
53.394133,-2.421642303,-10.188808441,1.033767700,-0.076879270,-0.059208069,0.948226690
53.394383,-2.421642303,-10.188808441,1.033767700,-0.076879270,-0.059208069,0.948226690
53.395847,-2.421642303,-10.188808441,1.033767700,-0.076879270,-0.059208069,0.948226690
53.409984,-0.773693085,-13.118495941,-0.293746948,-0.101293333,-0.070438534,0.997787237
53.410340,-0.773693085,-13.118495941,-0.293746948,-0.101293333,-0.070438534,0.997787237
53.410603,-0.773693085,-13.118495941,-0.293746948,-0.101293333,-0.070438534,0.997787237
53.410854,-0.773693085,-13.118495941,-0.293746948,-0.101293333,-0.070438534,0.997787237
53.411105,-0.773693085,-13.118495941,-0.293746948,-0.101293333,-0.070438534,0.997787237
53.411357,-0.773693085,-13.118495941,-0.293746948,-0.101293333,-0.070438534,0.997787237
53.411608,-0.773693085,-13.118495941,-0.293746948,-0.101293333,-0.070438534,0.997787237
53.411859,-0.773693085,-13.118495941,-0.293746948,-0.101293333,-0.070438534,0.997787237
53.412110,-0.773693085,-13.118495941,-0.293746948,-0.101293333,-0.070438534,0.997787237
53.412361,-0.773693085,-13.118495941,-0.293746948,-0.101293333,-0.070438534,0.997787237
53.412611,-0.773693085,-13.118495941,-0.293746948,-0.101293333,-0.070438534,0.997787237
53.414069,-0.773693085,-13.118495941,-0.293746948,-0.101293333,-0.070438534,0.997787237
53.452377,-3.543163300,3.139743805,0.415786743,-0.083715208,-0.067752987,1.036239386
53.490772,-5.969310760,5.993137360,-1.071945190,-0.033422239,-0.079593807,0.967269659
53.504949,-5.137706757,3.841648102,-1.628890991,-0.024266968,-0.065921932,0.957381964
53.505290,-5.137706757,3.841648102,-1.628890991,-0.024266968,-0.065921932,0.957381964
53.505549,-5.137706757,3.841648102,-1.628890991,-0.024266968,-0.065921932,0.957381964
53.505799,-5.137706757,3.841648102,-1.628890991,-0.024266968,-0.065921932,0.957381964
53.506051,-5.137706757,3.841648102,-1.628890991,-0.024266968,-0.065921932,0.957381964
53.506302,-5.137706757,3.841648102,-1.628890991,-0.024266968,-0.065921932,0.957381964
53.506552,-5.137706757,3.841648102,-1.628890991,-0.024266968,-0.065921932,0.957381964
53.506802,-5.137706757,3.841648102,-1.628890991,-0.024266968,-0.065921932,0.957381964
53.507055,-5.137706757,3.841648102,-1.628890991,-0.024266968,-0.065921932,0.957381964
53.507308,-5.137706757,3.841648102,-1.628890991,-0.024266968,-0.065921932,0.957381964
53.508897,-5.137706757,3.841648102,-1.628890991,-0.024266968,-0.065921932,0.957381964
53.523031,-3.772045135,1.911411285,-0.499740601,-0.025609741,-0.044559631,0.958602667
53.523373,-3.772045135,1.911411285,-0.499740601,-0.025609741,-0.044559631,0.958602667
53.523633,-3.772045135,1.911411285,-0.499740601,-0.025609741,-0.044559631,0.958602667
53.523885,-3.772045135,1.911411285,-0.499740601,-0.025609741,-0.044559631,0.958602667
53.524137,-3.772045135,1.911411285,-0.499740601,-0.025609741,-0.044559631,0.958602667
53.524389,-3.772045135,1.911411285,-0.499740601,-0.025609741,-0.044559631,0.958602667
53.524642,-3.772045135,1.911411285,-0.499740601,-0.025609741,-0.044559631,0.958602667
53.524894,-3.772045135,1.911411285,-0.499740601,-0.025609741,-0.044559631,0.958602667
53.525146,-3.772045135,1.911411285,-0.499740601,-0.025609741,-0.044559631,0.958602667
53.525399,-3.772045135,1.911411285,-0.499740601,-0.025609741,-0.044559631,0.958602667
53.574052,-0.232006073,1.034030914,2.132400513,-0.050512083,-0.025272522,0.995956182
53.622936,0.202869415,-8.571376801,0.987991333,-0.069188841,-0.001468811,0.946273565
53.637283,2.011035919,-9.883632660,0.164016724,-0.070775755,-0.018558655,0.968002081
53.637594,2.011035919,-9.883632660,0.164016724,-0.070775755,-0.018558655,0.968002081
53.637845,2.011035919,-9.883632660,0.164016724,-0.070775755,-0.018558655,0.968002081
53.638095,2.011035919,-9.883632660,0.164016724,-0.070775755,-0.018558655,0.968002081
53.638345,2.011035919,-9.883632660,0.164016724,-0.070775755,-0.018558655,0.968002081
53.638598,2.476428986,-9.250392914,-0.316635132,-0.074071653,-0.066288143,0.990463018
53.638848,2.476428986,-9.250392914,-0.316635132,-0.074071653,-0.066288143,0.990463018
53.639098,2.476428986,-9.250392914,-0.316635132,-0.074071653,-0.066288143,0.990463018
53.639348,2.476428986,-9.250392914,-0.316635132,-0.074071653,-0.066288143,0.990463018
53.639598,2.476428986,-9.250392914,-0.316635132,-0.074071653,-0.066288143,0.990463018
53.641066,2.476428986,-9.250392914,-0.316635132,-0.074071653,-0.066288143,0.990463018
53.655186,1.667713165,-6.580104828,-0.347152710,-0.077977903,-0.084476620,1.004012823
53.655541,1.667713165,-6.580104828,-0.347152710,-0.077977903,-0.084476620,1.004012823
53.655809,1.667713165,-6.580104828,-0.347152710,-0.077977903,-0.084476620,1.004012823
53.656059,1.667713165,-6.580104828,-0.347152710,-0.077977903,-0.084476620,1.004012823
53.656311,1.667713165,-6.580104828,-0.347152710,-0.077977903,-0.084476620,1.004012823
53.656563,1.667713165,-6.580104828,-0.347152710,-0.077977903,-0.084476620,1.004012823
53.656816,1.667713165,-6.580104828,-0.347152710,-0.077977903,-0.084476620,1.004012823
53.657068,1.667713165,-6.580104828,-0.347152710,-0.077977903,-0.084476620,1.004012823
53.657321,1.667713165,-6.580104828,-0.347152710,-0.077977903,-0.084476620,1.004012823
53.657573,1.667713165,-6.580104828,-0.347152710,-0.077977903,-0.084476620,1.004012823
53.657826,1.667713165,-6.580104828,-0.347152710,-0.077977903,-0.084476620,1.004012823
53.659277,0.263904572,-2.025356293,1.346572876,-0.080785520,-0.075809628,1.002792120
53.697568,-1.391674042,8.754978180,5.474075317,-0.075902708,-0.071415097,0.955672979
53.735978,2.705310822,-7.304897308,1.064285278,-0.066625364,-0.064090878,0.996444464
53.750145,3.452991486,-11.661281586,0.217422485,-0.098363645,-0.048832092,0.990951300
53.750492,3.452991486,-11.661281586,0.217422485,-0.098363645,-0.048832092,0.990951300
53.750767,3.452991486,-11.661281586,0.217422485,-0.098363645,-0.048832092,0.990951300
53.751017,3.452991486,-11.661281586,0.217422485,-0.098363645,-0.048832092,0.990951300
53.751267,3.452991486,-11.661281586,0.217422485,-0.098363645,-0.048832092,0.990951300
53.751520,3.452991486,-11.661281586,0.217422485,-0.098363645,-0.048832092,0.990951300
53.751773,3.452991486,-11.661281586,0.217422485,-0.098363645,-0.048832092,0.990951300
53.752025,3.452991486,-11.661281586,0.217422485,-0.098363645,-0.048832092,0.990951300
53.752275,3.452991486,-11.661281586,0.217422485,-0.098363645,-0.048832092,0.990951300
53.752528,3.452991486,-11.661281586,0.217422485,-0.098363645,-0.048832092,0.990951300
53.753987,3.452991486,-11.661281586,0.217422485,-0.098363645,-0.048832092,0.990951300
53.768224,4.566883087,-5.939235687,1.155838013,-0.118383177,-0.046024475,0.991073370
53.768544,4.566883087,-5.939235687,1.155838013,-0.118383177,-0.046024475,0.991073370
53.768797,4.566883087,-5.939235687,1.155838013,-0.118383177,-0.046024475,0.991073370
53.769047,4.566883087,-5.939235687,1.155838013,-0.118383177,-0.046024475,0.991073370
53.769299,4.566883087,-5.939235687,1.155838013,-0.118383177,-0.046024475,0.991073370
53.769550,4.566883087,-5.939235687,1.155838013,-0.118383177,-0.046024475,0.991073370
53.769800,4.566883087,-5.939235687,1.155838013,-0.118383177,-0.046024475,0.991073370
53.770050,4.566883087,-5.939235687,1.155838013,-0.118383177,-0.046024475,0.991073370
53.770301,4.566883087,-5.939235687,1.155838013,-0.118383177,-0.046024475,0.991073370
53.820880,2.743457794,-0.179042816,-0.293746948,-0.114232786,-0.058963928,1.026717901
53.859385,-0.422740936,8.083591461,-0.232711792,-0.105565794,-0.065311581,1.020248175
53.873558,-2.040172577,9.655246735,0.125869751,-0.089818723,-0.057132874,1.015487432
53.873893,-2.040172577,9.655246735,0.125869751,-0.089818723,-0.057132874,1.015487432
53.874165,-2.040172577,9.655246735,0.125869751,-0.089818723,-0.057132874,1.015487432
53.874416,-2.040172577,9.655246735,0.125869751,-0.089818723,-0.057132874,1.015487432
53.874669,-2.040172577,9.655246735,0.125869751,-0.089818723,-0.057132874,1.015487432
53.874921,-2.040172577,9.655246735,0.125869751,-0.089818723,-0.057132874,1.015487432
53.875174,-2.040172577,9.655246735,0.125869751,-0.089818723,-0.057132874,1.015487432
53.875426,-2.040172577,9.655246735,0.125869751,-0.089818723,-0.057132874,1.015487432
53.875676,-2.040172577,9.655246735,0.125869751,-0.089818723,-0.057132874,1.015487432
53.875928,-2.040172577,9.655246735,0.125869751,-0.089818723,-0.057132874,1.015487432
53.877378,-2.177501678,8.953342438,-0.247970581,-0.077123411,-0.014652405,1.014877081
53.891648,-2.078319550,6.328830719,-1.239791870,-0.061498411,-0.018314514,1.010848761
53.891965,-2.078319550,6.328830719,-1.239791870,-0.061498411,-0.018314514,1.010848761
53.892215,-2.078319550,6.328830719,-1.239791870,-0.061498411,-0.018314514,1.010848761
53.892466,-2.078319550,6.328830719,-1.239791870,-0.061498411,-0.018314514,1.010848761
53.892716,-2.078319550,6.328830719,-1.239791870,-0.061498411,-0.018314514,1.010848761
53.892968,-2.078319550,6.328830719,-1.239791870,-0.061498411,-0.018314514,1.010848761
53.893218,-2.078319550,6.328830719,-1.239791870,-0.061498411,-0.018314514,1.010848761
53.893470,-2.078319550,6.328830719,-1.239791870,-0.061498411,-0.018314514,1.010848761
53.893720,-2.078319550,6.328830719,-1.239791870,-0.061498411,-0.018314514,1.010848761
53.893972,-2.078319550,6.328830719,-1.239791870,-0.061498411,-0.018314514,1.010848761
53.894222,-2.078319550,6.328830719,-1.239791870,-0.061498411,-0.018314514,1.010848761
53.895671,-2.078319550,6.328830719,-1.239791870,-0.061498411,-0.018314514,1.010848761
53.933998,-1.513744354,-0.339260101,-1.689926147,-0.057348020,-0.039554749,1.025130987
53.972258,-2.314830780,1.133213043,1.003250122,-0.033910520,-0.070438534,1.063827276
53.986536,-4.145885468,-0.438442230,1.361831665,-0.044164427,-0.087406307,1.062240362
53.986849,-4.145885468,-0.438442230,1.361831665,-0.044164427,-0.087406307,1.062240362
53.987102,-4.145885468,-0.438442230,1.361831665,-0.044164427,-0.087406307,1.062240362
53.987353,-4.145885468,-0.438442230,1.361831665,-0.044164427,-0.087406307,1.062240362
53.987604,-4.145885468,-0.438442230,1.361831665,-0.044164427,-0.087406307,1.062240362
53.987855,-4.145885468,-0.438442230,1.361831665,-0.044164427,-0.087406307,1.062240362
53.988108,-4.145885468,-0.438442230,1.361831665,-0.044164427,-0.087406307,1.062240362
53.988358,-4.145885468,-0.438442230,1.361831665,-0.044164427,-0.087406307,1.062240362
53.988608,-4.145885468,-0.438442230,1.361831665,-0.044164427,-0.087406307,1.062240362
53.988858,-4.145885468,-0.438442230,1.361831665,-0.044164427,-0.087406307,1.062240362
53.989108,-4.145885468,-0.438442230,1.361831665,-0.044164427,-0.087406307,1.062240362
53.990559,-4.145885468,-0.438442230,1.361831665,-0.044164427,-0.087406307,1.062240362
54.004717,-4.893566132,-0.888576508,1.682266235,-0.051976927,-0.083988339,1.052474737
54.005074,-4.893566132,-0.888576508,1.682266235,-0.051976927,-0.083988339,1.052474737
54.005331,-4.893566132,-0.888576508,1.682266235,-0.051976927,-0.083988339,1.052474737
54.005582,-4.893566132,-0.888576508,1.682266235,-0.051976927,-0.083988339,1.052474737
54.005835,-4.893566132,-0.888576508,1.682266235,-0.051976927,-0.083988339,1.052474737
54.006088,-4.893566132,-0.888576508,1.682266235,-0.051976927,-0.083988339,1.052474737
54.006341,-5.778575897,-1.483669281,1.728042603,-0.055883177,-0.085086972,1.031600714
54.006593,-5.778575897,-1.483669281,1.728042603,-0.055883177,-0.085086972,1.031600714
54.006845,-5.778575897,-1.483669281,1.728042603,-0.055883177,-0.085086972,1.031600714
54.055588,-3.855968475,-11.211147308,-1.606002808,-0.044164427,-0.082157284,1.000350714
54.094046,-2.719188690,0.087985992,1.117691040,-0.061010130,-0.087894589,0.984725714
54.108349,-3.260875702,7.404575348,3.536209106,-0.037206419,-0.066898495,0.983260870
54.108652,-3.260875702,7.404575348,3.536209106,-0.037206419,-0.066898495,0.983260870
54.108903,-3.260875702,7.404575348,3.536209106,-0.037206419,-0.066898495,0.983260870
54.109154,-3.260875702,7.404575348,3.536209106,-0.037206419,-0.066898495,0.983260870
54.109404,-3.260875702,7.404575348,3.536209106,-0.037206419,-0.066898495,0.983260870
54.109656,-3.260875702,7.404575348,3.536209106,-0.037206419,-0.066898495,0.983260870
54.109907,-3.260875702,7.404575348,3.536209106,-0.037206419,-0.066898495,0.983260870
54.110159,-3.260875702,7.404575348,3.536209106,-0.037206419,-0.066898495,0.983260870
54.110410,-3.260875702,7.404575348,3.536209106,-0.037206419,-0.066898495,0.983260870
54.110662,-3.260875702,7.404575348,3.536209106,-0.037206419,-0.066898495,0.983260870
54.112121,-3.260875702,7.404575348,3.536209106,-0.037206419,-0.066898495,0.983260870
54.126254,-2.314830780,6.023654938,3.322586060,-0.018773803,-0.081791073,0.989364386
54.126602,-2.314830780,6.023654938,3.322586060,-0.018773803,-0.081791073,0.989364386
54.126864,-2.314830780,6.023654938,3.322586060,-0.018773803,-0.081791073,0.989364386
54.127115,-2.314830780,6.023654938,3.322586060,-0.018773803,-0.081791073,0.989364386
54.127366,-2.314830780,6.023654938,3.322586060,-0.018773803,-0.081791073,0.989364386
54.127619,-2.314830780,6.023654938,3.322586060,-0.018773803,-0.081791073,0.989364386
54.127869,-2.314830780,6.023654938,3.322586060,-0.018773803,-0.081791073,0.989364386
54.128121,-2.314830780,6.023654938,3.322586060,-0.018773803,-0.081791073,0.989364386
54.128371,-2.314830780,6.023654938,3.322586060,-0.018773803,-0.081791073,0.989364386
54.128624,-2.314830780,6.023654938,3.322586060,-0.018773803,-0.081791073,0.989364386
54.128876,-2.314830780,6.023654938,3.322586060,-0.018773803,-0.081791073,0.989364386
54.130329,-2.314830780,6.023654938,3.322586060,-0.018773803,-0.081791073,0.989364386
54.168658,-3.482128143,-3.604640961,1.422866821,-0.025609741,-0.091434628,0.949447393
54.207048,-0.224376678,-7.518520355,1.537307739,-0.032445677,-0.087772518,0.980697393
54.221222,-0.659252167,-5.649318695,2.422317505,-0.044530638,-0.097416073,0.970199347
54.221579,-0.659252167,-5.649318695,2.422317505,-0.044530638,-0.097416073,0.970199347
54.221840,-0.659252167,-5.649318695,2.422317505,-0.044530638,-0.097416073,0.970199347
54.222093,-0.659252167,-5.649318695,2.422317505,-0.044530638,-0.097416073,0.970199347
54.222344,-0.659252167,-5.649318695,2.422317505,-0.044530638,-0.097416073,0.970199347
54.222596,-0.659252167,-5.649318695,2.422317505,-0.044530638,-0.097416073,0.970199347
54.222849,-0.659252167,-5.649318695,2.422317505,-0.044530638,-0.097416073,0.970199347
54.223101,-0.659252167,-5.649318695,2.422317505,-0.044530638,-0.097416073,0.970199347
54.223354,-0.659252167,-5.649318695,2.422317505,-0.044530638,-0.097416073,0.970199347
54.223606,-0.659252167,-5.649318695,2.422317505,-0.044530638,-0.097416073,0.970199347
54.225068,-0.506664276,-3.177394867,3.475173950,-0.056737669,-0.098636776,0.946151495
54.239322,0.210498810,-0.415554047,3.971084595,-0.065892942,-0.090458065,0.924789190
54.239625,0.210498810,-0.415554047,3.971084595,-0.065892942,-0.090458065,0.924789190
54.239877,0.210498810,-0.415554047,3.971084595,-0.065892942,-0.090458065,0.924789190
54.240127,0.210498810,-0.415554047,3.971084595,-0.065892942,-0.090458065,0.924789190
54.240380,0.210498810,-0.415554047,3.971084595,-0.065892942,-0.090458065,0.924789190
54.240633,0.210498810,-0.415554047,3.971084595,-0.065892942,-0.090458065,0.924789190
54.240884,0.210498810,-0.415554047,3.971084595,-0.065892942,-0.090458065,0.924789190
54.241137,0.210498810,-0.415554047,3.971084595,-0.065892942,-0.090458065,0.924789190
54.241388,0.210498810,-0.415554047,3.971084595,-0.065892942,-0.090458065,0.924789190
54.241638,0.210498810,-0.415554047,3.971084595,-0.065892942,-0.090458065,0.924789190
54.290324,4.994129181,-2.284755707,0.614151001,-0.041356809,-0.122684628,0.984481573
54.328778,5.879138947,3.376255035,3.162368774,-0.052953489,-0.102909237,0.989608526
54.342927,6.169055939,5.291233063,3.604873657,-0.054784544,-0.109501034,0.988754034
54.343250,6.169055939,5.291233063,3.604873657,-0.054784544,-0.109501034,0.988754034
54.343523,6.169055939,5.291233063,3.604873657,-0.054784544,-0.109501034,0.988754034
54.343775,6.169055939,5.291233063,3.604873657,-0.054784544,-0.109501034,0.988754034
54.344027,6.169055939,5.291233063,3.604873657,-0.054784544,-0.109501034,0.988754034
54.344278,6.024097443,4.871616364,3.406509399,-0.056981809,-0.151737362,0.980697393
54.344528,6.024097443,4.871616364,3.406509399,-0.056981809,-0.151737362,0.980697393
54.344778,6.024097443,4.871616364,3.406509399,-0.056981809,-0.151737362,0.980697393
54.345031,6.024097443,4.871616364,3.406509399,-0.056981809,-0.151737362,0.980697393
54.345281,6.024097443,4.871616364,3.406509399,-0.056981809,-0.151737362,0.980697393
54.345534,6.024097443,4.871616364,3.406509399,-0.056981809,-0.151737362,0.980697393
54.346990,6.024097443,4.871616364,3.406509399,-0.056981809,-0.151737362,0.980697393
54.361249,6.512378693,2.941379547,2.078994751,-0.065282591,-0.128055722,0.980209112
54.361550,6.512378693,2.941379547,2.078994751,-0.065282591,-0.128055722,0.980209112
54.361800,6.512378693,2.941379547,2.078994751,-0.065282591,-0.128055722,0.980209112
54.362050,6.512378693,2.941379547,2.078994751,-0.065282591,-0.128055722,0.980209112
54.362300,6.512378693,2.941379547,2.078994751,-0.065282591,-0.128055722,0.980209112
54.362553,6.512378693,2.941379547,2.078994751,-0.065282591,-0.128055722,0.980209112
54.362806,6.512378693,2.941379547,2.078994751,-0.065282591,-0.128055722,0.980209112
54.363058,6.512378693,2.941379547,2.078994751,-0.065282591,-0.128055722,0.980209112
54.363311,6.512378693,2.941379547,2.078994751,-0.065282591,-0.128055722,0.980209112
54.363563,6.512378693,2.941379547,2.078994751,-0.065282591,-0.128055722,0.980209112
54.363816,6.512378693,2.941379547,2.078994751,-0.065282591,-0.128055722,0.980209112
54.365268,6.756519318,1.392612457,0.904067993,-0.066503294,-0.122806698,0.978988409
54.414045,8.785938263,6.115207672,2.521499634,-0.054784544,-0.130497128,0.996810675
54.452512,6.787036896,-0.385036469,-0.484481812,-0.064794309,-0.104252011,1.016097784
54.466675,7.305835724,-2.010097504,-1.140609741,-0.083471067,-0.094486386,1.016219854
54.467016,7.305835724,-2.010097504,-1.140609741,-0.083471067,-0.094486386,1.016219854
54.467285,7.305835724,-2.010097504,-1.140609741,-0.083471067,-0.094486386,1.016219854
54.467535,7.305835724,-2.010097504,-1.140609741,-0.083471067,-0.094486386,1.016219854
54.467785,7.305835724,-2.010097504,-1.140609741,-0.083471067,-0.094486386,1.016219854
54.468037,7.305835724,-2.010097504,-1.140609741,-0.083471067,-0.094486386,1.016219854
54.468290,7.305835724,-2.010097504,-1.140609741,-0.083471067,-0.094486386,1.016219854
54.468542,7.305835724,-2.010097504,-1.140609741,-0.083471067,-0.094486386,1.016219854
54.468794,7.305835724,-2.010097504,-1.140609741,-0.083471067,-0.094486386,1.016219854
54.469047,7.305835724,-2.010097504,-1.140609741,-0.083471067,-0.094486386,1.016219854
54.470498,7.305835724,-2.010097504,-1.140609741,-0.083471067,-0.094486386,1.016219854
54.484747,6.207202911,-6.732692719,-3.612533569,-0.078588255,-0.108280331,1.083236456
54.485051,6.207202911,-6.732692719,-3.612533569,-0.078588255,-0.108280331,1.083236456
54.485303,6.207202911,-6.732692719,-3.612533569,-0.078588255,-0.108280331,1.083236456
54.485555,6.207202911,-6.732692719,-3.612533569,-0.078588255,-0.108280331,1.083236456
54.485805,6.207202911,-6.732692719,-3.612533569,-0.078588255,-0.108280331,1.083236456
54.486055,6.207202911,-6.732692719,-3.612533569,-0.078588255,-0.108280331,1.083236456
54.486305,6.207202911,-6.732692719,-3.612533569,-0.078588255,-0.108280331,1.083236456
54.486555,6.207202911,-6.732692719,-3.612533569,-0.078588255,-0.108280331,1.083236456
54.486805,6.207202911,-6.732692719,-3.612533569,-0.078588255,-0.108280331,1.083236456
54.535634,-6.770397186,-16.315212250,-12.699142456,-0.113012083,-0.046512756,0.984603643
54.574083,-2.566600800,8.426914215,-6.809249878,-0.026952514,-0.132572323,1.037338018
54.588247,-4.084850311,10.814914703,-5.466476440,-0.009252319,-0.150150448,1.065536261
54.588582,-4.084850311,10.814914703,-5.466476440,-0.009252319,-0.150150448,1.065536261
54.588863,-4.084850311,10.814914703,-5.466476440,-0.009252319,-0.150150448,1.065536261
54.589115,-4.084850311,10.814914703,-5.466476440,-0.009252319,-0.150150448,1.065536261
54.589366,-4.084850311,10.814914703,-5.466476440,-0.009252319,-0.150150448,1.065536261
54.589616,-4.084850311,10.814914703,-5.466476440,-0.009252319,-0.150150448,1.065536261
54.589866,-4.084850311,10.814914703,-5.466476440,-0.009252319,-0.150150448,1.065536261
54.590116,-4.084850311,10.814914703,-5.466476440,-0.009252319,-0.150150448,1.065536261
54.590366,-4.084850311,10.814914703,-5.466476440,-0.009252319,-0.150150448,1.065536261
54.590616,-4.084850311,10.814914703,-5.466476440,-0.009252319,-0.150150448,1.065536261
54.592074,-4.084850311,10.814914703,-5.466476440,-0.009252319,-0.150150448,1.065536261
54.606211,-7.434154510,8.312473297,-5.451217651,0.000147095,-0.148685604,1.067367315
54.606555,-7.434154510,8.312473297,-5.451217651,0.000147095,-0.148685604,1.067367315
54.606821,-7.434154510,8.312473297,-5.451217651,0.000147095,-0.148685604,1.067367315
54.607073,-7.434154510,8.312473297,-5.451217651,0.000147095,-0.148685604,1.067367315
54.607324,-7.434154510,8.312473297,-5.451217651,0.000147095,-0.148685604,1.067367315
54.607600,-7.434154510,8.312473297,-5.451217651,0.000147095,-0.148685604,1.067367315
54.607850,-7.434154510,8.312473297,-5.451217651,0.000147095,-0.148685604,1.067367315
54.608103,-7.434154510,8.312473297,-5.451217651,0.000147095,-0.148685604,1.067367315
54.608356,-7.434154510,8.312473297,-5.451217651,0.000147095,-0.148685604,1.067367315
54.608609,-7.434154510,8.312473297,-5.451217651,0.000147095,-0.148685604,1.067367315
54.608862,-7.434154510,8.312473297,-5.451217651,0.000147095,-0.148685604,1.067367315
54.610316,-7.434154510,8.312473297,-5.451217651,0.000147095,-0.148685604,1.067367315
54.648497,-4.916454315,-1.834621429,-6.092086792,0.018457642,-0.076908261,0.972274542
54.686927,-3.199840546,-10.509243011,-5.672470093,-0.021337280,-0.081791073,0.915267706
54.701226,-1.414562225,-6.862392426,-3.833786011,-0.019262085,-0.061283264,0.905868292
54.701527,-1.414562225,-6.862392426,-3.833786011,-0.019262085,-0.061283264,0.905868292
54.701779,-1.414562225,-6.862392426,-3.833786011,-0.019262085,-0.061283264,0.905868292
54.702031,0.195240021,-1.979579926,-1.598373413,-0.013158569,-0.066654354,0.914413214
54.702284,0.195240021,-1.979579926,-1.598373413,-0.013158569,-0.066654354,0.914413214
54.702536,0.195240021,-1.979579926,-1.598373413,-0.013158569,-0.066654354,0.914413214
54.702789,0.195240021,-1.979579926,-1.598373413,-0.013158569,-0.066654354,0.914413214
54.703041,0.195240021,-1.979579926,-1.598373413,-0.013158569,-0.066654354,0.914413214
54.703294,0.195240021,-1.979579926,-1.598373413,-0.013158569,-0.066654354,0.914413214
54.703546,0.195240021,-1.979579926,-1.598373413,-0.013158569,-0.066654354,0.914413214
54.705006,0.195240021,-1.979579926,-1.598373413,-0.013158569,-0.066654354,0.914413214
54.719140,1.454090118,1.644382477,0.171646118,-0.006322632,-0.117435604,0.929794073
54.719478,1.454090118,1.644382477,0.171646118,-0.006322632,-0.117435604,0.929794073
54.719741,1.454090118,1.644382477,0.171646118,-0.006322632,-0.117435604,0.929794073
54.719992,1.454090118,1.644382477,0.171646118,-0.006322632,-0.117435604,0.929794073
54.720242,1.454090118,1.644382477,0.171646118,-0.006322632,-0.117435604,0.929794073
54.720494,1.454090118,1.644382477,0.171646118,-0.006322632,-0.117435604,0.929794073
54.720746,1.454090118,1.644382477,0.171646118,-0.006322632,-0.117435604,0.929794073
54.720998,1.454090118,1.644382477,0.171646118,-0.006322632,-0.117435604,0.929794073
54.721250,1.454090118,1.644382477,0.171646118,-0.006322632,-0.117435604,0.929794073
54.721501,1.454090118,1.644382477,0.171646118,-0.006322632,-0.117435604,0.929794073
54.770235,3.216480255,-0.896205902,1.873001099,-0.017553100,-0.052005921,0.931258917
54.808733,7.260059357,-7.632961273,2.521499634,-0.018651733,-0.147586972,0.936996222
54.823038,7.641529083,-9.044399261,2.689346313,-0.032811888,-0.079593807,0.926498175
54.823334,7.641529083,-9.044399261,2.689346313,-0.032811888,-0.079593807,0.926498175
54.823585,7.641529083,-9.044399261,2.689346313,-0.032811888,-0.079593807,0.926498175
54.823837,7.641529083,-9.044399261,2.689346313,-0.032811888,-0.079593807,0.926498175
54.824087,7.641529083,-9.044399261,2.689346313,-0.032811888,-0.079593807,0.926498175
54.824338,7.641529083,-9.044399261,2.689346313,-0.032811888,-0.079593807,0.926498175
54.824588,7.641529083,-9.044399261,2.689346313,-0.032811888,-0.079593807,0.926498175
54.824839,7.641529083,-9.044399261,2.689346313,-0.032811888,-0.079593807,0.926498175
54.825090,7.641529083,-9.044399261,2.689346313,-0.032811888,-0.079593807,0.926498175
54.825340,7.641529083,-9.044399261,2.689346313,-0.032811888,-0.079593807,0.926498175
54.826795,7.641529083,-9.044399261,2.689346313,-0.032811888,-0.079593807,0.926498175
54.840924,8.404468536,-7.976284027,3.314956665,-0.039281614,-0.067264706,0.930526495
54.841265,9.037708282,-6.000270844,4.199966431,-0.039525755,-0.064823300,0.943221807
54.841526,9.037708282,-6.000270844,4.199966431,-0.039525755,-0.064823300,0.943221807
54.841776,9.037708282,-6.000270844,4.199966431,-0.039525755,-0.064823300,0.943221807
54.842028,9.037708282,-6.000270844,4.199966431,-0.039525755,-0.064823300,0.943221807
54.842278,9.037708282,-6.000270844,4.199966431,-0.039525755,-0.064823300,0.943221807
54.842530,9.037708282,-6.000270844,4.199966431,-0.039525755,-0.064823300,0.943221807
54.842780,9.037708282,-6.000270844,4.199966431,-0.039525755,-0.064823300,0.943221807
54.843032,9.037708282,-6.000270844,4.199966431,-0.039525755,-0.064823300,0.943221807
54.843284,9.037708282,-6.000270844,4.199966431,-0.039525755,-0.064823300,0.943221807
54.843537,9.037708282,-6.000270844,4.199966431,-0.039525755,-0.064823300,0.943221807
54.844993,9.037708282,-6.000270844,4.199966431,-0.039525755,-0.064823300,0.943221807
54.883332,3.712390900,1.491794586,9.563430786,0.004907837,-0.113041073,1.003646612
54.921761,8.320545197,-10.310878754,10.303482056,-0.033910520,-0.039920960,0.979842901
54.935919,8.602832794,-12.622585297,10.272964478,-0.051488645,-0.064212948,1.018539190
54.936269,8.602832794,-12.622585297,10.272964478,-0.051488645,-0.064212948,1.018539190
54.936535,8.602832794,-12.622585297,10.272964478,-0.051488645,-0.064212948,1.018539190
54.936787,8.602832794,-12.622585297,10.272964478,-0.051488645,-0.064212948,1.018539190
54.937037,8.602832794,-12.622585297,10.272964478,-0.051488645,-0.064212948,1.018539190
54.937289,8.602832794,-12.622585297,10.272964478,-0.051488645,-0.064212948,1.018539190
54.937539,8.602832794,-12.622585297,10.272964478,-0.051488645,-0.064212948,1.018539190
54.937790,8.602832794,-12.622585297,10.272964478,-0.051488645,-0.064212948,1.018539190
54.938041,8.602832794,-12.622585297,10.272964478,-0.051488645,-0.064212948,1.018539190
54.938292,8.602832794,-12.622585297,10.272964478,-0.051488645,-0.064212948,1.018539190
54.939756,8.602832794,-12.622585297,10.272964478,-0.051488645,-0.064212948,1.018539190
54.954022,5.345081329,-19.534816742,9.403213501,-0.075902708,-0.138675839,1.073592901
54.954332,5.345081329,-19.534816742,9.403213501,-0.075902708,-0.138675839,1.073592901
54.954584,5.345081329,-19.534816742,9.403213501,-0.075902708,-0.138675839,1.073592901
54.954835,5.345081329,-19.534816742,9.403213501,-0.075902708,-0.138675839,1.073592901
54.955088,5.345081329,-19.534816742,9.403213501,-0.075902708,-0.138675839,1.073592901
54.955338,5.345081329,-19.534816742,9.403213501,-0.075902708,-0.138675839,1.073592901
54.955590,5.345081329,-19.534816742,9.403213501,-0.075902708,-0.138675839,1.073592901
54.955840,5.345081329,-19.534816742,9.403213501,-0.075902708,-0.138675839,1.073592901
54.956093,5.345081329,-19.534816742,9.403213501,-0.075902708,-0.138675839,1.073592901
54.956346,5.345081329,-19.534816742,9.403213501,-0.075902708,-0.138675839,1.073592901
55.005027,3.765796661,-24.898281097,0.843032837,-0.146825567,-0.072879940,0.972030401
55.043476,1.072620392,5.863437653,2.834304810,-0.090184934,-0.124027401,1.035751104
55.057630,-0.453258514,7.725009918,1.720413208,-0.065892942,-0.126590878,1.035140753
55.057959,-0.453258514,7.725009918,1.720413208,-0.065892942,-0.126590878,1.035140753
55.058228,-0.453258514,7.725009918,1.720413208,-0.065892942,-0.126590878,1.035140753
55.058479,-0.453258514,7.725009918,1.720413208,-0.065892942,-0.126590878,1.035140753
55.058734,-0.453258514,7.725009918,1.720413208,-0.065892942,-0.126590878,1.035140753
55.058987,-0.453258514,7.725009918,1.720413208,-0.065892942,-0.126590878,1.035140753
55.059237,-0.453258514,7.725009918,1.720413208,-0.065892942,-0.126590878,1.035140753
55.059487,-0.453258514,7.725009918,1.720413208,-0.065892942,-0.126590878,1.035140753
55.059737,-1.551891327,8.793125153,1.026138306,-0.058568723,-0.122806698,1.017440557
55.059990,-1.551891327,8.793125153,1.026138306,-0.058568723,-0.122806698,1.017440557
55.060240,-1.551891327,8.793125153,1.026138306,-0.058568723,-0.122806698,1.017440557
55.061684,-1.551891327,8.793125153,1.026138306,-0.058568723,-0.122806698,1.017440557
55.075934,-1.780773163,11.089572906,1.697525024,-0.067235716,-0.083500057,1.002425909
55.076239,-1.780773163,11.089572906,1.697525024,-0.067235716,-0.083500057,1.002425909
55.076490,-1.780773163,11.089572906,1.697525024,-0.067235716,-0.083500057,1.002425909
55.076740,-1.780773163,11.089572906,1.697525024,-0.067235716,-0.083500057,1.002425909
55.076992,-1.780773163,11.089572906,1.697525024,-0.067235716,-0.083500057,1.002425909
55.077245,-1.780773163,11.089572906,1.697525024,-0.067235716,-0.083500057,1.002425909
55.077497,-1.780773163,11.089572906,1.697525024,-0.067235716,-0.083500057,1.002425909
55.077749,-1.780773163,11.089572906,1.697525024,-0.067235716,-0.083500057,1.002425909
55.078001,-1.780773163,11.089572906,1.697525024,-0.067235716,-0.083500057,1.002425909
55.078253,-1.780773163,11.089572906,1.697525024,-0.067235716,-0.083500057,1.002425909
55.078505,-1.780773163,11.089572906,1.697525024,-0.067235716,-0.083500057,1.002425909
55.079969,-0.743175507,14.934787750,2.735122681,-0.079931028,-0.084598690,0.993270636
55.118334,-0.666881561,23.823032379,2.231582642,-0.031347044,-0.169681698,1.050155401
55.167214,-0.170970917,14.629611969,7.015213013,-0.009618530,-0.086063534,0.989486456
55.181439,1.118396759,9.845981598,6.450637817,-0.022191772,-0.140628964,1.046005011
55.181792,1.118396759,9.845981598,6.450637817,-0.022191772,-0.140628964,1.046005011
55.182055,1.118396759,9.845981598,6.450637817,-0.022191772,-0.140628964,1.046005011
55.182307,1.118396759,9.845981598,6.450637817,-0.022191772,-0.140628964,1.046005011
55.182558,1.118396759,9.845981598,6.450637817,-0.022191772,-0.140628964,1.046005011
55.182811,1.118396759,9.845981598,6.450637817,-0.022191772,-0.140628964,1.046005011
55.183063,1.118396759,9.845981598,6.450637817,-0.022191772,-0.140628964,1.046005011
55.183313,1.118396759,9.845981598,6.450637817,-0.022191772,-0.140628964,1.046005011
55.183566,1.118396759,9.845981598,6.450637817,-0.022191772,-0.140628964,1.046005011
55.183818,1.118396759,9.845981598,6.450637817,-0.022191772,-0.140628964,1.046005011
55.185282,1.118396759,9.845981598,6.450637817,-0.022191772,-0.140628964,1.046005011
55.199523,-2.238536835,-2.094020844,4.947647095,0.021753540,-0.126835018,1.059676886
55.199845,-2.238536835,-2.094020844,4.947647095,0.021753540,-0.126835018,1.059676886
55.200096,-2.238536835,-2.094020844,4.947647095,0.021753540,-0.126835018,1.059676886
55.200346,-2.238536835,-2.094020844,4.947647095,0.021753540,-0.126835018,1.059676886
55.200597,-2.238536835,-2.094020844,4.947647095,0.021753540,-0.126835018,1.059676886
55.200848,-2.238536835,-2.094020844,4.947647095,0.021753540,-0.126835018,1.059676886
55.201098,-2.238536835,-2.094020844,4.947647095,0.021753540,-0.126835018,1.059676886
55.201348,-2.238536835,-2.094020844,4.947647095,0.021753540,-0.126835018,1.059676886
55.201601,-2.238536835,-2.094020844,4.947647095,0.021753540,-0.126835018,1.059676886
55.250439,1.393054962,-11.127223969,6.992324829,-0.055150755,-0.059208069,1.038802862
55.288887,-2.581859589,-32.565822601,4.146560669,-0.037084348,-0.076908261,1.088973761
55.303052,-2.185131073,-38.936367035,-1.209274292,-0.073095091,-0.039920960,1.049667120
55.303398,-2.185131073,-38.936367035,-1.209274292,-0.073095091,-0.039920960,1.049667120
55.303669,-2.185131073,-38.936367035,-1.209274292,-0.073095091,-0.039920960,1.049667120
55.303921,-2.185131073,-38.936367035,-1.209274292,-0.073095091,-0.039920960,1.049667120
55.304173,-2.185131073,-38.936367035,-1.209274292,-0.073095091,-0.039920960,1.049667120
55.304425,-2.185131073,-38.936367035,-1.209274292,-0.073095091,-0.039920960,1.049667120
55.304678,-2.185131073,-38.936367035,-1.209274292,-0.073095091,-0.039920960,1.049667120
55.304930,-2.185131073,-38.936367035,-1.209274292,-0.073095091,-0.039920960,1.049667120
55.305182,-2.185131073,-38.936367035,-1.209274292,-0.073095091,-0.039920960,1.049667120
55.305435,-2.185131073,-38.936367035,-1.209274292,-0.073095091,-0.039920960,1.049667120
55.306882,-2.185131073,-38.936367035,-1.209274292,-0.073095091,-0.039920960,1.049667120
55.321012,0.500415802,-27.721157074,-1.438156128,-0.110326536,-0.054081116,1.027084112
55.321364,0.500415802,-27.721157074,-1.438156128,-0.110326536,-0.054081116,1.027084112
55.321624,0.500415802,-27.721157074,-1.438156128,-0.110326536,-0.054081116,1.027084112
55.321877,0.500415802,-27.721157074,-1.438156128,-0.110326536,-0.054081116,1.027084112
55.322129,0.500415802,-27.721157074,-1.438156128,-0.110326536,-0.054081116,1.027084112
55.322381,0.500415802,-27.721157074,-1.438156128,-0.110326536,-0.054081116,1.027084112
55.322633,0.500415802,-27.721157074,-1.438156128,-0.110326536,-0.054081116,1.027084112
55.322884,0.500415802,-27.721157074,-1.438156128,-0.110326536,-0.054081116,1.027084112
55.323136,0.500415802,-27.721157074,-1.438156128,-0.110326536,-0.054081116,1.027084112
55.323398,0.500415802,-27.721157074,-1.438156128,-0.110326536,-0.054081116,1.027084112
55.323650,0.500415802,-27.721157074,-1.438156128,-0.110326536,-0.054081116,1.027084112
55.325107,0.500415802,-27.721157074,-1.438156128,-0.110326536,-0.054081116,1.027084112
55.363294,-6.037975311,9.327182770,3.337844849,-0.029149780,-0.015384827,1.061874151
55.401669,-4.214550018,22.304782867,-1.445785522,-0.090429075,-0.087406307,0.991927862
55.415973,-6.694103241,33.664951324,1.804336548,-0.042577513,-0.129032284,1.002425909
55.416288,-6.694103241,33.664951324,1.804336548,-0.042577513,-0.129032284,1.002425909
55.416538,-6.694103241,33.664951324,1.804336548,-0.042577513,-0.129032284,1.002425909
55.416788,-6.694103241,33.664951324,1.804336548,-0.042577513,-0.129032284,1.002425909
55.417038,-6.694103241,33.664951324,1.804336548,-0.042577513,-0.129032284,1.002425909
55.417291,-6.694103241,33.664951324,1.804336548,-0.042577513,-0.129032284,1.002425909
55.417541,-9.539867401,43.674716949,6.862625122,-0.002172241,-0.078373104,0.995589972
55.417793,-9.539867401,43.674716949,6.862625122,-0.002172241,-0.078373104,0.995589972
55.418046,-9.539867401,43.674716949,6.862625122,-0.002172241,-0.078373104,0.995589972
55.418298,-9.539867401,43.674716949,6.862625122,-0.002172241,-0.078373104,0.995589972
55.419761,-9.539867401,43.674716949,6.862625122,-0.002172241,-0.078373104,0.995589972
55.433913,-8.906627655,47.878513336,10.242446899,0.035547487,-0.041996155,0.983993292
55.434275,-8.906627655,47.878513336,10.242446899,0.035547487,-0.041996155,0.983993292
55.434539,-8.906627655,47.878513336,10.242446899,0.035547487,-0.041996155,0.983993292
55.434791,-8.906627655,47.878513336,10.242446899,0.035547487,-0.041996155,0.983993292
55.435041,-8.906627655,47.878513336,10.242446899,0.035547487,-0.041996155,0.983993292
55.435291,-8.906627655,47.878513336,10.242446899,0.035547487,-0.041996155,0.983993292
55.435541,-8.906627655,47.878513336,10.242446899,0.035547487,-0.041996155,0.983993292
55.435792,-8.906627655,47.878513336,10.242446899,0.035547487,-0.041996155,0.983993292
55.436042,-8.906627655,47.878513336,10.242446899,0.035547487,-0.041996155,0.983993292
55.484733,-3.955150604,17.635593414,4.672988892,0.029810181,-0.102787167,0.931136847
55.523201,2.743457794,-23.906459808,2.063735962,0.035059206,-0.047489319,0.914535284
55.537500,8.190845490,-45.474758148,-4.306808472,-0.038427122,-0.004642639,0.949203253
55.537811,8.190845490,-45.474758148,-4.306808472,-0.038427122,-0.004642639,0.949203253
55.538064,8.190845490,-45.474758148,-4.306808472,-0.038427122,-0.004642639,0.949203253
55.538314,8.190845490,-45.474758148,-4.306808472,-0.038427122,-0.004642639,0.949203253
55.538567,8.190845490,-45.474758148,-4.306808472,-0.038427122,-0.004642639,0.949203253
55.538819,8.190845490,-45.474758148,-4.306808472,-0.038427122,-0.004642639,0.949203253
55.539071,8.190845490,-45.474758148,-4.306808472,-0.038427122,-0.004642639,0.949203253
55.539323,8.190845490,-45.474758148,-4.306808472,-0.038427122,-0.004642639,0.949203253
55.539575,8.190845490,-45.474758148,-4.306808472,-0.038427122,-0.004642639,0.949203253
55.539828,8.190845490,-45.474758148,-4.306808472,-0.038427122,-0.004642639,0.949203253
55.541290,8.190845490,-45.474758148,-4.306808472,-0.038427122,-0.004642639,0.949203253
55.555423,7.473682404,-48.793544769,-6.725326538,-0.070775755,-0.071537167,0.972396612
55.555785,7.473682404,-48.793544769,-6.725326538,-0.070775755,-0.071537167,0.972396612
55.556045,7.473682404,-48.793544769,-6.725326538,-0.070775755,-0.071537167,0.972396612
55.556297,7.473682404,-48.793544769,-6.725326538,-0.070775755,-0.071537167,0.972396612
55.556548,5.238269806,-47.351589203,-8.716598511,-0.096410520,-0.109134823,0.978133917
55.556798,5.238269806,-47.351589203,-8.716598511,-0.096410520,-0.109134823,0.978133917
55.557048,5.238269806,-47.351589203,-8.716598511,-0.096410520,-0.109134823,0.978133917
55.557298,5.238269806,-47.351589203,-8.716598511,-0.096410520,-0.109134823,0.978133917
55.557551,5.238269806,-47.351589203,-8.716598511,-0.096410520,-0.109134823,0.978133917
55.557801,5.238269806,-47.351589203,-8.716598511,-0.096410520,-0.109134823,0.978133917
55.558051,5.238269806,-47.351589203,-8.716598511,-0.096410520,-0.109134823,0.978133917
55.559505,5.238269806,-47.351589203,-8.716598511,-0.096410520,-0.109134823,0.978133917
55.597829,0.973438263,-17.833461761,-4.848495483,-0.045263059,-0.089359432,0.944442511
55.636250,-5.015636444,21.839389801,-0.522628784,-0.034154661,-0.175052792,0.974715948
55.650418,-5.282665253,29.888401031,1.628860474,0.002954712,-0.114139706,0.967757940
55.650767,-5.282665253,29.888401031,1.628860474,0.002954712,-0.114139706,0.967757940
55.651029,-5.282665253,29.888401031,1.628860474,0.002954712,-0.114139706,0.967757940
55.651279,-5.282665253,29.888401031,1.628860474,0.002954712,-0.114139706,0.967757940
55.651531,-5.282665253,29.888401031,1.628860474,0.002954712,-0.114139706,0.967757940
55.651783,-5.282665253,29.888401031,1.628860474,0.002954712,-0.114139706,0.967757940
55.652034,-5.282665253,29.888401031,1.628860474,0.002954712,-0.114139706,0.967757940
55.652286,-5.282665253,29.888401031,1.628860474,0.002954712,-0.114139706,0.967757940
55.652537,-5.282665253,29.888401031,1.628860474,0.002954712,-0.114139706,0.967757940
55.652789,-5.282665253,29.888401031,1.628860474,0.002954712,-0.114139706,0.967757940
55.654253,-5.282665253,29.888401031,1.628860474,0.002954712,-0.114139706,0.967757940
55.668506,-5.343700409,31.208286285,5.626663208,0.075952761,-0.116092831,0.937362432
55.668837,-5.343700409,31.208286285,5.626663208,0.075952761,-0.116092831,0.937362432
55.669087,-5.343700409,31.208286285,5.626663208,0.075952761,-0.116092831,0.937362432
55.669338,-5.343700409,31.208286285,5.626663208,0.075952761,-0.116092831,0.937362432
55.669591,-5.343700409,31.208286285,5.626663208,0.075952761,-0.116092831,0.937362432
55.669844,-5.343700409,31.208286285,5.626663208,0.075952761,-0.116092831,0.937362432
55.670096,-5.343700409,31.208286285,5.626663208,0.075952761,-0.116092831,0.937362432
55.670349,-5.343700409,31.208286285,5.626663208,0.075952761,-0.116092831,0.937362432
55.670601,-5.343700409,31.208286285,5.626663208,0.075952761,-0.116092831,0.937362432
55.670851,-5.343700409,31.208286285,5.626663208,0.075952761,-0.116092831,0.937362432
55.719598,-2.887035370,8.037815094,1.399978638,0.063257448,-0.150882870,0.950423956
55.758085,2.102588654,-28.667201996,-1.224533081,0.041162722,-0.044071350,0.923934698
55.772256,4.734729767,-33.405056000,-2.902999878,-0.007299194,-0.053714905,0.942855597
55.772587,4.734729767,-33.405056000,-2.902999878,-0.007299194,-0.053714905,0.942855597
55.772862,4.734729767,-33.405056000,-2.902999878,-0.007299194,-0.053714905,0.942855597
55.773114,4.734729767,-33.405056000,-2.902999878,-0.007299194,-0.053714905,0.942855597
55.773366,4.734729767,-33.405056000,-2.902999878,-0.007299194,-0.053714905,0.942855597
55.773618,4.734729767,-33.405056000,-2.902999878,-0.007299194,-0.053714905,0.942855597
55.773870,4.734729767,-33.405056000,-2.902999878,-0.007299194,-0.053714905,0.942855597
55.774122,4.734729767,-33.405056000,-2.902999878,-0.007299194,-0.053714905,0.942855597
55.774373,4.734729767,-33.405056000,-2.902999878,-0.007299194,-0.053714905,0.942855597
55.774625,4.734729767,-33.405056000,-2.902999878,-0.007299194,-0.053714905,0.942855597
55.776088,4.338001251,-32.802333832,-5.458847046,-0.033422239,-0.154911190,0.961898565
55.790344,2.720569611,-27.621974945,-4.505172729,-0.054906614,-0.178959042,0.959701300
55.790654,2.720569611,-27.621974945,-4.505172729,-0.054906614,-0.178959042,0.959701300
55.790905,2.720569611,-27.621974945,-4.505172729,-0.054906614,-0.178959042,0.959701300
55.791156,2.720569611,-27.621974945,-4.505172729,-0.054906614,-0.178959042,0.959701300
55.791406,2.720569611,-27.621974945,-4.505172729,-0.054906614,-0.178959042,0.959701300
55.791657,2.720569611,-27.621974945,-4.505172729,-0.054906614,-0.178959042,0.959701300
55.791907,2.720569611,-27.621974945,-4.505172729,-0.054906614,-0.178959042,0.959701300
55.792157,2.720569611,-27.621974945,-4.505172729,-0.054906614,-0.178959042,0.959701300
55.792408,2.720569611,-27.621974945,-4.505172729,-0.054906614,-0.178959042,0.959701300
55.792658,2.720569611,-27.621974945,-4.505172729,-0.054906614,-0.178959042,0.959701300
55.792908,2.720569611,-27.621974945,-4.505172729,-0.054906614,-0.178959042,0.959701300
55.794362,2.720569611,-27.621974945,-4.505172729,-0.054906614,-0.178959042,0.959701300
55.832721,2.506946564,-5.054225922,0.781997681,-0.001806030,-0.125370175,0.957015753
55.881613,-1.834178925,21.419773102,-1.857772827,-0.059667356,-0.127323300,1.056014776
55.895842,-1.139904022,26.500949860,2.063735962,0.029199829,-0.049076233,1.055038214
55.896201,-1.139904022,26.500949860,2.063735962,0.029199829,-0.049076233,1.055038214
55.896471,-1.139904022,26.500949860,2.063735962,0.029199829,-0.049076233,1.055038214
55.896724,-1.139904022,26.500949860,2.063735962,0.029199829,-0.049076233,1.055038214
55.896976,-1.139904022,26.500949860,2.063735962,0.029199829,-0.049076233,1.055038214
55.897228,-1.139904022,26.500949860,2.063735962,0.029199829,-0.049076233,1.055038214
55.897480,-1.139904022,26.500949860,2.063735962,0.029199829,-0.049076233,1.055038214
55.897736,-1.139904022,26.500949860,2.063735962,0.029199829,-0.049076233,1.055038214
55.897988,-1.139904022,26.500949860,2.063735962,0.029199829,-0.049076233,1.055038214
55.898240,-1.139904022,26.500949860,2.063735962,0.029199829,-0.049076233,1.055038214
55.899702,-1.139904022,26.500949860,2.063735962,0.029199829,-0.049076233,1.055038214
55.913847,-0.514293671,21.122226715,0.904067993,0.050073855,-0.074588925,1.048568487
55.914208,0.530933380,13.752231598,-2.689376831,0.046900027,-0.038334046,1.059310675
55.914459,0.530933380,13.752231598,-2.689376831,0.046900027,-0.038334046,1.059310675
55.914710,0.530933380,13.752231598,-2.689376831,0.046900027,-0.038334046,1.059310675
55.914961,0.530933380,13.752231598,-2.689376831,0.046900027,-0.038334046,1.059310675
55.915212,0.530933380,13.752231598,-2.689376831,0.046900027,-0.038334046,1.059310675
55.915464,0.530933380,13.752231598,-2.689376831,0.046900027,-0.038334046,1.059310675
55.915715,0.530933380,13.752231598,-2.689376831,0.046900027,-0.038334046,1.059310675
55.915995,0.530933380,13.752231598,-2.689376831,0.046900027,-0.038334046,1.059310675
55.916247,0.530933380,13.752231598,-2.689376831,0.046900027,-0.038334046,1.059310675
55.965981,-5.969310760,-8.609523773,-5.069747925,0.026880493,-0.107669979,1.076644659
56.004459,3.422473907,-24.142971039,-8.419052124,-0.040868528,-0.025638733,1.047347784
56.018635,1.324390411,-20.305385590,-9.548202515,-0.051488645,-0.080692440,1.056136847
56.018979,1.324390411,-20.305385590,-9.548202515,-0.051488645,-0.080692440,1.056136847
56.019257,1.324390411,-20.305385590,-9.548202515,-0.051488645,-0.080692440,1.056136847
56.019509,1.324390411,-20.305385590,-9.548202515,-0.051488645,-0.080692440,1.056136847
56.019760,1.324390411,-20.305385590,-9.548202515,-0.051488645,-0.080692440,1.056136847
56.020012,1.324390411,-20.305385590,-9.548202515,-0.051488645,-0.080692440,1.056136847
56.020262,1.324390411,-20.305385590,-9.548202515,-0.051488645,-0.080692440,1.056136847
56.020512,1.324390411,-20.305385590,-9.548202515,-0.051488645,-0.080692440,1.056136847
56.020764,1.324390411,-20.305385590,-9.548202515,-0.051488645,-0.080692440,1.056136847
56.021014,1.324390411,-20.305385590,-9.548202515,-0.051488645,-0.080692440,1.056136847
56.022468,1.324390411,-20.305385590,-9.548202515,-0.051488645,-0.080692440,1.056136847
56.036616,-2.223278046,-6.091823578,-6.038681030,-0.036229856,-0.029056702,1.038558722
56.036969,-2.223278046,-6.091823578,-6.038681030,-0.036229856,-0.029056702,1.038558722
56.037221,-2.223278046,-6.091823578,-6.038681030,-0.036229856,-0.029056702,1.038558722
56.037471,-2.223278046,-6.091823578,-6.038681030,-0.036229856,-0.029056702,1.038558722
56.037722,-2.223278046,-6.091823578,-6.038681030,-0.036229856,-0.029056702,1.038558722
56.037972,-2.223278046,-6.091823578,-6.038681030,-0.036229856,-0.029056702,1.038558722
56.038225,-2.223278046,-6.091823578,-6.038681030,-0.036229856,-0.029056702,1.038558722
56.038478,-2.223278046,-6.091823578,-6.038681030,-0.036229856,-0.029056702,1.038558722
56.038735,-2.223278046,-6.091823578,-6.038681030,-0.036229856,-0.029056702,1.038558722
56.038988,-2.223278046,-6.091823578,-6.038681030,-0.036229856,-0.029056702,1.038558722
56.039238,-2.223278046,-6.091823578,-6.038681030,-0.036229856,-0.029056702,1.038558722
56.040687,-2.223278046,-6.091823578,-6.038681030,-0.036229856,-0.029056702,1.038558722
56.079018,0.324939728,0.805149078,-4.642501831,-0.015355835,0.054317322,1.008407354
56.117398,-6.526256561,19.588718414,-4.879013062,-0.019262085,-0.078251034,1.056869268
56.131691,-7.243419647,22.098789215,-2.948776245,0.019800415,-0.055545960,1.039169073
56.132009,-7.243419647,22.098789215,-2.948776245,0.019800415,-0.055545960,1.039169073
56.132259,-7.243419647,22.098789215,-2.948776245,0.019800415,-0.055545960,1.039169073
56.132509,-7.243419647,22.098789215,-2.948776245,0.019800415,-0.055545960,1.039169073
56.132760,-7.243419647,22.098789215,-2.948776245,0.019800415,-0.055545960,1.039169073
56.133011,-7.159496307,19.832859039,0.110610962,0.053735964,-0.034916077,1.028060675
56.133263,-7.159496307,19.832859039,0.110610962,0.053735964,-0.034916077,1.028060675
56.133515,-7.159496307,19.832859039,0.110610962,0.053735964,-0.034916077,1.028060675
56.133766,-7.159496307,19.832859039,0.110610962,0.053735964,-0.034916077,1.028060675
56.134018,-7.159496307,19.832859039,0.110610962,0.053735964,-0.034916077,1.028060675
56.135467,-7.159496307,19.832859039,0.110610962,0.053735964,-0.034916077,1.028060675
56.149612,-8.128429413,12.981662750,0.255569458,0.079370730,-0.069950253,1.007797003
56.149973,-8.128429413,12.981662750,0.255569458,0.079370730,-0.069950253,1.007797003
56.150227,-8.128429413,12.981662750,0.255569458,0.079370730,-0.069950253,1.007797003
56.150478,-8.128429413,12.981662750,0.255569458,0.079370730,-0.069950253,1.007797003
56.150733,-8.128429413,12.981662750,0.255569458,0.079370730,-0.069950253,1.007797003
56.150985,-8.128429413,12.981662750,0.255569458,0.079370730,-0.069950253,1.007797003
56.151237,-8.128429413,12.981662750,0.255569458,0.079370730,-0.069950253,1.007797003
56.151489,-8.128429413,12.981662750,0.255569458,0.079370730,-0.069950253,1.007797003
56.151741,-8.128429413,12.981662750,0.255569458,0.079370730,-0.069950253,1.007797003
56.200504,-5.671764374,-5.016078949,-6.336227417,-0.016942749,-0.048221741,0.947860479
56.238985,3.704761505,-18.855800629,-4.428878784,0.011743775,0.015132751,0.871200323
56.253163,6.031726837,-16.582241058,-7.595077515,-0.092382200,-0.032352600,0.950179815
56.253509,6.031726837,-16.582241058,-7.595077515,-0.092382200,-0.032352600,0.950179815
56.253788,6.031726837,-16.582241058,-7.595077515,-0.092382200,-0.032352600,0.950179815
56.254041,6.031726837,-16.582241058,-7.595077515,-0.092382200,-0.032352600,0.950179815
56.254292,6.031726837,-16.582241058,-7.595077515,-0.092382200,-0.032352600,0.950179815
56.254542,6.031726837,-16.582241058,-7.595077515,-0.092382200,-0.032352600,0.950179815
56.254827,6.031726837,-16.582241058,-7.595077515,-0.092382200,-0.032352600,0.950179815
56.255077,6.031726837,-16.582241058,-7.595077515,-0.092382200,-0.032352600,0.950179815
56.255327,6.031726837,-16.582241058,-7.595077515,-0.092382200,-0.032352600,0.950179815
56.255577,6.031726837,-16.582241058,-7.595077515,-0.092382200,-0.032352600,0.950179815
56.257037,6.031726837,-16.582241058,-7.595077515,-0.092382200,-0.032352600,0.950179815
56.271183,2.659534454,-8.640041351,-6.511703491,-0.103002317,-0.083988339,0.958358526
56.271532,2.659534454,-8.640041351,-6.511703491,-0.103002317,-0.083988339,0.958358526
56.271793,2.659534454,-8.640041351,-6.511703491,-0.103002317,-0.083988339,0.958358526
56.272044,0.935291290,0.934848785,-5.329147339,-0.094945677,-0.042972717,0.953963995
56.272294,0.935291290,0.934848785,-5.329147339,-0.094945677,-0.042972717,0.953963995
56.272547,0.935291290,0.934848785,-5.329147339,-0.094945677,-0.042972717,0.953963995
56.272800,0.935291290,0.934848785,-5.329147339,-0.094945677,-0.042972717,0.953963995
56.273052,0.935291290,0.934848785,-5.329147339,-0.094945677,-0.042972717,0.953963995
56.273305,0.935291290,0.934848785,-5.329147339,-0.094945677,-0.042972717,0.953963995
56.273557,0.935291290,0.934848785,-5.329147339,-0.094945677,-0.042972717,0.953963995
56.273807,0.935291290,0.934848785,-5.329147339,-0.094945677,-0.042972717,0.953963995
56.275257,0.935291290,0.934848785,-5.329147339,-0.094945677,-0.042972717,0.953963995
56.313570,3.163074493,14.141330719,0.446304321,0.006738892,-0.048710022,0.955062628
56.351976,-2.528453827,21.633396149,-0.667587280,-0.012059936,-0.037357483,0.956283331
56.366145,-1.704479218,23.380527496,1.216873169,0.018823853,-0.035770569,0.937240362
56.366494,-1.704479218,23.380527496,1.216873169,0.018823853,-0.035770569,0.937240362
56.366758,-1.704479218,23.380527496,1.216873169,0.018823853,-0.035770569,0.937240362
56.367008,-1.704479218,23.380527496,1.216873169,0.018823853,-0.035770569,0.937240362
56.367260,-1.704479218,23.380527496,1.216873169,0.018823853,-0.035770569,0.937240362
56.367511,-1.704479218,23.380527496,1.216873169,0.018823853,-0.035770569,0.937240362
56.367764,-1.704479218,23.380527496,1.216873169,0.018823853,-0.035770569,0.937240362
56.368015,-1.704479218,23.380527496,1.216873169,0.018823853,-0.035770569,0.937240362
56.368267,-1.704479218,23.380527496,1.216873169,0.018823853,-0.035770569,0.937240362
56.368519,-1.704479218,23.380527496,1.216873169,0.018823853,-0.035770569,0.937240362
56.369976,-1.704479218,23.380527496,1.216873169,0.018823853,-0.035770569,0.937240362
56.384237,1.614307404,17.269382477,2.773269653,0.042017214,-0.029667053,0.914657354
56.384560,1.614307404,17.269382477,2.773269653,0.042017214,-0.029667053,0.914657354
56.384816,1.614307404,17.269382477,2.773269653,0.042017214,-0.029667053,0.914657354
56.385069,1.614307404,17.269382477,2.773269653,0.042017214,-0.029667053,0.914657354
56.385322,1.614307404,17.269382477,2.773269653,0.042017214,-0.029667053,0.914657354
56.385574,1.614307404,17.269382477,2.773269653,0.042017214,-0.029667053,0.914657354
56.385826,1.614307404,17.269382477,2.773269653,0.042017214,-0.029667053,0.914657354
56.386078,1.614307404,17.269382477,2.773269653,0.042017214,-0.029667053,0.914657354
56.386330,1.614307404,17.269382477,2.773269653,0.042017214,-0.029667053,0.914657354
56.386582,1.614307404,17.269382477,2.773269653,0.042017214,-0.029667053,0.914657354
56.435508,3.857349396,12.272129059,2.872451782,0.010034790,0.005122986,0.925399542
56.473973,10.464405060,-16.444911957,0.087722778,-0.019628296,-0.029789124,0.956527472
56.488144,9.533618927,-18.947353363,-1.178756714,-0.034032591,-0.094608456,0.974715948
56.488479,9.533618927,-18.947353363,-1.178756714,-0.034032591,-0.094608456,0.974715948
56.488757,9.533618927,-18.947353363,-1.178756714,-0.034032591,-0.094608456,0.974715948
56.489008,9.533618927,-18.947353363,-1.178756714,-0.034032591,-0.094608456,0.974715948
56.489260,9.533618927,-18.947353363,-1.178756714,-0.034032591,-0.094608456,0.974715948
56.489510,9.533618927,-18.947353363,-1.178756714,-0.034032591,-0.094608456,0.974715948
56.489760,9.533618927,-18.947353363,-1.178756714,-0.034032591,-0.094608456,0.974715948
56.490010,9.533618927,-18.947353363,-1.178756714,-0.034032591,-0.094608456,0.974715948
56.490260,9.533618927,-18.947353363,-1.178756714,-0.034032591,-0.094608456,0.974715948
56.490510,9.533618927,-18.947353363,-1.178756714,-0.034032591,-0.094608456,0.974715948
56.491970,7.817005157,-19.794216156,-0.469223022,-0.039769895,-0.071903378,0.981918097
56.506118,8.228992462,-19.984951019,0.057205200,-0.039159544,0.031123962,0.992172003
56.506475,8.228992462,-19.984951019,0.057205200,-0.039159544,0.031123962,0.992172003
56.506734,8.228992462,-19.984951019,0.057205200,-0.039159544,0.031123962,0.992172003
56.506986,8.228992462,-19.984951019,0.057205200,-0.039159544,0.031123962,0.992172003
56.507238,8.228992462,-19.984951019,0.057205200,-0.039159544,0.031123962,0.992172003
56.507491,8.228992462,-19.984951019,0.057205200,-0.039159544,0.031123962,0.992172003
56.507743,8.228992462,-19.984951019,0.057205200,-0.039159544,0.031123962,0.992172003
56.507995,8.228992462,-19.984951019,0.057205200,-0.039159544,0.031123962,0.992172003
56.508290,8.228992462,-19.984951019,0.057205200,-0.039159544,0.031123962,0.992172003
56.508542,8.228992462,-19.984951019,0.057205200,-0.039159544,0.031123962,0.992172003
56.508794,8.228992462,-19.984951019,0.057205200,-0.039159544,0.031123962,0.992172003
56.510244,8.228992462,-19.984951019,0.057205200,-0.039159544,0.031123962,0.992172003
56.548419,14.103626251,-31.024684906,-1.552597046,-0.034398802,0.023433533,1.044296026
56.597353,7.252429962,3.582248688,3.169998169,-0.035131223,-0.041874085,1.081283331
56.611558,7.908557892,7.396945953,0.583633423,-0.026952514,-0.004520569,1.133529425
56.611911,7.908557892,7.396945953,0.583633423,-0.026952514,-0.004520569,1.133529425
56.612174,7.908557892,7.396945953,0.583633423,-0.026952514,-0.004520569,1.133529425
56.612426,7.908557892,7.396945953,0.583633423,-0.026952514,-0.004520569,1.133529425
56.612676,7.908557892,7.396945953,0.583633423,-0.026952514,-0.004520569,1.133529425
56.612927,7.908557892,7.396945953,0.583633423,-0.026952514,-0.004520569,1.133529425
56.613178,7.908557892,7.396945953,0.583633423,-0.026952514,-0.004520569,1.133529425
56.613430,7.908557892,7.396945953,0.583633423,-0.026952514,-0.004520569,1.133529425
56.613681,7.908557892,7.396945953,0.583633423,-0.026952514,-0.004520569,1.133529425
56.613932,7.908557892,7.396945953,0.583633423,-0.026952514,-0.004520569,1.133529425
56.615390,7.908557892,7.396945953,0.583633423,-0.026952514,-0.004520569,1.133529425
56.629516,5.535816193,10.448703766,0.766738892,-0.038915403,-0.048221741,1.160995245
56.629879,1.148914337,15.812168121,-0.019088745,-0.049535520,-0.073490292,1.173446417
56.630131,1.148914337,15.812168121,-0.019088745,-0.049535520,-0.073490292,1.173446417
56.630381,1.148914337,15.812168121,-0.019088745,-0.049535520,-0.073490292,1.173446417
56.630632,1.148914337,15.812168121,-0.019088745,-0.049535520,-0.073490292,1.173446417
56.630884,1.148914337,15.812168121,-0.019088745,-0.049535520,-0.073490292,1.173446417
56.631137,1.148914337,15.812168121,-0.019088745,-0.049535520,-0.073490292,1.173446417
56.631389,1.148914337,15.812168121,-0.019088745,-0.049535520,-0.073490292,1.173446417
56.631639,1.148914337,15.812168121,-0.019088745,-0.049535520,-0.073490292,1.173446417
56.631892,1.148914337,15.812168121,-0.019088745,-0.049535520,-0.073490292,1.173446417
56.681308,-3.878856659,32.612094879,5.458816528,0.087061159,0.119991153,1.074325323
56.719787,-5.427623749,10.738620758,2.674087524,0.063135378,-0.026615296,1.098006964
56.733960,-4.695201874,4.978427887,5.496963501,0.076441042,0.038081970,1.065780401
56.734291,-4.695201874,4.978427887,5.496963501,0.076441042,0.038081970,1.065780401
56.734553,-4.695201874,4.978427887,5.496963501,0.076441042,0.038081970,1.065780401
56.734806,-4.695201874,4.978427887,5.496963501,0.076441042,0.038081970,1.065780401
56.735057,-4.695201874,4.978427887,5.496963501,0.076441042,0.038081970,1.065780401
56.735310,-4.695201874,4.978427887,5.496963501,0.076441042,0.038081970,1.065780401
56.735561,-4.695201874,4.978427887,5.496963501,0.076441042,0.038081970,1.065780401
56.735813,-4.695201874,4.978427887,5.496963501,0.076441042,0.038081970,1.065780401
56.736064,-4.695201874,4.978427887,5.496963501,0.076441042,0.038081970,1.065780401
56.736316,-4.695201874,4.978427887,5.496963501,0.076441042,0.038081970,1.065780401
56.737780,-4.695201874,4.978427887,5.496963501,0.076441042,0.038081970,1.065780401
56.751920,1.339649200,-10.158290863,5.916580200,0.060205691,0.028560486,1.050521612
56.752269,1.339649200,-10.158290863,5.916580200,0.060205691,0.028560486,1.050521612
56.752527,1.339649200,-10.158290863,5.916580200,0.060205691,0.028560486,1.050521612
56.752779,1.339649200,-10.158290863,5.916580200,0.060205691,0.028560486,1.050521612
56.753030,1.339649200,-10.158290863,5.916580200,0.060205691,0.028560486,1.050521612
56.753282,1.339649200,-10.158290863,5.916580200,0.060205691,0.028560486,1.050521612
56.753533,1.339649200,-10.158290863,5.916580200,0.060205691,0.028560486,1.050521612
56.753784,1.339649200,-10.158290863,5.916580200,0.060205691,0.028560486,1.050521612
56.754036,1.339649200,-10.158290863,5.916580200,0.060205691,0.028560486,1.050521612
56.754287,1.339649200,-10.158290863,5.916580200,0.060205691,0.028560486,1.050521612
56.754538,1.339649200,-10.158290863,5.916580200,0.060205691,0.028560486,1.050521612
56.755996,1.339649200,-10.158290863,5.916580200,0.060205691,0.028560486,1.050521612
56.794338,-3.802562714,-6.549587250,4.634841919,-0.026708374,-0.035160217,1.119613409
56.832755,-6.816173553,10.418186188,8.235916138,-0.013646850,0.019649353,1.017318487
56.847042,-4.771495819,15.056858063,7.900222778,-0.033422239,0.038448181,1.018417120
56.847358,-4.771495819,15.056858063,7.900222778,-0.033422239,0.038448181,1.018417120
56.847608,-4.771495819,15.056858063,7.900222778,-0.033422239,0.038448181,1.018417120
56.847860,-4.771495819,15.056858063,7.900222778,-0.033422239,0.038448181,1.018417120
56.848110,-4.771495819,15.056858063,7.900222778,-0.033422239,0.038448181,1.018417120
56.848363,-4.077220917,20.183811188,10.959609985,-0.039525755,-0.022220764,1.044662237
56.848616,-4.077220917,20.183811188,10.959609985,-0.039525755,-0.022220764,1.044662237
56.848866,-4.077220917,20.183811188,10.959609985,-0.039525755,-0.022220764,1.044662237
56.849119,-4.077220917,20.183811188,10.959609985,-0.039525755,-0.022220764,1.044662237
56.849372,-4.077220917,20.183811188,10.959609985,-0.039525755,-0.022220764,1.044662237
56.850836,-4.077220917,20.183811188,10.959609985,-0.039525755,-0.022220764,1.044662237
56.864975,-7.823253632,24.502048492,11.646255493,-0.053197630,-0.104740292,1.055404425
56.865331,-7.823253632,24.502048492,11.646255493,-0.053197630,-0.104740292,1.055404425
56.865596,-7.823253632,24.502048492,11.646255493,-0.053197630,-0.104740292,1.055404425
56.865846,-7.823253632,24.502048492,11.646255493,-0.053197630,-0.104740292,1.055404425
56.866096,-7.823253632,24.502048492,11.646255493,-0.053197630,-0.104740292,1.055404425
56.866346,-7.823253632,24.502048492,11.646255493,-0.053197630,-0.104740292,1.055404425
56.866596,-7.823253632,24.502048492,11.646255493,-0.053197630,-0.104740292,1.055404425
56.866846,-7.823253632,24.502048492,11.646255493,-0.053197630,-0.104740292,1.055404425
56.867099,-7.823253632,24.502048492,11.646255493,-0.053197630,-0.104740292,1.055404425
56.867352,-7.823253632,24.502048492,11.646255493,-0.053197630,-0.104740292,1.055404425
56.916099,-10.638500214,10.135898590,7.900222778,-0.056737669,-0.062137756,0.978133917
56.954583,-14.262462616,8.381137848,5.687698364,-0.141332403,-0.169559628,0.978988409
56.968759,-15.307689667,13.073215485,4.924758911,-0.124364622,-0.058963928,0.930892706
56.969097,-15.307689667,13.073215485,4.924758911,-0.124364622,-0.058963928,0.930892706
56.969381,-15.307689667,13.073215485,4.924758911,-0.124364622,-0.058963928,0.930892706
56.969631,-15.307689667,13.073215485,4.924758911,-0.124364622,-0.058963928,0.930892706
56.969882,-15.307689667,13.073215485,4.924758911,-0.124364622,-0.058963928,0.930892706
56.970132,-15.307689667,13.073215485,4.924758911,-0.124364622,-0.058963928,0.930892706
56.970382,-15.307689667,13.073215485,4.924758911,-0.124364622,-0.058963928,0.930892706
56.970658,-15.307689667,13.073215485,4.924758911,-0.124364622,-0.058963928,0.930892706
56.970908,-15.307689667,13.073215485,4.924758911,-0.124364622,-0.058963928,0.930892706
56.971159,-15.307689667,13.073215485,4.924758911,-0.124364622,-0.058963928,0.930892706
56.972616,-15.307689667,13.073215485,4.924758911,-0.124364622,-0.058963928,0.930892706
56.986771,-13.636852264,14.354953766,4.138931274,-0.108129270,-0.063480526,0.911849737
56.987127,-13.636852264,14.354953766,4.138931274,-0.108129270,-0.063480526,0.911849737
56.987389,-13.636852264,14.354953766,4.138931274,-0.108129270,-0.063480526,0.911849737
56.987639,-11.996532440,14.522800446,3.818496704,-0.099462278,-0.079837948,0.901595831
56.987889,-11.996532440,14.522800446,3.818496704,-0.099462278,-0.079837948,0.901595831
56.988139,-11.996532440,14.522800446,3.818496704,-0.099462278,-0.079837948,0.901595831
56.988389,-11.996532440,14.522800446,3.818496704,-0.099462278,-0.079837948,0.901595831
56.988639,-11.996532440,14.522800446,3.818496704,-0.099462278,-0.079837948,0.901595831
56.988890,-11.996532440,14.522800446,3.818496704,-0.099462278,-0.079837948,0.901595831
56.989140,-11.996532440,14.522800446,3.818496704,-0.099462278,-0.079837948,0.901595831
56.989390,-11.996532440,14.522800446,3.818496704,-0.099462278,-0.079837948,0.901595831
56.990851,-11.996532440,14.522800446,3.818496704,-0.099462278,-0.079837948,0.901595831
57.029225,-10.318065643,16.018161774,3.231033325,-0.122655638,-0.130619198,0.937484503
57.067636,-3.802562714,6.511936188,0.484451294,-0.065648802,-0.117435604,0.920272589
57.081810,-2.024913788,1.430759430,-0.202194214,-0.062352903,-0.151004940,0.951522589
57.082155,-2.024913788,1.430759430,-0.202194214,-0.062352903,-0.151004940,0.951522589
57.082418,-2.024913788,1.430759430,-0.202194214,-0.062352903,-0.151004940,0.951522589
57.082671,-2.024913788,1.430759430,-0.202194214,-0.062352903,-0.151004940,0.951522589
57.082924,-2.024913788,1.430759430,-0.202194214,-0.062352903,-0.151004940,0.951522589
57.083176,-2.024913788,1.430759430,-0.202194214,-0.062352903,-0.151004940,0.951522589
57.083426,-2.024913788,1.430759430,-0.202194214,-0.062352903,-0.151004940,0.951522589
57.083679,-2.024913788,1.430759430,-0.202194214,-0.062352903,-0.151004940,0.951522589
57.083931,-2.024913788,1.430759430,-0.202194214,-0.062352903,-0.151004940,0.951522589
57.084183,-2.024913788,1.430759430,-0.202194214,-0.062352903,-0.151004940,0.951522589
57.085639,-2.024913788,1.430759430,-0.202194214,-0.062352903,-0.151004940,0.951522589
57.099892,-3.855968475,-8.472194672,-1.041427612,-0.071019895,-0.192508847,1.026107550
57.100210,-3.855968475,-8.472194672,-1.041427612,-0.071019895,-0.192508847,1.026107550
57.100461,-3.855968475,-8.472194672,-1.041427612,-0.071019895,-0.192508847,1.026107550
57.100713,-3.855968475,-8.472194672,-1.041427612,-0.071019895,-0.192508847,1.026107550
57.100964,-3.855968475,-8.472194672,-1.041427612,-0.071019895,-0.192508847,1.026107550
57.101215,-3.855968475,-8.472194672,-1.041427612,-0.071019895,-0.192508847,1.026107550
57.101467,-3.855968475,-8.472194672,-1.041427612,-0.071019895,-0.192508847,1.026107550
57.101718,-3.855968475,-8.472194672,-1.041427612,-0.071019895,-0.192508847,1.026107550
57.101968,-3.855968475,-8.472194672,-1.041427612,-0.071019895,-0.192508847,1.026107550
57.102219,-3.855968475,-8.472194672,-1.041427612,-0.071019895,-0.192508847,1.026107550
57.150909,-4.809642792,-16.635646820,-6.298080444,-0.133764043,0.004390564,0.955306768
57.189373,-5.023265839,6.122837067,-1.659408569,-0.139501348,-0.070438534,1.039291143
57.203541,-6.434703827,9.701023102,-1.728073120,-0.129491583,-0.079593807,1.037338018
57.203880,-6.434703827,9.701023102,-1.728073120,-0.129491583,-0.079593807,1.037338018
57.204148,-6.434703827,9.701023102,-1.728073120,-0.129491583,-0.079593807,1.037338018
57.204399,-6.434703827,9.701023102,-1.728073120,-0.129491583,-0.079593807,1.037338018
57.204649,-6.434703827,9.701023102,-1.728073120,-0.129491583,-0.079593807,1.037338018
57.204902,-6.434703827,9.701023102,-1.728073120,-0.129491583,-0.079593807,1.037338018
57.205152,-6.434703827,9.701023102,-1.728073120,-0.129491583,-0.079593807,1.037338018
57.205402,-6.434703827,9.701023102,-1.728073120,-0.129491583,-0.079593807,1.037338018
57.205652,-6.434703827,9.701023102,-1.728073120,-0.129491583,-0.079593807,1.037338018
57.205902,-6.434703827,9.701023102,-1.728073120,-0.129491583,-0.079593807,1.037338018
57.207363,-8.563304901,10.517368317,-2.147689819,-0.113256223,-0.069461972,1.022567511
57.221516,-9.700084686,8.571872711,-3.101364136,-0.106176145,-0.009037171,0.994369268
57.221863,-9.700084686,8.571872711,-3.101364136,-0.106176145,-0.009037171,0.994369268
57.222120,-9.700084686,8.571872711,-3.101364136,-0.106176145,-0.009037171,0.994369268
57.222372,-9.700084686,8.571872711,-3.101364136,-0.106176145,-0.009037171,0.994369268
57.222623,-9.700084686,8.571872711,-3.101364136,-0.106176145,-0.009037171,0.994369268
57.222875,-9.700084686,8.571872711,-3.101364136,-0.106176145,-0.009037171,0.994369268
57.223128,-9.700084686,8.571872711,-3.101364136,-0.106176145,-0.009037171,0.994369268
57.223378,-9.700084686,8.571872711,-3.101364136,-0.106176145,-0.009037171,0.994369268
57.223631,-9.700084686,8.571872711,-3.101364136,-0.106176145,-0.009037171,0.994369268
57.223913,-9.700084686,8.571872711,-3.101364136,-0.106176145,-0.009037171,0.994369268
57.224163,-9.700084686,8.571872711,-3.101364136,-0.106176145,-0.009037171,0.994369268
57.225615,-9.700084686,8.571872711,-3.101364136,-0.106176145,-0.009037171,0.994369268
57.274413,-2.154613495,8.045444489,-4.032150269,-0.087377317,0.022701111,0.997054815
57.312895,3.323291779,-7.671108246,-3.459945679,-0.073095091,-0.020023499,0.936019659
57.327057,6.054615021,-18.069972992,-4.886642456,-0.096166380,-0.083622128,0.952743292
57.327398,6.054615021,-18.069972992,-4.886642456,-0.096166380,-0.083622128,0.952743292
57.327672,6.054615021,-18.069972992,-4.886642456,-0.096166380,-0.083622128,0.952743292
57.327922,6.054615021,-18.069972992,-4.886642456,-0.096166380,-0.083622128,0.952743292
57.328174,6.054615021,-18.069972992,-4.886642456,-0.096166380,-0.083622128,0.952743292
57.328426,6.054615021,-18.069972992,-4.886642456,-0.096166380,-0.083622128,0.952743292
57.328679,6.054615021,-18.069972992,-4.886642456,-0.096166380,-0.083622128,0.952743292
57.328930,6.054615021,-18.069972992,-4.886642456,-0.096166380,-0.083622128,0.952743292
57.329183,6.054615021,-18.069972992,-4.886642456,-0.096166380,-0.083622128,0.952743292
57.329435,6.054615021,-18.069972992,-4.886642456,-0.096166380,-0.083622128,0.952743292
57.330885,6.054615021,-18.069972992,-4.886642456,-0.096166380,-0.083622128,0.952743292
57.345009,5.367969513,-19.687404633,-4.886642456,-0.111303098,-0.098270565,0.965072393
57.345362,3.430103302,-18.924465179,-3.810897827,-0.130712286,-0.110599667,0.961532354
57.345623,3.430103302,-18.924465179,-3.810897827,-0.130712286,-0.110599667,0.961532354
57.345874,3.430103302,-18.924465179,-3.810897827,-0.130712286,-0.110599667,0.961532354
57.346125,3.430103302,-18.924465179,-3.810897827,-0.130712286,-0.110599667,0.961532354
57.346375,3.430103302,-18.924465179,-3.810897827,-0.130712286,-0.110599667,0.961532354
57.346626,3.430103302,-18.924465179,-3.810897827,-0.130712286,-0.110599667,0.961532354
57.346878,3.430103302,-18.924465179,-3.810897827,-0.130712286,-0.110599667,0.961532354
57.347130,3.430103302,-18.924465179,-3.810897827,-0.130712286,-0.110599667,0.961532354
57.395888,5.291675568,-2.048244476,-4.131332397,-0.127050176,-0.012455139,0.901107550
57.434231,5.375598907,6.984958649,-1.216903687,-0.143773809,-0.073368222,0.921615362
57.448526,4.238819122,5.161533356,-4.261032104,-0.150121465,-0.057743225,0.913192511
57.448844,4.238819122,5.161533356,-4.261032104,-0.150121465,-0.057743225,0.913192511
57.449094,4.238819122,5.161533356,-4.261032104,-0.150121465,-0.057743225,0.913192511
57.449347,4.238819122,5.161533356,-4.261032104,-0.150121465,-0.057743225,0.913192511
57.449597,4.238819122,5.161533356,-4.261032104,-0.150121465,-0.057743225,0.913192511
57.449848,4.238819122,5.161533356,-4.261032104,-0.150121465,-0.057743225,0.913192511
57.450099,4.238819122,5.161533356,-4.261032104,-0.150121465,-0.057743225,0.913192511
57.450350,4.238819122,5.161533356,-4.261032104,-0.150121465,-0.057743225,0.913192511
57.450601,4.238819122,5.161533356,-4.261032104,-0.150121465,-0.057743225,0.913192511
57.450852,4.238819122,5.161533356,-4.261032104,-0.150121465,-0.057743225,0.913192511
57.451103,4.238819122,5.161533356,-4.261032104,-0.150121465,-0.057743225,0.913192511
57.452554,4.238819122,5.161533356,-4.261032104,-0.150121465,-0.057743225,0.913192511
57.466721,7.511829376,-0.423183441,-6.908432007,-0.111181028,-0.066898495,0.903182745
57.467081,7.511829376,-0.423183441,-6.908432007,-0.111181028,-0.066898495,0.903182745
57.467333,7.511829376,-0.423183441,-6.908432007,-0.111181028,-0.066898495,0.903182745
57.467583,7.511829376,-0.423183441,-6.908432007,-0.111181028,-0.066898495,0.903182745
57.467834,7.511829376,-0.423183441,-6.908432007,-0.111181028,-0.066898495,0.903182745
57.468084,7.511829376,-0.423183441,-6.908432007,-0.111181028,-0.066898495,0.903182745
57.468334,7.511829376,-0.423183441,-6.908432007,-0.111181028,-0.066898495,0.903182745
57.468584,7.511829376,-0.423183441,-6.908432007,-0.111181028,-0.066898495,0.903182745
57.468835,7.511829376,-0.423183441,-6.908432007,-0.111181028,-0.066898495,0.903182745
57.469085,7.511829376,-0.423183441,-6.908432007,-0.111181028,-0.066898495,0.903182745
57.469335,7.511829376,-0.423183441,-6.908432007,-0.111181028,-0.066898495,0.903182745
57.470792,7.511829376,-0.423183441,-6.908432007,-0.111181028,-0.066898495,0.903182745
57.509121,6.344532013,-0.758876801,-5.779281616,-0.098119505,-0.058719788,0.933089972
57.547546,4.231189728,0.644931793,-6.198898315,-0.064061888,-0.084476620,0.940780401
57.561722,5.360340118,-0.499477386,-6.885543823,-0.061986692,-0.030033264,0.931258917
57.562071,5.360340118,-0.499477386,-6.885543823,-0.061986692,-0.030033264,0.931258917
57.562327,5.360340118,-0.499477386,-6.885543823,-0.061986692,-0.030033264,0.931258917
57.562577,5.360340118,-0.499477386,-6.885543823,-0.061986692,-0.030033264,0.931258917
57.562874,5.360340118,-0.499477386,-6.885543823,-0.061986692,-0.030033264,0.931258917
57.563126,5.360340118,-0.499477386,-6.885543823,-0.061986692,-0.030033264,0.931258917
57.563376,5.360340118,-0.499477386,-6.885543823,-0.061986692,-0.030033264,0.931258917
57.563627,5.360340118,-0.499477386,-6.885543823,-0.061986692,-0.030033264,0.931258917
57.563877,7.122730255,0.385532379,-6.031051636,-0.062841184,-0.041752014,0.933822393
57.564127,7.122730255,0.385532379,-6.031051636,-0.062841184,-0.041752014,0.933822393
57.565578,7.122730255,0.385532379,-6.031051636,-0.062841184,-0.041752014,0.933822393
57.579721,7.633899689,3.277072906,-3.681198120,-0.066259153,-0.059330139,0.947738409
57.580080,7.633899689,3.277072906,-3.681198120,-0.066259153,-0.059330139,0.947738409
57.580333,7.633899689,3.277072906,-3.681198120,-0.066259153,-0.059330139,0.947738409
57.580583,7.633899689,3.277072906,-3.681198120,-0.066259153,-0.059330139,0.947738409
57.580833,7.633899689,3.277072906,-3.681198120,-0.066259153,-0.059330139,0.947738409
57.581084,7.633899689,3.277072906,-3.681198120,-0.066259153,-0.059330139,0.947738409
57.581334,7.633899689,3.277072906,-3.681198120,-0.066259153,-0.059330139,0.947738409
57.581585,7.633899689,3.277072906,-3.681198120,-0.066259153,-0.059330139,0.947738409
57.581835,7.633899689,3.277072906,-3.681198120,-0.066259153,-0.059330139,0.947738409
57.630709,3.826831818,1.964817047,0.514968872,-0.036718138,-0.071659237,0.969466925
57.669198,7.801746368,-4.047145844,2.269729614,-0.072606809,-0.112186581,1.003768682
57.683360,5.268787384,-1.048793793,3.086074829,-0.075414427,-0.104007870,1.036727667
57.683687,5.268787384,-1.048793793,3.086074829,-0.075414427,-0.104007870,1.036727667
57.683949,5.268787384,-1.048793793,3.086074829,-0.075414427,-0.104007870,1.036727667
57.684199,5.268787384,-1.048793793,3.086074829,-0.075414427,-0.104007870,1.036727667
57.684449,5.268787384,-1.048793793,3.086074829,-0.075414427,-0.104007870,1.036727667
57.684701,5.268787384,-1.048793793,3.086074829,-0.075414427,-0.104007870,1.036727667
57.684952,5.268787384,-1.048793793,3.086074829,-0.075414427,-0.104007870,1.036727667
57.685202,5.268787384,-1.048793793,3.086074829,-0.075414427,-0.104007870,1.036727667
57.685452,5.268787384,-1.048793793,3.086074829,-0.075414427,-0.104007870,1.036727667
57.685704,5.268787384,-1.048793793,3.086074829,-0.075414427,-0.104007870,1.036727667
57.685954,5.268787384,-1.048793793,3.086074829,-0.075414427,-0.104007870,1.036727667
57.687408,5.268787384,-1.048793793,3.086074829,-0.075414427,-0.104007870,1.036727667
57.701659,4.482959747,-1.773586273,3.246292114,-0.063085325,-0.089969784,1.045882940
57.701977,4.482959747,-1.773586273,3.246292114,-0.063085325,-0.089969784,1.045882940
57.702227,4.482959747,-1.773586273,3.246292114,-0.063085325,-0.089969784,1.045882940
57.702477,4.482959747,-1.773586273,3.246292114,-0.063085325,-0.089969784,1.045882940
57.702736,4.482959747,-1.773586273,3.246292114,-0.063085325,-0.089969784,1.045882940
57.702987,4.307483673,-4.558315277,2.788528442,-0.052098997,-0.092899472,1.046859503
57.703239,4.307483673,-4.558315277,2.788528442,-0.052098997,-0.092899472,1.046859503
57.703490,4.307483673,-4.558315277,2.788528442,-0.052098997,-0.092899472,1.046859503
57.703740,4.307483673,-4.558315277,2.788528442,-0.052098997,-0.092899472,1.046859503
57.703990,4.307483673,-4.558315277,2.788528442,-0.052098997,-0.092899472,1.046859503
57.704240,4.307483673,-4.558315277,2.788528442,-0.052098997,-0.092899472,1.046859503
57.705686,4.307483673,-4.558315277,2.788528442,-0.052098997,-0.092899472,1.046859503
57.744017,2.468799591,-3.413906097,4.566177368,-0.103734739,-0.070560604,1.093856573
57.782435,0.660633087,6.885776520,6.542190552,-0.088964231,-0.091434628,1.104598761
57.796600,0.157093048,2.674350739,4.177078247,-0.083837278,-0.066654354,1.117172003
57.796937,0.157093048,2.674350739,4.177078247,-0.083837278,-0.066654354,1.117172003
57.797196,0.157093048,2.674350739,4.177078247,-0.083837278,-0.066654354,1.117172003
57.797446,0.157093048,2.674350739,4.177078247,-0.083837278,-0.066654354,1.117172003
57.797698,0.157093048,2.674350739,4.177078247,-0.083837278,-0.066654354,1.117172003
57.797948,0.157093048,2.674350739,4.177078247,-0.083837278,-0.066654354,1.117172003
57.798201,0.157093048,2.674350739,4.177078247,-0.083837278,-0.066654354,1.117172003
57.798453,0.157093048,2.674350739,4.177078247,-0.083837278,-0.066654354,1.117172003
57.798706,0.157093048,2.674350739,4.177078247,-0.083837278,-0.066654354,1.117172003
57.798958,0.157093048,2.674350739,4.177078247,-0.083837278,-0.066654354,1.117172003
57.800445,0.157093048,2.674350739,4.177078247,-0.083837278,-0.066654354,1.117172003
57.814578,-2.429271698,-4.306545258,2.361282349,-0.090184934,-0.033817444,1.118514776
57.814930,-2.429271698,-4.306545258,2.361282349,-0.090184934,-0.033817444,1.118514776
57.815181,-2.429271698,-4.306545258,2.361282349,-0.090184934,-0.033817444,1.118514776
57.815432,-2.429271698,-4.306545258,2.361282349,-0.090184934,-0.033817444,1.118514776
57.815683,-2.429271698,-4.306545258,2.361282349,-0.090184934,-0.033817444,1.118514776
57.815937,-2.429271698,-4.306545258,2.361282349,-0.090184934,-0.033817444,1.118514776
57.816212,-2.429271698,-4.306545258,2.361282349,-0.090184934,-0.033817444,1.118514776
57.816465,-2.429271698,-4.306545258,2.361282349,-0.090184934,-0.033817444,1.118514776
57.816715,-2.429271698,-4.306545258,2.361282349,-0.090184934,-0.033817444,1.118514776
57.865401,-3.939891815,-5.023708344,1.857742310,-0.113256223,0.035152283,1.050887823
57.903877,0.538562775,1.011142731,1.873001099,-0.160619512,0.017207947,0.978255987
57.918049,2.392505646,3.948459625,2.040847778,-0.165258184,0.026729431,0.970565557
57.918374,2.392505646,3.948459625,2.040847778,-0.165258184,0.026729431,0.970565557
57.918643,2.392505646,3.948459625,2.040847778,-0.165258184,0.026729431,0.970565557
57.918893,2.392505646,3.948459625,2.040847778,-0.165258184,0.026729431,0.970565557
57.919143,2.392505646,3.948459625,2.040847778,-0.165258184,0.026729431,0.970565557
57.919394,2.392505646,3.948459625,2.040847778,-0.165258184,0.026729431,0.970565557
57.919644,2.392505646,3.948459625,2.040847778,-0.165258184,0.026729431,0.970565557
57.919895,2.392505646,3.948459625,2.040847778,-0.165258184,0.026729431,0.970565557
57.920145,2.392505646,3.948459625,2.040847778,-0.165258184,0.026729431,0.970565557
57.920396,2.392505646,3.948459625,2.040847778,-0.165258184,0.026729431,0.970565557
57.921872,4.391407013,6.740818024,0.629409790,-0.162572637,-0.004276428,0.967635870
57.947838,4.429553986,12.653598785,-0.316635132,-0.145726934,-0.033451233,0.970199347
57.986300,3.964160919,20.008335114,-3.070846558,-0.099462278,-0.006717835,0.955062628
58.024599,3.880237579,13.645420074,-4.001632690,-0.050145872,0.010005798,0.913436651
58.038920,5.169605255,11.631259918,-3.749862671,-0.045995481,0.003047790,0.902206182
58.039233,5.169605255,11.631259918,-3.749862671,-0.045995481,0.003047790,0.902206182
58.039484,5.169605255,11.631259918,-3.749862671,-0.045995481,0.003047790,0.902206182
58.039737,5.169605255,11.631259918,-3.749862671,-0.045995481,0.003047790,0.902206182
58.039989,5.169605255,11.631259918,-3.749862671,-0.045995481,0.003047790,0.902206182
58.040241,5.169605255,11.631259918,-3.749862671,-0.045995481,0.003047790,0.902206182
58.040493,5.169605255,11.631259918,-3.749862671,-0.045995481,0.003047790,0.902206182
58.040746,5.169605255,11.631259918,-3.749862671,-0.045995481,0.003047790,0.902206182
58.040998,6.115650177,9.060153961,-3.108993530,-0.038305052,0.000850525,0.902206182
58.041248,6.115650177,9.060153961,-3.108993530,-0.038305052,0.000850525,0.902206182
58.041498,6.115650177,9.060153961,-3.108993530,-0.038305052,0.000850525,0.902206182
58.042957,6.115650177,9.060153961,-3.108993530,-0.038305052,0.000850525,0.902206182
58.057117,7.305835724,5.459079742,-2.384201050,-0.029393921,-0.005985413,0.904281378
58.057482,7.305835724,5.459079742,-2.384201050,-0.029393921,-0.005985413,0.904281378
58.057736,7.305835724,5.459079742,-2.384201050,-0.029393921,-0.005985413,0.904281378
58.057987,7.305835724,5.459079742,-2.384201050,-0.029393921,-0.005985413,0.904281378
58.058238,7.305835724,5.459079742,-2.384201050,-0.029393921,-0.005985413,0.904281378
58.058489,7.305835724,5.459079742,-2.384201050,-0.029393921,-0.005985413,0.904281378
58.058739,7.305835724,5.459079742,-2.384201050,-0.029393921,-0.005985413,0.904281378
58.058990,7.305835724,5.459079742,-2.384201050,-0.029393921,-0.005985413,0.904281378
58.059241,7.305835724,5.459079742,-2.384201050,-0.029393921,-0.005985413,0.904281378
58.059492,7.305835724,5.459079742,-2.384201050,-0.029393921,-0.005985413,0.904281378
58.059743,7.305835724,5.459079742,-2.384201050,-0.029393921,-0.005985413,0.904281378
58.061192,7.939075470,0.492343903,-2.399459839,-0.027807007,-0.025272522,0.907699347
58.099538,10.639881134,-10.722866058,-3.360763550,-0.038060911,-0.023685608,0.910873175
58.137955,10.754322052,-7.236232758,-3.330245972,-0.081151731,-0.075931698,0.951522589
58.152120,7.427906036,-4.657497406,-6.977096558,-0.054906614,-0.095707089,0.967025518
58.152472,7.427906036,-4.657497406,-6.977096558,-0.054906614,-0.095707089,0.967025518
58.152726,7.427906036,-4.657497406,-6.977096558,-0.054906614,-0.095707089,0.967025518
58.152976,7.427906036,-4.657497406,-6.977096558,-0.054906614,-0.095707089,0.967025518
58.153228,7.427906036,-4.657497406,-6.977096558,-0.054906614,-0.095707089,0.967025518
58.153480,7.427906036,-4.657497406,-6.977096558,-0.054906614,-0.095707089,0.967025518
58.179370,5.123828888,3.917942047,-4.062667847,-0.029515991,-0.036258850,0.944808722
58.179724,5.123828888,3.917942047,-4.062667847,-0.029515991,-0.036258850,0.944808722
58.179976,5.924915314,9.960422516,-2.689376831,-0.015111694,0.015743103,0.949203253
58.180228,5.924915314,9.960422516,-2.689376831,-0.015111694,0.015743103,0.949203253
58.180478,5.924915314,9.960422516,-2.689376831,-0.015111694,0.015743103,0.949203253
58.180733,5.924915314,9.960422516,-2.689376831,-0.015111694,0.015743103,0.949203253
58.180985,5.924915314,9.960422516,-2.689376831,-0.015111694,0.015743103,0.949203253
58.181238,5.924915314,9.960422516,-2.689376831,-0.015111694,0.015743103,0.949203253
58.181490,5.924915314,9.960422516,-2.689376831,-0.015111694,0.015743103,0.949203253
58.219800,4.933094025,9.144077301,3.574356079,0.029810181,-0.037601624,0.993270636
58.258215,6.230091095,-11.546840668,1.506790161,0.019556275,-0.043827210,0.996810675
58.272396,7.168506622,-17.863979340,3.932937622,-0.017675171,-0.054935608,1.012923956
58.272733,7.168506622,-17.863979340,3.932937622,-0.017675171,-0.054935608,1.012923956
58.273007,7.168506622,-17.863979340,3.932937622,-0.017675171,-0.054935608,1.012923956
58.273257,7.168506622,-17.863979340,3.932937622,-0.017675171,-0.054935608,1.012923956
58.273507,7.168506622,-17.863979340,3.932937622,-0.017675171,-0.054935608,1.012923956
58.273757,7.168506622,-17.863979340,3.932937622,-0.017675171,-0.054935608,1.012923956
58.274007,7.168506622,-17.863979340,3.932937622,-0.017675171,-0.054935608,1.012923956
58.274259,7.168506622,-17.863979340,3.932937622,-0.017675171,-0.054935608,1.012923956
58.274509,7.168506622,-17.863979340,3.932937622,-0.017675171,-0.054935608,1.012923956
58.274759,7.168506622,-17.863979340,3.932937622,-0.017675171,-0.054935608,1.012923956
58.276222,7.168506622,-17.863979340,3.932937622,-0.017675171,-0.054935608,1.012923956
58.290481,7.229541779,-22.350063324,3.429397583,-0.053563841,-0.078373104,1.049422979
58.290808,7.229541779,-22.350063324,3.429397583,-0.053563841,-0.078373104,1.049422979
58.291061,7.229541779,-22.350063324,3.429397583,-0.053563841,-0.078373104,1.049422979
58.291312,7.229541779,-22.350063324,3.429397583,-0.053563841,-0.078373104,1.049422979
58.291565,7.229541779,-22.350063324,3.429397583,-0.053563841,-0.078373104,1.049422979
58.291818,7.229541779,-22.350063324,3.429397583,-0.053563841,-0.078373104,1.049422979
58.292070,7.229541779,-22.350063324,3.429397583,-0.053563841,-0.078373104,1.049422979
58.292320,7.229541779,-22.350063324,3.429397583,-0.053563841,-0.078373104,1.049422979
58.292573,7.229541779,-22.350063324,3.429397583,-0.053563841,-0.078373104,1.049422979
58.292826,7.229541779,-22.350063324,3.429397583,-0.053563841,-0.078373104,1.049422979
58.293079,7.229541779,-22.350063324,3.429397583,-0.053563841,-0.078373104,1.049422979
58.294531,7.229541779,-22.350063324,3.429397583,-0.053563841,-0.078373104,1.049422979
58.332869,2.545093536,-21.365871429,-0.484481812,-0.135228887,-0.053348694,1.088973761
58.371280,-0.300670624,3.353366852,1.399978638,-0.127294317,-0.017337952,1.103500128
58.385453,-1.284862518,6.496677399,1.277908325,-0.118383177,-0.024540100,1.112411261
58.385794,-1.284862518,6.496677399,1.277908325,-0.118383177,-0.024540100,1.112411261
58.386059,-1.284862518,6.496677399,1.277908325,-0.118383177,-0.024540100,1.112411261
58.386310,-1.284862518,6.496677399,1.277908325,-0.118383177,-0.024540100,1.112411261
58.386560,-1.284862518,6.496677399,1.277908325,-0.118383177,-0.024540100,1.112411261
58.386810,-1.284862518,6.496677399,1.277908325,-0.118383177,-0.024540100,1.112411261
58.387060,-1.284862518,6.496677399,1.277908325,-0.118383177,-0.024540100,1.112411261
58.387310,-1.284862518,6.496677399,1.277908325,-0.118383177,-0.024540100,1.112411261
58.387560,-1.284862518,6.496677399,1.277908325,-0.118383177,-0.024540100,1.112411261
58.387810,-1.284862518,6.496677399,1.277908325,-0.118383177,-0.024540100,1.112411261
58.388060,-1.284862518,6.496677399,1.277908325,-0.118383177,-0.024540100,1.112411261
58.389504,-1.780773163,7.755527496,1.010879517,-0.120092161,0.001338806,1.124984503
58.415602,-2.940441132,7.457981110,-2.361312866,-0.125951543,-0.083866268,1.156234503
58.415965,-2.940441132,7.457981110,-2.361312866,-0.125951543,-0.083866268,1.156234503
58.416218,-2.940441132,7.457981110,-2.361312866,-0.125951543,-0.083866268,1.156234503
58.416469,-2.940441132,7.457981110,-2.361312866,-0.125951543,-0.083866268,1.156234503
58.416719,-2.940441132,7.457981110,-2.361312866,-0.125951543,-0.083866268,1.156234503
58.416972,-2.940441132,7.457981110,-2.361312866,-0.125951543,-0.083866268,1.156234503
58.417222,-2.940441132,7.457981110,-2.361312866,-0.125951543,-0.083866268,1.156234503
58.417473,-2.940441132,7.457981110,-2.361312866,-0.125951543,-0.083866268,1.156234503
58.417724,-2.940441132,7.457981110,-2.361312866,-0.125951543,-0.083866268,1.156234503
58.456039,-11.248851776,11.158237457,-4.421249390,-0.070531614,0.024410095,1.097762823
58.494485,-4.863048553,-5.145778656,-6.412521362,-0.059179075,0.019771423,1.087508917
58.508659,-6.510997772,-13.591518402,-9.662643433,-0.074315794,0.011348572,1.057967901
58.509011,-6.510997772,-13.591518402,-9.662643433,-0.074315794,0.011348572,1.057967901
58.509277,-6.510997772,-13.591518402,-9.662643433,-0.074315794,0.011348572,1.057967901
58.509529,-6.510997772,-13.591518402,-9.662643433,-0.074315794,0.011348572,1.057967901
58.509781,-6.510997772,-13.591518402,-9.662643433,-0.074315794,0.011348572,1.057967901
58.510031,-6.510997772,-13.591518402,-9.662643433,-0.074315794,0.011348572,1.057967901
58.510282,-6.510997772,-13.591518402,-9.662643433,-0.074315794,0.011348572,1.057967901
58.510532,-6.510997772,-13.591518402,-9.662643433,-0.074315794,0.011348572,1.057967901
58.510782,-6.510997772,-13.591518402,-9.662643433,-0.074315794,0.011348572,1.057967901
58.511033,-6.510997772,-13.591518402,-9.662643433,-0.074315794,0.011348572,1.057967901
58.512484,-6.510997772,-13.591518402,-9.662643433,-0.074315794,0.011348572,1.057967901
58.526616,-6.335521698,-14.102687836,-10.372177124,-0.074926145,0.030757751,1.024398565
58.526984,-6.335521698,-14.102687836,-10.372177124,-0.074926145,0.030757751,1.024398565
58.527241,-6.335521698,-14.102687836,-10.372177124,-0.074926145,0.030757751,1.024398565
58.527493,-6.335521698,-14.102687836,-10.372177124,-0.074926145,0.030757751,1.024398565
58.527744,-4.565502167,-11.874904633,-9.204879761,-0.072240598,0.046748962,0.995467901
58.527994,-4.565502167,-11.874904633,-9.204879761,-0.072240598,0.046748962,0.995467901
58.528245,-4.565502167,-11.874904633,-9.204879761,-0.072240598,0.046748962,0.995467901
58.528498,-4.565502167,-11.874904633,-9.204879761,-0.072240598,0.046748962,0.995467901
58.528751,-4.565502167,-11.874904633,-9.204879761,-0.072240598,0.046748962,0.995467901
58.529003,-4.565502167,-11.874904633,-9.204879761,-0.072240598,0.046748962,0.995467901
58.529254,-4.565502167,-11.874904633,-9.204879761,-0.072240598,0.046748962,0.995467901
58.530708,-4.565502167,-11.874904633,-9.204879761,-0.072240598,0.046748962,0.995467901
58.569058,-2.818370819,-1.796474457,-2.826705933,-0.063207395,-0.052860413,0.990218878
58.617947,-0.132823944,-4.306545258,-5.390182495,-0.039647825,0.081416935,0.888412237
58.632313,1.843189240,-1.941432953,-2.750411987,-0.033300169,0.060542908,0.890487432
58.632627,1.843189240,-1.941432953,-2.750411987,-0.033300169,0.060542908,0.890487432
58.632879,1.843189240,-1.941432953,-2.750411987,-0.033300169,0.060542908,0.890487432
58.633130,1.843189240,-1.941432953,-2.750411987,-0.033300169,0.060542908,0.890487432
58.633381,1.843189240,-1.941432953,-2.750411987,-0.033300169,0.060542908,0.890487432
58.633631,1.843189240,-1.941432953,-2.750411987,-0.033300169,0.060542908,0.890487432
58.633881,1.843189240,-1.941432953,-2.750411987,-0.033300169,0.060542908,0.890487432
58.634133,1.843189240,-1.941432953,-2.750411987,-0.033300169,0.060542908,0.890487432
58.634385,1.843189240,-1.941432953,-2.750411987,-0.033300169,0.060542908,0.890487432
58.634636,1.843189240,-1.941432953,-2.750411987,-0.033300169,0.060542908,0.890487432
58.636098,1.843189240,-1.941432953,-2.750411987,-0.033300169,0.060542908,0.890487432
58.650222,2.957080841,-3.017177582,-0.514999390,-0.035131223,0.018184509,0.901351690
58.699085,5.200122833,-10.028591156,-4.024520874,-0.065648802,-0.009647522,0.896346807
58.737578,4.177783966,3.757724762,-0.301376343,-0.052709348,-0.052250061,0.925643682
58.751867,3.269886017,2.796421051,-0.583663940,-0.035619505,-0.047611389,0.931625128
58.752170,3.269886017,2.796421051,-0.583663940,-0.035619505,-0.047611389,0.931625128
58.752421,3.269886017,2.796421051,-0.583663940,-0.035619505,-0.047611389,0.931625128
58.752671,3.269886017,2.796421051,-0.583663940,-0.035619505,-0.047611389,0.931625128
58.752924,3.269886017,2.796421051,-0.583663940,-0.035619505,-0.047611389,0.931625128
58.753176,3.269886017,2.796421051,-0.583663940,-0.035619505,-0.047611389,0.931625128
58.753426,3.269886017,2.796421051,-0.583663940,-0.035619505,-0.047611389,0.931625128
58.753679,3.269886017,2.796421051,-0.583663940,-0.035619505,-0.047611389,0.931625128
58.753931,3.269886017,2.796421051,-0.583663940,-0.035619505,-0.047611389,0.931625128
58.754183,3.269886017,2.796421051,-0.583663940,-0.035619505,-0.047611389,0.931625128
58.755631,3.269886017,2.796421051,-0.583663940,-0.035619505,-0.047611389,0.931625128
58.769767,2.636646271,-3.452053070,-2.277389526,-0.017431030,0.008785095,0.918197393
58.770109,2.636646271,-3.452053070,-2.277389526,-0.017431030,0.008785095,0.918197393
58.770369,2.636646271,-3.452053070,-2.277389526,-0.017431030,0.008785095,0.918197393
58.770622,2.636646271,-3.452053070,-2.277389526,-0.017431030,0.008785095,0.918197393
58.770875,2.636646271,-3.452053070,-2.277389526,-0.017431030,0.008785095,0.918197393
58.771127,2.636646271,-3.452053070,-2.277389526,-0.017431030,0.008785095,0.918197393
58.771377,2.636646271,-3.452053070,-2.277389526,-0.017431030,0.008785095,0.918197393
58.771630,2.636646271,-3.452053070,-2.277389526,-0.017431030,0.008785095,0.918197393
58.771882,2.636646271,-3.452053070,-2.277389526,-0.017431030,0.008785095,0.918197393
58.772134,2.636646271,-3.452053070,-2.277389526,-0.017431030,0.008785095,0.918197393
58.772384,2.636646271,-3.452053070,-2.277389526,-0.017431030,0.008785095,0.918197393
58.773839,2.636646271,-3.452053070,-2.277389526,-0.017431030,0.008785095,0.918197393
58.812183,5.123828888,-4.031887054,2.353652954,-0.026098022,0.022823181,0.940780401
58.850573,7.290576935,-15.025844574,0.247940063,-0.035009153,0.032832947,0.944320440
58.864740,8.702014923,-16.086330414,-0.301376343,-0.045629270,0.011958923,0.957015753
58.865087,8.702014923,-16.086330414,-0.301376343,-0.045629270,0.011958923,0.957015753
58.865353,8.702014923,-16.086330414,-0.301376343,-0.045629270,0.011958923,0.957015753
58.865603,8.702014923,-16.086330414,-0.301376343,-0.045629270,0.011958923,0.957015753
58.865855,8.915637970,-14.987697601,-0.110641479,-0.053197630,-0.021732483,0.967880011
58.866106,8.915637970,-14.987697601,-0.110641479,-0.053197630,-0.021732483,0.967880011
58.866356,8.915637970,-14.987697601,-0.110641479,-0.053197630,-0.021732483,0.967880011
58.866606,8.915637970,-14.987697601,-0.110641479,-0.053197630,-0.021732483,0.967880011
58.866857,8.915637970,-14.987697601,-0.110641479,-0.053197630,-0.021732483,0.967880011
58.867110,8.915637970,-14.987697601,-0.110641479,-0.053197630,-0.021732483,0.967880011
58.868577,8.915637970,-14.987697601,-0.110641479,-0.053197630,-0.021732483,0.967880011
58.882840,9.052967072,-12.088527679,0.675186157,-0.057103880,-0.021000061,0.986800909
58.883153,9.052967072,-12.088527679,0.675186157,-0.057103880,-0.021000061,0.986800909
58.883405,9.052967072,-12.088527679,0.675186157,-0.057103880,-0.021000061,0.986800909
58.883657,9.052967072,-12.088527679,0.675186157,-0.057103880,-0.021000061,0.986800909
58.883909,9.052967072,-12.088527679,0.675186157,-0.057103880,-0.021000061,0.986800909
58.884160,9.052967072,-12.088527679,0.675186157,-0.057103880,-0.021000061,0.986800909
58.884412,9.052967072,-12.088527679,0.675186157,-0.057103880,-0.021000061,0.986800909
58.884664,9.052967072,-12.088527679,0.675186157,-0.057103880,-0.021000061,0.986800909
58.884915,9.052967072,-12.088527679,0.675186157,-0.057103880,-0.021000061,0.986800909
58.885166,9.052967072,-12.088527679,0.675186157,-0.057103880,-0.021000061,0.986800909
58.933909,5.757068634,-3.169765472,0.896438599,-0.069066770,-0.013553772,0.979720831
58.972380,6.153797150,11.753330231,3.681167603,-0.004247436,-0.002689514,1.056258917
58.986539,4.200672150,9.441623688,5.802139282,0.018945923,0.033565369,1.055160284
58.986868,4.200672150,9.441623688,5.802139282,0.018945923,0.033565369,1.055160284
58.987133,4.200672150,9.441623688,5.802139282,0.018945923,0.033565369,1.055160284
58.987383,4.200672150,9.441623688,5.802139282,0.018945923,0.033565369,1.055160284
58.987633,4.200672150,9.441623688,5.802139282,0.018945923,0.033565369,1.055160284
58.987884,4.200672150,9.441623688,5.802139282,0.018945923,0.033565369,1.055160284
58.988136,4.200672150,9.441623688,5.802139282,0.018945923,0.033565369,1.055160284
58.988388,4.200672150,9.441623688,5.802139282,0.018945923,0.033565369,1.055160284
58.988640,4.200672150,9.441623688,5.802139282,0.018945923,0.033565369,1.055160284
58.988892,4.200672150,9.441623688,5.802139282,0.018945923,0.033565369,1.055160284
58.989144,4.200672150,9.441623688,5.802139282,0.018945923,0.033565369,1.055160284
58.990598,4.200672150,9.441623688,5.802139282,0.018945923,0.033565369,1.055160284
59.004843,6.901477814,3.238925934,5.313858032,0.009668579,0.012691345,1.071883917
59.005140,6.901477814,3.238925934,5.313858032,0.009668579,0.012691345,1.071883917
59.005393,6.901477814,3.238925934,5.313858032,0.009668579,0.012691345,1.071883917
59.005644,6.901477814,3.238925934,5.313858032,0.009668579,0.012691345,1.071883917
59.005895,6.901477814,3.238925934,5.313858032,0.009668579,0.012691345,1.071883917
59.006146,6.901477814,3.238925934,5.313858032,0.009668579,0.012691345,1.071883917
59.006397,6.901477814,3.238925934,5.313858032,0.009668579,0.012691345,1.071883917
59.006648,6.901477814,3.238925934,5.313858032,0.009668579,0.012691345,1.071883917
59.006899,6.901477814,3.238925934,5.313858032,0.009668579,0.012691345,1.071883917
59.007150,6.901477814,3.238925934,5.313858032,0.009668579,0.012691345,1.071883917
59.007401,6.901477814,3.238925934,5.313858032,0.009668579,0.012691345,1.071883917
59.008853,6.901477814,3.238925934,5.313858032,0.009668579,0.012691345,1.071883917
59.047194,1.805042267,-3.444423676,4.474624634,0.009546509,-0.008915100,1.112655401
59.085573,4.078601837,3.879795074,8.594497681,-0.032079466,0.062373962,1.059676886
59.099736,3.140186310,4.398593903,7.633193970,-0.030126343,0.021358337,1.067245245
59.100068,3.140186310,4.398593903,7.633193970,-0.030126343,0.021358337,1.067245245
59.100330,3.140186310,4.398593903,7.633193970,-0.030126343,0.021358337,1.067245245
59.100581,3.140186310,4.398593903,7.633193970,-0.030126343,0.021358337,1.067245245
59.100833,3.140186310,4.398593903,7.633193970,-0.030126343,0.021358337,1.067245245
59.101084,3.140186310,4.398593903,7.633193970,-0.030126343,0.021358337,1.067245245
59.101335,3.140186310,4.398593903,7.633193970,-0.030126343,0.021358337,1.067245245
59.101587,3.140186310,4.398593903,7.633193970,-0.030126343,0.021358337,1.067245245
59.101838,3.140186310,4.398593903,7.633193970,-0.030126343,0.021358337,1.067245245
59.102089,3.140186310,4.398593903,7.633193970,-0.030126343,0.021358337,1.067245245
59.102341,3.140186310,4.398593903,7.633193970,-0.030126343,0.021358337,1.067245245
59.103794,3.140186310,4.398593903,7.633193970,-0.030126343,0.021358337,1.067245245
59.117924,2.186511993,1.835117340,7.762893677,-0.014867553,0.018062439,1.073959112
59.118264,2.186511993,1.835117340,7.762893677,-0.014867553,0.018062439,1.073959112
59.118522,2.186511993,1.835117340,7.762893677,-0.014867553,0.018062439,1.073959112
59.118772,2.186511993,1.835117340,7.762893677,-0.014867553,0.018062439,1.073959112
59.119025,2.186511993,1.835117340,7.762893677,-0.014867553,0.018062439,1.073959112
59.119278,2.186511993,1.835117340,7.762893677,-0.014867553,0.018062439,1.073959112
59.119530,2.186511993,1.835117340,7.762893677,-0.014867553,0.018062439,1.073959112
59.119780,2.186511993,1.835117340,7.762893677,-0.014867553,0.018062439,1.073959112
59.120033,2.186511993,1.835117340,7.762893677,-0.014867553,0.018062439,1.073959112
59.179265,1.621936798,1.514682770,9.563430786,-0.016820678,0.033687439,1.082015753
59.217780,-2.894664764,-6.175746918,6.061538696,-0.030858764,0.046016540,1.023177862
59.231931,-2.826000214,-5.481472015,6.778701782,-0.041356809,0.055904236,1.013412237
59.232257,-2.826000214,-5.481472015,6.778701782,-0.041356809,0.055904236,1.013412237
59.232530,-2.826000214,-5.481472015,6.778701782,-0.041356809,0.055904236,1.013412237
59.232780,-2.826000214,-5.481472015,6.778701782,-0.041356809,0.055904236,1.013412237
59.233030,-2.826000214,-5.481472015,6.778701782,-0.041356809,0.055904236,1.013412237
59.233280,-2.826000214,-5.481472015,6.778701782,-0.041356809,0.055904236,1.013412237
59.233533,-3.276134491,-3.131618500,7.656082153,-0.052343138,0.067622989,1.007797003
59.233783,-3.276134491,-3.131618500,7.656082153,-0.052343138,0.067622989,1.007797003
59.234036,-3.276134491,-3.131618500,7.656082153,-0.052343138,0.067622989,1.007797003
59.234288,-3.276134491,-3.131618500,7.656082153,-0.052343138,0.067622989,1.007797003
59.235754,-3.276134491,-3.131618500,7.656082153,-0.052343138,0.067622989,1.007797003
59.249869,-3.772045135,-0.896205902,8.083328247,-0.054540403,0.078853458,0.995589972
59.250224,-3.772045135,-0.896205902,8.083328247,-0.054540403,0.078853458,0.995589972
59.250479,-3.772045135,-0.896205902,8.083328247,-0.054540403,0.078853458,0.995589972
59.250736,-3.772045135,-0.896205902,8.083328247,-0.054540403,0.078853458,0.995589972
59.250986,-3.772045135,-0.896205902,8.083328247,-0.054540403,0.078853458,0.995589972
59.251266,-3.772045135,-0.896205902,8.083328247,-0.054540403,0.078853458,0.995589972
59.251517,-3.772045135,-0.896205902,8.083328247,-0.054540403,0.078853458,0.995589972
59.251769,-3.772045135,-0.896205902,8.083328247,-0.054540403,0.078853458,0.995589972
59.252019,-3.772045135,-0.896205902,8.083328247,-0.054540403,0.078853458,0.995589972
59.252270,-3.772045135,-0.896205902,8.083328247,-0.054540403,0.078853458,0.995589972
59.252522,-3.772045135,-0.896205902,8.083328247,-0.054540403,0.078853458,0.995589972
59.253973,-3.711009979,0.110874176,9.067520142,-0.054784544,0.076412052,0.978988409
59.292172,-0.125194550,-3.711452484,6.633743286,-0.073217161,0.020137634,0.938216925
59.341102,-2.459789276,4.871616364,5.832656860,-0.058812864,-0.056400452,0.938949347
59.355320,-1.208568573,5.207309723,5.474075317,-0.040624388,-0.005375061,0.924300909
59.355662,-1.208568573,5.207309723,5.474075317,-0.040624388,-0.005375061,0.924300909
59.355934,-1.208568573,5.207309723,5.474075317,-0.040624388,-0.005375061,0.924300909
59.356184,-1.208568573,5.207309723,5.474075317,-0.040624388,-0.005375061,0.924300909
59.356436,-1.208568573,5.207309723,5.474075317,-0.040624388,-0.005375061,0.924300909
59.356688,-1.208568573,5.207309723,5.474075317,-0.040624388,-0.005375061,0.924300909
59.356938,-1.208568573,5.207309723,5.474075317,-0.040624388,-0.005375061,0.924300909
59.357189,-1.208568573,5.207309723,5.474075317,-0.040624388,-0.005375061,0.924300909
59.357440,-1.208568573,5.207309723,5.474075317,-0.040624388,-0.005375061,0.924300909
59.357690,-1.208568573,5.207309723,5.474075317,-0.040624388,-0.005375061,0.924300909
59.359151,-1.208568573,5.207309723,5.474075317,-0.040624388,-0.005375061,0.924300909
59.373298,1.332019806,0.149021149,3.482803345,-0.039525755,-0.042606506,0.952010870
59.373656,1.332019806,0.149021149,3.482803345,-0.039525755,-0.042606506,0.952010870
59.373911,1.332019806,0.149021149,3.482803345,-0.039525755,-0.042606506,0.952010870
59.374162,1.332019806,0.149021149,3.482803345,-0.039525755,-0.042606506,0.952010870
59.374414,1.332019806,0.149021149,3.482803345,-0.039525755,-0.042606506,0.952010870
59.374665,1.332019806,0.149021149,3.482803345,-0.039525755,-0.042606506,0.952010870
59.374916,1.332019806,0.149021149,3.482803345,-0.039525755,-0.042606506,0.952010870
59.375166,1.332019806,0.149021149,3.482803345,-0.039525755,-0.042606506,0.952010870
59.375417,1.332019806,0.149021149,3.482803345,-0.039525755,-0.042606506,0.952010870
59.375668,1.332019806,0.149021149,3.482803345,-0.039525755,-0.042606506,0.952010870
59.375920,1.332019806,0.149021149,3.482803345,-0.039525755,-0.042606506,0.952010870
59.424619,-1.948619843,-7.205715179,3.063186646,-0.034154661,0.033443298,0.922103643
59.462926,2.377246857,-11.554470062,-0.812545776,-0.090795286,-0.106815487,0.993880987
59.477235,-0.178600311,-11.119594574,-1.667037964,-0.088109739,-0.103397518,0.999618292
59.477559,-0.178600311,-11.119594574,-1.667037964,-0.088109739,-0.103397518,0.999618292
59.477810,-0.178600311,-11.119594574,-1.667037964,-0.088109739,-0.103397518,0.999618292
59.478063,-0.178600311,-11.119594574,-1.667037964,-0.088109739,-0.103397518,0.999618292
59.478314,-0.178600311,-11.119594574,-1.667037964,-0.088109739,-0.103397518,0.999618292
59.478564,-0.178600311,-11.119594574,-1.667037964,-0.088109739,-0.103397518,0.999618292
59.478814,-0.178600311,-11.119594574,-1.667037964,-0.088109739,-0.103397518,0.999618292
59.479064,-0.178600311,-11.119594574,-1.667037964,-0.088109739,-0.103397518,0.999618292
59.479314,-0.178600311,-11.119594574,-1.667037964,-0.088109739,-0.103397518,0.999618292
59.479564,-0.178600311,-11.119594574,-1.667037964,-0.088109739,-0.103397518,0.999618292
59.479815,-0.178600311,-11.119594574,-1.667037964,-0.088109739,-0.103397518,0.999618292
59.481264,-0.178600311,-11.119594574,-1.667037964,-0.088109739,-0.103397518,0.999618292
59.495403,-1.452709198,-7.640590668,-0.461593628,-0.082250364,-0.009769592,0.965926886
59.495766,-1.452709198,-7.640590668,-0.461593628,-0.082250364,-0.009769592,0.965926886
59.496017,-1.452709198,-7.640590668,-0.461593628,-0.082250364,-0.009769592,0.965926886
59.496269,-1.452709198,-7.640590668,-0.461593628,-0.082250364,-0.009769592,0.965926886
59.496520,-1.452709198,-7.640590668,-0.461593628,-0.082250364,-0.009769592,0.965926886
59.496773,-1.452709198,-7.640590668,-0.461593628,-0.082250364,-0.009769592,0.965926886
59.497024,-1.452709198,-7.640590668,-0.461593628,-0.082250364,-0.009769592,0.965926886
59.497276,-1.452709198,-7.640590668,-0.461593628,-0.082250364,-0.009769592,0.965926886
59.497528,-1.452709198,-7.640590668,-0.461593628,-0.082250364,-0.009769592,0.965926886
59.497780,-1.452709198,-7.640590668,-0.461593628,-0.082250364,-0.009769592,0.965926886
59.498031,-1.452709198,-7.640590668,-0.461593628,-0.082250364,-0.009769592,0.965926886
59.499478,-1.452709198,-7.640590668,-0.461593628,-0.082250364,-0.009769592,0.965926886
59.537817,2.201770782,1.766452789,-4.161849976,-0.089574583,-0.097904354,1.058456182
59.576226,-4.451061249,8.793125153,-3.620162964,-0.014989624,0.026851501,1.015365362
59.590514,-1.773143768,10.372409821,-1.903549194,-0.019994507,0.060054626,1.026962042
59.590827,-1.773143768,10.372409821,-1.903549194,-0.019994507,0.060054626,1.026962042
59.591077,-0.407482147,11.326084137,-1.361862183,-0.023290405,0.002559509,1.048446417
59.591328,-0.407482147,11.326084137,-1.361862183,-0.023290405,0.002559509,1.048446417
59.591581,-0.407482147,11.326084137,-1.361862183,-0.023290405,0.002559509,1.048446417
59.591832,-0.407482147,11.326084137,-1.361862183,-0.023290405,0.002559509,1.048446417
59.592083,-0.407482147,11.326084137,-1.361862183,-0.023290405,0.002559509,1.048446417
59.592334,-0.407482147,11.326084137,-1.361862183,-0.023290405,0.002559509,1.048446417
59.592585,-0.407482147,11.326084137,-1.361862183,-0.023290405,0.002559509,1.048446417
59.592836,-0.407482147,11.326084137,-1.361862183,-0.023290405,0.002559509,1.048446417
59.594296,-0.407482147,11.326084137,-1.361862183,-0.023290405,0.002559509,1.048446417
59.608424,-1.055980682,11.104831696,-2.452865601,-0.023778686,-0.045658264,1.074325323
59.608785,-1.055980682,11.104831696,-2.452865601,-0.023778686,-0.045658264,1.074325323
59.609048,-1.055980682,11.104831696,-2.452865601,-0.023778686,-0.045658264,1.074325323
59.609300,-1.055980682,11.104831696,-2.452865601,-0.023778686,-0.045658264,1.074325323
59.609552,-1.055980682,11.104831696,-2.452865601,-0.023778686,-0.045658264,1.074325323
59.609802,-1.055980682,11.104831696,-2.452865601,-0.023778686,-0.045658264,1.074325323
59.610052,-1.055980682,11.104831696,-2.452865601,-0.023778686,-0.045658264,1.074325323
59.610302,-1.055980682,11.104831696,-2.452865601,-0.023778686,-0.045658264,1.074325323
59.659198,-5.305553436,15.766391754,-2.712265015,0.005274048,0.019527283,1.041244268
59.697687,-4.283214569,5.222568512,-1.888290405,0.010645142,0.016719665,1.061507940
59.711863,-4.580760956,-5.565395355,-3.383651733,0.001978150,0.031123962,1.031234503
59.712199,-4.580760956,-5.565395355,-3.383651733,0.001978150,0.031123962,1.031234503
59.712461,-4.580760956,-5.565395355,-3.383651733,0.001978150,0.031123962,1.031234503
59.712714,-4.580760956,-5.565395355,-3.383651733,0.001978150,0.031123962,1.031234503
59.712965,-4.580760956,-5.565395355,-3.383651733,0.001978150,0.031123962,1.031234503
59.713218,-4.580760956,-5.565395355,-3.383651733,0.001978150,0.031123962,1.031234503
59.713470,-4.580760956,-5.565395355,-3.383651733,0.001978150,0.031123962,1.031234503
59.713722,-4.580760956,-5.565395355,-3.383651733,0.001978150,0.031123962,1.031234503
59.713974,-4.580760956,-5.565395355,-3.383651733,0.001978150,0.031123962,1.031234503
59.714226,-4.580760956,-5.565395355,-3.383651733,0.001978150,0.031123962,1.031234503
59.715682,-4.580760956,-5.565395355,-3.383651733,0.001978150,0.031123962,1.031234503
59.729941,-3.733898163,-10.036220551,-2.239242554,-0.019750366,0.105953068,1.015121222
59.730267,-1.719738007,-12.965908051,-2.140060425,-0.058568723,0.121333927,1.003036261
59.730519,-1.719738007,-12.965908051,-2.140060425,-0.058568723,0.121333927,1.003036261
59.730771,-1.719738007,-12.965908051,-2.140060425,-0.058568723,0.121333927,1.003036261
59.731022,-1.719738007,-12.965908051,-2.140060425,-0.058568723,0.121333927,1.003036261
59.731274,-1.719738007,-12.965908051,-2.140060425,-0.058568723,0.121333927,1.003036261
59.731526,-1.719738007,-12.965908051,-2.140060425,-0.058568723,0.121333927,1.003036261
59.731778,-1.719738007,-12.965908051,-2.140060425,-0.058568723,0.121333927,1.003036261
59.732030,-1.719738007,-12.965908051,-2.140060425,-0.058568723,0.121333927,1.003036261
59.732282,-1.719738007,-12.965908051,-2.140060425,-0.058568723,0.121333927,1.003036261
59.732533,-1.719738007,-12.965908051,-2.140060425,-0.058568723,0.121333927,1.003036261
59.733990,-1.719738007,-12.965908051,-2.140060425,-0.058568723,0.121333927,1.003036261
59.772307,0.027393341,-13.065090179,-5.252853394,-0.126073614,0.005733337,1.002547979
59.810711,3.269886017,-1.239528656,-5.809799194,-0.132787481,0.074825138,0.985213995
59.824880,2.972339630,1.217136383,-7.328048706,-0.124852903,0.027339783,1.004256964
59.825219,2.972339630,1.217136383,-7.328048706,-0.124852903,0.027339783,1.004256964
59.825478,2.972339630,1.217136383,-7.328048706,-0.124852903,0.027339783,1.004256964
59.825735,2.972339630,1.217136383,-7.328048706,-0.124852903,0.027339783,1.004256964
59.825985,2.972339630,1.217136383,-7.328048706,-0.124852903,0.027339783,1.004256964
59.826235,2.972339630,1.217136383,-7.328048706,-0.124852903,0.027339783,1.004256964
59.826485,2.972339630,1.217136383,-7.328048706,-0.124852903,0.027339783,1.004256964
59.826736,2.972339630,1.217136383,-7.328048706,-0.124852903,0.027339783,1.004256964
59.826986,2.972339630,1.217136383,-7.328048706,-0.124852903,0.027339783,1.004256964
59.827236,2.972339630,1.217136383,-7.328048706,-0.124852903,0.027339783,1.004256964
59.827486,2.972339630,1.217136383,-7.328048706,-0.124852903,0.027339783,1.004256964
59.828945,2.972339630,1.217136383,-7.328048706,-0.124852903,0.027339783,1.004256964
59.843082,-1.246715546,4.871616364,-11.196151733,-0.091649778,0.038326111,1.007064581
59.843492,-1.246715546,4.871616364,-11.196151733,-0.091649778,0.038326111,1.007064581
59.843747,-1.246715546,4.871616364,-11.196151733,-0.091649778,0.038326111,1.007064581
59.843998,-1.246715546,4.871616364,-11.196151733,-0.091649778,0.038326111,1.007064581
59.844248,-1.246715546,4.871616364,-11.196151733,-0.091649778,0.038326111,1.007064581
59.844500,-1.246715546,4.871616364,-11.196151733,-0.091649778,0.038326111,1.007064581
59.844753,-1.246715546,4.871616364,-11.196151733,-0.091649778,0.038326111,1.007064581
59.845006,-1.246715546,4.871616364,-11.196151733,-0.091649778,0.038326111,1.007064581
59.845259,-1.246715546,4.871616364,-11.196151733,-0.091649778,0.038326111,1.007064581
59.894007,5.017017365,12.501010895,-7.755294800,-0.003148803,0.026363220,0.944442511
59.932482,-0.300670624,5.115756989,-5.519882202,0.050317995,-0.051883850,0.977889776
59.946656,-1.193309784,2.582798004,-5.481735229,0.053491823,-0.007206116,0.944320440
59.946993,-1.193309784,2.582798004,-5.481735229,0.053491823,-0.007206116,0.944320440
59.947260,-1.193309784,2.582798004,-5.481735229,0.053491823,-0.007206116,0.944320440
59.947513,-1.193309784,2.582798004,-5.481735229,0.053491823,-0.007206116,0.944320440
59.947765,-1.193309784,2.582798004,-5.481735229,0.053491823,-0.007206116,0.944320440
59.948017,-1.193309784,2.582798004,-5.481735229,0.053491823,-0.007206116,0.944320440
59.948269,-1.193309784,2.582798004,-5.481735229,0.053491823,-0.007206116,0.944320440
59.948521,-1.193309784,2.582798004,-5.481735229,0.053491823,-0.007206116,0.944320440
59.948772,-1.193309784,2.582798004,-5.481735229,0.053491823,-0.007206116,0.944320440
59.949024,1.545642853,0.286350250,-4.787460327,0.050440066,0.050655212,0.930160284
