time,gyro x,gyro y,gyro z,accel x,accel y, accel z
19.4670,-1.2547,-0.0395,-0.2201,0.0076,0.0049,0.0063
19.5720,-1.3693,1.0750,1.1692,0.0037,0.0049,0.0053
19.6670,2.8674,-1.9250,-0.4644,0.0027,0.0010,0.0048
19.7670,-0.0868,-2.0395,-0.7163,-0.0105,-0.0171,0.0146
19.8670,-0.2853,-3.7112,0.5432,0.0066,-0.0053,0.0038
19.9670,-0.4303,-2.6425,0.4135,-0.0056,-0.0083,0.0063
20.0670,-0.0334,-0.0318,1.8486,-0.0027,0.0049,-0.0103
20.1670,0.7529,2.5483,0.2074,0.0100,0.0000,0.0024
20.2670,-1.5906,-2.3067,-0.0369,0.0017,-0.0024,-0.0020
20.3670,1.1346,-0.7112,0.1005,-0.0051,0.0064,0.0004
20.4670,-0.8807,-2.3906,0.8867,0.0012,-0.0097,0.0024
20.5670,-0.0105,0.0140,-3.2430,0.0017,0.0010,-0.0001
20.6670,-0.0028,-0.4746,-0.3041,-0.0071,-0.0136,0.0136
20.7670,1.0811,-1.0089,1.3829,-0.0046,0.0171,0.0077
20.8670,0.0506,-1.8792,0.1463,-0.0066,-0.0034,0.0053
20.9670,0.4017,1.4491,-0.6323,-0.0002,0.0010,0.0146
21.0670,-2.1860,2.2353,1.0470,0.0086,-0.0034,-0.0054
21.1670,-0.1173,-1.0624,0.5738,0.0061,0.0054,0.0058
21.2670,1.1727,0.2201,-0.4339,-0.0095,0.0137,0.0146
21.3670,0.7453,-0.7723,3.2074,-0.0061,-0.0073,-0.0059
21.4670,5.1804,3.4185,-3.1133,-0.0495,0.0196,-0.0113
21.5670,-2.3005,9.1208,-25.7087,0.1155,-0.0351,-0.0562
21.6670,4.7453,3.3651,-3.1362,0.0593,0.0171,-0.0338
21.7670,3.7300,2.8155,8.4745,0.0457,-0.0166,0.0053
21.8670,-13.5983,1.3498,-3.4720,0.0842,0.0152,-0.0508
21.9670,-6.3922,-1.3906,-34.1514,-0.0066,-0.0752,0.0224
22.0670,-9.5906,25.5636,8.3066,0.4978,0.1402,0.1459
22.1670,2.4094,15.4109,-29.7239,-0.0881,-0.1616,0.2187
22.2670,1.2109,-34.3525,-42.7545,0.0471,-0.0068,-0.0001
22.3670,7.0277,50.1666,-7.3728,0.1931,0.2325,-0.1807
22.4670,-2.1555,55.9758,14.3295,-0.0715,-0.1899,0.0702
22.5670,-9.4838,2.5101,-9.0140,0.1301,-0.0600,0.0546
22.6670,-17.7128,-5.3906,-23.7010,0.4119,-0.0146,-0.0880
22.7670,-9.8196,6.1895,15.9707,0.2508,-0.1562,0.1987
22.8670,8.3330,42.5178,17.6577,0.4094,-0.0844,0.3632
22.9670,22.9361,30.2582,13.8180,0.1614,-0.0864,0.1972
23.0670,14.5620,55.2888,8.6196,0.2434,-0.0107,0.0429
23.1670,8.4323,56.4033,18.2226,0.1087,0.0664,-0.0626
23.2670,-4.4685,72.5025,27.6348,-0.4826,0.0694,0.1518
23.3670,-14.3082,76.3880,44.1386,0.0081,-0.0478,-0.2198
23.4670,-7.9570,85.2506,26.0165,0.3557,-0.0166,-0.1876
23.5670,-7.8273,115.2201,5.1081,0.0681,-0.0874,-0.0338
23.6670,5.1040,111.8460,0.7799,-0.1120,-0.1919,-0.1749
23.7670,-2.4532,84.6017,-14.0522,-0.1775,-0.0141,-0.0010
23.8670,-15.7433,98.4491,2.5432,0.0935,-0.1294,-0.2940
23.9670,7.1040,104.5254,2.2150,-0.0119,-0.1621,-0.1290
24.0670,11.6765,111.8307,-8.6323,0.0935,-0.0869,-0.2388
24.1670,15.9895,94.3804,-2.9377,-0.0764,-0.0488,0.0732
24.2670,-30.3922,72.0445,-8.0980,-0.0447,-0.0273,-0.0015
24.3670,-32.7815,84.3498,3.1463,-0.0066,-0.0342,0.0580
24.4670,-17.4761,55.2048,0.3448,0.0569,0.1172,-0.0074
24.5670,-33.6822,73.8689,11.4745,0.0291,0.0132,-0.0723
24.6670,-3.9112,72.9758,-6.9453,-0.0012,0.0386,-0.0528
24.7670,-16.7204,64.5025,-12.9911,-0.0686,0.0166,0.0126
24.8670,0.5773,61.2353,-10.3575,0.0208,-0.0136,-0.1446
24.9670,-7.4609,60.2353,-7.3346,-0.0408,-0.0351,-0.0010
25.0670,-3.9647,54.9682,-3.5560,-0.0144,-0.0551,-0.0152
25.1670,3.1804,68.7926,-3.2201,0.0003,-0.0166,-0.0865
25.2670,8.5926,83.5178,1.5967,0.0550,-0.0488,-0.1617
25.3670,-5.2013,86.4872,6.8638,0.1336,-0.0551,0.0702
25.4670,-29.9723,73.4643,-5.0446,0.0061,-0.1552,-0.0421
25.5670,-11.9952,72.7850,0.9325,-0.1199,-0.1870,0.0707
25.6670,-4.7357,54.9376,-14.7163,-0.0163,-0.1259,-0.0206
25.7670,-3.4074,67.8689,1.0928,0.0750,-0.1269,-0.0201
25.8670,-8.0563,47.9834,10.6730,-0.0544,-0.1347,0.0029
25.9670,-4.7204,51.5941,7.7493,-0.0481,-0.1294,-0.0425
26.0670,-9.4990,46.6094,-2.6629,-0.1033,-0.1045,0.0234
26.1670,-18.3616,52.0979,11.1692,-0.1018,-0.0742,0.0126
26.2670,-39.9570,28.0903,4.4669,-0.1579,-0.0708,0.1791
26.3670,-16.8502,37.7544,14.5967,-0.0241,-0.1391,-0.0220
26.4670,-15.4609,54.2353,-1.9530,-0.0803,-0.1557,-0.1509
26.5670,3.0430,52.8613,-1.5560,-0.1443,-0.2055,-0.0416
26.6670,-5.6822,56.9529,-9.7316,-0.1311,-0.1508,-0.0577
26.7670,-5.4380,71.6857,-2.2354,-0.1623,-0.1108,-0.0875
26.8670,-16.4380,68.2048,-4.6476,-0.1765,-0.1342,0.0073
26.9670,-1.3540,74.1437,-14.5560,-0.0622,-0.1523,-0.0518
27.0670,-18.3998,72.5483,-15.5026,-0.0857,-0.2221,-0.0508
27.1670,-3.0639,73.4567,-6.6018,-0.1418,-0.1958,0.0073
27.2670,-19.4838,58.2735,2.0928,-0.0617,-0.1875,-0.1739
27.3670,-21.0792,49.9605,-1.8919,-0.1472,-0.2563,-0.0279
27.4670,-21.2089,48.9834,0.7341,-0.2517,-0.2397,0.0327
27.5670,-23.0334,54.4872,-0.8003,-0.2004,-0.1865,-0.1334
27.6670,-5.3082,46.2888,-8.2888,-0.1531,-0.1425,0.0102
27.7670,-7.7509,38.7926,-0.2812,0.0169,-0.1811,-0.1041
27.8670,6.1651,44.3040,4.8638,-0.1594,-0.0405,-0.0567
27.9670,-7.0181,37.0140,-5.1438,-0.0705,-0.1299,-0.1197
28.0670,-14.8044,39.4185,-8.9988,-0.1662,-0.1040,-0.0757
28.1670,-11.8883,35.7773,-4.5178,-0.2185,-0.1050,-0.0001
28.2670,-0.6135,21.5407,5.0165,-0.2717,-0.0732,-0.0215
28.3670,-7.1784,23.7239,-5.4644,-0.2380,-0.1445,0.0922
28.4670,4.0506,34.7239,8.7264,-0.0119,-0.1465,0.0742
28.5670,9.9972,23.1208,10.7417,-0.0725,-0.1655,-0.0894
28.6670,-14.3082,19.2582,1.8867,-0.1316,-0.1303,-0.0626
28.7670,-5.9799,8.9300,-1.7392,-0.1965,-0.0796,-0.2525
28.8670,-11.5677,-6.2838,3.8409,-0.1809,-0.0903,-0.1822
28.9670,5.4399,-15.1922,20.7951,-0.2146,-0.0981,0.1484
29.0670,-1.3005,-54.5967,-10.9148,-0.2170,-0.0908,0.3398
29.1670,12.2567,2.7697,4.6425,-0.1506,-0.1108,-0.1148
29.2670,-4.3082,-6.4593,-2.1743,-0.1931,-0.0478,-0.1402
29.3670,2.5773,1.8384,-6.2125,-0.2185,-0.0420,-0.1705
29.4670,-12.9570,10.2659,-0.5713,-0.3000,-0.0840,-0.0543
29.5670,8.9514,10.2201,15.4898,-0.2668,-0.0971,-0.0684
29.6670,-7.1555,1.0598,-6.1362,-0.3215,-0.1181,0.0976
29.7670,-0.2242,15.3193,-20.8537,-0.1682,-0.1811,0.0800
29.8670,24.0124,13.7468,2.6119,-0.1614,-0.1469,-0.0059
29.9670,-4.3922,3.0292,-6.5789,-0.2478,-0.1435,-0.1065
30.0670,2.7529,10.2888,-3.4797,-0.1916,-0.1479,-0.0220
30.1670,-15.3922,7.0063,-1.8537,-0.2097,-0.0835,-0.0645
30.2670,-6.3464,1.3727,-7.1591,-0.2395,-0.0722,0.0834
30.3670,2.5315,-18.5586,-7.8155,0.0559,-0.1758,0.0507
30.4670,7.7376,-6.4899,-10.3270,-0.2107,-0.0693,0.1454
30.5670,-2.9112,2.9529,-3.2965,-0.0862,-0.0542,-0.2296
30.6670,-2.5830,-11.2761,-7.2430,-0.0696,-0.0249,-0.1163
30.7670,-3.2318,-6.8028,-0.1133,-0.1213,-0.0503,-0.0460
30.8670,-4.1326,-2.2074,-2.9759,-0.2751,-0.1689,0.3574
30.9670,4.5926,22.9147,-0.8614,-0.1125,-0.1826,0.2729
31.0670,13.4475,11.1590,-3.9759,-0.0417,-0.1162,-0.0064
31.1670,6.9666,14.8765,-6.4186,-0.1257,-0.0508,-0.2164
31.2670,18.5773,3.2048,1.1005,-0.1687,-0.0908,-0.1085
31.3670,9.1804,-2.8944,20.1615,-0.0993,-0.0776,0.0619
31.4670,7.1269,-24.6196,-5.7163,-0.1531,-0.0024,0.2065
31.5670,-8.1708,-11.6120,-17.1362,-0.1042,-0.0615,0.0839
31.6670,-12.6822,-1.5357,-11.8690,-0.0134,-0.0669,-0.0596
31.7670,-3.4990,6.7926,3.1768,-0.1594,0.0030,-0.2110
31.8670,-8.3998,10.4414,8.1081,-0.1711,0.0083,0.0556
31.9670,13.7224,13.9834,12.9020,-0.1316,-0.0254,0.0893
32.0670,-6.4456,11.1514,-2.0217,0.1331,-0.1450,0.0082
32.1670,8.8674,15.3422,-3.9453,-0.0534,-0.0820,-0.0992
32.2670,-25.8654,6.5254,-4.5789,-0.0906,-0.0669,-0.0757
32.3670,8.4475,6.7544,3.0241,-0.1179,-0.0927,-0.1509
32.4670,-16.2242,-4.7799,10.6654,-0.1350,-0.0874,-0.0206
32.5670,2.0201,-9.7036,1.9860,-0.1179,-0.0654,0.1791
32.6670,15.2643,-6.8334,-1.4415,0.0008,-0.0107,0.1972
32.7670,11.2491,-12.7952,-0.6476,-0.0158,-0.0127,-0.1837
32.8670,-3.7357,4.5559,0.6501,-0.1262,-0.0190,-0.1758
32.9670,-16.5067,-4.2990,11.4287,-0.1404,-0.0117,0.0590
33.0670,4.7071,-3.9555,17.4669,-0.1218,0.0020,0.0576
33.1670,-10.1326,5.9147,-2.0369,-0.1921,-0.1040,0.0336
33.2670,-1.0563,19.8536,-13.3041,-0.1238,-0.1655,0.1840
33.3670,-2.8807,0.2430,-4.6629,-0.1135,-0.0512,-0.0679
33.4670,-10.4074,7.0445,8.4974,-0.1389,-0.0683,-0.2374
33.5670,-2.5677,-2.0700,10.6043,-0.1091,-0.0898,-0.0533
33.6670,4.5086,-1.1998,18.4974,-0.0827,-0.0962,0.1503
33.7670,16.2109,-21.8410,1.7188,-0.0398,-0.0927,0.2187
33.8670,11.3178,-2.9631,-2.5178,-0.2121,-0.0337,0.2524
33.9670,10.6995,-3.1540,-6.4491,-0.1384,-0.1157,-0.0689
34.0670,9.2872,-3.2074,6.5356,-0.1438,-0.0342,-0.0225
34.1670,-1.9265,0.6781,16.0928,-0.2234,-0.0595,0.0351
34.2670,-0.4609,12.5636,9.3906,-0.1535,-0.1308,0.1528
34.3670,9.5773,11.7544,-7.5026,0.1336,-0.1377,0.0234
34.4670,3.9285,16.7010,-17.1209,-0.1081,-0.1362,-0.0333
34.5670,-17.6135,7.9224,-8.6400,-0.0779,-0.0615,-0.1529
34.6670,13.3559,7.2048,10.6043,-0.1448,-0.0952,-0.0596
34.7670,-4.5906,-1.8486,12.6654,-0.1408,-0.0844,0.0082
34.8670,-3.1173,-22.3906,-2.8003,-0.2219,-0.0512,0.1118
34.9670,5.6689,-18.6044,-3.8079,0.0144,-0.1064,0.0702
35.0670,-2.9647,-21.0089,-2.5560,-0.0432,-0.0356,-0.1168
35.1670,-0.8273,-5.6807,13.8791,-0.1594,-0.0195,-0.1939
35.2670,0.3636,-3.1005,20.5509,-0.1936,-0.0322,0.0244
35.3670,13.0277,-3.0929,18.3600,-0.2927,-0.0595,0.1479
35.4670,-5.9876,-1.2380,-15.2430,-0.0725,-0.1621,0.0253
35.5670,-17.7815,13.0216,-24.8308,-0.1101,-0.0791,-0.0548
35.6670,15.4399,2.4491,-0.6858,-0.0959,-0.1128,0.1064
35.7670,-1.3082,12.5636,3.0699,-0.2082,-0.0869,-0.3126
35.8670,-4.0715,4.2048,4.3600,-0.1726,-0.0791,-0.0186
35.9670,5.7605,-9.5280,15.7188,-0.1047,-0.0815,0.1244
36.0670,7.6613,-32.6273,-13.2659,-0.0661,-0.0102,0.2021
36.1670,7.4017,3.4338,-4.4949,-0.1013,0.0000,-0.1021
36.2670,1.1880,-6.1998,-3.4033,-0.0569,-0.0644,-0.1793
36.3670,0.0201,-7.5204,0.2455,-0.1325,-0.0132,-0.1016
36.4670,-7.1021,-8.2380,5.9554,-0.2097,-0.1103,0.1259
36.5670,0.5697,4.4720,18.9478,-0.1033,-0.0796,0.0551
36.6670,1.9514,3.1208,-9.3957,0.0208,-0.1528,0.0156
36.7670,4.6995,14.1972,-11.8461,-0.1335,-0.0517,-0.0928
36.8670,-9.1173,5.1208,1.7722,-0.0842,-0.0381,-0.2159
36.9670,7.3407,8.0979,6.4211,-0.1726,-0.0595,-0.1666
37.0670,-1.1250,-5.4822,6.1234,-0.1389,-0.0591,-0.0089
37.1670,2.3330,-8.7952,0.2608,-0.2024,-0.0190,0.0126
37.2670,5.5010,-36.6578,6.4364,0.0398,-0.1216,0.3622
37.3670,-3.1784,-7.9708,-0.0293,-0.1731,-0.0312,0.0131
37.4670,-11.6822,-4.1387,-4.5026,-0.0974,-0.0224,-0.2379
37.5670,-0.9952,-9.4059,-2.2125,-0.0901,-0.0151,-0.1256
37.6670,-7.1402,-8.2456,14.1768,-0.1931,-0.0595,0.0585
37.7670,-6.4380,-2.0929,3.3448,-0.2580,-0.0625,0.0790
37.8670,7.1040,-3.4441,-3.9911,0.0877,-0.1592,0.1655
37.9670,11.4704,-3.5891,-7.2354,-0.0857,-0.1113,0.0283
38.0670,-15.5296,-1.2609,-7.7774,-0.0989,-0.0107,-0.3785
38.1670,3.0735,-8.9555,3.6883,-0.1257,-0.0551,-0.1631
38.2670,-4.3464,-16.3067,8.7570,-0.1174,-0.0874,-0.0318
38.3670,5.8598,-29.3143,0.1234,-0.1516,-0.0532,0.0629
38.4670,-0.6517,-33.6807,-3.3117,0.0120,-0.0761,0.0576
38.5670,0.5926,-37.1540,-2.4873,-0.1037,0.0298,-0.1329
38.6670,4.3941,-35.1311,0.0623,-0.0583,-0.0166,-0.2037
38.7670,9.6231,-39.8181,6.7951,-0.1316,-0.0234,-0.0914
38.8670,-3.2395,-36.7799,10.3142,-0.1911,-0.0566,-0.0093
38.9670,0.6765,-45.0929,10.1539,-0.2214,-0.0752,0.1899
39.0670,12.0964,-39.2685,10.3142,-0.0027,-0.1631,0.0937
39.1670,24.5468,-27.1616,17.6806,-0.0549,-0.0888,-0.0704
39.2670,5.6231,-29.5433,11.0165,-0.1950,-0.0346,-0.2657
39.3670,29.5468,-37.1158,27.6959,-0.2580,-0.0717,-0.0562
39.4670,24.8750,-48.6273,18.8867,-0.2800,0.0215,-0.1026
39.5670,25.3178,-68.3372,6.7035,-0.2771,-0.0190,-0.0660
39.6670,17.6155,-51.8181,-0.9835,-0.1037,-0.0742,-0.0972
39.7670,5.8140,-41.3219,-21.0217,-0.4148,-0.0161,-0.0533
39.8670,18.9361,-43.1311,-7.3346,-0.1721,-0.0219,-0.0709
39.9670,31.0582,-51.5204,8.1310,-0.3703,0.0269,-0.0797
40.0670,16.5086,-58.6349,7.0776,-0.3337,0.0127,-0.0416
40.1670,-12.5601,-68.3143,-14.3652,-0.3230,0.0108,-0.0328
40.2670,21.9666,-62.3754,14.1005,-0.1003,-0.0600,-0.1768
40.3670,20.8445,-57.8028,7.1005,-0.2151,-0.1045,0.0136
40.4670,57.2185,-47.7570,15.0012,-0.0383,-0.1269,0.0688
40.5670,11.0430,-37.4059,6.7646,-0.1736,-0.0986,0.1044
40.6670,-18.3235,-45.8639,9.2913,-0.2727,-0.0371,0.0058
40.7670,100.7529,-75.7570,-12.7774,0.1453,-0.2441,0.0346
40.8670,20.9361,-40.1616,20.2913,-0.1711,0.0122,-0.1456
40.9670,-6.5906,-37.0166,0.8486,-0.1350,0.0352,0.0419
41.0670,5.0582,-47.6960,-9.8995,-0.3279,0.0186,-0.0279
41.1670,15.2033,-24.0242,-22.2965,-0.1272,-0.0420,0.0654
41.2670,7.2033,-31.3906,-2.6705,-0.2136,-0.0014,0.0844
41.3670,-1.0257,-25.1922,11.7570,-0.2434,0.0093,-0.0064
41.4670,3.2262,-20.6502,-3.0217,-0.1628,0.0279,-0.1036
41.5670,-6.6517,-22.6425,-10.3957,-0.1599,0.0723,-0.0377
41.6670,13.1193,-5.9555,14.4364,-0.3069,0.0196,0.0156
41.7670,4.0124,-27.8944,-5.0522,-0.0930,0.0181,-0.1378
41.8670,25.2262,-8.4746,5.1768,-0.1174,-0.0014,-0.0914
41.9670,12.3025,-14.4899,12.5661,-0.1443,-0.0327,-0.0269
42.0670,17.7834,-4.1311,14.9707,-0.2033,-0.0674,-0.0699
42.1670,2.2338,5.6552,13.5203,-0.3044,-0.0669,-0.0416
42.2670,2.5239,25.7849,20.9478,-0.2341,0.1079,0.0073
42.3670,-35.1402,-41.5586,-31.7850,-0.0627,0.1553,-0.2911
42.4670,-3.5219,4.5330,-9.8079,-0.2341,-0.0385,0.2875
42.5670,-16.0639,-10.8410,-18.2278,-0.2146,0.0088,0.0698
42.6670,-8.2166,17.5101,-0.9224,-0.1609,-0.0903,-0.0484
42.7670,-18.9647,37.1361,-2.0980,-0.1384,0.0703,0.0292
42.8670,-4.1097,42.3880,3.2226,-0.2590,0.1060,0.1098
42.9670,-6.3922,53.7926,30.0394,-0.1379,0.1148,-0.2086
43.0670,-0.3769,63.3575,18.3982,-0.1101,0.0835,-0.0782
43.1670,3.1422,69.6323,4.1234,-0.2932,0.0650,-0.0196
43.2670,-38.7051,50.1666,19.5051,-0.0891,0.0259,-0.2330
43.3670,-3.8883,40.9300,-2.3194,-0.3103,-0.0830,0.1069
43.4670,6.3865,73.8460,31.8180,-0.1843,0.0264,-0.0919
43.5670,-6.3769,65.0292,18.5127,-0.2131,-0.0488,-0.0186
43.6670,-11.7051,78.9834,26.8944,-0.3015,-0.0595,0.0385
43.7670,-2.5830,73.6323,11.7112,-0.2795,0.0318,-0.0240
43.9670,-17.8960,73.2659,19.9020,-0.2746,0.1158,-0.0250
44.0670,-0.1326,83.0903,11.4211,-0.2610,0.1953,-0.0372
44.1670,-12.9494,80.7697,35.8562,-0.2615,0.2158,-0.0738
44.2670,-4.3311,94.7010,26.1234,-0.1726,0.2246,-0.0465
44.3670,-10.8273,85.3193,28.6425,-0.2634,0.2461,-0.0543
44.4670,-13.4838,67.3193,25.7264,-0.2717,0.2061,-0.0240
44.5670,-20.9494,67.8002,24.5203,-0.2590,0.2315,-0.0381
44.6670,-21.4990,67.9529,30.5890,-0.2693,0.2036,-0.0855
44.7670,-29.5601,60.2735,28.2608,-0.2019,0.2393,-0.1236
44.8670,-29.6517,67.8613,26.7112,-0.2434,0.3457,-0.1636
44.9670,-25.7204,63.6552,30.1234,-0.2449,0.3521,-0.1744
45.0670,-39.0944,60.8384,23.5967,-0.2068,0.3291,-0.1822
45.1670,-29.2929,68.0827,23.5585,-0.2258,0.3242,-0.1563
45.2670,-44.6059,71.4643,27.8180,-0.2776,0.2139,-0.0323
45.3670,-41.1097,67.1590,10.6959,-0.2698,0.2432,-0.0606
45.4670,-34.0563,66.7315,11.8715,-0.3318,0.3770,-0.0406
45.5670,-36.3235,53.1743,16.7570,-0.1999,0.2344,-0.1382
45.6670,-49.4151,61.3956,17.9631,-0.0266,0.1421,-0.1006
45.7670,-30.1326,51.4491,-14.5942,-0.0969,0.2173,-0.1402
45.8670,-32.5754,63.1132,15.1692,-0.2937,0.1236,0.0800
45.9670,-19.3006,54.5254,28.3142,-0.2917,0.0493,-0.1133
46.0670,-3.0105,23.8002,-10.3346,-0.2370,0.1104,-0.1763
46.1670,-32.5296,11.1590,-8.6934,-0.1277,0.2530,-0.2823
46.2670,-35.5143,11.1208,-9.1667,-0.2864,0.1592,-0.1519
46.3670,-29.3693,11.6323,-5.6171,-0.2810,0.1031,-0.1251
46.4670,-11.2700,6.8384,-6.4415,-0.4206,0.0596,0.0976
46.5670,3.7224,7.7162,-3.1820,-0.3259,0.0611,0.0898
46.6670,-21.8196,3.0292,2.2837,-0.2834,-0.0400,0.0239
46.7670,-8.1937,0.9453,5.8486,-0.2136,0.0625,-0.2051
46.8670,0.2643,-4.6883,-6.8155,-0.3308,-0.0874,-0.0694
46.9670,-22.7128,12.1285,-11.2125,-0.2800,-0.0688,-0.1387
47.0670,-7.7433,1.1819,-28.6400,-0.3337,0.0581,-0.0684
47.1670,-23.8807,18.3269,-39.1667,-0.3381,0.0044,0.0595
47.2670,12.3865,24.0369,-15.2201,-0.1379,-0.1211,0.2226
47.3670,-12.9570,-2.8105,-7.9377,-0.1247,0.0186,-0.0391
47.4670,-23.2089,-12.8486,-11.8919,-0.2190,-0.1987,-0.0635
47.5670,-16.3006,-10.4822,32.5890,-0.2449,-0.1401,-0.1519
47.6670,-3.3235,-40.4441,8.1463,-0.3196,-0.1562,-0.0855
47.7670,1.1346,-29.6654,11.1845,-0.2649,-0.1538,-0.2681
47.8670,-14.7280,2.1666,-4.7392,-0.1291,-0.1787,0.1855
47.9670,28.6842,-44.1006,17.1845,-0.0124,-0.0019,-0.0504
48.0670,16.4857,-36.6654,32.4898,-0.1345,-0.0361,-0.3048
48.1670,9.0430,11.8918,34.2837,-0.2390,-0.0488,-0.2325
48.2670,29.3712,10.2124,27.7493,-0.4704,-0.0185,-0.0421
48.3670,-21.3845,-37.8257,-11.3881,-0.4856,-0.0244,0.2099
48.4670,-18.6746,-32.2914,-47.6476,-0.2649,-0.0678,0.1523
48.5670,2.7453,0.8307,-49.4797,-0.1960,-0.0927,-0.1710
48.6670,24.0277,8.5407,-9.4949,-0.4382,-0.0556,-0.1988
48.7670,12.2796,15.9376,-1.1056,-0.2092,-0.0967,-0.2354
48.8670,-18.9036,-0.6120,8.1463,-0.1960,-0.0732,-0.0943
48.9670,-6.3464,-19.4975,-6.3041,-0.3137,-0.0185,0.2265
49.0670,1.1651,-29.1769,-29.5407,-0.1203,-0.0844,0.2519
49.1670,11.3025,-25.1005,-4.7316,-0.1062,-0.0415,-0.1163
49.2670,-23.0792,-11.2914,24.3753,-0.1980,0.0137,-0.2398
49.3670,-9.1021,-0.1235,30.7951,-0.2087,-0.0698,-0.0909
49.4670,8.3025,-5.7723,-10.0675,-0.2849,-0.0298,0.0068
49.5670,22.8140,-14.2227,-39.5255,-0.2585,-0.1284,0.1826
49.6670,17.2720,11.4949,-30.5865,0.0335,-0.0986,0.0546
49.7670,12.2872,20.6399,-10.4797,-0.0188,0.0269,0.0536
49.8670,3.8140,13.3040,13.7264,-0.0520,-0.0102,-0.2095
49.9670,-11.4532,7.9300,11.0470,-0.1658,-0.0307,-0.1636
50.0670,-3.3082,1.4109,1.1081,-0.1438,-0.0346,0.0595
50.1670,1.8292,-15.8715,-18.1667,-0.1350,0.0127,0.1899
50.2670,9.7071,-10.0776,-20.9301,-0.0183,-0.0376,0.0693
50.3670,0.3559,-9.7799,-13.1896,-0.0017,-0.0439,-0.0206
50.4670,-10.2013,17.3193,22.1768,-0.1399,0.0127,-0.2022
50.5670,-9.2242,4.5865,-1.3041,-0.1301,-0.0234,0.0346
50.6670,10.7834,-1.0547,-14.4797,-0.1140,-0.0508,0.0834
50.7670,-0.6212,14.2430,3.2226,-0.1833,0.0362,0.0732
50.8670,2.1880,13.5712,-4.2965,0.0637,-0.1059,-0.0264
50.9670,-0.2547,15.7773,5.4822,-0.0818,-0.0610,-0.0108
51.0670,0.1956,10.3346,9.5051,-0.1130,-0.0517,-0.1881
51.1670,-14.7280,2.9376,13.5738,-0.1355,-0.0503,-0.0948
51.2670,-6.3158,-0.3525,8.8486,-0.1550,-0.0913,0.0698
51.3670,8.9285,-13.0776,-7.2736,-0.1555,0.0401,0.1484
51.4670,4.5468,-22.4822,-23.0140,-0.0295,-0.0800,0.0092
51.5670,-4.9647,-14.9937,0.9096,-0.0251,-0.0420,-0.1514
51.6670,-9.0410,0.8765,20.9249,-0.1404,-0.0625,-0.1739
51.7670,-7.9265,-5.1464,5.8409,-0.1482,-0.0659,-0.0132
51.8670,3.6307,0.8536,3.4211,-0.1330,-0.0981,0.1122
51.9670,-3.0639,3.7544,-15.2430,-0.0945,-0.0561,0.2114
52.0670,9.3407,4.7086,-16.7010,-0.0554,-0.1308,-0.0245
52.1670,12.0888,14.6475,7.7570,-0.0359,-0.1035,-0.0821
52.2670,1.4704,0.8002,11.1157,-0.1452,-0.0439,-0.2364
52.3670,-14.6517,0.5483,12.8867,-0.1506,-0.1093,-0.0391
52.4670,0.7682,-1.7112,4.8715,-0.1023,-0.0932,0.1181
52.5670,7.3407,-10.3601,-3.4415,-0.1145,-0.0166,0.1371
52.6670,5.2338,-16.5738,-10.2965,-0.0700,-0.0854,0.0307
52.7670,-1.6975,-10.4746,-10.8843,-0.0593,-0.0625,-0.1275
52.8670,-0.4380,2.8231,10.0470,-0.1238,-0.0195,-0.2169
52.9670,-0.4685,3.0521,-5.4415,-0.1155,-0.0849,-0.0777
53.0670,1.0124,11.3880,-1.6934,-0.0940,-0.1592,0.1445
53.1670,-6.0181,17.8995,-14.6781,-0.0876,-0.0410,0.2729
53.2670,10.2033,13.6781,-5.4720,-0.0080,-0.0542,-0.0889
53.3670,13.6842,25.4720,14.2761,-0.0285,-0.0195,-0.1588
53.4670,-4.2776,10.3956,15.7188,-0.1374,-0.0180,-0.1841
53.5670,-12.4303,1.8842,13.2379,-0.1199,-0.0581,-0.0235
53.6670,2.5086,-14.8181,6.1005,-0.1931,-0.0039,0.2128
53.7670,0.0201,-21.6654,-13.6552,-0.0735,-0.1059,0.0317
53.8670,-2.1555,-15.6349,-0.9301,-0.0730,-0.0185,-0.0460
53.9670,2.9208,-8.4670,9.5661,-0.1321,0.0210,-0.2144
54.0670,-1.4990,-1.9021,-6.8690,-0.1130,-0.0376,-0.1558
54.1670,-7.0944,13.1056,-5.7545,-0.0373,-0.0610,0.0805
54.2670,-1.5601,10.8307,-4.7087,-0.0871,-0.0122,0.2241
54.3670,6.4933,6.9682,-14.9224,-0.0564,-0.1084,-0.0289
54.4670,15.7147,5.8231,3.2684,-0.0466,-0.0747,-0.2125
54.5670,-2.5677,1.3651,6.0012,-0.1726,-0.0420,-0.2281
54.6670,-4.5601,-0.4517,3.4211,-0.0974,-0.0571,-0.0465
54.7670,6.6384,-10.0624,7.5356,-0.2053,0.0083,0.1298
54.8670,7.0811,-14.3067,-13.8308,-0.1003,-0.1167,0.2065
54.9670,10.2643,-19.1158,-11.9759,-0.0774,0.0298,-0.1163
55.0670,-6.9265,-6.1387,11.8715,-0.1267,0.0279,-0.2755
55.1670,-20.1173,6.0521,10.7951,-0.1365,-0.0547,-0.1207
55.2670,-2.9723,13.4338,-1.2049,-0.1638,0.0210,0.0595
55.3670,1.0430,10.2277,-9.7163,-0.2361,-0.0088,0.0878
55.4670,-2.4227,17.4033,-23.3652,0.0305,-0.1997,0.1059
55.5670,5.2338,22.6399,1.0852,-0.0608,-0.0903,-0.0860
55.6670,13.1727,23.0598,11.2455,-0.1340,-0.0561,-0.2086
55.7670,-5.9189,6.5712,-1.4415,-0.2151,0.0215,-0.0562
55.8670,1.3330,-8.1158,-6.4415,-0.0920,-0.0713,0.0888
55.9670,2.0506,-12.1540,3.6883,-0.2488,0.0747,0.1889
56.0670,5.1040,-28.5738,-3.2049,-0.0476,-0.0913,0.0722
56.1670,-3.4990,-23.8105,-0.2583,-0.0896,-0.0005,-0.0670
56.2670,-5.9723,-7.0700,12.6883,-0.1618,-0.0190,-0.1802
56.3670,-5.8578,-1.9021,-2.7926,-0.1750,-0.0024,-0.0396
56.4670,-5.1784,0.9376,-11.6094,-0.1369,-0.0288,0.0668
56.5670,-0.2547,11.6170,-9.6858,-0.1145,-0.0395,0.2534
56.6670,9.5773,10.9147,-13.9606,-0.0593,-0.1391,-0.0845
56.7670,0.3941,17.9834,6.1921,-0.0691,-0.0908,-0.1080
56.8670,-8.2242,9.8995,4.0547,-0.1423,-0.0283,-0.2217
56.9670,2.6002,10.3422,8.2761,-0.0823,-0.0346,-0.0684
57.0670,3.8750,-11.2838,-1.1820,-0.0866,-0.0395,0.0878
57.1670,1.0888,-12.1922,-5.0217,-0.0266,-0.0332,0.1616
57.2670,8.0735,-37.0089,-4.9606,-0.0686,-0.0542,-0.0465
57.3670,-8.1021,-15.5662,6.6577,-0.1013,-0.0488,-0.2310
57.4670,-6.8425,-9.0929,7.3448,-0.0940,-0.0586,-0.1422
57.5670,5.9514,-1.0929,-3.7392,-0.2058,-0.0210,0.0229
57.6670,0.3025,3.2277,0.2150,-0.2097,-0.1133,0.1225
57.7670,-11.8349,22.2353,-0.8079,-0.0359,-0.1709,0.1694
57.8670,1.0964,37.8689,5.7112,-0.2292,-0.1006,0.0107
57.9670,9.6918,-2.6044,1.7875,-0.1291,-0.0512,-0.2608
58.0670,-3.1250,11.3422,2.1157,-0.2033,-0.0244,-0.1382
58.1670,6.9056,4.4720,-1.5102,-0.1452,-0.0620,0.0004
58.2670,6.9895,-1.1082,-2.9835,-0.1345,0.1065,0.1469
58.3670,-2.2776,-17.2990,-10.4949,-0.1345,-0.0664,0.0522
58.4670,-3.9341,-12.3906,-1.5484,-0.0725,-0.0537,-0.0206
58.5670,-0.1708,-7.7799,11.2913,-0.1589,-0.0263,-0.2408
58.6670,-9.4456,-2.6960,6.3448,-0.2380,-0.0210,-0.0767
58.7670,-0.4761,-4.0547,-2.3575,-0.1169,-0.0654,0.0717
58.8670,-12.5677,3.5254,5.5814,-0.1999,-0.0473,0.1699
58.9670,-2.6212,-2.9555,-14.8461,-0.0315,-0.1684,0.0141
59.0670,-0.1402,16.9223,-7.1591,-0.1345,-0.1191,-0.0113
59.1670,10.1422,7.2735,3.9860,-0.1516,-0.0708,-0.1866
59.2670,1.5544,5.5254,12.7264,-0.1482,-0.0937,-0.0621
59.3670,-6.2700,-1.6883,11.0928,-0.1189,-0.1147,0.1474
59.4670,-0.4532,-3.8334,-2.3117,-0.0930,-0.0415,0.2543
59.5670,1.8521,-28.0242,-17.1591,-0.0588,0.0176,0.0034
59.6670,-0.1555,-7.7952,-0.2736,-0.0500,-0.0542,-0.2413
59.7670,-14.9876,-5.0242,12.8867,-0.1448,-0.0337,-0.1368
59.8670,3.4399,7.4033,-4.9606,-0.1838,-0.0009,0.0927
59.9670,4.4246,14.9529,-17.0217,-0.1741,-0.1587,0.2529
60.0670,8.8445,3.1819,-23.5255,-0.0393,-0.2236,0.1176
60.1670,5.0506,17.6475,-3.1743,-0.0627,-0.1030,-0.0826
60.2670,4.7987,15.6857,18.8562,-0.1365,-0.0503,-0.2735
60.3670,-7.3158,6.3804,8.1921,-0.1140,-0.0390,-0.0933
60.4670,-1.0563,1.7239,-3.2354,-0.0388,-0.0429,0.0903
60.5670,-6.0563,4.2430,-5.6629,-0.1394,-0.0522,0.1977
60.6670,3.7071,-5.7189,-14.6018,-0.0515,-0.0215,0.0366
60.7670,-0.7357,-4.7341,-15.6781,-0.0290,-0.0986,-0.1876
60.8670,-4.2318,9.5559,6.0394,-0.1462,-0.0180,-0.1236
60.9670,-2.1860,13.8460,10.0165,-0.1550,0.0069,-0.0118
61.0670,-9.8044,20.8918,-0.5484,-0.1306,-0.0791,0.2138
61.1670,2.3636,8.1437,-30.9301,-0.0090,-0.0991,0.1904
61.2670,0.2567,22.1208,-9.0980,0.0105,-0.0981,-0.0255
61.3670,8.2185,1.4491,-2.3117,-0.0320,-0.0283,-0.1583
61.4670,-6.9189,2.0827,1.0623,-0.1008,-0.0361,-0.0953
61.5670,-15.3845,-10.4135,4.7722,0.0198,-0.0918,0.1201
61.6670,8.0048,-17.1005,6.8409,-0.0442,-0.0088,0.1884
61.7670,12.0048,-27.7494,-6.7316,-0.0285,-0.0644,0.0292
61.8670,-1.7357,-20.1769,-8.9377,-0.0461,0.0020,-0.1348
61.9670,2.8979,-8.5738,6.3753,-0.0666,-0.0302,-0.1426
62.0670,-6.3082,-16.3296,-0.3041,-0.1150,-0.0112,-0.0665
62.1670,-4.6441,-2.7341,2.0623,-0.0813,-0.0034,0.0683
62.2670,-3.1784,1.9376,-13.0675,-0.0251,-0.1064,0.1948
62.3670,0.0659,4.5559,-13.2430,0.0300,-0.1255,-0.0596
62.4670,4.5010,13.9911,8.5203,-0.0002,-0.1289,-0.0294
62.5670,3.3025,3.6628,7.4516,-0.0866,-0.0551,-0.2130
62.6670,0.1040,-2.5357,10.4898,-0.0461,-0.1225,-0.0010
62.7670,11.9895,-2.9250,8.7493,-0.0095,-0.0395,0.1791
62.8670,-0.4609,-11.7876,-6.9453,0.0217,-0.1118,0.2055
62.9670,0.9514,-19.6883,-11.8384,-0.0124,0.0044,-0.0987
63.0670,1.6155,-1.2685,4.0089,-0.0349,-0.0224,-0.1993
63.1670,-7.9189,3.7544,11.9631,-0.0574,0.0122,-0.0699
63.2670,-6.8807,11.0598,7.8638,-0.0408,0.0269,0.0385
63.3670,-1.2089,10.1208,-12.3499,-0.1018,-0.0932,0.1215
63.4670,4.4170,4.7697,-21.4110,0.0711,-0.1406,0.1616
63.5670,7.4017,17.4872,-3.7087,0.0037,-0.1093,-0.1558
63.6670,3.6689,3.8460,3.7722,-0.0285,-0.0713,-0.1402
63.7670,0.9514,1.0827,3.7264,-0.0578,-0.0757,-0.1216
63.8670,11.9285,17.1285,3.2532,-0.0007,-0.1372,0.0507
63.9670,-3.5219,-10.8792,0.1005,-0.0842,0.0210,0.2451
64.0670,3.4933,-22.4517,1.6883,0.1204,-0.0708,0.0327
64.1670,-5.5372,-13.7418,1.6348,-0.0061,-0.0117,-0.0523
64.2670,0.7453,-5.5128,16.1005,-0.0906,0.0176,-0.2383
64.3670,-11.4761,-2.7723,1.3906,-0.0837,0.0020,-0.0372
64.4670,-2.9418,0.0598,12.8028,-0.0305,-0.0175,0.1440
64.5670,3.9361,19.0292,-1.6171,-0.1575,-0.0288,0.0732
64.6670,-22.4074,-2.4746,-29.0904,0.0774,-0.0893,0.1064
64.7670,11.6689,10.2506,8.7722,-0.0627,-0.1196,-0.0699
64.8670,-2.8273,5.4567,12.6730,-0.1667,-0.0522,-0.1407
64.9670,-3.5677,3.3804,8.6806,-0.0803,-0.0967,-0.0181
65.0670,1.4017,-0.1158,8.8867,-0.1755,-0.0088,0.0991
65.1670,-0.8196,-9.6731,4.5203,-0.0276,-0.1342,0.2280
65.2670,0.3865,-14.8486,-5.5178,-0.0398,-0.0053,0.0043
65.3670,-0.8502,-7.8257,3.7570,-0.0285,-0.0791,-0.2374
65.4670,0.3330,6.6017,0.3600,-0.1291,-0.0127,-0.0914
65.5670,-5.3387,17.5330,6.6577,-0.1135,0.0054,0.1044
65.6670,-3.8883,11.5636,-9.9453,-0.0813,-0.0542,0.1713
65.7670,-2.0334,-3.7799,-21.6858,0.0242,-0.1064,-0.0220
65.8670,11.6155,11.3193,-9.8003,-0.0232,-0.1186,-0.0557
65.9670,11.5773,19.7162,1.8638,-0.0774,-0.0517,-0.2842
66.0670,0.1956,11.0598,7.7264,-0.0686,-0.0512,-0.0479
66.1670,4.2262,-8.9555,8.9783,0.0281,-0.1250,0.1064
66.2670,15.1727,-9.3601,8.7112,-0.0593,0.0039,0.2128
66.3670,1.6002,-18.2227,-9.9759,-0.0300,-0.0722,-0.1094
66.4670,1.7300,-6.9402,4.0470,-0.0525,-0.0786,-0.1387
66.5670,-7.3464,7.7086,12.3906,-0.1999,-0.0503,-0.1607
66.6670,-1.9189,4.8460,-1.9377,-0.1345,0.0074,0.0546
66.7670,-0.9112,2.2201,-10.0980,-0.1076,-0.0527,0.1152
66.8670,6.0888,-1.0242,-25.8843,-0.0237,-0.0542,0.1694
66.9670,0.4246,13.4796,3.6196,0.0051,-0.1093,-0.0562
67.0670,8.2033,-2.5509,2.5738,-0.0163,-0.0595,-0.1173
67.1670,-0.4914,-6.7418,-1.1591,-0.0251,-0.0337,-0.1080
67.2670,-1.9647,-6.3983,9.0241,-0.0759,-0.0571,0.0346
67.3670,-2.6288,-12.4899,2.9096,-0.0188,-0.0049,0.3339
67.4670,-4.7815,-31.5280,-7.5407,-0.0691,0.0269,-0.0103
67.5670,-4.2547,-14.2456,-8.4033,0.0120,-0.0634,-0.2603
67.6670,-1.9341,-3.1693,9.9402,-0.0652,-0.0058,-0.1495
67.7670,-3.5677,-1.5051,0.0928,-0.0491,-0.0317,-0.0342
67.8670,0.0811,15.7010,-7.2659,-0.0774,-0.2065,0.1249
67.9670,-2.2624,-4.9631,-17.3804,0.0481,-0.2363,0.3139
68.0670,7.6536,10.3804,-8.0904,-0.0105,-0.0551,-0.1827
68.1670,0.8903,10.8231,11.6577,-0.0285,-0.0268,-0.1719
68.2670,-2.1631,7.4414,1.6272,-0.0339,-0.0913,-0.0718
68.3670,-10.5448,4.6475,0.3753,0.0008,-0.0639,-0.0157
68.4670,0.9285,1.8078,6.5967,-0.0779,-0.0283,0.0844
68.5670,2.3559,-20.4059,-11.1438,0.0550,-0.1220,0.1230
68.6670,-1.3845,-16.1998,-15.1667,0.0300,-0.0566,-0.1299
68.7670,5.6078,2.6552,11.0699,-0.0193,-0.0586,-0.3243
68.8670,-7.9341,2.8231,3.8791,-0.0588,-0.0439,-0.1207
68.9670,-5.5754,20.6857,12.7341,-0.0691,-0.0786,0.2123
69.0670,-4.4074,11.1743,-9.7316,0.0227,-0.1342,0.1952
69.1670,1.3254,4.7086,-10.1743,-0.0046,-0.1045,0.0395
69.2670,5.4857,5.1361,-0.5865,-0.0090,-0.1020,-0.0338
69.3670,-3.2242,1.6933,7.5661,-0.0603,-0.0478,-0.2100
69.4670,-6.9876,2.5407,12.6577,0.0213,-0.1157,0.0497
69.5670,10.2185,-9.9937,7.0623,-0.0652,-0.0844,0.1459
69.6670,9.6842,-18.0624,-10.4262,0.1072,-0.1718,0.1484
69.7670,-8.4609,-21.8715,-10.9148,0.1477,-0.1064,-0.3257
69.8670,3.1269,-7.7876,0.6654,-0.0217,-0.0459,-0.2388
69.9670,-16.7509,-2.2990,10.0776,-0.0984,-0.0454,-0.0479
70.0670,-4.0792,3.2201,11.0089,-0.0871,-0.0371,0.0825
70.1670,-8.0792,9.6094,-10.0751,0.0252,-0.1211,0.2084
70.2670,-0.9189,5.0369,-12.6171,-0.0134,-0.1704,0.0263
70.3670,7.4246,8.1132,-0.1972,-0.0373,-0.2002,0.0361
70.4670,4.0201,8.0598,7.2379,-0.0300,-0.0566,-0.2291
70.5670,-5.6517,12.6399,13.2379,0.0100,-0.1157,-0.0445
70.6670,2.2796,6.4491,11.1081,-0.0032,-0.0898,0.1005
70.7670,0.2109,-10.5509,-11.8614,0.0803,-0.1606,0.2485
70.8670,1.1651,-17.5357,-11.0064,0.0716,-0.0639,-0.2081
70.9670,13.3254,-7.1845,-8.2659,0.0393,-0.0815,-0.2950
71.0670,-0.8425,4.5407,16.2684,-0.0661,-0.0078,-0.1368
71.1670,-9.4761,-5.2838,-0.3652,-0.0549,-0.0498,0.1122
71.2670,5.0811,12.6628,-2.6018,0.0252,-0.0761,0.1938
71.3670,-39.0181,-13.1769,-22.1362,0.1887,-0.1865,0.0781
71.4670,10.6078,8.8918,17.5585,0.0213,-0.1010,-0.0035
71.5670,0.4246,13.4033,14.0852,-0.0505,-0.0263,-0.2247
71.6670,-6.8960,5.3193,11.2608,-0.0315,-0.0967,-0.0333
71.7670,-1.2166,-6.5280,11.2379,-0.0344,-0.0644,0.1498
71.8670,-5.8502,-21.3525,-7.8384,0.1038,-0.1196,0.1747
71.9670,6.1727,-25.1845,-14.1514,-0.0266,-0.0429,-0.0455
72.0670,-5.1937,-13.1540,-8.8614,-0.0036,-0.0835,-0.2261
72.1670,-4.1326,-0.8792,9.0928,-0.1262,-0.0713,-0.0997
72.2670,-11.7357,-2.8257,5.2226,-0.0481,-0.0547,0.0302
72.3670,-3.5219,-4.3983,-8.7545,-0.0178,-0.1592,0.1884
72.4670,12.3865,-2.9021,-20.0751,0.0589,-0.1821,0.0663
72.5670,23.2262,26.0369,-0.8384,0.0720,-0.1782,0.0185
72.6670,2.3178,11.0750,0.3753,0.0051,-0.1411,-0.2256
72.7670,-4.1326,20.3727,15.1157,-0.0686,-0.1328,-0.0914
72.8670,-0.9112,12.9682,13.7951,0.0012,-0.1328,0.0644
72.9670,-3.1250,3.3727,-1.0827,0.0032,-0.0927,0.2490
73.0670,-11.6822,-27.0547,-15.1056,0.1321,-0.0503,0.0287
73.1670,4.2872,-1.9097,3.1845,0.0320,-0.1157,-0.2486
73.2670,-7.3845,-2.5128,19.6806,-0.0495,-0.0840,-0.2066
73.3670,-4.1250,0.0903,1.5051,-0.0906,-0.0923,0.0336
73.4670,0.2949,-0.5357,-2.8232,-0.0266,-0.2036,0.1865
73.5670,-8.6670,22.9987,-6.9606,0.0022,-0.1816,0.3246
73.6670,7.7300,19.3880,-4.7163,0.0359,-0.1670,-0.0352
73.7670,20.9132,11.2888,16.1539,-0.0525,-0.0947,-0.2198
73.8670,-3.4380,10.5483,17.9936,-0.0984,-0.0429,-0.1710
73.9670,-2.4380,1.1743,6.3829,-0.0144,-0.1089,0.0541
74.0670,3.8216,-4.8868,1.7799,-0.1355,-0.0693,0.2333
74.1670,21.9590,-23.1540,-5.5636,-0.0652,-0.0869,0.1782
74.2670,2.2720,-5.3983,2.7112,0.0017,-0.0854,-0.1524
74.3670,-9.1555,14.4949,30.6577,-0.1316,-0.0468,-0.1402
74.4670,-8.4303,-2.4059,8.7493,-0.1921,-0.0693,-0.0089
74.5670,-10.4456,-5.1082,3.8409,-0.1667,-0.1020,0.0795
74.6670,-4.3998,5.0827,-12.2736,-0.0720,-0.1352,0.1269
74.7670,5.9972,12.8231,-0.4415,-0.0119,-0.1699,-0.0220
74.8670,4.7911,20.3040,13.8104,-0.1179,-0.0571,-0.0850
74.9670,10.6384,10.5101,5.1234,-0.1716,-0.0610,-0.3863
75.0670,10.9972,17.0292,30.1386,-0.2058,-0.0332,-0.0606
75.1670,-0.6288,-6.5051,-8.8308,-0.3689,0.0381,0.1640
75.2670,-5.2547,-20.9173,-38.5560,-0.2019,0.0215,0.0698
75.3670,5.3788,-5.3754,-19.7468,-0.1057,-0.0278,-0.1509
75.4670,5.5315,-16.5967,6.2837,-0.2351,-0.0581,-0.2408
75.5670,-12.1860,1.1132,2.7493,-0.2790,0.0298,-0.0626
75.6670,-9.0868,-2.9555,-11.9682,-0.2458,0.0005,0.0053
75.7670,2.2872,-0.1387,-12.3652,-0.2414,-0.1020,0.0961
75.8670,1.1269,-1.9326,-31.3194,-0.0871,-0.1303,0.1552
75.9670,11.9132,19.2201,-9.8461,-0.1184,-0.0517,-0.0538
76.0670,4.8216,5.2964,3.1081,-0.0984,-0.0576,-0.1890
76.1670,-10.4227,3.4949,6.1616,-0.1340,-0.0381,-0.1002
76.2670,-4.1937,-3.5433,8.6119,-0.1042,-0.0854,0.0981
76.3670,2.8903,-11.3677,-1.1209,-0.1760,-0.0044,0.1240
76.4670,15.3025,-34.4212,-18.5942,-0.1423,-0.0478,0.0585
76.5670,-1.7891,-11.5891,-11.8003,-0.0534,-0.0420,-0.1461
76.6670,-9.3540,0.1361,17.3142,-0.1042,-0.0263,-0.2110
76.7670,-4.3540,-2.1158,8.1463,-0.1784,-0.0508,0.0063
76.8670,-5.7662,4.5559,7.0470,-0.1179,-0.1299,0.1655
76.9670,-5.9952,10.8536,-13.8690,-0.0359,-0.1274,0.2538
77.0670,8.2491,19.0750,-2.4110,-0.0920,-0.0566,-0.0523
77.1670,7.5086,2.3575,0.5356,-0.0461,-0.0678,-0.1505
77.2670,0.1880,7.3269,9.2990,-0.1452,-0.0761,-0.1812
77.3670,-0.0334,-6.1998,5.0547,-0.1301,-0.0849,0.0121
77.4670,6.3025,-15.1005,-2.1667,-0.1452,-0.0249,0.1528
77.5670,0.3788,-16.7112,-20.4949,-0.0959,-0.0947,0.1249
77.6670,-0.7662,-14.2456,-8.2659,-0.0735,-0.0273,-0.0425
77.7670,-1.7433,-3.1540,8.5432,-0.0735,-0.0634,-0.2549
77.8670,-0.1173,1.5788,20.7112,-0.1462,0.0103,-0.1226
77.9670,-16.2471,-1.8105,-3.4262,-0.1047,-0.0210,0.0414
78.0670,-3.6746,5.2811,-0.5484,-0.1047,-0.0644,0.1620
78.1670,-0.0028,-4.0776,-18.8232,-0.0124,-0.1411,0.0107
78.2670,-0.5601,11.2048,3.3448,-0.0461,-0.2133,0.0107
78.3670,5.3788,3.0445,-2.5789,-0.0764,-0.0844,-0.2691
78.4670,2.7376,9.5865,11.4364,-0.1262,-0.0947,-0.1236
78.5670,-7.6670,-0.3219,6.2990,-0.0930,-0.1015,0.0517
78.6670,3.6765,-13.5815,15.1921,-0.1584,-0.0717,0.2494
78.7670,8.4094,-31.9631,-12.1209,-0.1194,-0.1010,0.0483
78.8670,9.5697,-10.3296,-9.2201,-0.0725,-0.0449,-0.1524
78.9670,-0.0563,-4.0700,4.1463,-0.1272,-0.0605,-0.2066
79.0670,-3.5601,5.5254,1.2913,-0.0935,-0.0327,-0.0113
79.1670,-10.0792,-0.3677,6.5509,-0.1013,-0.1020,0.0493
79.2670,-4.5448,14.1819,-1.0751,-0.1247,-0.1181,0.0136
79.3670,-13.0181,1.8155,-23.9835,0.0300,-0.1269,0.0483
79.4670,4.4246,15.8078,4.3448,-0.0378,-0.1040,-0.1236
79.5670,4.0124,7.4720,10.5127,-0.1609,-0.0542,-0.2125
79.6670,-0.5372,1.8384,10.0470,-0.0725,-0.1074,-0.0826
79.7670,-2.2853,3.4109,14.4211,-0.1194,-0.1152,0.0683
79.8670,-9.3540,-21.1311,-8.0904,0.0091,-0.2265,0.2817
79.9670,9.2185,-1.2303,-3.9377,0.0076,-0.1508,-0.1812
80.0670,-7.6899,-7.4059,-3.6858,0.0061,-0.0947,-0.3096
80.1670,-1.3005,1.4949,11.3600,-0.1413,-0.0605,-0.0914
80.2670,-4.1326,-4.2761,-8.4873,-0.1911,-0.0249,0.0898
80.3670,-3.3616,4.3651,-10.9148,-0.0720,-0.1645,0.2309
80.4670,-6.6746,7.5178,-23.4110,0.0286,-0.2368,0.1406
80.5670,1.5849,14.3727,2.3753,-0.0510,-0.1377,-0.0225
80.6670,6.7529,6.6475,10.1997,-0.0671,-0.0893,-0.2090
80.7670,-2.4761,4.4872,13.3219,-0.1057,-0.1513,-0.0797
80.8670,-5.0486,0.4872,2.4593,-0.0271,-0.1533,0.1371
80.9670,-4.1479,-10.7036,-1.0446,-0.0075,-0.1543,0.2475
81.0670,14.0735,-10.9097,-6.9606,0.0877,-0.1010,-0.0421
81.1670,-8.1555,-0.3448,1.0394,-0.0281,-0.1172,-0.2042
81.2670,0.3559,13.1972,17.5890,-0.1760,-0.0810,-0.1329
81.3670,-0.3845,2.7315,3.0699,-0.1233,-0.0434,0.0043
81.4670,-8.5677,17.5330,-4.1209,-0.1023,-0.2295,0.1420
81.5670,-23.8273,25.1666,-15.1362,0.0423,-0.2788,0.3076
81.6670,5.5620,23.1208,-9.9682,-0.0056,-0.1074,-0.0484
81.7670,15.8674,3.6552,7.1234,-0.0325,-0.0923,-0.1558
81.8670,-3.2929,4.1056,11.0852,-0.1179,-0.0771,-0.1671
81.9670,0.0048,-7.6960,3.5356,-0.0793,-0.1269,-0.0098
82.0670,7.7453,-17.0013,-4.8919,-0.1658,-0.0967,0.1352
82.1670,-5.9189,-17.4746,0.8867,0.0676,-0.1450,0.1943
82.2670,8.1956,-6.0318,4.7493,-0.0241,-0.1289,-0.0006
82.3670,-3.5601,-0.6425,17.2608,-0.0862,-0.1284,-0.2413
82.4670,-9.5143,3.1895,11.1463,-0.1218,-0.1284,-0.0362
82.5670,5.1498,13.9147,-5.7239,-0.1662,-0.0630,0.0331
82.6670,1.0201,9.8002,-11.4568,-0.1296,-0.1303,0.1508
82.7670,-5.0028,14.7620,-24.4720,0.0266,-0.1748,0.1157
82.8670,1.2643,23.5101,-1.6247,-0.0862,-0.1548,-0.0079
82.9670,11.8063,12.6170,-0.2965,-0.0027,-0.0893,-0.1592
83.0670,-3.0715,10.6857,12.2226,-0.0950,-0.0815,-0.0455
83.1670,-3.6670,0.2430,3.4669,-0.0652,-0.1601,0.0742
83.2670,6.1117,-1.1693,4.7799,-0.2239,-0.0830,0.2748
83.3670,10.3483,-28.1845,-15.5560,-0.0505,-0.1338,0.0859
83.4670,4.2643,-19.0547,-2.5560,-0.0046,-0.0971,-0.1216
83.5670,-0.4151,10.4033,20.1845,-0.0681,-0.0493,-0.2061
83.6670,-9.1479,-5.6273,1.2913,-0.0945,-0.0468,-0.0499
83.7670,0.1346,-0.1922,-4.7850,-0.0871,-0.0854,0.0283
83.8670,1.4399,-0.9631,-9.6705,-0.1247,-0.1255,0.1005
83.9670,3.9285,-3.8181,-24.5713,0.0198,-0.1977,0.1093
84.0670,4.2414,10.5941,0.1768,0.0056,-0.1416,0.0673
84.1670,-7.8425,19.8078,14.8562,-0.1135,-0.0932,-0.1744
84.2670,15.2643,-0.0166,10.4593,-0.0915,-0.1216,-0.0064
84.3670,-1.4227,-6.3372,7.0012,-0.0842,-0.0859,0.0419
84.4670,2.6536,-4.4135,3.2608,-0.1902,-0.0893,0.1782
84.5670,5.3178,-21.3372,-9.1591,0.0154,-0.1010,0.0361
84.6670,4.0964,-6.4746,-1.6781,0.0130,-0.1025,-0.0855
84.7670,-5.1250,-3.3143,1.8562,-0.0539,-0.0351,-0.2281
84.8670,-6.4151,9.5254,-2.6781,-0.0466,-0.0610,-0.0176
84.9670,-0.4761,10.8995,7.2226,-0.1887,-0.0327,0.0712
85.0670,-10.4380,15.9834,-0.8690,-0.2058,-0.0107,0.1752
85.1670,9.1804,24.9376,2.7570,0.0008,-0.2358,0.3085
85.2670,7.2262,20.2582,8.3829,-0.0154,-0.2685,0.1821
85.3670,-30.8807,0.3117,-29.9530,-0.1575,-0.0630,-0.1754
85.4670,-3.0257,-2.8792,-4.3881,-0.1760,-0.1816,-0.0274
85.5670,-10.1708,3.6475,2.9554,-0.0271,-0.2207,-0.1143
85.6670,8.4781,23.8307,6.3524,-0.1916,-0.2138,0.1005
85.7670,7.2643,18.2811,-5.1896,0.1204,-0.2417,0.3290
85.8670,-11.7738,13.7849,8.4974,-0.1516,-0.2187,-0.0015
85.9670,-1.9952,26.7849,-2.6858,-0.1252,-0.1767,-0.1060
86.0670,-1.3922,30.3575,-5.3194,-0.0378,-0.1347,-0.1602
86.1670,-22.7280,43.8384,-7.8384,-0.1833,-0.1372,-0.0255
86.2670,1.6155,49.5712,16.8104,-0.1731,-0.2895,0.2338
86.3670,20.2338,43.9834,-1.8003,-0.0700,-0.3564,0.1386
86.4670,-4.8654,56.5025,-21.5484,-0.1511,-0.2085,-0.1705
86.5670,-12.3998,48.2582,-0.3728,-0.0588,-0.2129,-0.0538
86.6670,-1.4914,50.7926,6.3524,-0.1443,-0.1728,-0.0826
86.7670,-4.4609,51.8613,-0.6171,-0.2112,-0.1352,-0.0269
86.8670,6.9208,55.9911,-3.7850,-0.2273,-0.0644,0.0366
86.9670,6.1727,56.7010,0.2150,-0.2126,-0.0771,0.1484
87.0670,-27.2242,18.5865,-14.8232,-0.1501,-0.1884,-0.0098
87.1670,-32.1708,37.1895,31.4822,-0.1511,-0.1513,0.1005
87.2670,-12.2318,43.1208,-12.1209,-0.0652,-0.1924,-0.1861
87.3670,-16.1937,44.3804,-19.6934,-0.1560,-0.1865,-0.0694
87.4670,-17.3464,50.1285,-22.9682,-0.0666,-0.1865,-0.1309
87.5670,-22.1326,73.2659,-7.5865,-0.1789,-0.1250,-0.1197
87.6670,-19.5830,91.7697,0.7188,-0.1575,-0.2622,0.0190
87.7670,0.5239,96.2048,-25.1514,-0.0007,-0.3706,0.0468
87.8670,-19.5143,91.9453,-23.6018,-0.0339,-0.3593,-0.1754
87.9670,-17.3158,88.4720,-26.3194,0.0437,-0.2905,0.0165
88.0670,-11.4151,70.5559,-22.7087,-0.1350,-0.1928,-0.0967
88.1670,-8.9876,59.6475,-14.1743,-0.0359,-0.2612,0.0439
88.2670,10.5391,56.2430,5.2913,-0.0012,-0.2231,0.0410
88.3670,15.8903,49.2506,8.8944,0.1624,-0.1816,0.0410
88.4670,26.4475,50.0140,-6.6705,0.0637,-0.0571,-0.3609
88.5670,-6.3540,59.0903,-12.0217,-0.0134,-0.1230,0.0307
88.6670,15.0430,37.9224,15.5661,-0.1018,-0.0571,0.0619
88.7670,30.8140,42.2582,31.5509,0.0012,0.0845,0.0439
88.8670,-22.6670,28.9834,34.0318,-0.1101,-0.0551,-0.2681
88.9670,-23.8654,39.1208,8.0012,-0.0027,-0.1084,-0.0870
89.0670,-4.3693,-10.3525,-8.1438,0.9104,-0.2549,-1.9957
89.1670,6.6689,23.8307,4.4669,-0.0886,-0.1362,0.0117
89.2670,-1.7967,28.4414,0.1692,-0.1965,-0.0962,0.0214
89.3670,5.3788,9.6017,-15.2430,0.0178,-0.0122,-0.1485
89.4670,0.2491,12.9376,-12.8995,-0.0842,-0.0498,-0.1153
89.5670,4.6155,5.3117,-4.2507,-0.0954,-0.0991,0.0170
89.6670,6.4704,-3.3067,2.1845,-0.1037,-0.0644,0.1713
89.7670,-1.4761,-4.6807,2.3600,-0.0823,-0.0024,0.1660
89.8670,6.8445,-7.0166,0.8409,-0.0256,-0.0185,0.0126
89.9670,-7.4990,-15.3372,-0.2507,-0.0788,0.0479,-0.1802
90.0670,-4.6288,-1.1235,10.7799,-0.0251,0.0127,-0.1036
90.1670,3.3254,-3.0013,-5.8003,-0.0705,0.0513,-0.0381
90.2670,-2.7051,8.8918,-17.3957,0.0481,-0.0283,-0.0098
90.3670,-10.5601,-8.2456,-1.3041,-0.0808,0.1006,0.0327
90.4670,1.4628,9.1743,-18.0751,0.0369,-0.2553,0.3124
90.5670,20.1422,8.9453,-13.9682,-0.0437,-0.0556,-0.0430
90.6670,11.5315,4.4109,-11.8155,-0.0241,-0.0058,-0.0948
90.7670,-1.0410,1.8842,1.6196,-0.0124,-0.0473,-0.0850
90.8670,-15.1784,1.4185,4.9402,-0.0715,-0.0713,-0.0162
90.9670,-4.7357,-14.1082,17.3066,-0.0627,-0.0097,0.1303
91.0670,-5.0486,28.9300,13.3448,0.0911,-0.0420,0.2070
91.1670,1.5468,-16.9021,35.1615,0.0081,0.0308,-0.0845
91.2670,-10.4685,-12.6196,30.7264,-0.1018,0.0537,-0.1871
91.3670,-0.1250,-17.2838,29.6654,-0.2805,-0.0952,-0.1910
91.4670,8.5620,-16.9402,-2.0598,-0.2453,0.0034,-0.0967
91.5670,-0.9799,-4.0395,-9.3346,-0.1848,-0.0229,-0.0816
91.6670,0.8521,-3.8181,7.9936,-0.0871,-0.1313,0.2158
91.7670,1.2185,0.1361,-13.4873,-0.1902,-0.1352,0.0761
91.8670,5.8521,0.5483,-19.4797,-0.1394,-0.0815,-0.1065
91.9670,11.0659,2.0369,7.0776,-0.1833,-0.0727,-0.2237
92.0670,1.4170,-4.4593,5.8180,-0.2312,-0.0503,-0.0772
92.1670,1.9208,-1.1158,4.2226,-0.2649,-0.0420,0.0390
92.2670,11.4475,-5.4364,-9.1591,-0.0769,-0.0371,0.2001
92.3670,-0.6212,-3.3067,-4.4339,-0.1116,0.0078,-0.0362
92.4670,-17.3311,-4.7341,0.1692,-0.1374,-0.0263,-0.1890
92.5670,-0.6135,2.1208,14.8562,-0.2287,0.0113,-0.0797
92.6670,10.6536,12.0292,-2.8079,-0.2263,-0.0434,-0.0352
92.7670,-0.2166,12.8842,-6.7774,-0.1843,-0.0517,0.0058
92.8670,-17.7051,17.3498,-2.3575,-0.1589,-0.0405,0.2060
92.9670,-8.1631,16.9605,-2.6858,-0.1540,-0.1142,0.0053
93.0670,-0.1555,7.1437,-10.1362,-0.1106,-0.0830,-0.0797
93.1670,-1.1631,-0.9173,11.7493,-0.1907,-0.0678,-0.2442
93.2670,-11.0944,-3.7341,0.5585,-0.2136,-0.0805,-0.0504
93.3670,5.0659,-2.6654,-9.1667,-0.2038,-0.0962,0.0351
93.4670,12.7987,-1.0471,-5.9606,-0.1858,-0.0571,0.1909
93.5670,9.8445,-3.7952,-8.7392,-0.1599,-0.0356,-0.0762
93.6670,1.4781,4.4949,-2.5331,-0.1072,-0.0239,-0.0162
93.7670,1.0506,8.1437,6.8409,-0.1120,-0.0009,-0.1827
93.8670,-4.7357,8.3117,-10.9988,-0.1174,0.0049,-0.1099
93.9670,-5.3769,25.5101,-9.1056,-0.0608,0.0484,0.0131
94.0670,-7.8425,-0.5128,-10.6094,-0.1658,-0.0049,0.2226
94.1670,0.8903,2.5865,-12.9301,-0.0276,-0.0805,0.0385
94.2670,10.5620,15.0063,5.1157,-0.0183,-0.0947,0.0263
94.3670,8.4704,21.1895,-4.1743,-0.1111,-0.1225,-0.3116
94.4670,-3.7738,2.0216,4.8486,-0.1277,-0.0400,-0.1353
94.5670,-0.3387,-4.4135,7.7264,-0.1457,-0.0571,0.0527
94.6670,8.1804,-3.6196,3.4669,-0.1677,-0.0019,0.1386
94.7670,5.6842,-8.8944,-11.9377,-0.0002,0.0215,0.0766
94.8670,-0.0715,-13.3525,2.5585,0.0017,0.0440,-0.0548
94.9670,-2.6364,-5.0318,5.1616,-0.0964,0.0454,-0.2222
95.0670,0.8140,-2.9173,-6.6934,-0.1116,0.0064,-0.0797
95.1670,4.1880,-3.1082,-0.1743,-0.1262,0.0616,-0.0460
95.2670,-1.2242,2.5178,6.4745,-0.1858,0.0166,0.1103
95.3670,-8.3235,-0.1998,-16.1438,-0.0090,-0.0693,0.1918
95.4670,-0.6746,7.1132,-2.2125,-0.0246,-0.0468,0.0200
95.5670,9.8979,3.3346,2.7341,-0.0344,-0.0454,-0.2442
95.6670,-2.2547,1.9453,9.6883,-0.1145,-0.0210,-0.1031
95.7670,-1.7357,3.0750,0.9707,-0.1203,-0.0410,-0.0508
95.8670,4.6995,-5.2914,1.2913,-0.1482,0.0332,0.1371
95.9670,3.4933,-15.4441,-13.4262,0.0589,0.0420,0.1269
96.0670,0.7224,-20.2609,3.2150,0.0232,0.0596,-0.0972
96.1670,-6.5754,-5.5204,8.2990,-0.0769,-0.0112,-0.2315
96.2670,0.6536,3.4414,4.6425,-0.1277,-0.0063,-0.0875
96.3670,6.3559,-4.6807,-4.8232,-0.1423,0.0425,-0.0548
96.4670,-2.8578,2.4262,2.4898,-0.1457,-0.0019,0.1464
96.5670,-6.8578,0.9529,-14.4110,0.0261,-0.0415,0.2328
96.6670,-5.6593,13.2506,4.6196,0.0217,-0.0732,-0.0089
96.7670,13.7300,9.2735,2.4898,-0.0622,-0.0317,-0.1461
96.8670,4.3330,4.8384,4.7264,-0.1189,-0.0547,-0.1412
96.9670,3.7605,-2.7723,-2.4491,-0.1208,-0.0439,-0.0894
97.0670,8.3865,-3.7723,2.2455,-0.1594,0.0288,0.1425
97.1670,3.7147,-6.2303,-18.8003,0.0032,0.0220,0.1884
97.2670,3.1040,-8.0013,-13.5102,0.0051,0.0357,-0.0338
97.3670,0.2720,0.2506,1.2379,-0.0534,0.0117,-0.2125
97.4670,-6.9036,5.3422,9.6272,-0.1003,0.0347,-0.0958
97.5670,3.0277,2.5865,4.2074,-0.1213,0.0684,-0.0640
97.6670,1.5926,4.5254,5.7570,-0.1267,0.0200,0.0981
97.7670,-17.6517,8.6017,-17.2888,0.0227,-0.0063,0.2241
97.8670,-0.3845,13.3651,-1.8766,-0.0056,-0.0615,-0.0601
97.9670,-0.5219,7.0063,3.9707,-0.0046,-0.0605,-0.0225
98.0670,1.5544,1.6933,5.9020,-0.1003,0.0034,-0.1436
98.1670,0.1040,1.9453,5.1616,-0.1072,-0.0117,-0.0801
98.2670,2.9819,-5.0166,-8.3804,-0.1042,0.0039,0.0815
98.3670,4.7987,-7.2380,-13.4644,0.0242,0.0283,0.2700
98.4670,3.2414,-13.8181,-5.5331,0.0193,0.0362,0.0507
98.5670,-2.3693,-2.0700,0.0012,-0.0329,0.0020,-0.2340
98.6670,-1.4227,0.2430,9.8867,-0.0993,0.0171,-0.1544
98.7670,-0.1784,2.5101,3.3600,-0.1169,0.0723,-0.0689
98.8670,-6.5067,10.9376,6.4669,-0.1423,0.0171,0.1157
98.9670,-3.0181,6.5483,-17.0980,0.0476,-0.0971,0.2582
99.0670,-1.0028,13.0140,-6.0751,0.0545,-0.0488,0.0229
99.1670,10.3941,1.9376,8.1463,-0.0310,-0.0302,-0.2349
99.2670,-3.9494,-6.7112,11.7341,-0.0842,-0.0146,-0.1700
99.3670,-0.1402,-5.1845,0.4745,-0.1052,-0.0483,0.0439
99.4670,4.3788,-13.2685,-5.7392,-0.0979,0.0269,0.2241
99.5670,0.3636,-18.3525,-8.0598,0.0144,-0.0102,0.0068
99.6670,-1.3540,-17.2532,3.2303,0.0554,0.0596,0.0185
99.7670,-0.3005,-5.1235,13.1616,-0.0276,-0.0146,-0.2012
99.8670,-1.0105,-4.7265,3.4898,-0.0910,0.0088,-0.0455
99.9670,1.3483,1.5025,-7.0598,-0.1067,0.0454,0.0165
100.0670,2.8292,8.3422,-9.8155,-0.1120,0.0210,0.1650
100.1670,1.7987,8.8460,-16.9682,0.0769,-0.0586,-0.0010
100.2670,-7.9799,16.6933,7.4593,0.0847,-0.0517,0.0678
100.3670,6.4475,7.6017,4.0623,-0.0666,-0.0112,-0.2090
100.4670,-1.2853,3.4109,1.0089,-0.0823,-0.0092,-0.1192
100.5670,5.7300,-7.5967,-1.2583,-0.0505,-0.0053,0.0341
100.6670,-2.2242,-9.3983,-11.2965,-0.0637,0.0327,0.2133
100.7670,5.1117,-14.4517,-13.9377,-0.0305,0.0244,0.0600
100.8670,-5.9952,-12.6807,-5.4644,0.0764,0.0230,-0.0508
100.9670,0.8979,-5.9326,17.2303,-0.0080,0.0117,-0.1929
101.0670,-0.2624,-2.5051,-10.3499,-0.0115,0.0352,-0.1036
101.1670,-3.6670,2.9071,-12.7316,-0.0500,0.0943,0.0244
101.2670,-14.3387,-4.6807,-34.3652,0.1292,-0.0258,0.3110
101.3670,-3.4303,4.0216,-4.1743,0.0799,-0.0527,-0.1168
101.4670,5.4704,15.5483,21.2837,0.1258,-0.1137,0.1376
101.5670,7.6002,7.4491,18.8409,-0.0212,-0.0478,-0.2203
101.6670,-0.6288,3.5330,7.8638,-0.0305,-0.0600,-0.1246
101.7670,4.6155,-5.1235,3.2150,-0.0461,-0.0278,0.0175
101.8670,-7.8120,-6.5662,-24.8919,0.0349,0.0161,0.3906
101.9670,5.1575,-15.1387,-10.9759,0.0598,0.0308,-0.0108
102.0670,-12.4074,-5.3677,13.3295,0.0447,-0.0166,-0.1251
102.1670,3.3559,-2.1693,25.4211,-0.0847,0.0108,-0.1197
102.2670,0.6613,0.6857,-2.5636,-0.1116,0.0293,-0.0626
102.3670,-2.9112,9.3422,-3.4110,-0.0764,0.0542,0.0366
102.4670,-17.2395,9.9987,-19.6781,0.0164,-0.0664,0.3310
102.5670,-3.4609,19.1590,-8.8003,0.0676,-0.1411,0.0082
102.6670,13.0430,15.9147,7.3142,0.0769,-0.0869,-0.0645
102.7670,9.6689,14.5025,20.7722,-0.0491,-0.0717,-0.2774
102.8670,-0.8502,4.8765,1.1768,-0.0974,-0.0302,-0.1544
102.9670,0.8140,-4.4059,-13.6629,-0.0940,-0.0298,0.1445
103.0670,4.6842,-9.0166,-29.8843,0.1287,0.0117,0.4306
103.1670,19.5620,-13.5051,-1.7850,0.1521,0.0000,0.0385
103.2670,0.5544,-3.8715,27.4135,0.0100,-0.0097,-0.2457
103.3670,8.5773,9.6323,28.1539,-0.1277,-0.0058,-0.2374
103.4670,14.3330,11.6552,-3.9682,-0.1799,0.0801,-0.1500
103.5670,-12.9265,14.1666,-7.8079,-0.1228,0.0689,0.1479
103.6670,-21.3998,12.2964,-14.4720,0.0017,0.0044,0.3525
103.7670,-11.1784,16.7773,5.8409,-0.0329,-0.0146,-0.0606
103.8670,10.4857,14.6857,-4.4339,-0.0056,-0.0073,-0.1646
103.9670,4.0735,1.0598,10.8791,-0.1037,0.0044,-0.2032
104.0670,-9.4456,-5.7265,4.2761,-0.1042,-0.0063,-0.0367
104.1670,6.6689,-15.5280,2.6806,-0.0989,0.0132,0.1835
104.2670,-3.6517,-13.6196,-8.1896,0.0237,-0.0088,0.1982
104.3670,-2.7128,-15.2151,-10.9988,0.0042,0.0347,0.0302
104.4670,-3.2776,-2.1922,7.9554,-0.0515,0.0034,-0.2818
104.5670,-3.4074,-7.2685,8.2684,-0.0920,0.0103,-0.0240
104.6670,-0.6975,-4.1311,3.3677,-0.1042,0.0825,0.0414
104.7670,0.8063,5.2277,-1.8155,-0.1589,0.0098,0.1957
104.8670,-3.1555,10.1437,-14.8766,-0.0486,-0.0835,-0.0621
104.9670,0.8445,9.9834,3.2913,0.0491,-0.0776,0.0463
105.0670,2.5315,3.5178,16.0470,-0.0657,-0.0156,-0.2188
105.1670,-4.7509,-4.4441,3.5585,-0.1277,0.0064,-0.0963
105.2670,8.9514,-3.3601,-2.9072,-0.1023,0.0059,0.0556
105.3670,3.3407,-5.9326,-11.2736,-0.0349,0.0454,0.2250
105.4670,-2.4303,-17.2761,-12.9377,-0.0212,0.0269,0.0551
105.5670,-6.3311,-17.7647,-1.5713,-0.0281,-0.0298,-0.1568
105.6670,-1.8273,-18.1311,18.7646,-0.0896,0.0030,-0.1109
105.7670,-1.3616,-19.2303,4.3982,-0.1282,0.0386,-0.0484
105.8670,2.3712,-16.4517,3.7570,-0.0852,0.0117,0.0991
105.9670,-3.5906,-27.5815,-9.9759,0.0354,-0.0317,0.0400
106.0670,-8.0486,-47.3754,5.9478,-0.0383,-0.0405,0.0883
106.1670,15.2262,-61.6731,2.1005,-0.0525,-0.0127,-0.1480
106.2670,5.8979,-77.2227,1.4974,-0.0417,-0.0551,-0.0919
106.3670,9.6231,-90.1311,2.7112,-0.0593,-0.1152,-0.0259
106.4670,5.6231,-99.7036,5.3677,-0.1726,0.0069,0.1723
106.5670,19.3254,-111.3525,-18.4644,-0.0593,0.0103,-0.0196
106.6670,11.5391,-97.0853,-5.7239,-0.0051,0.0244,0.0732
106.7670,22.2338,-76.5509,11.1845,-0.1067,-0.0278,-0.1251
106.8670,18.6689,-57.9173,-3.8079,-0.1628,-0.0078,-0.0670
106.9670,16.0888,-30.4975,1.4974,-0.1404,-0.0400,-0.0494
107.0670,8.4781,-7.7494,1.9020,-0.1233,-0.0234,0.1508
107.1670,6.6231,-2.4593,-1.0369,0.0003,0.0254,0.0468
107.2670,1.5239,1.3727,15.7264,-0.0798,-0.0210,0.0678
107.3670,9.7224,-9.5433,1.1005,-0.1516,0.0850,-0.1295
107.4670,2.1346,-20.1616,-20.7926,-0.1184,-0.0551,-0.1319
107.5670,-8.5067,-11.9479,-17.5560,-0.0710,-0.0092,-0.0577
107.6670,4.9208,-9.3830,4.0852,-0.0188,0.0000,0.0903
107.7670,6.7147,-17.5815,-7.7697,0.1116,0.0684,0.1620
107.8670,7.8369,-32.1005,-14.6934,-0.0671,0.0249,-0.0821
107.9670,-7.7280,-36.6731,-16.1285,0.1384,0.0972,-0.0279
108.0670,1.3559,-8.5204,-7.7926,0.0012,0.0552,-0.1138
108.1670,1.1880,-0.1845,-15.3346,0.0144,0.0186,-0.0465
108.2670,7.9361,-2.0547,-7.0827,0.0540,0.0464,-0.1075
108.3670,-4.1555,5.1743,6.1234,0.0325,0.0757,0.1679
108.4670,11.5239,2.2735,-13.5636,0.1663,-0.0766,0.0805
108.5670,4.7071,12.1666,10.2761,0.1306,-0.0195,-0.1104
108.6670,-12.7433,5.5025,26.9936,0.0662,-0.0244,-0.0660
108.7670,-11.9036,-2.7341,26.7951,-0.0325,0.0049,0.0204
108.8670,-2.1860,-13.7418,5.4669,-0.0285,-0.0654,0.0688
108.9670,6.7605,-16.4975,11.5356,-0.0788,-0.0029,0.1459
109.0670,-6.9799,0.4720,-13.3652,0.0071,-0.0893,0.1122
109.1670,4.1193,0.5559,-12.2125,0.0051,0.0230,-0.1050
109.2670,-7.4456,8.1895,13.8028,-0.0129,0.0283,-0.1846
109.3670,-18.2013,13.4109,7.3295,-0.0569,0.0039,-0.0474
109.4670,6.8903,10.0369,-3.0980,0.0091,-0.0561,0.0263
109.5670,9.6995,-61.0089,4.3829,0.0266,0.0025,-0.0001
109.6670,5.1880,16.3575,-21.2812,0.1507,-0.1582,0.1728
109.7670,14.5010,7.3575,-13.7010,0.0144,-0.0693,-0.0323
109.8670,1.9361,-4.5357,-19.2812,0.0735,-0.0498,-0.2584
109.9670,-10.0486,-4.8410,-1.0675,-0.1296,-0.0927,0.0263
110.0670,-3.1250,-8.6960,-0.3499,-0.0198,-0.0556,0.0190
110.1670,11.2643,-1.4670,-6.1514,0.0100,-0.0883,0.2372
110.2670,31.0659,5.4720,15.0241,0.0320,-0.0390,0.1855
110.3670,-20.5219,-0.1464,-16.6629,0.0471,0.1265,0.0771
110.4670,-82.7280,-7.1387,16.3219,0.3650,-0.1357,-0.2315
110.5670,9.4399,-4.0013,15.1997,0.0496,-0.0112,0.0073
110.6670,-17.3693,8.1285,9.7875,0.0642,-0.0166,0.0327
110.7670,15.6307,44.3651,30.7341,-0.0749,-0.0654,-0.0303
110.8670,22.6460,-65.9784,-31.8079,0.1511,-0.2075,0.2065
110.9670,15.6231,3.2201,0.1539,-0.1365,-0.2021,0.2079
111.0670,4.5773,-5.5280,-22.3881,-0.0012,-0.0478,-0.0860
111.1670,22.9743,21.0827,8.7493,-0.1023,-0.0849,-0.0132
111.2670,-4.3235,5.2582,6.4593,-0.0779,-0.0693,-0.0709
111.3670,11.8750,3.2735,4.6425,-0.1067,-0.0273,0.0327
111.4670,11.1804,-11.9479,-6.3652,-0.1306,0.0391,0.1381
111.5670,7.0888,-16.4670,6.9173,-0.0129,0.0396,-0.0884
111.6670,-15.0334,-29.4746,-28.0446,-0.0237,-0.0385,-0.0513
111.7670,21.4323,-13.3754,-2.0140,-0.1697,0.0186,0.0644
111.8670,1.0201,-21.5128,1.1768,-0.0993,0.0845,-0.1890
111.9670,-5.8883,-8.1005,0.7875,-0.0715,0.0801,-0.0601
112.0670,1.8369,3.0369,7.3371,-0.0676,0.0122,0.1425
112.1670,5.2109,-2.5204,-1.4797,0.0286,-0.0346,-0.0338
112.2670,-2.3540,-10.6349,-14.9988,-0.0041,-0.0283,-0.0069
112.3670,25.7529,2.5865,2.2837,-0.0027,0.0122,0.0302
112.4670,0.0811,-19.1769,-1.3117,-0.1296,0.0396,-0.0132
112.5670,1.3101,-18.8792,9.4287,-0.0984,0.0220,-0.0943
112.6670,-5.6670,-23.7036,12.1921,-0.0700,-0.0073,-0.0289
112.7670,1.9285,-15.3906,-5.2125,-0.0779,0.0386,-0.0362
112.8670,4.1422,-19.2685,-6.7087,0.0369,0.0542,0.0551
112.9670,8.1498,-15.6502,1.3600,-0.1418,0.0655,0.0121
113.0670,15.6613,-6.0395,-4.7545,-0.1072,0.0948,-0.0645
113.1670,-1.4914,-1.9555,-8.0064,-0.0671,0.1255,-0.0377
113.2670,-1.2929,4.3346,-5.5789,-0.1330,0.1436,-0.0411
113.3670,-0.6441,5.2277,5.1463,-0.1282,0.1118,0.0287
113.4670,10.1422,7.5788,13.6348,-0.0246,0.0865,0.0527
113.5670,-12.4990,16.1743,-4.1438,-0.1589,0.1133,-0.0386
113.6670,9.1346,10.4414,-2.3041,-0.1003,0.0669,-0.0723
113.7670,-10.8349,8.7544,2.4669,-0.0779,0.0830,-0.0377
113.8670,-6.0792,3.8231,3.2532,-0.1482,0.0620,-0.0191
113.9670,-3.5296,6.1285,-0.0064,-0.1477,0.0620,-0.0689
114.0670,2.3178,1.1590,-0.9072,-0.1716,0.0044,0.0561
114.1670,-2.4914,3.3040,-1.9988,-0.0886,0.0122,-0.0010
114.2670,-11.5677,7.1285,4.8180,-0.0525,0.0391,0.0283
114.3670,-7.5830,6.6552,-5.5560,-0.0515,0.0655,-0.0797
114.4670,-10.8425,10.1208,-9.0064,-0.1023,0.0816,-0.0054
114.5670,0.4552,8.1590,5.2150,-0.0842,0.0323,-0.0191
114.6670,3.0582,11.1590,-5.7316,-0.1042,0.0371,-0.0152
114.7670,2.6307,20.8918,3.5967,-0.1433,0.0508,0.0258
114.8670,9.3483,10.8536,0.3524,-0.1301,0.0772,-0.0855
114.9670,-16.3158,14.8995,8.7875,-0.0246,0.0874,0.0234
115.0670,-13.0334,23.0063,15.5890,-0.0525,-0.0009,0.0746
115.1670,-7.6364,35.8155,6.6196,-0.1067,-0.0092,0.0864
115.2670,-10.9112,20.3117,-5.2965,-0.0491,-0.0117,-0.1050
115.3670,-2.6822,20.3575,-0.6018,-0.1037,-0.0717,-0.0626
115.4670,-11.9723,23.4872,12.2455,-0.0569,-0.0576,-0.0875
115.5670,-6.0257,25.0292,8.3066,-0.1345,-0.0175,-0.0899
115.6670,-8.0486,25.5788,5.5967,-0.1448,-0.0332,0.0126
115.7670,-18.9418,10.3651,-9.5560,0.0017,-0.0337,0.0380
115.8670,-13.2089,26.3269,-8.9224,-0.0041,-0.0825,-0.0723
115.9670,-6.9112,43.0140,-16.0140,-0.1306,-0.1255,-0.0040
116.0670,-26.7891,57.8613,-7.6247,-0.0920,-0.0840,-0.1021
116.1670,-9.2929,45.6399,-1.3652,-0.1076,-0.0761,-0.0274
116.2670,-19.0334,50.9605,4.9325,-0.1340,-0.0429,-0.0748
116.3670,-5.5906,59.1590,9.8028,-0.2141,-0.1430,0.2831
116.4670,-23.8883,45.8231,-4.9682,0.0515,-0.1377,0.0077
116.5670,-27.8578,36.4491,-12.0980,0.0017,-0.2212,-0.0904
116.6670,-18.7433,50.5788,-6.7468,-0.0041,-0.2285,0.0590
116.7670,-5.1860,41.0674,2.3753,-0.1555,-0.2348,-0.0377
116.8670,-10.1937,42.5559,3.2837,-0.0827,-0.2202,0.0117
116.9670,-9.6135,26.5483,8.8333,0.0823,-0.1191,-0.0264
117.0670,15.2491,11.6552,-10.8995,-0.0754,-0.2007,0.1616
117.1670,-2.0181,14.7926,-22.5865,-0.0149,-0.2075,-0.0010
117.2670,0.5010,22.5254,-5.4415,-0.0334,-0.1992,-0.0440
117.3670,3.0277,21.7315,-9.0827,-0.1023,-0.0888,-0.2154
117.4670,-14.1479,22.2430,-11.9453,-0.0935,-0.0800,-0.1480
117.5670,-17.2547,7.2964,-8.9301,-0.1072,-0.0854,0.0287
117.6670,13.8140,22.6628,9.9249,-0.1111,-0.1596,0.1074
117.7670,-13.0105,7.7620,-18.6171,-0.0012,-0.1977,-0.0406
117.8670,-12.5754,9.3956,-25.3575,-0.0100,-0.1386,-0.0235
117.9670,8.3178,12.5636,3.0623,0.0061,-0.2422,-0.0040
118.0670,19.3941,3.1590,-0.4644,-0.1052,-0.1611,-0.2115
118.1670,-4.8807,-4.9250,-4.9911,-0.0534,-0.1689,-0.0865
118.2670,6.9361,-8.5586,0.8180,-0.0246,-0.1069,0.1225
118.3670,-29.3922,-1.0471,-24.3652,0.0115,-0.0547,-0.0552
118.4670,23.5926,-3.2990,16.9707,0.1687,0.0733,0.0121
118.5670,-22.1860,-22.6654,-24.9224,0.1218,0.0782,-0.3795
118.6670,-18.2700,-18.1464,-4.0064,0.1062,-0.0595,-0.1656
118.7670,-6.9418,4.8155,13.0699,-0.0725,-0.0664,-0.1104
118.8670,0.5162,4.7391,12.6272,0.0930,-0.0508,0.0859
118.9670,79.3101,10.4643,9.6883,-0.0066,-0.1040,0.0590
119.0670,0.8445,14.4262,-3.0598,-0.0408,-0.1084,-0.0093
119.1670,1.2643,14.5254,-2.8843,-0.0305,-0.1689,-0.0816
119.2670,2.7453,0.9987,0.0470,-0.0891,-0.0893,-0.1119
119.3670,0.4170,-8.4288,-1.2583,-0.0574,-0.0791,-0.0098
119.4670,10.0811,-6.8868,2.0165,-0.0090,-0.0776,0.0634
119.5670,0.2262,-11.0624,12.5890,-0.0437,0.0288,0.1430
119.6670,7.6078,-9.5738,0.8638,-0.0661,-0.0820,0.1015
119.7670,1.4704,7.2964,-11.6705,-0.0305,-0.0498,-0.0977
119.8670,2.0048,6.4033,-5.7316,-0.0115,-0.0136,-0.1285
119.9670,-3.6364,6.4567,8.2150,-0.0124,0.0259,-0.0425
120.0670,-0.4303,2.1361,2.3142,0.0774,-0.0429,0.0864
120.1670,-0.3693,-0.7952,4.8409,0.0257,-0.0439,0.0600
120.2670,-4.5601,11.3575,-1.3346,0.0051,-0.0659,0.0776
120.3670,2.0277,6.7162,-9.6629,0.0452,-0.1308,-0.0494
120.4670,9.2872,-5.8334,-8.7545,-0.0574,0.0083,-0.1221
120.5670,-8.0715,-3.1005,2.6654,0.0208,-0.0639,-0.0674
120.6670,3.5391,-9.7112,0.5661,0.0593,-0.0693,0.0815
120.7670,4.9666,-15.9555,7.7951,0.0017,0.0200,0.1030
120.8670,10.9819,-12.6807,-7.8766,0.0169,-0.0561,0.0771
120.9670,1.0430,-10.3372,-9.1362,0.0193,-0.0732,-0.1114
121.0670,-7.8578,-5.6196,5.6654,-0.0149,-0.0063,-0.1016
121.1670,-11.5677,-10.4670,9.3677,-0.0476,-0.0141,-0.0709
121.2670,-10.4074,-5.3143,6.4440,-0.0740,-0.0605,0.1733
121.3670,-8.4685,4.0598,-20.5484,0.0686,-0.1050,0.2519
121.4670,6.5697,-1.2914,-13.9148,0.0691,-0.1006,-0.1016
121.5670,2.6765,18.4567,6.6959,0.0720,-0.1372,-0.0230
121.6670,0.8674,0.7620,16.2455,-0.0500,-0.0820,-0.0909
121.7670,4.0888,-1.9860,11.7112,-0.0320,-0.0747,-0.0308
121.8670,1.7453,9.7086,14.9554,-0.0642,-0.0620,0.1088
121.9670,-6.2166,-6.8181,4.0623,0.0335,0.0196,0.1967
122.0670,10.5620,-18.1387,-7.7010,-0.0437,-0.0180,-0.0865
122.1670,-2.8502,-4.3296,-3.3423,-0.0046,-0.0278,-0.1353
122.2670,-4.8273,0.3575,4.4135,-0.0847,-0.0229,-0.1173
122.3670,1.2262,2.3498,1.0394,-0.0622,-0.0063,0.0395
122.4670,-2.8883,14.3117,-3.2278,-0.0603,-0.1030,0.1059
122.5670,6.2491,20.3727,-11.0827,0.0042,-0.0639,0.1850
122.6670,11.9819,24.8995,-7.7697,0.0833,-0.0429,-0.0596
122.7670,2.0582,10.4109,-3.6476,0.0506,-0.0844,-0.1387
122.8670,-2.4609,1.7162,8.2608,-0.0525,-0.0634,-0.1705
122.9670,-3.4303,-0.7341,6.4440,-0.0036,-0.0830,0.0043
123.0670,9.2796,8.2277,1.6348,0.0398,-0.0483,0.0883
123.1670,-0.2166,-9.2609,6.1463,0.0081,-0.0195,0.1845
123.2670,-3.4914,-20.8563,-5.0217,-0.0110,0.0015,-0.0372
123.3670,-1.6822,-10.1158,-1.4110,0.0559,-0.0464,-0.0972
123.4670,3.3254,2.0521,7.7646,-0.0530,-0.0151,-0.1314
123.5670,-2.4761,-3.1616,4.6959,-0.0559,0.0059,-0.0557
123.6670,-10.3540,7.0140,14.9325,-0.0876,-0.0117,0.0869
123.7670,-11.5372,6.3269,-3.6247,0.0403,-0.1074,0.2866
123.8670,0.6613,9.9834,-8.2354,0.0061,-0.0937,-0.0582
123.9670,2.5620,7.6781,0.7799,0.0286,-0.1206,-0.0948
124.0670,3.7834,-1.9708,9.6043,-0.1081,-0.0298,-0.1465
124.1670,2.1040,0.3880,9.6043,-0.0456,-0.0732,-0.0450
124.2670,10.6536,-7.6578,16.3066,-0.0647,-0.0283,0.0785
124.3670,-10.5219,-6.3983,-0.8155,-0.0305,-0.0200,0.1948
124.4670,4.0277,-17.0242,-7.9377,-0.0603,0.0059,-0.0391
124.5670,-4.8654,-2.2685,-11.1667,-0.0344,-0.0434,-0.1768
124.6670,-6.5296,6.9987,-1.1514,-0.0637,-0.0405,-0.1050
124.7670,-3.7357,1.6857,2.9860,-0.0710,-0.0019,-0.0001
124.8670,-1.4380,14.3498,6.8715,-0.0901,-0.0967,0.1113
124.9670,-1.7509,14.7544,-0.4033,0.0012,-0.1001,0.1782
125.0670,-6.6975,20.3040,-11.3957,-0.0071,-0.1255,0.0136
125.1670,16.5391,4.1437,-3.3041,-0.0158,-0.0918,-0.1832
125.2670,-1.5983,2.5865,7.0776,-0.1399,-0.0180,-0.1636
125.3670,1.3636,-1.7265,15.0241,-0.0554,-0.1084,0.0263
125.4670,7.7376,-8.9708,9.4135,-0.0959,-0.0449,0.1567
125.5670,-8.9494,-10.7876,-4.3041,0.0051,-0.0859,0.0917
125.6670,-5.1326,-13.3906,-7.2659,-0.0466,-0.0346,-0.0093
125.7670,2.9208,-2.7112,-5.7697,-0.0720,-0.0844,-0.1871
125.8670,2.1193,3.1361,3.3753,-0.1223,-0.0434,-0.0992
125.9670,5.4017,21.9682,1.0318,-0.0930,0.0132,-0.0176
126.0670,-3.4380,12.2964,-2.2201,-0.1325,-0.1045,0.1357
126.1670,-3.2624,13.8536,-20.6018,0.0525,-0.1640,0.2026
126.2670,-7.2471,21.5636,-1.9072,0.0051,-0.1220,-0.0455
126.3670,13.7147,5.8307,1.4593,-0.0061,-0.0825,-0.1299
126.4670,2.4781,5.9453,6.3448,-0.0657,-0.0693,-0.1187
126.5670,2.2262,1.0216,9.8715,-0.0686,-0.0879,-0.0108
126.6670,3.5010,-13.5967,2.6425,-0.1189,-0.0156,0.1874
126.7670,-0.7433,-9.8028,-8.1667,0.0276,-0.0483,0.0722
126.8670,-5.6288,-12.8028,-2.4033,-0.0056,0.0078,-0.0001
126.9670,2.1040,-11.6654,0.0699,-0.0647,-0.0366,-0.1998
127.0670,-5.3998,-2.0853,0.5661,-0.0481,-0.0263,-0.0831
127.1670,-1.8960,8.3651,2.0852,-0.0749,0.0078,0.0190
127.2670,-7.7204,9.1819,-8.4186,-0.0378,-0.0605,0.2460
127.3670,4.9514,11.4491,-17.8843,0.0017,-0.1562,-0.0455
127.4670,-3.8349,20.6704,5.0699,0.0569,-0.0996,-0.0123
127.5670,9.8292,2.7544,11.3600,-0.0642,-0.0151,-0.2149
127.6670,0.0811,4.2659,11.4364,-0.0622,-0.0591,-0.0738
127.7670,1.6842,-5.5128,6.5203,-0.0032,-0.1113,0.0917
127.8670,2.1117,-10.5357,0.4135,-0.0393,0.0469,0.2050
127.9670,17.7300,-11.9326,-0.4568,-0.0783,-0.0234,-0.0508
128.0670,-12.0334,-5.6044,-13.7010,0.0008,-0.0571,-0.1148
128.1670,-3.1937,-0.8715,12.4135,-0.0564,-0.0258,-0.1348
128.2670,-6.2242,20.8613,8.7112,0.1253,0.0625,-0.0704
128.3670,-2.0944,9.0521,4.7951,-0.0403,-0.0146,0.0825
128.4670,-3.5906,8.4567,-6.3957,-0.0476,-0.0537,0.1547
128.5670,7.7987,9.1437,-14.7621,-0.0193,-0.1147,-0.0279
128.6670,6.7529,7.3727,-6.3652,0.0447,-0.0649,-0.0826
128.7670,9.7529,-1.8639,3.7799,-0.0959,-0.0249,-0.1837
128.8670,-3.3464,-0.0318,1.0089,-0.0632,-0.0454,-0.0528
128.9670,9.3407,-7.6273,6.6959,-0.0569,-0.0537,0.0800
129.0670,-3.8578,-6.6807,1.0470,0.0081,0.0498,0.2241
129.1670,4.6155,-13.4822,0.6348,-0.0349,0.0240,-0.0333
129.2670,-11.8196,-13.1540,-12.4568,-0.0095,0.0074,-0.1426
129.3670,0.9056,-5.2914,6.7035,-0.0437,0.0230,-0.1295
129.4670,1.1117,-4.7647,7.1997,-0.0720,0.0259,-0.0670
129.5670,-0.7815,6.3422,6.1997,-0.0559,-0.0566,0.1440
129.6670,-3.2089,8.1437,-7.7697,0.0091,-0.0171,0.1879
129.7670,4.2109,6.9453,-9.8308,0.0125,-0.0918,-0.0381
129.8670,12.9666,-0.5967,-3.0980,0.0535,-0.0537,-0.1119
129.9670,3.4628,3.7544,7.6577,-0.1013,-0.0068,-0.1627
130.0670,-3.8654,-3.8639,-2.5255,-0.0613,-0.0425,-0.0176
130.1670,1.7987,-8.2761,12.6959,-0.0432,-0.0102,0.0922
130.2670,0.1956,-10.7799,6.3219,-0.0056,0.0659,0.2031
130.3670,-0.9723,-11.4364,-12.0064,-0.0095,0.0415,-0.0089
130.4670,-3.2929,-2.3448,-9.1209,0.0003,-0.0190,-0.1705
130.5670,-7.1631,0.2506,6.6654,-0.0578,-0.0068,-0.1124
130.6670,0.3865,-2.2303,-1.6552,-0.0569,0.0254,-0.0098
130.7670,-6.5601,12.1743,1.7493,-0.0232,-0.0400,0.1074
130.8670,-0.4303,18.3346,-4.3728,-0.0251,-0.0229,0.1674
130.9670,-1.7280,12.6246,-15.7010,-0.0266,-0.0415,-0.0352
131.0670,-1.6135,3.4643,-4.7774,0.0618,-0.0405,-0.0953
131.1670,-1.9494,4.2430,10.2455,-0.0691,-0.0063,-0.1168
131.2670,1.2262,-2.5509,7.1997,-0.0251,-0.0254,0.0009
131.3670,11.2262,-6.8105,12.2455,-0.0256,-0.0249,0.0810
131.4670,-7.2547,-7.4975,0.8180,0.0427,0.0469,0.2309
131.5670,11.5086,-17.4517,-9.2736,-0.0325,0.0191,-0.0318
131.6670,-0.9952,-10.8639,-10.4720,0.0105,-0.0019,-0.1749
131.7670,-5.2624,-3.2990,5.7722,-0.0281,-0.0141,-0.0836
131.8670,2.5391,-3.6120,3.9020,-0.0486,0.0337,-0.0333
131.9670,-3.5677,3.8689,10.1463,-0.1008,-0.0019,0.0995
132.0670,-6.6593,7.6399,-4.7392,0.0471,-0.0927,0.1982
132.1670,-5.6746,3.9224,-9.5255,-0.0549,0.0005,-0.0816
132.2670,14.3025,-4.3525,-8.9606,0.0237,-0.0542,-0.0757
132.3670,0.3865,-1.8028,-0.3423,-0.0617,-0.0298,-0.1236
132.4670,0.1727,-8.1769,11.4211,-0.0842,-0.0307,-0.0294
132.5670,-0.3769,-12.4059,12.5051,-0.0876,-0.0039,0.1288
132.6670,-2.7204,-13.4746,-7.5484,0.0291,0.0606,0.1489
132.7670,-2.7280,-14.9860,-10.4110,-0.0139,0.0244,-0.0655
132.8670,0.4094,-7.8639,-6.0751,-0.0569,-0.0146,-0.2003
132.9670,-5.3769,0.8078,4.7875,-0.0657,0.0264,-0.0953
133.0670,2.6231,-0.3677,8.7264,-0.1081,0.0313,-0.0215
133.1670,-2.2166,12.1972,7.2761,-0.1291,-0.0288,0.1332
133.2670,-4.2547,16.8078,0.3600,-0.0290,-0.1225,0.1215
133.3670,-2.6746,11.7468,-2.6629,-0.0320,-0.0659,-0.0181
133.4670,9.4399,7.2124,-5.7163,0.0271,-0.0688,-0.1021
133.5670,1.6765,2.5101,1.7188,-0.0935,-0.0053,-0.1509
133.6670,3.2872,-7.4746,2.4211,-0.0603,-0.0508,-0.0132
133.7670,1.4475,-5.6425,8.9554,-0.0246,-0.0527,0.0932
133.8670,-1.7815,-7.8257,-4.3957,0.0076,0.0269,0.2499
133.9670,5.0353,-10.6120,-5.5636,-0.0613,0.0323,-0.1270
134.0670,-11.6746,-5.8334,-6.4797,0.0051,-0.0771,-0.0777
134.1670,-3.2547,-1.9784,1.2379,-0.0593,-0.0058,-0.1260
134.2670,-2.7433,4.0140,3.0699,-0.0632,0.0078,-0.0626
134.3670,-7.6899,21.4567,-1.6934,-0.0261,-0.0561,0.1161
134.4670,6.2109,23.1972,-3.6018,-0.0696,-0.0210,0.1181
134.5670,10.7605,10.6704,-13.8537,-0.0115,-0.1001,-0.0699
134.6670,-4.6517,16.7849,4.6730,0.0300,-0.1137,-0.0880
134.7670,-3.8883,-2.1922,10.8715,-0.0442,-0.0805,-0.1002
134.8670,1.0277,-3.4059,5.7799,-0.0598,-0.0615,-0.0411
134.9670,11.3788,-11.4822,6.6730,-0.0945,-0.0683,0.0082
135.0670,3.5315,-13.7418,14.9783,-0.1272,-0.0190,0.0781
135.1670,-9.6135,-18.7799,-2.6934,-0.0364,-0.0512,0.0947
135.2670,-0.5906,-14.8792,-12.0598,-0.0183,-0.0088,-0.0176
135.3670,8.7758,-1.9402,1.8409,-0.0520,-0.0346,-0.1793
135.4670,-1.3158,-3.0013,4.9402,-0.0881,-0.0039,-0.0289
135.5670,1.9743,-4.6960,-0.0446,-0.1213,0.0435,0.0077
135.6670,-3.4151,-0.6960,-4.4949,-0.1052,-0.0688,0.1088
135.7670,1.7529,13.3346,-11.4110,0.0134,-0.1294,0.0375
135.8670,-4.0792,16.7010,-7.8384,0.0457,-0.1157,0.0766
135.9670,0.1422,1.1208,-4.5865,-0.0251,-0.0342,-0.1612
136.0670,-0.5525,1.6323,9.8715,-0.0593,-0.0649,-0.0401
136.1670,9.2643,-0.6654,3.5432,-0.0818,-0.0698,-0.0118
136.2670,12.7376,0.9376,9.8867,-0.1184,-0.0190,0.0995
136.3670,-5.0792,-2.7723,-1.8461,0.0188,-0.0571,0.1816
136.4670,1.5010,-6.7723,-4.7850,0.0227,0.0205,-0.0128
136.5670,2.4781,1.6552,-0.4949,-0.0241,-0.0229,-0.2579
136.6670,-6.7662,0.0903,10.2761,-0.0466,-0.0317,-0.0508
136.7670,-5.5754,1.0521,7.1463,-0.0578,0.0269,0.0556
136.8670,-9.8731,-1.6807,-2.7621,-0.1179,-0.0468,0.0991
136.9670,10.9743,5.9376,-18.5942,-0.0266,-0.1113,0.0087
137.0670,-3.6441,12.7239,-2.3194,0.0496,-0.1074,0.0463
137.1670,10.0124,-6.7036,9.7570,-0.0569,-0.0459,-0.1651
137.2670,-0.8349,-12.8563,9.0241,-0.0388,-0.0224,-0.0489
137.3670,6.2338,-17.5433,7.1997,-0.0608,-0.0478,0.0302
137.4670,6.6689,-17.3601,10.4516,-0.1184,-0.0327,0.1083
137.5670,-9.3005,-14.2456,-5.3652,-0.0139,-0.0595,0.0536
137.6670,-9.2318,-13.3677,-0.5331,0.0203,0.0059,-0.0020
137.7670,4.5391,-5.8639,-2.3117,-0.0442,-0.0146,-0.1465
137.8670,-2.9036,-13.3448,-2.7316,-0.0471,0.0264,-0.0753
137.9670,1.7376,-11.1235,3.2990,-0.0617,0.0406,0.0014
138.0670,0.7224,-21.5662,2.0012,-0.1159,-0.0122,0.0766
138.1670,-3.8349,-18.5586,-5.4568,0.0842,-0.1245,0.1699
138.2670,-3.4303,-20.9860,6.4822,0.0222,-0.0776,0.0102
138.3670,10.9819,-33.5509,0.2226,0.0364,-0.0737,-0.0767
138.4670,0.8903,-48.5662,1.3448,-0.0100,-0.0356,-0.1094
138.5670,8.5315,-57.3067,4.5814,-0.0198,-0.0918,-0.0518
138.6670,7.3101,-63.4288,3.9249,-0.0329,-0.0737,0.0434
138.7670,-2.9876,-62.1387,-2.4339,0.0384,-0.0503,0.1323
138.8670,16.0964,-61.3830,-5.4949,0.0091,0.0450,-0.0274
138.9670,7.4323,-47.8105,-7.8995,-0.0227,-0.0044,-0.0821
139.0670,3.2796,-38.5051,1.0928,-0.0300,-0.0459,-0.0328
139.1670,4.2872,-36.6425,-1.8384,-0.0544,0.0269,-0.0333
139.2670,2.6918,-24.8944,0.8562,-0.0671,0.0020,0.0370
139.3670,1.9514,-25.6273,1.1310,-0.0774,-0.0229,0.0678
139.4670,-3.9036,-13.8334,-6.3194,0.0960,-0.1318,0.1171
139.5670,-5.0715,-14.8410,6.4440,-0.0012,-0.0561,-0.0450
139.6670,4.2185,-19.3754,-1.0369,-0.0359,-0.0923,-0.0748
139.7670,3.7147,-17.9250,1.3677,-0.0676,-0.0703,-0.0504
139.8670,5.4933,-14.0242,1.5509,-0.0305,-0.1235,-0.0308
139.9670,2.5315,-10.4746,11.0241,-0.0139,-0.0805,0.0532
140.0670,3.8521,-7.5204,1.9020,-0.0383,-0.0092,0.1279
140.1670,3.4170,-13.0242,-6.0369,0.0510,-0.0688,-0.0411
140.2670,-0.9876,-15.0700,3.4211,0.0579,0.0176,0.0034
140.3670,4.8140,-11.2380,3.3600,-0.0183,-0.0488,-0.0967
140.4670,-1.4685,-7.2532,0.9173,-0.0520,-0.0254,-0.0797
140.5670,5.3788,-5.1769,1.9707,-0.0617,0.0039,-0.0352
140.6670,1.0582,-2.8181,4.1539,-0.0281,-0.0190,0.0917
140.7670,-3.5219,-0.9555,-6.3652,-0.0183,-0.0444,0.1513
140.8670,4.8598,7.6628,-0.3499,0.0130,-0.1040,-0.1221
140.9670,2.0353,1.7620,9.4516,0.0930,-0.1220,0.0536
141.0670,0.6689,-10.0089,6.6272,-0.0491,-0.0727,-0.1251
141.1670,1.9132,-5.2074,1.9096,-0.0344,-0.0781,-0.0460
141.2670,8.9132,-6.4441,7.3677,-0.0676,-0.1001,0.0126
141.3670,4.3712,-3.2761,8.9631,-0.0930,-0.0639,0.0912
141.4670,-8.8807,1.6857,-4.3652,0.0520,-0.0976,0.0795
141.5670,-5.3769,3.8078,1.1310,0.0418,-0.0127,0.0473
141.6670,5.8292,3.6781,-1.3194,-0.0188,-0.0224,-0.1622
141.7670,-2.0486,0.9300,6.8791,-0.0559,0.0049,-0.1099
141.8670,5.0430,3.3346,10.1310,-0.0823,0.0308,0.0146
141.9670,3.3941,2.2659,1.6883,-0.1116,-0.0195,0.0610
142.0670,-7.6670,4.3804,-13.6858,0.0730,-0.1089,0.2231
142.1670,-3.9036,2.1666,-1.1667,0.0047,-0.0830,-0.0342
142.2670,7.4399,-17.8410,2.3677,-0.0334,-0.0508,-0.1334
142.3670,-1.4761,-18.1693,3.7112,-0.0803,-0.0195,-0.0884
142.4670,6.7224,-31.8410,4.7188,-0.0925,-0.0854,-0.0782
142.5670,2.3712,-40.2914,12.0165,-0.1008,-0.0146,0.0615
142.6670,-10.9341,-45.0242,-3.3575,0.0217,-0.0317,0.1303
142.7670,8.5620,-59.7723,0.5738,0.0120,0.0166,0.0029
142.8670,-10.0486,-52.0166,2.2455,-0.0178,-0.0083,-0.1173
142.9670,0.3407,-57.4135,13.8028,-0.0408,-0.0674,0.0038
143.0670,7.4017,-59.7265,12.2074,-0.0749,-0.0210,-0.0157
143.1670,17.2033,-60.5662,16.5890,-0.0632,-0.0566,0.0327
143.2670,-0.5754,-55.3372,20.0318,-0.0788,-0.1093,0.0053
143.3670,5.6995,-70.3067,10.1845,-0.0827,-0.1924,0.0248
143.4670,11.8827,-76.8105,0.2837,-0.0408,-0.0898,0.0224
143.5670,8.1880,-84.0929,-10.5407,-0.0173,-0.1562,-0.0240
143.6670,-4.4609,-91.6120,-7.3957,-0.0857,-0.1299,-0.1500
143.7670,3.0048,-84.4517,1.6501,0.0027,-0.2256,0.0541
143.8670,16.6918,-78.9021,7.2532,0.0227,-0.1513,-0.1485
143.9670,21.9590,-76.9708,7.6348,0.0647,-0.1010,-0.2232
144.0670,14.5697,-38.4670,6.7570,-0.0310,0.0030,-0.1729
144.1670,31.3636,-36.1922,16.2990,0.1087,-0.0688,-0.1036
144.2670,7.4704,-20.7799,3.9249,0.0613,-0.0029,-0.0782
144.3670,4.2643,-5.4517,2.5203,0.0789,-0.1333,0.0366
144.4670,-0.8425,-1.4441,-5.7392,0.0174,-0.1074,0.0795
144.5670,-3.4761,-10.7952,-19.6629,0.0789,-0.1377,0.2592
144.6670,-13.2776,-11.8028,-17.4491,0.1414,-0.0742,0.1401
144.7670,-10.7357,-4.1998,-31.7850,0.1331,-0.1767,0.1459
144.8670,-6.0181,-3.5433,-11.0904,0.1272,-0.1157,0.0058
144.9670,-1.3082,-4.6044,6.5203,0.1677,-0.1362,0.0966
145.0670,13.7987,-0.6349,15.5432,0.1814,-0.1611,-0.0465
145.1670,-4.6593,4.0750,-1.2201,0.1175,-0.1113,0.0190
145.2670,5.5086,10.0445,7.3142,0.1780,-0.0664,0.0038
145.3670,6.4170,28.5330,16.9860,-0.0124,-0.1645,-0.0753
145.4670,4.0353,21.6399,2.6119,0.2381,-0.0610,0.0390
145.5670,26.5315,0.1895,-2.8461,0.0589,-0.1474,-0.1363
145.6670,1.5926,33.4949,-3.2507,0.0569,-0.1220,-0.4131
145.7670,4.3865,-1.0318,4.0241,0.1233,-0.0415,-0.0440
145.8670,5.0582,25.7086,14.5890,0.0789,-0.0205,-0.0323
145.9670,-2.1708,21.6552,18.6577,0.0506,-0.0322,0.0458
146.0670,0.3254,1.5712,0.3142,0.0169,-0.0337,-0.0020
146.1670,1.9056,-1.4670,-1.0827,0.0305,-0.0175,0.0058
146.2670,0.7987,2.1208,0.5967,0.0193,-0.0009,0.0341
146.3670,-0.5830,2.5330,-2.3957,0.0354,-0.0136,-0.0450
146.4670,2.4552,-2.1922,3.8257,0.0169,-0.0244,0.0102
146.5670,1.4170,-2.4212,2.6883,0.0237,-0.0434,-0.1016
146.6670,0.0888,-0.8563,-0.4110,0.0349,-0.0576,0.0038
146.7670,0.3407,1.0827,0.3982,0.0354,-0.0151,0.0097
146.8670,-1.3998,-0.5967,1.1997,0.0125,-0.0151,-0.0206
146.9670,0.4933,-2.0318,2.9173,0.0252,-0.0063,0.0170
147.0670,-1.9112,1.9682,-2.1362,0.0349,-0.0317,0.0258
147.1670,-0.1479,1.2811,-0.4797,0.0213,-0.0092,0.0117
147.2670,3.8063,0.8078,-0.7316,0.0193,-0.0136,-0.0069
147.3670,1.5926,2.7315,-0.3499,0.0169,-0.0195,-0.0010
147.4670,-0.8196,0.5559,0.3677,0.0242,-0.0190,0.0087
147.5670,-1.9570,0.4567,0.9554,0.0315,-0.0190,0.0024
147.6670,3.1575,2.0674,-0.4644,0.0408,-0.0195,0.0126
147.7670,1.5620,-0.3143,0.2379,0.0227,-0.0063,0.0048
147.8670,-0.0105,1.3117,-0.8384,0.0291,0.0113,0.0170
147.9670,-1.0028,-0.9708,-2.4415,0.0208,-0.0009,0.0058
148.0670,0.9132,-2.0395,1.9096,0.0452,-0.0166,0.0034
148.1670,0.1575,3.8231,-2.0293,0.0164,-0.0224,-0.0020
148.2670,-0.6670,1.5941,-0.2583,0.0120,-0.0322,0.0068
148.3670,-0.5372,-0.2532,2.4058,0.0315,-0.0332,0.0043
148.4670,-2.0257,-0.7647,-0.8232,0.0188,-0.0293,0.0063
148.5670,-0.6975,1.4796,-1.7774,0.0193,-0.0136,0.0014
148.6670,0.9895,0.7468,0.8409,0.0310,-0.0175,0.0048
148.7670,0.4399,-1.4212,1.4822,0.0144,-0.0146,0.0048
148.8670,0.6460,-2.3067,-0.8384,0.0286,-0.0190,-0.0020
148.9670,0.6536,2.6475,-1.8614,0.0266,-0.0263,-0.0025
149.0670,2.8063,-19.7723,4.5203,0.0193,-0.0356,0.0600
149.1670,-2.1021,5.3880,0.0318,0.0501,-0.0595,0.0029
149.2670,0.9056,-26.8868,-0.8461,0.0330,0.0005,-0.0128
149.3670,2.9208,0.6323,-2.0064,-0.0163,0.0699,0.0234
149.4670,-0.6670,12.4185,-1.7545,0.0828,-0.0024,0.0077