time,gyro x,gyro y,gyro z,accel x,accel y, accel z
22.4990,-0.8606,1.6717,0.1974,-0.0037,0.0065,0.0000
22.5990,-0.4407,1.8625,-2.0698,0.0061,-0.0023,-0.0044
22.6990,0.1394,-2.3359,2.2966,0.0085,-0.0076,-0.0054
22.7990,-0.2117,-1.2367,1.1821,-0.0052,-0.0013,0.0044
22.8990,-0.9216,0.4045,-1.2301,-0.0008,-0.0023,0.0010
22.9990,-2.0438,0.3893,1.4035,-0.0081,0.0095,-0.0005
23.0990,1.2997,-0.5344,1.4493,-0.0052,-0.0042,-0.0005
23.1990,-0.3644,-1.6336,-1.4209,-0.0076,0.0016,-0.0034
23.2990,-0.6316,0.1068,-1.5278,0.0051,0.0021,0.0015
23.3990,-2.3949,2.0000,0.7699,0.0026,0.0080,0.0029
23.4990,-0.0361,-1.0764,-0.0469,0.0066,0.0099,-0.0088
23.5990,0.9028,1.7633,-0.0316,0.0173,0.0002,0.0010
23.6990,3.1318,2.4427,-2.1996,-0.0086,0.0041,-0.0005
23.7990,-1.7384,-1.8397,0.5027,0.0144,0.0060,0.0010
23.8990,0.1700,-1.0611,-0.4286,0.0051,-0.0111,-0.0049
23.9990,-1.0743,-0.8245,0.7928,0.0041,0.0099,0.0137
24.0990,-2.1659,-1.1680,2.0829,-0.0066,0.0075,0.0117
24.1990,-0.2957,-0.5802,0.2661,-0.0100,-0.0028,0.0039
24.2990,0.7501,0.2824,-1.2759,-0.0120,-0.0101,-0.0054
24.3990,2.0555,2.7938,-2.2454,-0.0017,0.0012,0.0025
24.4990,0.1013,-0.6413,1.0218,-0.0140,-0.0037,0.0010
24.5990,0.5440,-1.8016,1.6707,-0.0076,-0.0081,-0.0005
24.6990,-0.3186,0.7557,0.6707,-0.0105,-0.0023,0.0029
24.7990,-1.0285,-0.7710,-0.2377,-0.0022,-0.0106,-0.0034
24.8990,0.8494,-1.0458,-0.9629,-0.0086,0.0036,-0.0098
24.9990,-1.4255,-1.2596,-0.0622,-0.0091,-0.0008,-0.0005
25.0990,1.9562,-0.8321,-0.0011,-0.0057,0.0036,-0.0024
25.1990,-0.5476,-0.2749,-1.5813,0.0026,-0.0018,0.0064
25.2990,-1.5705,1.1908,0.5638,0.0022,-0.0028,-0.0029
25.3990,2.7577,-1.1985,-3.8255,0.0119,-0.0047,0.0049
25.4990,1.8494,2.2671,0.2966,0.0031,-0.0028,0.0068
25.5990,0.3913,1.5801,-0.1385,-0.0027,0.0031,0.0049
25.6990,1.5745,1.1908,-1.9400,0.0080,0.0060,0.0020
25.7990,-0.6545,-0.5573,-0.8179,0.0002,0.0016,0.0088
25.8990,-0.4102,-0.1985,-0.5125,0.0046,0.0075,-0.0058
25.9990,2.7348,0.0229,0.1363,0.0036,-0.0028,-0.0005
26.0990,3.5745,2.5419,-0.5507,-0.0218,-0.0042,0.0044
26.1990,-1.2117,-0.6565,-1.7110,-0.0013,0.0016,-0.0049
26.2990,0.8494,1.2442,3.3195,-0.0130,-0.0052,0.0034
26.3990,-0.4789,2.3893,-0.6576,-0.0017,-0.0013,-0.0005
26.4990,-0.8529,0.2671,0.4951,-0.0071,-0.0057,-0.0073
26.5990,-0.7232,-0.5573,2.1974,0.0202,-0.0081,0.0078
26.6990,-2.9216,1.0610,2.4340,-0.0115,-0.0076,0.0073
26.7990,1.0707,3.6870,-0.9477,-0.0057,0.0021,0.0049
26.8990,-1.0896,-1.8626,2.4111,-0.0013,0.0065,0.0039
26.9990,-0.1201,-0.3970,2.4951,0.0036,0.0114,0.0049
27.0990,0.6509,-0.1756,1.0676,-0.0066,-0.0018,-0.0019
27.1990,1.3684,0.2442,0.9836,-0.0022,0.0090,-0.0049
27.2990,1.1547,0.3282,-0.4133,-0.0061,-0.0096,0.0088
27.3990,-0.9598,-0.3817,0.1592,-0.0037,0.0070,0.0064
27.4990,0.3303,0.5877,2.3042,0.0100,0.0026,-0.0117
27.5990,-1.3110,0.9313,-0.3141,0.0188,0.0016,0.0161
27.6990,-1.7155,0.0305,0.8539,0.0036,0.0104,-0.0102
27.7990,-0.4026,1.6335,1.4416,-0.0061,-0.0042,-0.0141
27.8990,0.5058,0.4351,-1.5584,-0.0037,0.0002,0.0049
27.9990,1.2997,-1.4810,2.2966,0.0153,0.0041,-0.0112
28.0990,-0.3720,-0.1527,0.1134,-0.0032,0.0114,-0.0088
28.1990,-0.2194,-0.4962,0.0523,-0.0042,-0.0023,0.0015
28.2990,1.1089,0.2061,-4.5202,0.0022,-0.0003,-0.0005
28.3990,1.9562,-0.7100,1.2508,0.0041,0.0070,-0.0015
28.4990,-0.9903,1.1908,1.6783,-0.0027,0.0099,0.0000
28.5990,-1.1048,-2.8855,2.1363,0.0095,-0.0047,-0.0107
28.6990,-0.1506,0.7022,-0.1156,-0.0057,-0.0032,-0.0058
28.7990,0.2539,-1.4962,0.9378,0.0026,0.0065,0.0025
28.8990,-0.4331,-0.7481,-2.7416,0.0080,0.0021,-0.0083
28.9990,0.2158,0.1145,1.6707,-0.0022,0.0016,-0.0063
29.0990,1.4066,0.8167,-2.0698,0.0100,0.0002,-0.0029
29.1990,1.8112,-0.8245,1.2966,-0.0105,0.0002,-0.0093
29.2990,-1.3262,-1.9466,-1.7950,-0.0096,0.0095,-0.0083
29.3990,0.3532,-1.2672,-2.0469,0.0056,-0.0032,-0.0039
29.4990,-0.8682,-1.1375,0.7852,-0.0091,-0.0028,0.0044
29.5990,-0.1659,-0.5726,0.5562,0.0109,0.0124,-0.0015
29.6990,0.1089,1.3435,-0.9324,-0.0081,0.0021,0.0015
29.7990,0.8799,-0.0611,0.2737,-0.0066,0.0031,0.0020
29.8990,2.1318,0.8396,-0.3141,0.0031,0.0070,0.0132
29.9990,-0.7079,-0.2749,0.8615,0.0022,0.0021,-0.0112
30.0990,-0.5400,-4.1298,-0.5355,0.0183,-0.0042,0.0073
30.1990,0.4524,-0.2443,-1.4133,-0.0091,0.0080,-0.0010
30.2990,1.4829,-1.3817,4.8157,0.0061,-0.0052,0.0073
30.3990,0.5822,-0.0764,1.7470,-0.0037,-0.0037,0.0093
30.4990,1.4753,2.8091,-0.8103,-0.0013,0.0070,0.0005
30.5990,1.1471,-2.5802,-0.1003,0.0070,0.0002,-0.0010
30.6990,0.0249,0.8167,0.0142,0.0124,-0.0086,-0.0068
30.7990,-0.2194,1.7557,0.8768,-0.0061,0.0060,-0.0044
30.8990,1.4906,-0.1451,0.2203,-0.0032,0.0012,0.0000
30.9990,1.0402,-0.8779,2.2203,-0.0022,-0.0155,0.0015
31.0990,-1.2117,0.8396,-0.6729,-0.0037,0.0041,0.0088
31.1990,3.0478,2.4885,-0.9553,-0.0047,-0.0096,0.0039
31.2990,-3.1125,3.7633,2.0447,-0.0042,0.0031,0.0010
31.3990,-0.8453,-1.2596,0.5714,-0.0037,0.0168,-0.0005
31.4990,0.1089,0.5419,2.1134,0.0173,0.0046,0.0015
31.5990,2.4829,-0.8245,-0.5965,-0.0076,-0.0003,-0.0029
31.6990,-1.6010,-1.3970,3.6707,0.0085,0.0099,0.0039
31.7990,-1.7537,-0.4962,-1.4286,-0.0022,-0.0008,-0.0010
31.8990,0.5745,0.1374,-3.0164,-0.0032,-0.0028,-0.0039
31.9990,-1.4942,0.3969,2.8310,0.0095,0.0026,-0.0015
32.0990,-1.8911,-1.2978,0.5485,0.0061,0.0090,0.0029
32.1990,1.4829,0.4503,0.6554,0.0031,0.0051,-0.0034
32.2990,0.4753,-0.7634,-1.8942,0.0109,0.0070,0.0029
32.3990,-1.5476,0.9771,-0.2606,-0.0086,-0.0018,0.0020
32.4990,-2.4636,-0.8321,-1.1385,-0.0105,0.0031,-0.0054
32.5990,0.0478,-1.9466,-0.5736,-0.0071,0.0046,0.0020
32.6990,0.7806,1.7862,-2.3064,-0.0022,0.0041,-0.0098
32.7990,0.4753,-0.0611,0.2432,-0.0130,-0.0047,-0.0107
32.8990,0.1013,-0.2138,1.4722,0.0080,0.0124,0.0000
32.9990,1.2310,-0.7634,-4.0622,-0.0105,0.0046,0.0010
33.0990,0.1776,-0.0229,-0.3064,-0.0027,0.0051,-0.0015
33.1990,-0.6697,-1.0840,0.4416,-0.0100,0.0080,-0.0019
33.2990,2.1471,1.4045,0.7012,0.0202,0.0095,0.0093
33.3990,2.9333,2.0839,0.6325,0.0007,0.0036,0.0064
33.4990,2.0860,1.0687,0.5867,0.0012,0.0051,-0.0063
33.5990,-0.9674,-0.1527,0.2279,-0.0110,-0.0003,0.0068
33.6990,-1.6621,1.2213,-0.1843,0.0066,-0.0032,-0.0019
33.7990,1.8035,1.4274,-0.6729,0.0022,0.0041,0.0034
33.8990,1.6280,1.9694,-0.8408,-0.0081,0.0007,0.0064
33.9990,-1.2499,0.3129,0.5562,-0.0027,0.0051,-0.0054
34.0990,0.5135,1.3893,0.1897,0.0022,0.0060,-0.0015
34.1990,1.8112,1.4045,-1.9248,-0.0115,0.0099,-0.0039
34.2990,-0.7461,-1.3970,-0.6576,-0.0032,-0.0179,-0.0010
34.3990,-0.0743,0.3893,-0.7797,0.0041,0.0016,-0.0029
34.4990,0.4219,1.2977,-1.5660,-0.0037,-0.0032,-0.0029
34.5990,0.1852,-1.1680,2.7699,0.0090,-0.0032,-0.0024
34.6990,-0.7919,-0.8245,-0.2225,0.0066,-0.0023,0.0064
34.7990,1.3455,2.3587,-0.2988,-0.0013,-0.0018,0.0103
34.8990,0.3226,-1.1069,-0.6118,-0.0052,0.0070,0.0083
34.9990,-0.8606,-0.5955,0.8157,-0.0022,-0.0076,-0.0015
35.0990,-2.4942,0.6412,-0.5965,0.0066,0.0075,0.0108
35.1990,-0.4331,2.4274,-2.2072,-0.0022,-0.0145,0.0103
35.2990,-0.7079,-2.9695,2.2126,-0.0120,0.0099,0.0098
35.3990,0.7730,0.3893,0.0752,0.0022,-0.0140,-0.0058
35.4990,-1.5858,-0.2749,0.3882,-0.0052,-0.0013,0.0025
35.5990,0.6432,0.3664,-0.2759,0.0100,-0.0028,0.0029
35.6990,-0.0285,-2.5191,-1.0622,0.0017,0.0036,-0.0019
35.7990,-2.6621,1.3511,-1.3370,-0.0008,0.0051,-0.0068
35.8990,0.3455,3.0229,-1.2072,-0.0096,-0.0032,0.0005
35.9990,-1.2041,1.6259,-2.7874,0.0012,-0.0076,-0.0049
36.0990,0.5440,0.0152,0.8997,-0.0110,0.0080,-0.0010
36.1990,-1.2575,-1.7481,-1.9019,0.0109,-0.0013,-0.0049
36.2990,0.1623,2.8244,0.0829,-0.0013,0.0036,-0.0107
36.3990,-2.2270,-0.6260,0.2279,-0.0052,-0.0023,0.0054
36.4990,0.8875,1.0992,-0.6118,0.0129,-0.0150,0.0059
36.5990,1.0784,1.6717,-0.2072,-0.0047,-0.0150,0.0034
36.6990,-0.9140,-0.6642,0.7928,0.0041,0.0007,-0.0005
36.7990,-0.7919,-1.4123,-1.0011,0.0109,-0.0013,-0.0019
36.8990,0.5974,-1.5039,2.2432,0.0070,0.0051,0.0181
36.9990,0.8188,0.5190,-0.4515,0.0061,-0.0028,0.0029
37.0990,-1.0972,-0.4504,-0.3828,0.0061,0.0153,-0.0034
37.1990,-1.3415,-1.5573,0.5485,-0.0013,-0.0135,-0.0019
37.2990,0.4524,0.7557,-0.0393,0.0056,-0.0086,-0.0063
37.3990,-0.1201,1.7709,-0.2530,0.0036,-0.0057,-0.0093
37.4990,-0.7155,0.4274,-1.1690,-0.0017,-0.0081,0.0171
37.5990,-2.0132,-1.2749,-1.2912,-0.0017,-0.0003,0.0005
37.6990,-0.0590,1.4427,-0.8637,0.0026,0.0016,0.0054
37.7990,0.8265,1.8855,-0.1767,0.0070,0.0007,-0.0161
37.8990,-1.3873,0.8091,2.7928,0.0041,0.0041,0.0039
37.9990,-1.1888,-3.2367,-1.6423,0.0002,-0.0003,-0.0112
38.0990,0.2234,-0.1451,1.1592,0.0085,0.0065,-0.0015
38.1990,-2.1201,1.1755,3.6478,0.0056,0.0070,-0.0161
38.2990,1.1089,-0.5268,1.1974,-0.0061,-0.0037,-0.0058
38.3990,3.5898,1.6259,-0.5584,-0.0047,-0.0086,-0.0015
38.4990,-1.1048,0.3664,-0.5965,0.0017,-0.0003,0.0132
38.5990,-1.1201,-3.8092,-0.1003,-0.0052,0.0031,0.0034
38.6990,1.0020,-0.6489,-1.5660,-0.0135,-0.0067,-0.0073
38.7990,0.1318,1.0152,-0.1996,0.0026,-0.0111,0.0054
38.8990,1.7501,-0.9771,-0.9858,-0.0022,-0.0076,0.0054
38.9990,-0.4407,2.3969,0.1058,-0.0047,-0.0047,0.0015
39.0990,-0.4560,1.4427,0.3577,0.0017,-0.0101,0.0132
39.1990,0.7730,0.0076,-1.4209,-0.0013,0.0099,0.0049
39.2990,-1.4102,0.9084,1.1897,-0.0022,-0.0155,0.0049
39.3990,-0.7613,-1.3054,1.8462,0.0012,-0.0037,-0.0073
39.4990,1.5745,-2.2672,-1.0393,-0.0057,0.0002,0.0059
39.5990,0.0249,-0.1451,1.9684,0.0051,-0.0047,0.0005
39.6990,-2.5934,-1.0687,1.6172,-0.0081,0.0026,-0.0015
39.7990,2.0631,1.9694,-0.5507,0.0046,-0.0062,-0.0068
39.8990,-0.2041,0.5496,-1.9324,0.0061,-0.0008,-0.0049
39.9990,-1.6392,-3.4275,2.0218,-0.0032,0.0153,-0.0137
40.0990,-2.8682,0.7709,1.5943,-0.0017,0.0012,-0.0156
40.1990,1.2387,1.3816,-1.4820,0.0036,0.0055,0.0034
40.2990,2.5440,-0.9695,-2.9171,0.0046,0.0012,0.0059
40.3990,-1.0056,-1.7710,1.0294,0.0036,0.0026,0.0049
40.4990,-0.7690,-2.2291,0.7088,-0.0022,0.0055,-0.0039
40.5990,0.5516,1.3511,-0.8866,0.0070,-0.0057,-0.0034
40.6990,2.5745,1.2213,-1.5507,0.0041,-0.0003,-0.0019
40.7990,0.1623,1.5496,0.7317,-0.0076,-0.0111,-0.0068
40.8990,-0.2423,2.8473,0.5027,0.0051,-0.0008,0.0181
40.9990,1.2005,-2.5878,0.4416,-0.0169,-0.0023,0.0025
41.0990,-0.0438,-0.2596,0.9607,0.0178,-0.0057,-0.0088
41.1990,-0.5476,0.1145,0.6936,-0.0096,-0.0023,-0.0015
41.2990,-0.1583,0.4122,-2.0469,0.0149,0.0138,-0.0010
41.3990,0.3455,1.2824,-0.1461,-0.0066,-0.0023,0.0010
41.4990,-0.4102,-0.9848,0.7852,-0.0071,0.0055,0.0025
41.5990,-1.5781,0.8473,0.8539,-0.0013,0.0012,0.0098
41.6990,0.4753,-0.1833,0.4264,-0.0032,0.0104,0.0064
41.7990,1.4448,0.5114,-2.5965,0.0070,0.0119,0.0127
41.8990,-0.1659,-1.0840,0.9226,0.0056,-0.0028,-0.0166
41.9990,0.9944,0.3816,0.6020,-0.0115,-0.0062,-0.0098
42.0990,1.0249,-0.3130,-0.6042,0.0066,0.0007,-0.0127
42.1990,-2.4255,-1.9237,-0.9477,0.0095,-0.0042,0.0005
42.2990,0.4677,0.2290,0.9073,-0.0071,0.0031,0.0029
42.3990,-1.1888,1.2595,0.6325,0.0017,-0.0023,0.0029
42.4990,-0.9216,0.7175,0.9760,0.0051,0.0070,0.0078
42.5990,-0.4331,-0.7863,1.8997,-0.0032,-0.0023,-0.0078
42.6990,-1.4865,-1.2520,0.3271,-0.0135,0.0104,-0.0054
42.7990,1.6356,0.8015,0.1363,-0.0037,0.0080,0.0005
42.8990,0.0860,-0.9084,-0.2301,-0.0047,0.0031,-0.0039
42.9990,1.2310,0.2061,0.9607,0.0051,0.0012,-0.0078
43.0990,1.9181,1.1679,-0.3599,-0.0027,-0.0125,0.0029
43.1990,0.9639,0.6259,-0.9553,-0.0100,0.0099,0.0015
43.2990,1.5669,-2.7863,1.4416,-0.0076,0.0031,0.0005
43.3990,0.0326,0.3664,0.8844,-0.0022,0.0007,0.0068
43.4990,1.2387,0.5114,-0.3370,0.0051,-0.0047,0.0078
43.5990,-1.3110,2.1984,-0.3675,0.0007,-0.0013,-0.0015
43.6990,1.6356,-0.1451,1.8004,0.0070,-0.0062,-0.0029
43.7990,0.1700,-0.2520,-0.4362,-0.0017,0.0060,-0.0058
43.8990,0.7577,-1.1909,-4.0698,-0.0047,0.0007,-0.0058
43.9990,-2.4255,2.6564,0.3882,0.0056,0.0016,-0.0078
44.0990,-1.2499,-1.1298,-0.6958,0.0036,-0.0003,-0.0078
44.1990,-0.3033,-0.0077,0.3500,0.0061,0.0021,-0.0176
44.2990,-1.0819,2.1145,1.5333,0.0061,-0.0037,0.0054
44.3990,-0.1888,1.9542,1.1974,0.0017,0.0012,0.0029
44.4990,-0.5018,0.7633,0.7775,-0.0159,0.0007,0.0015
44.5990,0.9639,2.7709,1.5562,-0.0013,-0.0076,-0.0058
44.6990,-1.7079,-0.5268,0.7012,0.0012,-0.0072,0.0088
44.7990,0.8494,0.1450,-0.7034,0.0061,-0.0018,-0.0107
44.8990,0.1089,1.5801,-0.4286,0.0036,-0.0086,0.0000
44.9990,1.3913,1.7404,-1.1767,0.0070,-0.0140,-0.0044
45.0990,-0.8911,-1.6260,-0.1156,0.0022,0.0012,-0.0102
45.1990,-0.2423,0.4580,-0.3446,-0.0047,0.0031,-0.0010
45.2990,-1.0209,0.3282,0.3958,0.0031,-0.0028,0.0044
45.3990,-1.0514,0.5419,-1.4820,-0.0027,-0.0023,0.0015
45.4990,1.0860,-0.0840,-0.8942,-0.0086,0.0099,-0.0093
45.5990,-0.3339,-0.6031,-1.6423,-0.0027,-0.0013,0.0054
45.6990,0.7196,-0.4199,3.2126,0.0075,-0.0052,-0.0058
45.7990,-1.7232,-1.1451,1.1287,-0.0017,0.0095,0.0083
45.8990,1.5974,-2.2749,2.2508,0.0007,0.0065,0.0122
45.9990,0.5516,-0.0916,0.2279,0.0012,0.0007,0.0000
46.0990,2.0173,2.5343,1.7775,-0.0066,-0.0023,0.0005
46.1990,-2.3644,0.8549,-0.3522,-0.0100,0.0002,-0.0005
46.2990,0.7196,0.5572,2.0523,0.0012,-0.0042,-0.0005
46.3990,0.7348,0.1984,-1.3828,0.0041,-0.0052,-0.0058
46.4990,-0.6392,-0.6260,0.5180,-0.0017,0.0021,0.0068
46.5990,-0.9751,-0.3970,2.3806,-0.0096,-0.0091,0.0059
46.6990,-0.2881,0.6106,-0.3446,0.0036,-0.0052,-0.0034
46.7990,-0.0132,-0.6336,1.2432,0.0031,-0.0028,0.0103
46.8990,0.3990,-0.9695,-0.6118,0.0031,0.0090,-0.0083
46.9990,2.1242,-2.0229,-0.3141,-0.0017,-0.0037,0.0034
47.0990,1.0249,0.9618,2.2203,-0.0100,-0.0032,0.0068
47.1990,1.2616,2.5038,-2.1003,-0.0047,-0.0042,0.0020
47.2990,-0.3568,-0.6031,0.1745,0.0007,-0.0067,0.0010
47.3990,1.2387,-0.6336,-0.6881,0.0031,-0.0091,-0.0034
47.4990,-0.0056,-0.4810,1.4264,-0.0008,0.0026,0.0010
47.5990,-0.7537,0.1832,-0.4973,0.0124,0.0016,-0.0015
47.6990,1.7501,0.0152,0.0142,0.0012,-0.0047,-0.0107
47.7990,1.4906,2.1603,-1.6652,-0.0071,-0.0028,0.0015
47.8990,-0.0285,1.1526,2.0676,-0.0042,0.0036,0.0005
47.9990,-1.6774,-0.5344,-1.2835,0.0046,-0.0042,-0.0015
48.0990,-1.1354,-1.3283,1.0142,0.0070,0.0002,-0.0029
48.1990,0.2692,1.3664,-2.5660,0.0066,0.0138,0.0073
48.2990,0.3379,1.3664,-2.5049,-0.0198,0.0007,-0.0068
48.3990,-0.1125,-0.7329,2.0752,-0.0008,-0.0072,-0.0054
48.4990,0.1165,1.5343,-2.9095,-0.0091,0.0065,0.0020
48.5990,-0.6010,1.6564,-0.6958,-0.0086,0.0055,0.0015
48.6990,0.1242,-0.3130,-1.2301,-0.0086,-0.0086,-0.0098
48.7990,-0.3110,-1.4275,0.5485,0.0041,0.0060,-0.0083
48.8990,0.3455,0.8167,-1.4820,0.0114,0.0012,0.0059
48.9990,1.9944,1.9847,-0.3522,-0.0066,0.0021,0.0015
49.0990,0.7348,-1.2443,-0.2683,0.0075,-0.0023,-0.0024
49.1990,-1.7232,-0.7100,0.1592,-0.0086,-0.0067,-0.0015
49.2990,1.4371,1.7099,-0.2912,-0.0061,0.0007,-0.0015
49.3990,-0.5705,-2.8550,1.1516,0.0036,-0.0008,-0.0058
49.4990,-0.3262,-3.5955,0.0752,0.0129,0.0036,0.0108
49.5990,0.0173,0.3206,2.3577,-0.0013,-0.0111,0.0103
49.6990,-0.4713,2.2213,-3.6500,0.0061,-0.0037,-0.0058
49.7990,-0.6163,-2.4199,0.8310,-0.0027,-0.0008,-0.0015
49.8990,-0.5781,-0.1145,-1.0087,-0.0061,0.0036,0.0015
49.9990,2.5898,2.9084,0.1821,-0.0032,0.0036,0.0093
50.0990,2.4600,1.8244,-2.6652,-0.0022,0.0104,-0.0098
50.1990,0.3532,-0.7558,0.1821,0.0012,-0.0067,0.0005
50.2990,2.1547,2.5496,-1.7034,0.0066,0.0090,-0.0044
50.3990,3.1929,-2.1069,-2.4286,0.0109,0.0031,0.0005
50.4990,0.1547,0.0916,2.3729,-0.0032,0.0041,-0.0107
50.5990,-0.6239,-4.9924,1.5714,-0.0022,-0.0037,-0.0073
50.6990,-0.2270,0.9771,1.4035,0.0041,0.0002,-0.0015
50.7990,0.7272,0.6488,-0.9553,-0.0022,-0.0111,0.0049
50.8990,-3.1583,-3.4275,1.8157,0.0017,0.0104,0.0010
50.9990,-1.8606,-2.5649,0.6096,-0.0042,-0.0023,0.0025
51.0990,0.3990,2.2595,-0.8790,-0.0017,-0.0037,0.0054
51.1990,2.1242,0.2824,0.9836,0.0075,-0.0086,0.0054
51.2990,-1.5781,-1.5191,-3.1385,-0.0076,-0.0072,-0.0112
51.3990,-1.3491,2.1526,-1.5660,-0.0017,0.0031,0.0108
51.4990,-0.8529,1.6488,-0.4286,-0.0022,-0.0042,-0.0078
51.5990,-1.2346,-0.0382,0.3882,-0.0061,0.0119,-0.0034
51.6990,-1.2270,-1.2291,-1.4286,0.0051,0.0031,0.0064
51.7990,-0.6774,-0.5420,-0.8484,0.0017,-0.0096,-0.0063
51.8990,-0.1125,-1.5420,0.2966,0.0109,-0.0042,0.0000
51.9990,0.0784,-1.6871,-0.2683,-0.0081,0.0031,0.0039
52.0990,0.9104,1.3206,0.4875,0.0056,-0.0047,-0.0107
52.1990,-0.1506,0.4122,-2.8561,-0.0042,0.0007,0.0156
52.2990,-2.7995,-2.6031,2.6020,0.0026,0.0090,-0.0112
52.3990,-0.3262,1.1221,0.6783,-0.0120,0.0065,0.0112
52.4990,1.2997,0.4503,-0.6042,-0.0003,-0.0101,-0.0044
52.5990,2.0249,0.0458,-0.9477,-0.0003,0.0036,-0.0112
52.6990,-0.3568,2.1450,1.1821,0.0026,0.0104,-0.0029
52.7990,-1.0972,0.0687,3.1363,0.0061,0.0041,-0.0054
52.8990,2.7501,0.3435,-0.2988,0.0041,-0.0096,0.0049
52.9990,-1.5781,0.8549,-1.1614,0.0119,-0.0003,0.0005
53.0990,1.8875,-1.6107,-0.3064,-0.0042,0.0026,-0.0005
53.1990,-0.2652,1.5877,-1.3446,0.0022,-0.0076,-0.0005
53.2990,-0.4255,-0.0306,-0.0622,-0.0242,0.0002,-0.0039
53.3990,-0.4789,-2.5420,0.7394,0.0075,-0.0032,0.0098
53.4990,-2.8682,0.0916,3.6096,-0.0032,0.0041,-0.0122
53.5990,-0.8529,-1.0458,-0.0316,0.0056,-0.0018,0.0068
53.6990,0.8646,0.0687,-2.0622,0.0105,-0.0194,-0.0005
53.7990,-1.6850,-0.7558,0.5562,-0.0061,-0.0062,-0.0029
53.8990,1.4142,1.8091,1.4187,-0.0003,0.0007,0.0078
53.9990,-0.0972,1.2748,-1.7034,0.0178,-0.0081,-0.0019
54.0990,0.2387,1.8167,0.1363,-0.0042,0.0046,-0.0073
54.1990,-1.4636,-0.4886,0.5867,0.0124,-0.0208,-0.0019
54.2990,-0.0743,-0.3665,-1.6805,0.0075,-0.0101,0.0005
54.3990,0.2921,0.3053,-0.8942,0.0075,0.0002,-0.0029
54.4990,-0.9827,-0.9084,1.3119,-0.0003,0.0036,-0.0029
54.5990,-0.1354,-0.2672,0.8233,0.0012,-0.0174,0.0127
54.6990,2.4753,-2.4504,0.2813,0.0041,-0.0037,-0.0098
54.7990,2.1700,2.9465,-2.7416,-0.0022,-0.0062,-0.0078
54.8990,-0.3568,-1.9695,-0.7874,0.0066,-0.0072,-0.0044
54.9990,1.0326,-0.3894,0.8768,0.0007,0.0080,-0.0054
55.0990,0.2692,-0.7176,0.3195,0.0236,0.0051,-0.0015
55.1990,0.7959,0.2595,2.9302,-0.0003,0.0016,0.0049
55.2990,0.4142,-3.7023,0.0829,-0.0096,-0.0013,-0.0010
55.3990,1.6356,1.0610,-0.2225,0.0056,-0.0091,-0.0019
55.4990,0.4829,2.5343,-0.4667,0.0026,-0.0135,-0.0039
55.5990,-1.0514,-0.8245,2.3577,-0.0003,0.0065,0.0000
55.6990,-0.8224,-0.9924,-1.2377,0.0095,-0.0052,0.0029
55.7990,1.2997,-0.5497,-0.0851,0.0188,0.0002,0.0025
55.8990,1.3303,-1.2978,1.9302,-0.0140,-0.0057,-0.0054
55.9990,-0.4789,-0.6947,-0.0393,0.0085,0.0051,-0.0029
56.0990,-0.7995,-1.4810,-0.9095,-0.0013,-0.0091,0.0137
56.1990,-0.4560,-0.9237,0.8768,-0.0032,0.0007,0.0020
56.2990,0.3990,0.0458,0.8920,-0.0008,0.0129,0.0020
56.3990,-0.1888,0.8778,-1.5278,-0.0071,-0.0052,-0.0034
56.4990,1.4295,2.2137,-1.3828,-0.0037,0.0007,-0.0054
56.5990,-0.2652,0.9694,-0.2530,-0.0022,-0.0018,0.0073
56.6990,-0.4102,-0.7329,2.8539,0.0041,0.0026,0.0059
56.7990,0.2768,-0.4428,-1.7645,0.0031,0.0041,0.0010
56.8990,1.0020,0.8855,-1.5736,-0.0071,-0.0003,-0.0058
56.9990,-2.1812,-2.2749,0.9989,0.0105,-0.0101,0.0025
57.0990,0.1471,0.1908,1.7394,-0.0149,0.0012,-0.0005
57.1990,0.4524,-0.2672,0.0065,0.0085,0.0016,-0.0034
57.2990,1.0860,-0.7481,-0.1232,0.0041,0.0026,0.0083
57.3990,-0.3873,0.1374,-0.0011,0.0041,0.0075,0.0108
57.4990,-2.3873,-2.7329,-1.8026,0.0022,0.0012,-0.0093
57.5990,1.6356,0.7251,-0.0927,0.0085,0.0046,0.0049
57.6990,-1.0743,1.5954,0.8539,0.0139,0.0002,0.0034
57.7990,-1.0056,-1.9695,1.8462,-0.0100,-0.0086,-0.0049
57.8990,-0.3186,0.9084,-1.9019,0.0012,0.0036,0.0010
57.9990,2.3913,1.0229,0.2432,0.0031,-0.0042,0.0010
58.0990,-0.7537,-0.9466,0.3119,-0.0125,0.0007,-0.0058
58.1990,1.3074,2.5725,1.5027,0.0109,-0.0096,0.0020
58.2990,-0.9827,-1.7863,0.2050,-0.0115,-0.0023,-0.0044
58.3990,0.9486,0.9084,-0.3446,0.0066,-0.0052,-0.0049
58.4990,0.3074,-0.3894,0.4569,0.0109,0.0070,0.0166
58.5990,0.6203,0.7404,-1.7721,-0.0061,-0.0003,0.0044
58.6990,0.7654,1.8855,0.8157,0.0031,0.0051,-0.0083
58.7990,1.8875,-2.5191,1.8157,-0.0008,0.0114,0.0020
58.8990,-0.2041,-0.9771,-1.0393,-0.0066,-0.0091,0.0103
58.9990,1.8952,-1.6336,0.3882,0.0012,-0.0028,-0.0044
59.0990,0.7654,2.5419,0.7775,0.0149,0.0070,0.0088
59.1990,-2.7537,0.9694,0.0218,0.0056,-0.0037,-0.0044
59.2990,0.0555,0.4656,-1.7492,-0.0110,-0.0013,-0.0073
59.3990,0.8875,-2.7558,-1.1461,0.0002,0.0036,0.0064
59.4990,-0.2270,1.0458,-1.1996,-0.0022,-0.0135,-0.0088
59.5990,-2.3873,-0.4428,1.4951,0.0075,-0.0037,-0.0122
59.6990,-0.2499,0.6412,-0.0316,-0.0037,-0.0086,-0.0068
59.7990,0.4295,1.7251,-2.4133,-0.0135,0.0007,0.0044
59.8990,-0.7308,0.0458,0.4111,-0.0008,-0.0018,-0.0015
59.9990,0.0402,-0.4810,-0.2225,0.0056,0.0026,-0.0024
60.0990,-0.0667,-1.3207,1.9836,-0.0042,0.0051,0.0098
60.1990,-2.5934,-0.5878,-0.4820,0.0022,0.0036,-0.0015
60.2990,-1.2499,-0.6947,0.3882,0.0017,0.0012,-0.0054
60.3990,1.2845,0.2900,0.5867,0.0026,0.0031,-0.0029
60.4990,0.4448,-1.6413,1.1134,-0.0027,0.0051,-0.0034
60.5990,-0.7766,-0.9695,1.5256,0.0031,0.0173,-0.0029
60.6990,-0.9216,-1.6718,1.4875,0.0017,-0.0008,-0.0024
60.7990,2.0326,1.0687,-1.5202,0.0022,0.0143,0.0059
60.8990,0.4448,0.4045,1.0142,0.0012,0.0021,0.0044
60.9990,0.8875,-1.5878,0.5562,-0.0057,0.0051,-0.0049
61.0990,1.4219,-1.5573,-1.1080,-0.0008,0.0021,-0.0112
61.1990,0.7883,-0.4275,-2.5889,0.0026,0.0036,-0.0068
61.2990,-1.6697,0.6106,0.6020,-0.0096,0.0075,0.0005
61.3990,-2.4942,-2.1375,1.9913,0.0017,0.0070,0.0005
61.4990,-1.2270,1.6183,-1.8637,0.0017,-0.0062,0.0147
61.5990,-1.4942,1.4809,0.7012,0.0066,0.0080,0.0151
61.6990,-0.6010,-0.8550,-0.0316,-0.0061,0.0026,-0.0034
61.7990,0.1318,-2.2214,-0.9324,-0.0091,0.0114,-0.0102
61.8990,-0.3415,-0.5726,0.7699,0.0066,0.0007,-0.0054
61.9990,-0.7079,0.2977,-1.9629,-0.0052,-0.0028,-0.0078
62.0990,-0.3110,-1.4504,0.4493,0.0036,-0.0101,0.0025
62.1990,0.0707,0.4427,2.0523,0.0031,0.0021,-0.0068
62.2990,0.7577,2.0076,0.9302,0.0114,-0.0042,-0.0039
62.3990,0.0936,-0.5955,1.9455,-0.0013,-0.0032,0.0103
62.4990,-1.2804,-0.6413,1.7775,0.0095,-0.0072,-0.0078
62.5990,2.2158,-1.7176,-1.5355,0.0051,-0.0047,-0.0005
62.6990,-0.0132,0.9847,-0.5431,-0.0017,-0.0023,0.0064
62.7990,-1.0972,0.4503,2.0676,0.0051,0.0090,-0.0083
62.8990,0.6280,-0.6871,0.0065,0.0036,0.0026,0.0122
62.9990,-0.7079,0.1755,1.5027,0.0026,0.0031,-0.0039
63.0990,-2.6316,-0.5039,0.7394,-0.0047,0.0046,0.0025
63.1990,-0.2804,0.9771,0.5791,-0.0125,0.0002,0.0064
63.2990,0.5898,1.0992,-0.9706,0.0012,-0.0067,0.0025
63.3990,0.7043,0.1984,-1.5660,0.0002,-0.0047,0.0054
63.4990,-0.5858,1.0916,-0.0087,-0.0027,-0.0106,-0.0054
63.5990,-0.1659,1.1526,0.5104,-0.0130,-0.0008,-0.0068
63.6990,2.8035,-0.4352,1.5180,0.0007,-0.0047,-0.0005
63.7990,1.8188,2.5343,2.6936,-0.0032,-0.0062,0.0064
63.8990,3.0936,0.4580,0.5104,0.0036,0.0055,0.0147
63.9990,2.2616,-0.6184,-1.1461,-0.0017,-0.0018,0.0010
64.0990,-0.0361,1.1221,0.3882,0.0012,-0.0081,-0.0093
64.1990,0.5211,-3.3436,0.4951,0.0012,0.0221,-0.0068
64.2990,-0.6697,-0.6031,-0.2912,-0.0164,-0.0130,-0.0039
64.3990,-0.3262,-0.2214,-1.2225,0.0046,0.0129,0.0083
64.4990,0.3150,-2.3130,-2.3675,-0.0013,0.0026,0.0015
64.5990,0.3379,-0.7481,-0.4362,0.0041,-0.0130,0.0044
64.6990,-0.0896,-0.5878,-0.0774,0.0061,0.0070,-0.0093
64.7990,-0.1659,0.2671,-1.2301,-0.0037,0.0104,0.0127
64.8990,-1.2728,-1.8016,1.2050,-0.0032,-0.0091,0.0034
64.9990,0.7119,0.1603,1.7928,-0.0003,-0.0062,0.0059
65.0990,2.6051,0.3587,-0.8255,0.0163,0.0065,0.0166
65.1990,0.7806,0.2977,-0.5202,-0.0047,0.0158,0.0064
65.2990,0.7425,0.9465,0.2126,0.0119,0.0095,0.0020
65.3990,-0.2804,0.8473,0.9913,-0.0052,-0.0042,-0.0005
65.4990,-0.0514,-0.7787,-1.4209,0.0080,-0.0096,0.0000
65.5990,1.9257,-1.4886,-1.3522,0.0085,-0.0164,-0.0093
65.6990,0.5593,-0.9771,0.8768,0.0022,0.0031,0.0025
65.7990,1.0020,0.8855,0.6859,0.0114,0.0046,-0.0044
65.8990,-0.3339,2.5419,1.1516,0.0017,0.0065,-0.0058
65.9990,-2.0972,0.6412,-1.6347,0.0026,0.0016,0.0015
66.0990,-0.2346,-0.2291,0.2813,0.0002,-0.0018,-0.0063
66.1990,0.5211,-0.3359,-1.1003,-0.0022,0.0065,0.0025
66.2990,0.6203,1.3206,-4.6347,0.0119,-0.0023,0.0015
66.3990,-3.3949,0.0687,3.0294,0.0022,0.0021,-0.0029
66.4990,-2.0209,-1.1833,1.0371,-0.0022,0.0021,0.0054
66.5990,-0.1201,0.3129,-0.2377,-0.0096,-0.0062,-0.0049
66.6990,0.5898,-2.1451,-1.6805,-0.0003,0.0070,0.0015
66.7990,0.1852,-1.5268,0.0065,-0.0086,0.0065,0.0025
66.8990,0.4448,0.2442,-1.4667,-0.0027,0.0012,0.0010
66.9990,2.1318,2.2977,-2.9858,-0.0017,-0.0062,-0.0078
67.0990,-1.2270,-0.7558,0.1439,-0.0052,0.0031,0.0029
67.1990,-0.7842,-2.1527,1.7470,0.0036,0.0051,0.0015
67.2990,1.8341,2.0152,1.1974,-0.0061,0.0085,-0.0015
67.3990,0.9944,-0.3054,0.4340,0.0041,-0.0091,-0.0044
67.4990,-1.3415,1.4198,0.9149,-0.0115,0.0055,-0.0068
67.5990,1.3379,1.0152,-0.1538,-0.0003,-0.0057,0.0034
67.6990,-0.2423,1.3587,-1.1996,0.0046,0.0065,0.0078
67.7990,1.3455,-2.2749,2.2203,0.0002,0.0002,0.0044
67.8990,-0.1888,0.9007,2.9302,0.0036,-0.0081,0.0034
67.9990,1.1776,0.4580,-0.1690,0.0061,-0.0042,0.0064
68.0990,0.7501,-1.3359,0.7852,0.0197,0.0055,-0.0039
68.1990,-2.1888,-1.3665,-0.4515,0.0075,-0.0003,0.0015
68.2990,-1.1201,-0.6794,2.3271,0.0070,-0.0106,0.0029
68.3990,-0.1354,-0.3512,-2.6729,0.0002,0.0051,-0.0107
68.4990,-3.3568,-1.7634,1.6020,0.0041,0.0046,0.0049
68.5990,-1.0667,0.1908,2.5027,-0.0003,0.0016,0.0029
68.6990,0.6051,1.1450,-2.8026,-0.0057,-0.0003,-0.0132
68.7990,-0.2804,-1.6107,0.1821,0.0056,0.0046,0.0044
68.8990,-0.9522,-2.2596,-0.7110,-0.0052,-0.0023,0.0044
68.9990,0.3608,-0.6947,0.6325,0.0075,0.0051,0.0000
69.0990,1.5135,-0.7176,-1.0927,-0.0052,-0.0081,0.0005
69.1990,-0.2270,0.2442,-1.5965,-0.0052,0.0012,0.0034
69.2990,2.6280,-2.2978,0.2126,0.0026,0.0016,-0.0054
69.3990,-1.2652,2.3816,-0.7874,0.0017,0.0051,-0.0039
69.4990,0.1394,1.3664,-1.2530,-0.0066,-0.0013,0.0015
69.5990,1.3455,0.4351,1.7241,-0.0066,0.0070,0.0025
69.6990,-0.2194,-0.3054,1.5104,-0.0086,0.0031,-0.0132
69.7990,-1.2194,-0.1527,-2.8713,0.0017,-0.0028,0.0005
69.8990,-1.2117,-0.0611,0.8920,0.0168,-0.0047,0.0088
69.9990,0.3837,0.1145,1.0218,0.0036,0.0026,0.0054
70.0990,-1.7995,-2.4123,-1.7034,-0.0017,0.0119,0.0034
70.1990,-0.9827,1.6412,1.0523,0.0026,0.0055,0.0049
70.2990,-1.5247,-2.1298,0.9989,0.0080,0.0002,-0.0054
70.3990,-0.5094,0.8015,1.1821,-0.0105,-0.0047,0.0093
70.4990,-0.2194,0.7404,1.1974,0.0002,0.0026,-0.0185
70.5990,1.6280,2.7099,-1.8866,0.0046,-0.0120,-0.0078
70.6990,0.9104,-1.2749,-0.6118,-0.0003,-0.0047,0.0049
70.7990,-0.6774,0.0992,-0.1843,0.0017,0.0114,-0.0102
70.8990,0.6356,2.8855,-1.8026,-0.0140,-0.0057,-0.0034
70.9990,0.5364,-0.3283,-0.7034,0.0066,0.0007,0.0034
71.0990,0.2158,-0.9771,-0.0316,-0.0100,-0.0062,-0.0058
71.1990,0.7119,-0.1145,-2.0469,0.0100,0.0016,-0.0063
71.2990,1.0173,-0.3130,-1.6347,0.0022,-0.0013,-0.0117
71.3990,-1.7384,0.2061,-1.1690,-0.0017,0.0085,0.0044
71.4990,0.1318,0.5725,0.2813,-0.0076,-0.0018,0.0147
71.5990,1.3150,2.8931,0.6172,-0.0013,0.0065,-0.0049
71.6990,-0.2499,-1.3054,0.4111,0.0046,0.0012,-0.0010
71.7990,1.0631,-1.3283,0.2966,0.0002,-0.0164,0.0078
71.8990,1.9104,-0.9619,0.5943,-0.0037,-0.0008,-0.0029
71.9990,0.1089,1.7099,-0.7797,-0.0013,-0.0096,0.0020
72.0990,-0.1888,-0.8932,-0.1232,-0.0066,-0.0023,-0.0127
72.1990,-1.4865,-1.9084,0.4264,0.0075,0.0065,0.0005
72.2990,-0.0819,1.0992,-0.2377,0.0066,0.0016,0.0044
72.3990,1.7959,1.3664,-1.8484,0.0080,0.0016,-0.0078
72.4990,2.0555,0.1068,2.1821,-0.0140,0.0090,0.0127
72.5990,-2.2728,0.0229,1.7470,-0.0042,0.0021,0.0029
72.6990,-0.8987,1.8396,-0.1919,0.0036,0.0070,0.0078
72.7990,-0.4255,-0.1680,0.6707,0.0036,0.0080,0.0044
72.8990,-0.3186,-0.0916,-2.3599,0.0173,-0.0003,-0.0019
72.9990,0.3303,1.4656,0.4569,-0.0110,0.0016,0.0039
73.0990,0.1394,0.0687,-0.0240,0.0036,-0.0008,-0.0102
73.1990,-0.0056,-0.9695,-1.9324,0.0041,0.0187,-0.0117
73.2990,-2.7308,-1.7863,-1.9553,0.0090,0.0046,0.0029
73.3990,0.7272,1.6335,0.0142,-0.0037,0.0012,-0.0054
73.4990,1.2768,1.5114,0.0676,-0.0013,-0.0018,0.0059
73.5990,-1.7995,-0.0993,1.3042,0.0095,0.0026,-0.0039
73.6990,0.7119,0.0992,0.3348,0.0036,-0.0062,0.0073
73.7990,0.8265,1.2748,-3.0240,-0.0086,-0.0052,-0.0073
73.8990,-1.4636,0.0305,1.2890,0.0046,-0.0072,0.0059
73.9990,-0.3568,-0.1833,2.4035,0.0080,0.0036,0.0200
74.0990,0.0020,0.5267,-2.3446,-0.0032,0.0046,-0.0044
74.1990,0.2387,-0.5115,0.2813,0.0046,-0.0008,0.0078
74.2990,0.5364,3.7709,-0.1614,-0.0052,0.0021,-0.0029
74.3990,0.2921,-2.5420,4.8386,-0.0052,-0.0003,-0.0015
74.4990,1.2845,-0.2749,-1.1080,-0.0066,0.0002,0.0039
74.5990,1.7119,0.9465,-1.2683,-0.0105,0.0012,-0.0015
74.6990,0.1089,-3.1985,1.2508,0.0012,-0.0023,0.0112
74.7990,-0.8682,3.7328,-1.6194,0.0026,0.0060,0.0039
74.8990,-0.7690,2.0076,-1.0316,0.0046,-0.0052,-0.0137
74.9990,-1.2804,-0.0687,1.2584,0.0002,-0.0008,-0.0107
75.0990,-1.0819,0.0763,-1.2225,-0.0159,0.0031,0.0186
75.1990,0.0860,-0.9466,1.1439,0.0002,0.0046,-0.0015
75.2990,-0.1583,-0.9161,-1.1996,0.0041,-0.0052,0.0025
75.3990,-0.7308,0.1908,0.5714,0.0066,0.0036,-0.0010
75.4990,0.6051,0.1374,2.0142,-0.0086,-0.0052,0.0083
75.5990,1.1547,0.2900,-2.5965,-0.0008,-0.0023,-0.0098
75.6990,-1.3415,0.0381,0.4798,0.0022,-0.0032,-0.0044
75.7990,-0.3873,-0.3970,0.4493,0.0002,0.0109,-0.0078
75.8990,-0.5476,1.7557,-0.6805,-0.0022,-0.0120,-0.0102
75.9990,0.8799,0.5496,1.4951,-0.0047,0.0143,0.0054
76.0990,0.3684,0.0534,0.2508,0.0061,-0.0037,0.0078
76.1990,-0.7919,-3.8397,1.3958,0.0109,-0.0008,0.0015
76.2990,1.3074,0.9618,-0.4209,-0.0159,0.0002,0.0034
76.3990,0.5440,1.9847,-0.3064,0.0280,-0.0091,-0.0337
76.4990,-0.6468,-2.9161,0.8997,-0.0003,0.0031,-0.0058
76.5990,-1.8071,2.3511,-0.4515,-0.0081,-0.0062,-0.0058
76.6990,0.0555,1.3053,0.0829,0.0149,-0.0057,-0.0073
76.7990,-0.3644,-0.8550,1.8462,0.0153,-0.0052,0.0015
76.8990,-2.0743,-1.3741,2.1897,-0.0017,0.0036,0.0005
76.9990,-0.8835,0.5725,-1.5507,0.0007,-0.0037,-0.0039
77.0990,-1.6926,0.3358,-2.1767,0.0051,-0.0174,0.0015
77.1990,0.7119,-2.0153,-0.7950,-0.0115,0.0075,0.0098
77.2990,-0.3720,-0.2749,2.1363,-0.0008,0.0021,0.0093
77.3990,0.5211,-0.8168,0.5180,-0.0008,0.0041,0.0064
77.4990,-1.6545,-1.1680,0.9836,0.0002,0.0104,0.0029
77.5990,-1.3033,-1.2596,-1.4820,0.0090,0.0055,0.0000
77.6990,0.1776,1.6641,-1.4820,0.0002,-0.0028,0.0137
77.7990,1.0402,-2.1222,-1.9706,-0.0032,-0.0076,0.0108
77.8990,0.7577,-1.0458,1.4875,0.0017,0.0002,-0.0049
77.9990,0.0402,-1.9924,0.5791,0.0061,0.0065,0.0049
78.0990,2.6051,-0.0229,-0.8255,0.0046,-0.0086,0.0029
78.1990,-0.7155,1.7862,2.7623,0.0031,-0.0032,-0.0054
78.2990,0.4906,-0.8016,-0.2912,0.0095,0.0021,-0.0044
78.3990,-0.9522,-0.3359,-2.2835,-0.0027,-0.0023,-0.0029
78.4990,-0.4255,1.1145,-3.0011,0.0056,-0.0115,-0.0122
78.5990,0.5211,-0.9695,1.9073,-0.0081,-0.0076,-0.0083
78.6990,-0.6468,1.8855,0.8310,-0.0032,-0.0062,0.0039
78.7990,0.5974,1.5496,-1.9400,-0.0003,-0.0042,-0.0034
78.8990,1.8723,-1.3894,-2.2072,-0.0047,-0.0003,-0.0010
78.9990,-0.4026,-1.5115,-0.3828,-0.0032,0.0065,-0.0093
79.0990,-0.4331,-0.1069,-0.2301,0.0051,0.0070,0.0049
79.1990,0.1089,0.6335,-0.0774,-0.0076,0.0060,-0.0068
79.2990,0.0860,-3.0840,-0.2301,-0.0086,0.0002,-0.0063
79.3990,-1.5476,-0.5497,1.2737,0.0061,0.0007,-0.0034
79.4990,0.6432,1.1068,0.6936,-0.0100,-0.0047,0.0029
79.5990,1.3837,1.3893,-0.5049,0.0061,0.0090,0.0015
79.6990,-0.2423,1.5267,0.3577,0.0100,0.0007,0.0191
79.7990,-0.9445,-1.9008,0.4340,0.0022,0.0148,0.0005
79.8990,1.0555,-0.8397,-0.7416,-0.0047,-0.0047,-0.0102
79.9990,0.8035,-0.5726,-0.4973,0.0056,-0.0076,-0.0068
80.0990,-0.3568,0.0610,2.8386,-0.0115,-0.0042,0.0078
80.1990,-0.5552,1.4809,-0.9553,-0.0013,0.0026,-0.0019
80.2990,0.2768,0.2290,1.9684,-0.0047,-0.0159,0.0059
80.3990,-0.6850,-1.3054,0.6096,0.0090,-0.0115,-0.0019
80.4990,0.5287,-0.6413,1.7012,0.0012,0.0065,0.0088
80.5990,-0.1354,1.0992,1.3119,0.0051,-0.0018,0.0039
80.6990,1.3837,1.3129,-2.1309,-0.0027,0.0119,0.0000
80.7990,-1.8453,-1.9695,-1.1156,-0.0047,-0.0067,0.0112
80.8990,0.8952,0.1526,1.3958,-0.0061,-0.0057,-0.0019
80.9990,3.2158,1.1526,-1.7797,0.0046,-0.0013,-0.0049
81.0990,-0.5018,-0.3588,0.1058,-0.0052,-0.0125,-0.0019
81.1990,0.4753,-2.2291,-1.9858,-0.0115,0.0007,0.0049
81.2990,0.4677,-1.5344,-1.1309,-0.0022,0.0012,-0.0015
81.3990,0.3303,1.4122,-0.0164,0.0007,0.0055,0.0064
81.4990,-2.0361,1.3587,0.2661,0.0085,0.0051,-0.0049
81.5990,1.4142,-1.1985,1.6172,0.0095,0.0090,0.0049
81.6990,-0.7690,-1.2901,0.9836,-0.0061,0.0095,0.0020
81.7990,2.0784,0.8320,-0.1385,-0.0003,0.0070,-0.0044
81.8990,1.8417,-0.3817,-0.7034,0.0026,-0.0125,-0.0102
81.9990,0.5058,1.0381,-0.4973,-0.0013,-0.0013,-0.0054
82.0990,1.5364,-0.1145,-0.3904,0.0066,0.0007,0.0059
82.1990,-0.7003,0.7786,2.8615,0.0046,-0.0076,0.0039
82.2990,-0.8835,-0.7939,0.8462,-0.0052,0.0007,0.0044
82.3990,0.4829,-0.9924,-0.7492,0.0056,-0.0115,-0.0127
82.4990,1.2997,0.4885,0.3806,-0.0105,-0.0013,0.0010
82.5990,-2.5247,0.1145,-0.2454,-0.0061,0.0016,0.0015
82.6990,0.1852,-1.8626,0.9913,0.0041,-0.0086,0.0020
82.7990,1.4753,-1.4199,-0.9935,-0.0008,0.0109,0.0083
82.8990,-1.2194,-1.8321,3.0829,0.0002,-0.0047,0.0000
82.9990,-0.9293,0.5725,1.8386,-0.0032,-0.0037,0.0029
83.0990,-0.1965,1.2900,-0.6194,0.0095,-0.0086,-0.0015
83.1990,1.5058,2.1297,1.4187,-0.0125,-0.0130,-0.0049
83.2990,-0.3110,-0.6413,0.3119,0.0041,-0.0013,0.0005
83.3990,-1.9522,-0.3207,2.7012,0.0012,-0.0032,0.0000
83.4990,0.4448,1.2519,-1.3522,0.0119,0.0143,-0.0098
83.5990,2.1776,0.9389,-1.7721,-0.0013,0.0021,-0.0127
83.6990,-2.3797,-2.3817,-1.1767,0.0075,-0.0037,-0.0039
83.7990,0.2463,1.0458,2.0981,-0.0003,-0.0018,-0.0054
83.8990,0.3226,0.7251,-0.8179,0.0036,0.0041,0.0029
83.9990,1.4677,-1.2901,1.0523,0.0153,0.0065,-0.0019
84.0990,-1.4102,-0.8932,1.4875,0.0051,0.0070,0.0005
84.1990,-0.2270,4.0381,-2.2377,0.0100,-0.0008,-0.0049
84.2990,0.2158,-3.1756,-0.1843,-0.0003,0.0036,-0.0054
84.3990,0.5669,-0.2138,1.6630,-0.0017,-0.0076,0.0059
84.4990,-1.8377,-1.1527,1.4264,0.0031,0.0065,0.0093
84.5990,-0.4789,1.0152,-0.0316,0.0114,-0.0018,0.0010
84.6990,-0.1277,0.1908,1.1974,-0.0003,-0.0111,-0.0034
84.7990,0.2768,0.4580,2.9073,0.0061,-0.0057,-0.0078
84.8990,-1.0590,0.5343,-1.1309,-0.0032,0.0012,-0.0054
84.9990,-0.5018,2.8167,-1.3751,-0.0008,0.0036,-0.0063
85.0990,2.0631,0.2442,-0.4286,-0.0076,0.0041,-0.0117
85.1990,-0.2957,1.1221,3.2584,0.0012,-0.0159,0.0064
85.2990,1.9028,0.6259,-0.5355,0.0012,0.0036,-0.0093
85.3990,-2.8987,-3.1985,-1.5507,-0.0008,0.0007,0.0034
85.4990,-0.2117,-2.2214,-0.0164,0.0066,0.0012,-0.0005
85.5990,-1.8453,-1.4046,0.3958,-0.0013,-0.0042,-0.0019
85.6990,0.1013,-0.1756,-0.9019,0.0026,0.0138,0.0186
85.7990,0.9104,0.5572,1.4645,-0.0017,0.0163,-0.0010
85.8990,-1.2652,-0.9924,0.4722,-0.0115,0.0021,0.0147
85.9990,3.0555,1.4961,-0.6958,-0.0057,0.0060,-0.0083
86.0990,1.2463,2.1450,-0.8561,0.0022,0.0016,-0.0010
86.1990,1.2845,1.3740,-0.0851,-0.0115,-0.0023,0.0025
86.2990,0.0555,-1.0306,-1.0011,0.0031,0.0060,-0.0054
86.3990,2.1547,-0.4352,-1.9553,0.0090,-0.0003,-0.0083
86.4990,-2.4407,-2.5573,-0.0927,0.0070,-0.0023,-0.0068
86.5990,-0.7613,-1.2214,0.9149,-0.0135,0.0080,-0.0054
86.6990,-1.2881,3.5343,0.6249,0.0095,0.0002,0.0010
86.7990,0.7348,-0.1451,-0.1156,0.0031,0.0095,-0.0112
86.8990,-2.0667,-0.0153,1.2432,0.0070,0.0095,0.0039
86.9990,-1.3797,-1.5344,-0.3522,0.0026,-0.0125,0.0020
87.0990,1.0936,2.7938,0.1516,0.0002,-0.0023,-0.0073
87.1990,-0.4178,-0.5497,1.8004,-0.0110,-0.0076,-0.0019
87.2990,-0.0285,0.4351,-0.6500,0.0002,-0.0037,0.0029
87.3990,-1.9140,-0.0382,1.4035,-0.0110,-0.0057,-0.0054
87.4990,-0.1812,1.0458,-0.2301,-0.0052,0.0134,0.0108
87.5990,0.2081,0.8396,1.9760,-0.0027,0.0026,-0.0083
87.6990,-0.4255,-1.2214,3.3806,0.0012,0.0075,-0.0161
87.7990,0.9486,0.0763,0.8615,0.0080,0.0002,-0.0015
87.8990,2.1700,1.1450,-0.8561,-0.0091,0.0002,0.0093
87.9990,-0.1277,-2.8168,-0.9019,-0.0022,0.0060,0.0000
88.0990,0.2310,1.1221,-1.3904,0.0026,0.0016,0.0029
88.1990,0.9562,-1.8779,-0.1461,0.0080,-0.0203,-0.0132
88.2990,-1.0743,1.4122,1.3119,-0.0003,0.0007,0.0068
88.3990,-1.9140,0.9160,-1.1309,0.0007,0.0026,-0.0010
88.4990,0.3761,2.3358,-3.7263,0.0095,0.0051,0.0010
88.5990,1.8570,1.5343,2.9073,-0.0061,-0.0106,0.0029
88.6990,1.1852,-1.3970,1.0142,0.0051,-0.0032,-0.0068
88.7990,0.1547,-1.8397,-0.9782,-0.0125,0.0041,-0.0063
88.8990,-2.5934,-2.4504,0.3958,0.0017,0.0031,0.0020
88.9990,-1.1506,-1.3588,1.1745,-0.0013,-0.0213,0.0005
89.0990,-0.1888,1.0687,2.1592,-0.0135,-0.0023,-0.0176
89.1990,1.3303,2.1068,-1.5202,0.0046,-0.0003,-0.0078
89.2990,0.6890,-0.8703,0.3119,-0.0154,0.0016,0.0034
89.3990,0.1089,-1.9390,1.5714,0.0056,0.0026,-0.0127
89.4990,-1.3415,-0.2596,1.7088,0.0051,0.0041,0.0049
89.5990,0.3532,-1.0382,-1.6652,-0.0105,0.0143,-0.0039
89.6990,1.2921,0.5190,0.9836,0.0114,0.0104,-0.0054
89.7990,-2.5781,0.2442,0.5714,-0.0037,0.0099,0.0059
89.8990,1.8570,2.0839,-1.7263,0.0158,0.0070,-0.0044
89.9990,-0.4484,-2.0229,1.3882,-0.0149,-0.0125,0.0132
90.0990,0.2616,1.0839,-0.2301,-0.0042,-0.0076,-0.0058
90.1990,-2.7919,0.2900,-1.1538,-0.0052,-0.0057,-0.0102
90.2990,1.6280,0.3053,-2.3446,0.0080,0.0051,0.0029
90.3990,0.2616,0.6030,1.7775,0.0066,0.0124,-0.0034
90.4990,-0.7842,1.9313,0.2661,0.0031,0.0085,-0.0054
90.5990,-1.7919,-1.3207,-0.8942,0.0031,-0.0032,-0.0024
90.6990,0.7501,0.9007,-1.9706,-0.0096,-0.0028,-0.0098
90.7990,1.0478,-0.0764,-0.0087,-0.0032,0.0095,0.0220
90.8990,0.0936,-3.0993,-0.3064,-0.0042,0.0143,0.0073
90.9990,-0.0361,2.2442,-1.3904,0.0041,-0.0003,-0.0088
91.0990,1.2768,1.0458,1.6630,0.0012,0.0012,-0.0063
91.1990,-0.1506,-0.5726,1.5256,0.0017,0.0065,-0.0029
91.2990,-0.3033,1.3206,0.2966,-0.0066,-0.0057,-0.0019
91.3990,1.2997,-0.7939,-1.4973,-0.0144,0.0065,-0.0024
91.4990,1.1471,0.8320,0.1745,-0.0066,-0.0057,-0.0102
91.5990,0.4371,-0.3054,0.2813,0.0007,-0.0057,-0.0049
91.6990,1.6890,-0.5420,-2.6271,-0.0022,-0.0067,-0.0073
91.7990,1.4142,2.0381,0.5485,-0.0071,0.0007,0.0044
91.8990,0.0936,-0.3054,2.0065,-0.0042,0.0109,-0.0102
91.9990,0.1089,-0.5573,1.7241,0.0041,0.0080,-0.0181
92.0990,1.7043,3.0381,0.7775,0.0007,-0.0047,-0.0034
92.1990,2.8035,-1.1680,-0.7645,-0.0037,-0.0067,-0.0024
92.2990,-0.9064,0.0916,-0.1919,0.0041,0.0143,-0.0010
92.3990,0.0097,1.0000,0.5256,-0.0037,0.0046,-0.0024
92.4990,2.0097,-0.0229,-0.9171,-0.0052,-0.0086,0.0059
92.5990,1.2616,-0.0687,-0.9019,-0.0013,0.0046,0.0029
92.6990,-0.9751,-0.7558,0.6478,-0.0213,0.0085,-0.0098
92.7990,-0.4407,2.4503,-0.3904,-0.0013,0.0119,-0.0034
92.8990,0.6051,-0.9390,-1.7110,0.0012,0.0085,0.0093
92.9990,-0.7766,0.0305,1.0065,0.0036,0.0016,0.0083
93.0990,-0.1430,-3.2443,0.7317,-0.0081,0.0036,-0.0010
93.1990,0.1394,0.3206,1.0523,0.0075,0.0060,0.0054
93.2990,-2.6239,-0.5344,0.8081,-0.0066,-0.0076,-0.0107
93.3990,-0.1888,-1.2596,1.3424,0.0090,0.0012,0.0005
93.4990,0.5287,1.7709,0.3424,0.0119,0.0178,0.0000
93.5990,1.4906,-0.1909,0.8844,0.0007,0.0021,0.0039
93.6990,2.6967,-0.8703,-1.1996,0.0056,0.0070,0.0005
93.7990,0.4371,-1.2367,0.0523,0.0046,0.0138,-0.0098
93.8990,-0.9216,-0.1222,-2.4362,-0.0076,0.0119,0.0000
93.9990,3.1394,2.8473,-1.5965,0.0031,0.0007,0.0000
94.0990,0.5058,0.0992,0.6096,0.0002,0.0051,0.0020
94.1990,1.1471,-1.8703,-1.1843,-0.0071,0.0026,-0.0019
94.2990,0.6509,-0.8626,0.2432,-0.0047,0.0060,0.0020
94.3990,-0.1812,-2.9619,-0.5584,0.0066,-0.0106,-0.0034
94.4990,-0.2957,-1.7939,-0.2072,0.0017,-0.0003,0.0054
94.5990,-0.2881,1.0839,-0.0851,-0.0027,-0.0013,-0.0063
94.6990,-2.2881,-2.2596,-0.4744,-0.0257,-0.0052,-0.0083
94.7990,-0.5171,-1.1222,-1.1996,-0.0120,-0.0023,0.0064
94.8990,-0.8987,-2.2749,1.6783,-0.0003,0.0016,-0.0010
94.9990,0.9944,2.6793,0.9607,0.0061,-0.0008,-0.0010
95.0990,-0.7842,-1.1375,1.6249,-0.0086,-0.0028,-0.0210
95.1990,-0.3110,-3.0993,0.5714,-0.0105,0.0158,0.0156
95.2990,0.8188,0.6641,0.6325,0.0041,-0.0028,-0.0063
95.3990,0.2616,3.0381,0.2279,-0.0022,0.0051,-0.0117
95.4990,0.5516,-0.1604,1.4951,-0.0013,-0.0037,-0.0005
95.5990,-0.8300,0.3969,0.9302,0.0026,-0.0072,0.0093
95.6990,-0.1201,1.6030,-0.3064,0.0017,0.0138,-0.0166
95.7990,1.2997,1.2977,1.4416,-0.0013,-0.0072,0.0098
95.8990,-0.4865,-1.7405,0.1287,-0.0008,0.0046,0.0112
95.9990,0.8188,3.9389,-2.0774,0.0002,-0.0101,0.0049
96.0990,1.7348,1.9160,1.4493,0.0017,0.0036,0.0068
96.1990,-0.1048,-1.5420,-0.2225,0.0134,-0.0013,0.0015
96.2990,-0.0972,2.4045,-0.4667,0.0075,0.0168,0.0015
96.3990,1.1929,1.2824,0.6020,-0.0135,0.0041,-0.0029
96.4990,0.0020,0.5114,-2.4286,-0.0017,0.0095,0.0068
96.5990,-1.6163,-0.4733,-0.0774,-0.0057,0.0046,0.0015
96.6990,-1.0972,-0.0000,-0.2072,0.0036,0.0148,0.0005
96.7990,1.4371,0.3740,-1.5660,-0.0047,0.0070,-0.0049
96.8990,-0.9445,-0.9161,-0.6958,-0.0022,0.0099,0.0176
96.9990,0.3990,0.0610,-3.4209,0.0031,-0.0013,-0.0102
97.0990,-0.4636,1.8855,0.1516,0.0017,-0.0023,0.0059
97.1990,1.3913,3.8702,-1.4515,0.0031,-0.0081,0.0029
97.2990,1.3837,-3.0840,-0.4820,0.0051,0.0070,-0.0039
97.3990,0.0402,0.8931,3.7394,-0.0027,0.0055,-0.0054
97.4990,1.4982,2.3587,-0.7797,-0.0042,0.0070,-0.0039
97.5990,-0.5018,-0.8703,1.9302,0.0036,0.0021,-0.0005
97.6990,-0.0819,0.0992,0.6096,0.0012,0.0051,0.0015
97.7990,0.2387,-0.8855,-1.1461,0.0124,0.0021,0.0005
97.8990,0.0326,0.2213,0.5791,-0.0120,0.0041,-0.0054
97.9990,-1.7919,0.1603,1.7852,0.0002,-0.0155,0.0049
98.0990,-2.8682,-3.2443,1.4875,0.0022,-0.0135,0.0000
98.1990,0.3303,0.8167,-1.8408,-0.0037,0.0051,0.0010
98.2990,-1.0361,-0.6642,-3.7034,0.0012,0.0021,0.0025
98.3990,0.1471,1.2519,1.3271,-0.0047,-0.0028,-0.0029
98.4990,-2.5476,1.9389,-2.4744,0.0031,-0.0013,-0.0015
98.5990,-0.1659,1.1297,0.5180,-0.0017,0.0041,-0.0019
98.6990,-2.1201,-0.4581,2.3195,0.0012,0.0051,-0.0015
98.7990,0.7577,-0.8855,1.1134,0.0036,-0.0023,-0.0010
98.8990,2.1165,0.8015,-0.1538,-0.0105,0.0075,0.0000
98.9990,0.6738,-0.5039,-0.0316,0.0056,-0.0150,-0.0024
99.0990,-0.2346,1.3206,-1.0698,-0.0032,-0.0032,-0.0083
99.1990,0.1013,-0.2214,0.3806,0.0178,0.0002,-0.0127
99.2990,-0.2194,2.0763,-1.6042,0.0022,-0.0028,-0.0019
99.3990,0.7654,-0.5344,0.6249,-0.0081,-0.0028,0.0049
99.4990,-2.1965,0.7404,1.0371,-0.0037,0.0021,0.0068
99.5990,-0.8529,1.3129,-0.0927,0.0070,0.0021,0.0054
99.6990,-0.1965,-0.1985,-1.0393,-0.0052,-0.0013,0.0025
99.7990,-2.4331,-1.3970,-0.0393,0.0080,0.0134,0.0044
99.8990,-1.0132,-1.8245,1.1287,-0.0013,0.0119,0.0039
99.9990,0.5364,-3.7023,1.3500,0.0061,0.0012,0.0078
100.0990,0.9562,1.3129,-2.5431,0.0051,0.0007,0.0064
100.1990,-0.8758,0.3358,-0.6423,0.0109,0.0026,0.0025
100.2990,-0.4713,0.8702,-0.6958,-0.0052,0.0021,-0.0049
100.3990,-0.3720,1.6870,1.2890,0.0051,0.0036,-0.0098
100.4990,-0.7384,-1.0458,0.5791,-0.0022,0.0070,0.0010
100.5990,-0.5858,-0.4657,1.6020,0.0026,0.0095,0.0078
100.6990,1.8265,-0.9084,-1.5049,0.0061,-0.0130,-0.0063
100.7990,0.0707,0.9542,-0.1080,-0.0022,-0.0013,-0.0083
100.8990,-1.4865,-1.1069,2.2355,0.0105,0.0134,0.0025
100.9990,-0.9522,0.8931,0.1821,0.0066,-0.0032,0.0010
101.0990,0.9944,-0.7329,1.0142,0.0075,-0.0106,0.0044
101.1990,-0.2575,0.2442,-0.3293,-0.0047,0.0012,0.0010
101.2990,-2.1888,0.5267,0.5256,0.0100,-0.0052,-0.0010
101.3990,0.6432,0.4503,-3.4209,-0.0032,-0.0096,0.0025
101.4990,0.7730,-2.7405,-1.2988,0.0080,-0.0003,0.0029
101.5990,-0.7003,0.4045,0.5027,0.0070,-0.0096,0.0044
101.6990,0.9410,0.6106,1.6325,-0.0027,-0.0106,-0.0166
101.7990,-0.5400,0.3740,-1.5202,0.0036,0.0012,0.0054
101.8990,-0.9445,-1.7939,2.7699,-0.0071,0.0075,-0.0112
101.9990,-0.0590,-3.8092,1.6707,-0.0008,0.0026,-0.0034
102.0990,3.8417,-0.8321,-0.5965,0.0036,0.0031,-0.0073
102.1990,2.1623,2.0839,-1.3141,-0.0096,-0.0076,-0.0029
102.2990,0.9257,-1.6336,3.4340,-0.0047,0.0060,0.0005
102.3990,-0.4178,0.4503,-0.8790,0.0075,0.0090,0.0088
102.4990,0.9104,1.7938,-1.6118,0.0007,0.0021,-0.0005
102.5990,0.7043,0.8549,0.4416,-0.0017,0.0016,0.0005
102.6990,-0.6697,1.4503,1.5333,-0.0017,-0.0057,-0.0024
102.7990,-0.2575,0.5114,0.7775,-0.0008,-0.0135,0.0005
102.8990,0.9944,1.4274,0.1897,-0.0076,-0.0003,-0.0034
102.9990,2.6203,0.4503,3.5714,0.0100,0.0036,-0.0181
103.0990,-0.0590,-1.4275,1.0218,0.0002,0.0031,-0.0024
103.1990,1.0860,-0.1222,0.6172,-0.0017,0.0080,-0.0078
103.2990,-0.4560,0.1526,-0.7263,0.0105,0.0055,-0.0088
103.3990,-1.7461,-1.4810,-0.4362,-0.0076,-0.0018,-0.0019
103.4990,0.1852,-0.2214,-1.4515,-0.0076,0.0041,-0.0122
103.5990,0.8035,1.7557,0.5333,0.0114,0.0002,-0.0049
103.6990,-1.4331,-2.3817,3.7775,0.0031,-0.0159,0.0044
103.7990,1.1013,-1.5497,0.2126,0.0149,-0.0072,0.0044
103.8990,1.0478,2.4809,1.4951,0.0002,-0.0037,0.0073
103.9990,1.1547,-0.7405,-1.4744,-0.0086,0.0070,-0.0078
104.0990,-0.0209,-0.3436,0.5104,0.0163,0.0002,-0.0039
104.1990,-2.1048,-1.4581,-0.3217,0.0026,0.0099,-0.0063
104.2990,0.5898,0.3511,-2.8103,-0.0100,-0.0023,-0.0083
104.3990,0.4906,0.3969,0.3119,0.0036,-0.0096,-0.0093
104.4990,-0.6468,0.8167,-0.4209,-0.0003,-0.0023,0.0054
104.5990,0.2387,3.9236,1.0218,0.0041,0.0036,-0.0039
104.6990,0.3074,1.3129,0.7088,-0.0047,-0.0106,0.0093
104.7990,1.5974,-1.2520,0.7546,-0.0047,-0.0052,-0.0015
104.8990,-2.2804,-0.5115,-1.2606,0.0056,-0.0086,-0.0005
104.9990,0.3226,0.4122,0.3577,0.0041,-0.0008,-0.0063
105.0990,0.1547,-1.6947,1.2508,0.0070,-0.0018,0.0025
105.1990,0.7577,-0.9695,-1.0240,-0.0042,-0.0057,0.0029
105.2990,1.2539,0.7709,-0.5431,-0.0032,-0.0076,0.0010
105.3990,-1.1125,-0.5039,-2.2912,-0.0066,-0.0125,-0.0058
105.4990,-0.9522,0.5496,0.5714,0.0075,-0.0086,-0.0019
105.5990,-2.1277,-1.4352,-1.2148,-0.0164,0.0055,0.0010
105.6990,0.2616,1.3435,-1.8561,0.0046,0.0026,-0.0044
105.7990,1.4066,4.0763,0.3271,-0.0086,0.0031,-0.0019
105.8990,-0.9674,-1.1298,-0.5431,0.0066,-0.0023,0.0122
105.9990,-1.3110,-0.3359,-0.8484,0.0085,-0.0101,0.0044
106.0990,-0.3415,-0.6871,-0.5813,0.0017,0.0031,0.0073
106.1990,0.0097,-1.7176,0.3042,0.0026,0.0026,0.0005
106.2990,0.1165,-0.2367,-1.3675,0.0026,-0.0023,0.0034
106.3990,-1.3415,0.4961,0.2050,-0.0008,0.0036,-0.0083
106.4990,0.0707,0.7633,0.6401,-0.0066,0.0016,-0.0063
106.5990,-1.6850,-1.8016,2.9531,0.0188,-0.0120,-0.0034
106.6990,0.9104,-1.6413,3.0371,-0.0042,-0.0057,0.0161
106.7990,1.8570,-0.4581,-0.0240,0.0183,0.0026,-0.0073
106.8990,0.2845,2.0076,0.1439,0.0061,-0.0140,-0.0093
106.9990,0.6738,0.6564,0.4264,-0.0037,-0.0023,0.0034
107.0990,1.3837,-1.1985,-1.5889,-0.0169,-0.0018,-0.0093
107.1990,1.8875,2.2290,0.7775,0.0012,0.0036,0.0034
107.2990,-0.0132,-0.3741,0.9226,0.0041,-0.0164,0.0059
107.3990,-0.3415,0.3969,1.3806,0.0090,-0.0013,-0.0063
107.4990,1.7119,0.7022,0.0371,-0.0061,0.0080,-0.0058
107.5990,-0.0743,-0.6413,0.0371,0.0124,-0.0032,-0.0063
107.6990,-0.3568,-0.4504,-0.3980,0.0012,0.0070,-0.0015
107.7990,0.7272,-0.6107,2.6554,0.0109,-0.0086,0.0044
107.8990,2.3303,1.4656,-1.2072,-0.0198,0.0046,-0.0039
107.9990,-1.4942,-1.3130,0.8081,-0.0154,-0.0072,-0.0010
108.0990,-0.0743,-0.8474,1.2050,0.0036,0.0012,-0.0024
108.1990,0.9486,-1.0077,0.8233,0.0007,0.0070,0.0015
108.2990,1.1318,1.7938,0.1058,-0.0003,0.0173,0.0049
108.3990,-0.8224,0.4732,0.4035,0.0075,-0.0086,0.0025
108.4990,-1.4560,0.5267,-0.2454,0.0007,0.0085,0.0044
108.5990,1.3150,2.9465,-1.7263,-0.0037,-0.0135,0.0025
108.6990,-1.0972,0.1297,0.4493,-0.0076,0.0036,0.0034
108.7990,-0.5476,-0.4504,0.8615,0.0266,-0.0081,-0.0054
108.8990,1.2768,3.0076,0.2661,-0.0047,0.0085,-0.0058
108.9990,0.8875,0.7709,-0.0087,0.0100,-0.0106,0.0039
109.0990,1.4219,-1.2749,-2.4057,-0.0008,-0.0023,0.0000
109.1990,-1.9216,-0.4962,-0.9171,0.0051,0.0002,0.0117
109.2990,0.7348,3.9007,-2.1767,0.0129,-0.0032,-0.0054
109.3990,1.2310,-0.9008,1.1058,-0.0096,-0.0032,-0.0010
109.4990,-2.5171,-0.3970,0.7394,-0.0037,0.0021,0.0088
109.5990,2.5058,0.5954,0.1363,0.0017,-0.0047,-0.0029
109.6990,1.4906,-2.7710,0.5027,-0.0081,-0.0032,-0.0039
109.7990,-1.6163,1.7480,2.3042,0.0007,-0.0018,0.0034
109.8990,-1.2804,-3.0687,1.3882,0.0085,0.0065,0.0025
109.9990,3.0555,0.5419,-1.7416,-0.0052,-0.0018,0.0029
110.0990,1.1547,2.1755,-1.1003,0.0002,0.0119,-0.0058
110.1990,0.7043,0.6564,1.7241,-0.0047,-0.0091,-0.0015
110.2990,-0.6468,-0.0764,-1.5736,-0.0032,0.0055,0.0117
110.3990,2.0707,3.5954,0.5714,0.0026,-0.0047,0.0034
110.4990,-0.6239,0.0305,2.8310,-0.0105,0.0021,0.0064
110.5990,-0.8606,-0.1833,-1.8255,-0.0066,0.0124,0.0010
110.6990,1.0020,-0.1833,-0.1843,0.0178,0.0016,-0.0049
110.7990,1.6890,-0.0611,-0.2148,0.0139,-0.0042,0.0073
110.8990,0.5440,-1.2138,-0.6423,0.0022,0.0012,0.0015
110.9990,-0.8682,2.0916,1.0065,-0.0223,0.0031,0.0137
111.0990,1.5974,2.9007,0.6783,0.0026,0.0026,0.0044
111.1990,-0.9598,2.2061,0.7852,-0.0042,0.0055,0.0049
111.2990,0.2539,0.4885,1.1058,-0.0022,0.0104,-0.0078
111.3990,-0.2194,2.2671,-1.5202,-0.0115,0.0031,-0.0083
111.4990,0.1929,-0.8245,1.7165,0.0002,-0.0008,0.0151
111.5990,-0.6545,-1.7787,0.1745,0.0036,-0.0013,-0.0054
111.6990,-0.5400,-1.2138,0.2966,0.0036,0.0031,0.0054
111.7990,-0.0056,1.6335,-2.2454,-0.0086,-0.0032,-0.0015
111.8990,-0.3339,1.1755,-1.7797,-0.0091,0.0012,0.0064
111.9990,-1.8300,-0.7023,1.3119,0.0026,0.0026,-0.0010
112.0990,0.1471,1.1603,-3.4820,-0.0008,0.0036,0.0078
112.1990,1.5516,0.0992,-0.5431,-0.0017,0.0026,0.0005
112.2990,-1.6163,-1.0687,-0.9553,0.0017,0.0070,-0.0029
112.3990,-0.4102,0.5801,2.1516,-0.0115,-0.0028,0.0064
112.4990,1.0020,-0.1833,-0.9706,0.0022,0.0002,-0.0039
112.5990,0.1776,1.1068,-0.9019,-0.0042,-0.0003,0.0015
112.6990,-0.4102,0.3969,0.7699,-0.0091,0.0012,0.0025
112.7990,-2.4026,1.0610,1.7012,-0.0081,-0.0057,-0.0078
112.8990,1.0707,2.5572,-1.7645,-0.0057,0.0065,0.0064
112.9990,-1.7461,-2.9390,0.0752,-0.0057,-0.0028,0.0005
113.0990,-0.1201,-0.3283,-0.1996,-0.0003,0.0051,-0.0010
113.1990,0.1165,0.8396,-0.9019,-0.0066,0.0099,0.0025
113.2990,0.9639,-0.8168,-1.6271,0.0017,0.0031,-0.0049
113.3990,0.2616,-0.5649,1.0523,-0.0008,-0.0057,0.0010
113.4990,-0.8224,3.7328,1.5333,-0.0071,0.0095,0.0005
113.5990,0.3761,0.8091,1.2737,0.0144,0.0046,-0.0029
113.6990,1.2997,-0.8779,1.1287,0.0031,-0.0067,0.0005
113.7990,1.8494,1.9236,-0.1080,-0.0008,0.0041,-0.0029
113.8990,-0.1277,1.8625,0.5333,-0.0003,0.0016,-0.0058
113.9990,-0.4026,1.2595,0.9378,-0.0047,0.0104,0.0000
114.0990,-2.0438,0.6030,2.9149,0.0036,0.0031,-0.0117
114.1990,-2.2575,0.0687,2.8233,-0.0003,0.0104,0.0044
114.2990,-1.8835,2.1374,-0.2988,-0.0008,0.0016,-0.0010
114.3990,0.0249,1.7938,-1.6576,0.0012,0.0036,0.0078
114.4990,0.7425,-1.2062,-2.4667,0.0095,-0.0042,-0.0137
114.5990,0.4448,0.9771,-2.3141,0.0007,0.0021,0.0059
114.6990,-0.2652,0.8015,1.9684,-0.0091,0.0036,-0.0015
114.7990,0.5058,0.1755,3.4875,-0.0042,0.0153,0.0059
114.8990,-0.0514,-0.2443,2.2203,0.0114,0.0119,0.0064
114.9990,-0.7461,1.4503,-0.1003,-0.0052,0.0080,-0.0093
115.0990,1.4142,0.3664,-2.5355,0.0017,-0.0008,0.0020
115.1990,-0.5323,0.4045,-0.0469,-0.0091,-0.0106,0.0000
115.2990,-0.3339,-0.9771,1.7470,0.0109,-0.0145,0.0059
115.3990,2.6280,2.5954,-1.1156,0.0031,-0.0003,0.0020
115.4990,0.4066,-0.1375,0.0294,0.0061,0.0114,0.0049
115.5990,0.4677,-0.1527,1.8462,0.0022,-0.0013,0.0059
115.6990,-1.0361,-1.2291,-0.0851,-0.0027,-0.0047,0.0117
115.7990,-0.2652,2.5190,-2.5813,0.0026,-0.0067,-0.0137
115.8990,-0.2346,0.2290,-1.9935,-0.0008,0.0085,-0.0044
115.9990,-0.0209,-0.6336,1.9378,-0.0052,0.0031,0.0034
116.0990,1.1013,-0.0458,1.0752,0.0051,-0.0013,-0.0073
116.1990,1.0707,1.2671,1.2737,-0.0061,0.0002,0.0049
116.2990,-3.1125,-2.3359,-0.2683,-0.0003,-0.0037,0.0064
116.3990,0.9868,3.0610,2.0829,0.0085,-0.0032,-0.0063
116.4990,0.0326,0.6488,-3.4896,-0.0037,0.0016,0.0025
116.5990,-0.3949,0.0687,1.5256,0.0070,0.0031,0.0015
116.6990,-0.0743,-0.7939,1.1745,-0.0013,0.0095,0.0034
116.7990,1.6814,-1.0764,-1.6881,-0.0154,-0.0042,0.0059
116.8990,2.1700,0.1679,0.1134,0.0066,0.0016,0.0088
116.9990,0.3837,-2.9848,-0.1232,0.0046,-0.0052,-0.0015
117.0990,2.4829,-1.9924,-2.5660,0.0041,-0.0013,0.0029
117.1990,0.2768,3.3816,-1.8026,-0.0017,-0.0037,-0.0049
117.2990,-0.6697,1.5038,1.1287,-0.0032,-0.0028,-0.0073
117.3990,-1.1430,-1.7787,3.4187,0.0085,-0.0042,0.0064
117.4990,-1.4865,1.6870,-0.4515,0.0026,-0.0072,0.0064
117.5990,1.2539,-0.0916,-1.5736,-0.0013,0.0012,0.0205
117.6990,0.0936,-0.2978,2.8004,-0.0037,-0.0150,0.0059
117.7990,0.0097,-1.8397,0.2432,-0.0110,0.0065,0.0059
117.8990,1.5058,0.9618,-1.5660,0.0012,-0.0115,-0.0024
117.9990,-2.3110,-1.2596,-0.2530,0.0022,0.0007,-0.0073
118.0990,1.7272,0.2137,-1.0927,-0.0149,0.0007,-0.0029
118.1990,-0.1430,-1.0687,-2.7721,0.0066,0.0046,-0.0024
118.2990,0.5516,-0.0382,-1.9248,0.0041,0.0109,0.0054
118.3990,-2.1888,-1.7405,-1.1919,0.0041,0.0114,0.0015
118.4990,-2.2194,-1.2901,1.3653,0.0031,0.0031,0.0073
118.5990,0.3150,2.6793,-0.5355,0.0026,-0.0028,0.0029
118.6990,1.4677,-0.8779,1.4875,0.0041,-0.0067,0.0034
118.7990,-0.2346,-2.5649,0.8997,-0.0472,-0.0072,0.0596
118.8990,-0.1583,1.6870,-0.7110,0.0036,-0.0013,-0.0015
118.9990,1.0478,-1.1680,-1.6729,0.0002,0.0012,-0.0034
119.0990,-0.2117,-1.4581,1.2813,-0.0071,0.0080,-0.0034
119.1990,0.4524,-2.5649,1.3806,0.0017,-0.0018,-0.0029
119.2990,1.2005,1.5725,-2.1919,0.0017,-0.0013,-0.0054
119.3990,0.3837,-0.4657,-1.5507,0.0066,0.0060,-0.0117
119.4990,0.8875,-0.2672,0.4722,0.0012,0.0090,0.0025
119.5990,-0.4942,-1.2825,3.0218,0.0178,0.0070,-0.0117
119.6990,2.5822,1.9542,1.3729,0.0066,0.0051,-0.0220
119.7990,-1.6621,-0.8474,1.5180,0.0051,-0.0062,0.0059
119.8990,0.2997,0.5114,0.0676,0.0056,0.0114,0.0039
119.9990,1.9715,-0.3130,-2.1385,0.0100,0.0007,0.0005
120.0990,1.1165,-0.2978,1.4264,-0.0027,0.0002,0.0103
120.1990,-1.1506,-0.4581,-0.5202,0.0051,0.0212,0.0010
120.2990,-0.7384,-0.0916,3.0371,0.0173,0.0090,0.0108
120.3990,0.5135,-0.4504,-0.3446,0.0085,0.0070,0.0005
120.4990,0.8646,0.1984,0.6478,0.0012,-0.0028,0.0034
120.5990,0.0478,-0.0916,0.4493,-0.0110,-0.0042,0.0015
120.6990,1.4753,-0.8321,0.1745,-0.0057,-0.0052,0.0010
120.7990,0.7577,-1.5344,-2.5049,0.0046,0.0124,0.0088
120.8990,0.1547,1.4885,-0.0545,0.0012,0.0041,-0.0005
120.9990,-0.4178,2.1603,0.3958,0.0090,0.0070,-0.0058
121.0990,3.1776,0.8320,0.2661,0.0090,0.0119,-0.0098
121.1990,0.3913,2.1984,0.2890,-0.0022,-0.0032,0.0078
121.2990,-2.5476,-2.0382,0.0829,0.0012,-0.0052,0.0034
121.3990,0.2387,0.6335,-0.6271,0.0105,-0.0047,0.0015
121.4990,1.3532,-0.6107,-2.0774,-0.0032,-0.0052,0.0010
121.5990,-0.0590,0.0916,-1.0927,0.0149,0.0031,0.0034
121.6990,-0.4560,-0.6107,2.1058,-0.0027,-0.0115,-0.0078
121.7990,-1.9980,-0.4657,0.0065,-0.0003,-0.0086,0.0010
121.8990,0.8494,0.7480,-0.3522,0.0007,0.0036,-0.0098
121.9990,-0.8682,-0.5649,0.4035,-0.0027,0.0031,-0.0010
122.0990,1.3379,0.1603,-0.2912,-0.0003,0.0016,-0.0098
122.1990,-0.4102,1.0916,-1.4820,-0.0013,-0.0159,-0.0010
122.2990,0.7425,0.8473,1.3577,0.0017,-0.0037,-0.0122
122.3990,-0.8758,0.9847,0.5943,-0.0027,-0.0047,0.0088
122.4990,-0.3415,2.0076,-0.4973,0.0041,-0.0111,-0.0034
122.5990,-0.5247,-0.3588,0.5256,-0.0008,0.0012,-0.0024
122.6990,-0.6545,1.1526,-0.2072,-0.0086,0.0095,0.0044
122.7990,-1.0438,-2.9008,4.4875,0.0007,-0.0086,-0.0015
122.8990,0.3455,-1.2901,2.5485,0.0041,-0.0086,-0.0015
122.9990,-0.2728,1.0305,-0.6500,-0.0003,0.0051,-0.0044
123.0990,-0.4865,-0.6871,-0.3828,-0.0022,0.0002,0.0059
123.1990,1.2387,2.5190,-0.1996,0.0144,0.0080,-0.0049
123.2990,1.2081,-0.7634,-0.7797,-0.0066,0.0099,-0.0044
123.3990,-1.7155,-0.1909,-0.5125,0.0007,0.0016,-0.0078
123.4990,0.2463,-3.1756,1.6936,-0.0071,-0.0052,0.0025
123.5990,1.3303,0.6793,-0.8790,-0.0115,-0.0081,0.0103
123.6990,1.6280,0.3969,-0.0545,-0.0071,-0.0120,0.0029
123.7990,1.2768,-1.5344,2.0447,-0.0037,-0.0052,-0.0024
123.8990,0.2234,3.2366,-0.0240,0.0017,-0.0013,0.0078
123.9990,1.3150,0.7251,0.8310,-0.0174,0.0007,-0.0093
124.0990,-1.2346,-0.7176,1.4951,0.0149,-0.0096,0.0039
124.1990,-0.6926,0.9084,2.8233,0.0041,-0.0037,0.0020
124.2990,-0.8148,0.1908,-0.6423,0.0031,0.0080,0.0059
124.3990,3.8341,-0.4886,-2.1919,-0.0105,-0.0032,0.0039
124.4990,-1.1430,1.6259,1.8920,0.0012,-0.0042,0.0005
124.5990,-0.0209,0.9847,2.8615,0.0041,0.0060,-0.0005
124.6990,2.3684,1.3358,-0.2530,-0.0057,0.0129,-0.0024
124.7990,-1.5247,-2.3207,4.1974,0.0036,-0.0125,-0.0058
124.8990,0.0173,1.2671,-0.8179,-0.0032,-0.0047,-0.0044
124.9990,1.0478,-1.6107,0.0447,0.0061,0.0085,0.0088
125.0990,1.4753,-0.4275,-1.7263,0.0075,0.0060,0.0127
125.1990,-1.9598,0.1068,1.9760,-0.0017,0.0041,0.0054
125.2990,0.7654,-0.0077,0.3424,0.0031,0.0080,0.0029
125.3990,1.0555,2.2977,-0.6042,0.0031,0.0021,-0.0005
125.4990,1.8188,-1.1298,-2.6500,-0.0091,-0.0013,0.0059
125.5990,0.5135,-1.0306,1.3882,-0.0047,0.0026,-0.0019
125.6990,1.9791,0.5114,-1.7339,-0.0125,-0.0003,0.0059
125.7990,2.0860,2.0229,-2.8561,-0.0027,-0.0042,0.0034
125.8990,0.1318,1.8244,1.6172,0.0070,0.0007,-0.0039
125.9990,-0.4560,0.4809,-1.8255,-0.0061,-0.0037,0.0000
126.0990,0.7577,-0.0993,-0.8103,0.0051,0.0041,0.0029
126.1990,1.9562,1.1297,-0.4438,0.0129,-0.0013,0.0025
126.2990,1.7348,-0.1222,-0.1156,0.0051,0.0002,0.0068
126.3990,-1.6926,-0.6031,-1.5355,-0.0013,0.0114,-0.0054
126.4990,1.0860,1.8931,-1.7950,0.0051,-0.0032,0.0005
126.5990,0.0020,1.2290,0.5180,0.0051,0.0031,-0.0068
126.6990,-1.1430,-1.0306,3.0905,0.0051,0.0080,-0.0015
126.7990,-0.2194,-1.9313,0.5333,-0.0027,-0.0052,0.0000
126.8990,2.2081,-0.3054,-0.8103,-0.0066,0.0036,-0.0034
126.9990,0.1471,1.2442,-0.7263,-0.0008,0.0031,0.0132
127.0990,-0.1965,-1.2520,2.3348,0.0046,0.0012,-0.0010
127.1990,1.1318,-0.1527,-0.6347,0.0031,0.0031,-0.0039
127.2990,-1.1354,-1.0764,0.5562,0.0017,0.0007,0.0044
127.3990,-1.3873,-1.1756,-0.5202,-0.0105,0.0099,0.0044
127.4990,-0.2194,0.7099,-1.4286,0.0036,-0.0037,-0.0102
127.5990,1.0097,-0.2978,-0.0927,0.0022,0.0026,0.0025
127.6990,-0.1201,-0.7634,-1.0469,0.0041,0.0046,0.0151
127.7990,0.5745,-2.0993,0.9531,-0.0057,0.0060,0.0039
127.8990,-0.2270,-2.5726,-2.0698,0.0041,0.0090,0.0020
127.9990,-0.7613,0.9923,-1.2988,0.0090,-0.0013,0.0073
128.0990,-1.0743,-0.2520,1.8157,-0.0057,-0.0052,-0.0058
128.1990,1.1318,1.6717,1.5027,-0.0105,-0.0047,-0.0049
128.2990,0.9257,1.5114,-0.9400,-0.0047,0.0046,0.0137
128.3990,-0.6697,-2.0687,0.1058,0.0100,0.0143,-0.0029
128.4990,-0.6316,-1.2978,-0.8255,-0.0144,0.0090,0.0010
128.5990,0.1776,1.0305,0.5256,-0.0032,-0.0052,0.0059
128.6990,0.9104,-0.2672,-1.6194,0.0012,0.0095,0.0059
128.7990,-0.2804,1.2519,1.8691,0.0022,-0.0062,-0.0015
128.8990,-1.4713,-0.1680,-2.2683,-0.0032,0.0055,-0.0039
128.9990,-0.6316,1.8473,1.0447,0.0119,-0.0072,-0.0054
129.0990,-0.2270,-0.2520,2.7470,0.0085,-0.0042,-0.0019
129.1990,0.9333,0.4809,1.3500,-0.0037,-0.0018,-0.0005
129.2990,1.5822,1.0000,-1.4667,-0.0091,0.0031,-0.0112
129.3990,-2.5018,0.7099,-1.5584,-0.0032,-0.0140,0.0064
129.4990,-1.9293,-0.6642,-0.7110,-0.0081,0.0036,-0.0029
129.5990,-0.7613,-1.7939,-0.8408,0.0026,0.0021,-0.0024
129.6990,1.0707,0.2900,-0.0851,-0.0061,-0.0072,0.0005
129.7990,-1.0056,0.3511,0.0829,0.0144,-0.0076,-0.0049
129.8990,-1.7461,-1.3588,-0.9706,0.0041,0.0085,0.0078
129.9990,0.1013,-0.1833,-0.5278,-0.0110,-0.0145,0.0025
130.0990,1.8035,-0.5039,-1.1996,0.0022,0.0070,0.0073
130.1990,-0.6392,0.2977,3.0829,0.0095,-0.0003,0.0068
130.2990,-1.2041,-1.3436,0.0676,-0.0032,0.0070,-0.0058
130.3990,0.4448,1.5038,-1.6576,0.0061,0.0051,0.0122
130.4990,0.5287,2.3511,0.0218,-0.0032,-0.0120,-0.0019
130.5990,0.0784,-0.4810,3.3195,0.0134,0.0104,0.0064
130.6990,1.1165,-0.7023,-1.5125,-0.0110,-0.0052,0.0029
130.7990,-1.1583,0.6564,-1.0927,0.0051,-0.0013,-0.0151
130.8990,-2.6239,-1.7405,1.0676,0.0051,0.0012,0.0039
130.9990,-1.2194,1.1221,-0.1996,-0.0017,0.0168,-0.0088
131.0990,0.3913,0.7480,0.3348,0.0026,0.0065,-0.0058
131.1990,1.2234,-1.5573,-0.5813,-0.0013,-0.0057,0.0054
131.2990,-0.8682,-1.7863,1.0905,0.0051,0.0007,-0.0200
131.3990,-0.9674,-0.0687,-0.7263,0.0022,-0.0023,0.0068
131.4990,-0.3873,-0.6260,1.0905,0.0075,0.0099,0.0117
131.5990,-0.6010,-0.4352,-0.2148,-0.0022,-0.0067,0.0015
131.6990,-1.9674,-0.6642,2.6096,-0.0032,0.0007,0.0098
131.7990,1.0020,0.3969,-2.2759,0.0085,-0.0101,0.0020
131.8990,0.1394,3.9694,-0.8637,0.0080,-0.0052,0.0005
131.9990,-0.6926,-0.7252,0.8004,0.0031,0.0173,0.0049
132.0990,-0.8606,-2.1756,-0.1996,0.0056,-0.0028,0.0039
132.1990,0.4677,0.1068,0.8233,0.0129,0.0012,0.0044
132.2990,1.1623,2.5038,-0.2835,0.0114,0.0055,0.0034
132.3990,-1.4484,-0.6260,0.1897,0.0056,0.0124,-0.0034
132.4990,1.7730,0.1450,-1.4286,-0.0008,-0.0008,0.0034
132.5990,0.4677,-0.4199,-0.1156,-0.0071,-0.0076,-0.0073
132.6990,-0.9369,-1.3665,-0.7797,0.0134,0.0143,0.0151
132.7990,1.0173,-0.4886,0.9913,-0.0100,0.0109,0.0054
132.8990,-0.6697,0.0076,-0.7568,0.0168,-0.0106,-0.0019
132.9990,-0.3186,2.0992,-0.9324,0.0036,-0.0028,0.0039
133.0990,1.0555,-1.9695,-0.0393,-0.0017,0.0012,0.0073
133.1990,-1.9293,-2.7558,0.2279,-0.0066,0.0065,-0.0063
133.2990,2.7425,1.4809,-1.6652,-0.0086,-0.0125,-0.0127
133.3990,-0.9903,0.7480,-0.3904,0.0017,-0.0081,-0.0024
133.4990,-1.2423,-2.1222,1.6249,-0.0076,-0.0062,0.0049
133.5990,1.6509,1.1679,-0.5507,-0.0052,-0.0032,0.0000
133.6990,1.1929,0.2213,-2.0316,-0.0096,-0.0067,-0.0024
133.7990,-1.6545,-2.7405,2.5027,-0.0027,0.0007,-0.0024
133.8990,-2.4102,-0.8397,-1.7263,0.0114,0.0041,-0.0019
133.9990,0.6432,1.3511,-1.2377,-0.0066,0.0046,-0.0049
134.0990,1.9104,3.0305,-2.5202,-0.0008,-0.0062,0.0117
134.1990,-1.8377,2.4656,1.2050,-0.0027,0.0016,-0.0054
134.2990,1.0249,0.8625,-0.9706,-0.0076,-0.0018,0.0034
134.3990,-0.2041,2.0152,-0.4744,0.0051,0.0007,0.0073
134.4990,-1.7766,-3.2367,-1.0316,0.0109,0.0002,0.0049
134.5990,-1.4636,-0.1527,-1.1767,0.0090,-0.0062,-0.0010
134.6990,1.5440,1.5725,-1.5431,-0.0047,-0.0023,-0.0083
134.7990,1.0784,0.6030,0.3424,0.0046,-0.0037,0.0068
134.8990,-0.4636,-1.3741,-0.6958,0.0022,0.0075,0.0039
134.9990,1.1776,-0.9466,3.2966,-0.0047,0.0080,0.0078
135.0990,1.7119,-1.4428,-1.7568,-0.0003,0.0016,0.0034
135.1990,1.2005,-0.1756,1.9684,0.0134,0.0099,0.0015
135.2990,-1.7079,-1.8779,1.8233,0.0036,0.0016,0.0029
135.3990,-0.7461,-1.0000,0.5943,-0.0013,0.0012,0.0078
135.4990,0.3837,2.4503,-1.1003,-0.0008,-0.0057,0.0029
135.5990,-3.8453,1.4045,1.1745,-0.0003,-0.0018,0.0034
135.6990,-0.7995,-0.5039,0.4493,-0.0017,0.0041,-0.0005
135.7990,1.0631,-0.4962,-1.5431,-0.0022,0.0095,0.0025
135.8990,-2.2728,-2.5115,0.5409,0.0100,0.0012,-0.0024
135.9990,1.1394,1.2061,0.6707,0.0056,-0.0101,0.0025
136.0990,0.5974,1.2900,1.0829,-0.0047,-0.0101,0.0034
136.1990,3.4371,0.1297,0.4111,0.0026,-0.0101,0.0044
136.2990,0.3608,-0.0840,3.4111,0.0036,0.0124,0.0049
136.3990,0.0555,-3.0993,-3.4591,-0.0027,0.0256,0.0391
136.4990,-0.6010,0.3129,-3.4591,0.0129,0.0055,0.0518
136.5990,3.5822,2.5114,0.0676,0.0007,0.0046,0.0249
136.6990,-1.0514,1.2595,0.9836,0.0017,-0.0115,-0.0088
136.7990,-1.0896,-0.5802,-5.3293,0.0007,0.0124,-0.0122
136.8990,-0.0590,1.6335,-0.3370,-0.0066,-0.0032,0.0020
136.9990,-0.9140,-0.9924,2.7546,0.0070,-0.0076,-0.0576
137.0990,-1.3491,-0.8168,-0.7950,-0.0013,0.0114,-0.0161
137.1990,-0.1125,-2.1298,-0.4744,0.0105,-0.0037,0.0083
137.2990,0.5745,0.8855,0.4035,0.0158,0.0007,-0.0005
137.3990,-1.3491,-4.6107,0.0294,0.0090,0.0114,0.0015
137.4990,0.0555,0.1832,0.1974,0.0017,-0.0003,0.0034
137.5990,0.7272,2.2519,-1.2148,-0.0032,0.0012,-0.0058
137.6990,-0.1430,0.4198,0.4798,-0.0027,0.0114,0.0044
137.7990,1.0936,1.3206,1.4645,-0.0052,0.0119,0.0029
137.8990,-0.7690,2.2824,-0.3522,0.0066,0.0070,-0.0029
137.9990,1.4142,2.7251,-1.2377,-0.0086,0.0002,-0.0005
138.0990,-0.9903,-2.0764,3.7928,0.0080,0.0119,0.0010
138.1990,-0.3110,-0.2520,1.5104,-0.0183,-0.0032,-0.0039
138.2990,0.3303,4.0534,-2.5813,-0.0076,-0.0013,0.0073
138.3990,-0.0667,0.6106,-1.4057,-0.0120,0.0016,-0.0049
138.4990,0.2081,-0.8550,-1.4820,-0.0061,0.0080,-0.0156
138.5990,1.2463,-1.0687,-3.8026,0.0129,0.0012,0.0029
138.6990,0.4600,-1.3894,-2.3751,-0.0164,0.0026,0.0073
138.7990,2.2158,-0.3207,0.4645,-0.0032,0.0046,0.0039
138.8990,0.8875,1.2900,0.0829,0.0046,-0.0047,-0.0146
138.9990,-0.8300,2.8702,-0.1843,-0.0110,-0.0057,-0.0156
139.0990,-1.4178,0.4580,-3.0545,-0.0003,-0.0047,-0.0185
139.1990,0.3990,-0.9848,-0.8561,-0.0022,0.0163,0.0108
139.2990,0.0555,1.8091,0.9836,0.0119,0.0085,0.0054
139.3990,-1.4942,-0.7252,-1.0087,-0.0008,0.0104,-0.0102
139.4990,-0.9751,0.5954,-0.1461,-0.0105,0.0065,0.0010
139.5990,0.9791,-0.1527,-0.4209,0.0070,0.0187,0.0039
139.6990,-0.5323,-0.2367,-0.1309,0.0002,0.0070,0.0064
139.7990,0.2768,-0.6260,-1.6118,0.0002,0.0046,0.0044
139.8990,-1.2652,0.5496,-1.4896,0.0012,0.0021,-0.0015
139.9990,-0.2270,-1.2596,1.5333,0.0026,0.0065,-0.0068
140.0990,1.5211,1.2290,-3.3522,0.0051,-0.0042,0.0034
140.1990,-0.7461,-1.0993,1.9073,0.0075,0.0095,-0.0049
140.2990,-1.1965,1.1755,0.2890,0.0012,0.0060,0.0039
140.3990,0.9562,1.4656,-0.7263,0.0002,0.0012,-0.0063
140.4990,2.1623,1.4961,-1.8713,-0.0013,0.0007,0.0010
140.5990,0.0249,-0.5191,0.4722,-0.0066,0.0002,-0.0063
140.6990,-0.8453,-0.9924,-1.9171,-0.0008,-0.0052,0.0068
140.7990,-1.2346,1.9313,-1.6652,-0.0086,-0.0032,0.0034
140.8990,0.4371,0.7480,-1.7110,-0.0037,0.0119,0.0039
140.9990,-0.2194,-0.5726,0.0600,-0.0008,0.0016,0.0054
141.0990,1.7501,0.0992,-0.6958,-0.0032,-0.0091,-0.0098
141.1990,0.4906,1.2137,-1.9019,0.0017,-0.0013,-0.0068
141.2990,-0.0056,-1.3817,-0.4591,0.0041,0.0065,0.0015
141.3990,0.1852,-2.0993,-3.3751,0.0061,0.0124,-0.0054
141.4990,0.4066,0.1374,-0.0469,-0.0115,-0.0081,-0.0088
141.5990,0.9028,0.8931,1.6096,0.0114,0.0109,-0.0039
141.6990,1.6432,-1.4123,0.4187,0.0017,0.0080,0.0059
141.7990,0.5898,-3.7558,0.2890,0.0041,-0.0052,0.0044
141.8990,1.2005,4.0152,-0.2225,0.0056,-0.0062,-0.0015
141.9990,0.0478,-0.9466,-0.8408,-0.0125,-0.0037,-0.0063
142.0990,-0.8300,-0.7710,-0.2301,-0.0061,-0.0150,0.0093
142.1990,-0.3110,0.2748,0.3424,0.0066,-0.0072,-0.0015
142.2990,0.7577,0.1221,-2.0698,0.0022,0.0046,0.0044
142.3990,0.4142,0.6488,1.5485,-0.0003,0.0016,-0.0005
142.4990,-0.4255,-1.1680,-0.4209,-0.0027,0.0060,-0.0054
142.5990,2.5287,-0.3817,1.2355,0.0026,-0.0003,0.0083
142.6990,0.7577,0.7099,-3.4515,0.0100,0.0051,0.0059
142.7990,-0.4865,-0.9848,-1.4820,0.0046,-0.0062,-0.0112
142.8990,2.3913,-0.1833,0.8310,-0.0003,-0.0062,-0.0049
142.9990,2.6127,-0.5039,0.5104,0.0036,0.0099,0.0054
143.0990,-0.4789,0.0381,-0.6729,-0.0027,0.0129,-0.0112
143.1990,0.2539,-0.1985,0.7928,-0.0027,0.0007,0.0093
143.2990,-0.1583,1.4656,-0.9248,-0.0057,-0.0008,0.0020
143.3990,-0.0896,-0.8855,-1.2988,-0.0003,-0.0032,0.0098
143.4990,-0.1354,-1.2062,0.7394,0.0109,-0.0042,-0.0098
143.5990,-1.8224,-1.9084,1.0065,0.0007,-0.0096,-0.0044
143.6990,0.0326,2.2290,0.0218,-0.0003,0.0002,-0.0078
143.7990,-0.4865,-1.2901,1.9684,-0.0013,0.0036,-0.0039
143.8990,-2.3033,-1.6565,0.3042,-0.0144,0.0046,0.0156
143.9990,1.3608,2.1755,-1.2606,-0.0013,-0.0052,-0.0019
144.0990,1.0478,2.2442,-0.6729,-0.0081,0.0036,0.0020
144.1990,1.1776,0.0381,0.0600,0.0041,-0.0174,-0.0029
144.2990,1.0936,-2.8703,-0.0469,-0.0052,0.0002,-0.0088
144.3990,1.3837,0.6183,-2.9858,-0.0017,0.0002,-0.0039
144.4990,-0.3873,0.8625,2.0829,-0.0061,-0.0111,0.0039
144.5990,-2.1965,-3.5878,-0.5813,0.0046,-0.0076,-0.0010
144.6990,0.8646,0.2366,-0.9248,0.0134,-0.0003,-0.0015
144.7990,0.4829,0.9542,1.6020,-0.0032,0.0060,-0.0010
144.8990,-1.4713,-0.6184,3.3653,0.0114,0.0046,0.0039
144.9990,-1.9827,-0.9848,-0.0927,-0.0091,-0.0076,-0.0122
145.0990,1.8646,1.2671,-0.2301,-0.0110,-0.0003,0.0020
145.1990,-0.2499,0.4122,0.7012,0.0041,0.0041,0.0010
145.2990,0.2005,-0.2596,0.4645,0.0105,-0.0057,-0.0039
145.3990,0.9868,1.7557,-0.4057,-0.0057,-0.0008,0.0015
145.4990,0.5898,1.1908,1.1363,-0.0008,-0.0130,0.0088
145.5990,0.7959,-0.9771,1.0981,-0.0008,-0.0101,-0.0019
145.6990,-1.5323,0.3893,-0.9477,-0.0008,0.0124,0.0127
145.7990,0.4677,3.1755,-1.1309,-0.0022,-0.0081,-0.0063
145.8990,0.6509,-0.6489,-1.9324,0.0114,0.0099,-0.0029
145.9990,2.5669,-0.9848,-0.4438,0.0022,-0.0047,-0.0073
146.0990,-1.1354,-1.9390,-1.4133,0.0041,-0.0115,-0.0019
146.1990,0.7806,4.0687,-2.1843,0.0012,-0.0013,-0.0029
146.2990,-1.2194,0.0381,0.9607,-0.0013,-0.0042,0.0181
146.3990,-1.3110,0.0305,1.8844,-0.0022,0.0109,0.0117
146.4990,1.3379,0.7633,-1.4438,0.0012,0.0007,0.0039
146.5990,0.9257,0.2519,-1.4744,0.0090,0.0099,-0.0019
146.6990,-2.6774,-4.5115,-0.5278,-0.0086,-0.0032,-0.0141
146.7990,-1.8835,2.1450,0.2050,-0.0037,0.0046,-0.0005
146.8990,-1.0743,1.5267,1.1210,-0.0037,0.0119,0.0117
146.9990,1.9333,-0.9771,-1.9171,-0.0061,0.0007,0.0059
147.0990,-0.2041,-0.3207,2.8386,-0.0003,-0.0120,0.0054
147.1990,0.8265,1.5496,-4.0011,-0.0105,-0.0003,0.0122
147.2990,2.1623,1.4580,-1.3828,-0.0057,-0.0057,0.0029
147.3990,-1.4942,1.3435,-1.6729,0.0095,0.0031,0.0044
147.4990,0.3226,0.4885,0.0676,-0.0076,0.0090,-0.0141
147.5990,1.7348,2.2671,-0.6042,-0.0071,-0.0076,0.0029
147.6990,0.6280,2.3587,0.5714,0.0046,-0.0057,-0.0054
147.7990,-1.1506,0.2748,1.3119,0.0007,0.0031,0.0034
147.8990,1.3226,1.5190,-0.0011,0.0070,-0.0037,-0.0010
147.9990,1.4448,0.1755,0.7012,0.0031,-0.0023,-0.0117
148.0990,0.4753,-1.2291,0.9455,-0.0027,-0.0081,0.0151
148.1990,-1.4865,0.3435,-1.7416,0.0017,-0.0028,0.0078
148.2990,1.7806,1.7480,-0.7797,-0.0096,-0.0057,0.0064
148.3990,-0.1965,0.1068,-0.3980,0.0036,0.0036,-0.0107
148.4990,0.6738,-2.2520,-0.3599,-0.0037,-0.0008,0.0088
148.5990,0.9028,1.0152,0.3577,0.0085,0.0012,-0.0024
148.6990,1.2387,0.3206,-1.5125,0.0022,0.0080,0.0010
148.7990,2.4677,-1.1833,0.3958,-0.0022,-0.0013,0.0083
148.8990,-1.2117,-0.3894,3.8615,-0.0037,0.0075,0.0000
148.9990,1.5440,1.5038,0.9760,-0.0042,0.0085,0.0034
149.0990,0.8341,1.8625,0.7928,-0.0076,0.0055,-0.0010
149.1990,1.7501,-2.6947,-1.8408,0.0124,0.0002,0.0186
149.2990,-0.3339,-0.6413,1.6707,0.0051,0.0153,0.0078
149.3990,-0.5094,0.1068,0.5485,-0.0149,0.0007,0.0151
149.4990,0.5745,0.3816,0.9760,0.0012,-0.0057,-0.0044
149.5990,-0.6468,-2.4733,0.7546,-0.0091,0.0065,0.0000
149.6990,0.0555,0.1374,0.8997,-0.0105,-0.0086,-0.0058
149.7990,-0.2194,0.9771,-1.0164,-0.0027,-0.0135,0.0005
149.8990,0.2768,0.8931,1.7699,0.0061,-0.0057,-0.0083
149.9990,-0.7842,0.7099,4.1745,0.0178,-0.0076,-0.0112
150.0990,0.8646,0.3664,-1.0011,-0.0100,0.0075,-0.0010
150.1990,-0.4026,0.7709,0.9302,-0.0032,0.0085,0.0034
150.2990,-0.7613,0.5496,1.8157,0.0012,0.0104,0.0005
150.3990,1.6127,-1.3741,0.7623,-0.0105,0.0012,-0.0010
150.4990,-1.4865,2.3969,0.8615,-0.0066,0.0007,0.0020
150.5990,0.6432,-0.4199,-0.1538,0.0036,0.0134,-0.0015
150.6990,-1.3110,1.5190,1.5256,-0.0105,-0.0101,-0.0044
150.7990,2.0631,1.8167,-0.6576,-0.0027,0.0075,-0.0112
150.8990,0.6127,1.5038,-1.6652,-0.0164,0.0026,0.0005
150.9990,-1.1048,-0.8321,2.5562,-0.0013,0.0007,0.0025
151.0990,-2.5171,-0.8092,1.3348,-0.0120,-0.0003,-0.0063
151.1990,-0.0743,1.5954,-0.7721,0.0105,-0.0057,-0.0063
151.2990,-0.1201,-0.6489,0.2508,-0.0008,0.0046,0.0034
151.3990,-1.8911,1.1526,0.5638,-0.0061,-0.0008,0.0176
151.4990,2.4677,-0.7176,-2.6500,-0.0037,0.0046,0.0044
151.5990,1.9410,0.8320,0.6859,0.0022,0.0095,-0.0044
151.6990,0.8494,-2.6947,1.5791,-0.0003,0.0031,0.0000
151.7990,-0.1277,-0.4199,3.1821,-0.0047,-0.0042,0.0000
151.8990,1.0478,0.5648,-0.7339,0.0026,-0.0047,0.0049
151.9990,0.7883,1.4961,-1.0316,0.0031,-0.0111,0.0015
152.0990,-1.6697,0.2748,-0.2759,-0.0042,-0.0023,0.0112
152.1990,1.1165,2.0992,2.8310,0.0041,0.0021,0.0073
152.2990,0.0478,1.3129,-0.8484,0.0026,-0.0013,-0.0093
152.3990,-0.4255,0.6946,0.7623,0.0070,-0.0018,-0.0088
152.4990,-0.5858,-0.9390,0.0447,0.0153,0.0119,-0.0010
152.5990,0.1471,-0.6718,-0.2148,-0.0032,0.0070,0.0005
152.6990,-0.1812,0.1297,0.3271,0.0061,0.0036,-0.0049
152.7990,1.2768,-0.0382,0.9760,-0.0052,-0.0037,0.0064
152.8990,0.4448,0.4198,-0.3522,-0.0047,-0.0042,-0.0024
152.9990,1.1700,2.0763,-1.1767,0.0119,-0.0003,0.0064
153.0990,-0.5476,-0.2443,-0.5125,-0.0091,-0.0081,0.0039
153.1990,-0.7537,1.3282,-0.8713,0.0139,0.0095,-0.0122
153.2990,1.8494,-0.1069,-0.0316,0.0041,0.0046,0.0059
153.3990,1.3761,1.1832,2.4798,-0.0022,0.0138,0.0020
153.4990,1.0631,2.2519,-1.3446,-0.0096,-0.0042,0.0015
153.5990,0.9181,0.8702,-1.7645,0.0070,0.0007,0.0034
153.6990,-0.0361,0.2061,-2.9706,0.0002,0.0109,0.0005
153.7990,-0.9216,-0.4733,2.8920,0.0036,-0.0047,-0.0141
153.8990,0.1471,-0.1069,1.4951,0.0007,-0.0042,0.0059
153.9990,-0.6316,1.9694,-0.1156,0.0041,0.0065,-0.0078
154.0990,-0.1888,-1.0153,-1.4209,-0.0003,0.0016,-0.0019
154.1990,-1.0056,1.4045,1.6172,0.0056,-0.0052,-0.0044
154.2990,-2.5629,0.6335,-1.0545,0.0075,-0.0032,0.0034
154.3990,0.4219,1.9313,-1.4438,-0.0013,-0.0032,-0.0024
154.4990,1.1471,0.3587,-1.7339,-0.0096,0.0031,0.0020
154.5990,1.3226,0.7404,1.0218,0.0129,0.0060,-0.0122
154.6990,-0.4178,-0.5573,1.2890,0.0061,0.0060,0.0015
154.7990,-0.5247,1.3129,0.3958,0.0066,-0.0076,-0.0019
154.8990,-0.3339,-0.9771,1.0676,0.0041,0.0031,-0.0034
154.9990,1.2997,1.4427,-0.8332,-0.0027,0.0031,-0.0049
155.0990,1.9257,0.8091,1.9378,0.0002,0.0085,0.0093
155.1990,-0.1048,2.3358,-0.4896,-0.0008,0.0075,-0.0058
155.2990,-2.4407,-1.3588,-0.4362,0.0002,-0.0018,-0.0225
155.3990,0.4524,0.9771,-0.4667,-0.0057,-0.0032,-0.0039
155.4990,0.1471,-1.6413,-1.3599,-0.0071,-0.0076,-0.0093
155.5990,1.6051,-0.8168,-0.1996,0.0178,-0.0003,0.0044
155.6990,-0.7919,-1.3512,-0.6881,0.0095,-0.0008,0.0015
155.7990,-0.4789,0.8549,-0.9629,0.0002,0.0163,0.0034
155.8990,0.3074,1.8015,-2.0087,0.0095,-0.0003,-0.0054
155.9990,0.1547,0.1679,1.1592,-0.0061,0.0002,-0.0093
156.0990,-0.1812,-1.3054,-0.0164,-0.0120,0.0046,0.0059
156.1990,-2.8682,1.6488,-2.0774,0.0066,-0.0062,-0.0019
156.2990,0.9868,0.8396,-2.5660,0.0124,-0.0198,-0.0058
156.3990,1.8035,0.6183,-1.8790,0.0041,0.0026,-0.0024
156.4990,-1.5094,-0.6184,1.4493,0.0056,0.0036,0.0073
156.5990,1.7348,0.3129,-1.3522,0.0061,0.0070,-0.0005
156.6990,-1.0132,-0.2901,1.9531,-0.0047,-0.0023,-0.0117
156.7990,-1.6926,-2.0077,1.6020,-0.0008,0.0217,-0.0068
156.8990,-0.9064,-0.3970,1.8310,0.0031,-0.0081,0.0044
156.9990,2.5974,-0.7176,-3.4896,0.0056,0.0085,-0.0029
157.0990,-1.8606,0.7709,-0.2225,-0.0027,0.0090,0.0078
157.1990,-0.3033,2.3969,2.0065,0.0041,0.0134,-0.0141
157.2990,3.2387,0.9465,-0.3293,0.0114,-0.0023,0.0025
157.3990,0.5745,1.0305,0.1745,0.0041,-0.0062,-0.0039
157.4990,0.9333,0.0534,1.8920,0.0022,-0.0106,0.0049
157.5990,-0.3720,-0.0000,0.8844,0.0066,0.0129,0.0020
157.6990,1.9791,1.4961,-1.3904,-0.0076,-0.0101,0.0049
157.7990,-0.5400,-0.1909,1.0065,-0.0032,-0.0062,0.0010
157.8990,-0.9369,1.3587,1.3348,0.0002,0.0002,0.0112
157.9990,-0.1125,1.5877,-0.7263,-0.0047,0.0085,-0.0029
158.0990,3.9868,2.6488,-2.0240,-0.0027,-0.0028,0.0093
158.1990,-1.5858,-0.5191,0.0294,0.0061,-0.0047,0.0064
158.2990,-0.3415,-1.0535,-0.9171,-0.0047,-0.0120,0.0083
158.3990,-0.6468,0.6870,-0.9858,-0.0140,-0.0057,0.0142
158.4990,-2.8682,-0.8932,3.8004,0.0051,0.0051,0.0025
158.5990,-0.8911,-0.3894,0.5256,0.0036,0.0046,0.0064
158.6990,-1.0056,0.0916,-0.4667,-0.0032,-0.0125,-0.0093
158.7990,0.6127,1.9084,1.1668,0.0056,0.0036,-0.0034
158.8990,-0.2117,-0.6565,-0.7797,-0.0047,-0.0047,0.0029
158.9990,1.3150,1.3435,0.1668,-0.0052,0.0070,-0.0029
159.0990,0.6432,0.4961,-1.3217,-0.0042,0.0060,-0.0127
159.1990,-1.4102,-2.4733,3.8615,-0.0013,-0.0042,-0.0078
159.2990,-0.3797,1.5343,-0.8255,-0.0008,-0.0018,0.0078
159.3990,2.1318,1.1221,-1.3370,0.0075,0.0090,-0.0015
159.4990,-0.5323,0.4198,-2.9095,-0.0057,0.0036,0.0000
159.5990,1.8112,-2.1451,-2.7492,-0.0013,0.0085,0.0025
159.6990,-1.4331,-1.2520,2.6096,0.0114,0.0036,-0.0063
159.7990,0.3532,1.2671,-0.0469,0.0002,0.0051,0.0127
159.8990,-0.5400,0.0687,1.6020,-0.0027,-0.0062,0.0054
159.9990,0.3379,-1.9313,0.3958,0.0017,-0.0032,-0.0078
160.0990,2.8723,0.4274,-0.2988,-0.0047,-0.0013,0.0044
160.1990,-0.9827,-0.3665,-3.4209,-0.0052,-0.0032,0.0054
160.2990,0.4677,0.5419,2.0676,0.0026,0.0085,-0.0044
160.3990,-0.4789,0.8320,0.3271,-0.0130,0.0055,-0.0005
160.4990,-1.2270,1.3893,1.1134,0.0022,0.0060,0.0103
160.5990,0.9104,-0.1069,-2.2148,0.0012,-0.0057,-0.0024
160.6990,-0.5400,-0.7634,0.9607,0.0051,-0.0101,-0.0063
160.7990,-1.2270,-2.2062,-1.3446,0.0114,-0.0008,-0.0088
160.8990,-1.0667,-2.0764,-1.3904,-0.0017,-0.0076,0.0000
160.9990,-0.3415,-0.6947,0.7088,0.0017,-0.0052,-0.0010
161.0990,-1.6239,-1.1375,-0.3064,-0.0047,-0.0106,0.0000
161.1990,1.9715,3.2595,-0.7187,-0.0022,-0.0042,-0.0112
161.2990,1.6661,5.3511,0.2661,-0.0013,-0.0062,-0.0068
161.3990,0.2539,0.9923,1.7317,-0.0027,0.0085,0.0098
161.4990,0.1929,-1.1527,0.9531,0.0017,-0.0086,-0.0088
161.5990,0.9104,-0.9466,0.2432,-0.0037,0.0002,-0.0058
161.6990,-0.9140,-0.5039,1.8233,-0.0003,-0.0028,-0.0029
161.7990,-1.6239,0.0534,2.0905,0.0002,0.0095,-0.0019
161.8990,1.0707,1.5190,1.3882,0.0051,0.0031,-0.0034
161.9990,-0.0285,-0.7405,0.0523,0.0100,-0.0150,0.0078
162.0990,-1.0132,-3.0306,0.2432,-0.0022,-0.0042,0.0005
162.1990,0.4219,-0.8245,2.7241,0.0119,-0.0018,0.0010
162.2990,0.9486,0.1145,-2.7568,0.0017,-0.0013,0.0039
162.3990,-0.7384,0.6488,-2.1156,-0.0110,0.0031,-0.0098
162.4990,0.2158,0.2748,2.0905,-0.0027,0.0055,0.0161
162.5990,1.2234,-0.5802,-1.8713,0.0026,0.0036,-0.0088
162.6990,1.2005,1.6793,-0.9477,0.0066,0.0080,-0.0107
162.7990,-1.7308,0.3816,-0.2225,-0.0066,-0.0018,-0.0044
162.8990,0.6814,-2.4352,-0.5278,0.0046,-0.0062,0.0083
162.9990,-2.2957,-0.5802,-0.0774,-0.0159,-0.0076,-0.0054
163.0990,2.5593,1.2748,-0.6652,0.0066,0.0055,0.0142
163.1990,0.4829,2.2671,-1.0851,0.0012,-0.0072,-0.0010
163.2990,-0.0056,0.3282,0.1287,0.0031,-0.0111,0.0137
163.3990,2.8417,1.9847,-1.3141,0.0002,0.0104,0.0039
163.4990,-1.4789,-0.6871,0.2355,0.0036,0.0124,0.0083
163.5990,-0.9674,-0.4275,-0.7721,-0.0110,0.0007,0.0029
163.6990,1.1013,-0.5878,1.3958,0.0183,-0.0072,-0.0049
163.7990,1.3150,2.9465,-0.9171,0.0114,-0.0032,0.0147
163.8990,-2.9980,0.3740,0.0905,0.0066,-0.0062,0.0020
163.9990,0.5898,-1.2901,3.6936,0.0080,0.0026,-0.0044
164.0990,-0.9522,2.1450,0.8920,-0.0052,0.0031,-0.0015
164.1990,-0.4178,-0.0153,0.4416,-0.0174,0.0036,-0.0054
164.2990,-0.6087,1.3893,1.0981,-0.0042,0.0021,0.0059
164.3990,0.9410,0.1068,-2.8713,-0.0057,0.0031,0.0064
164.4990,-0.8148,1.8778,1.3577,-0.0125,-0.0037,-0.0068
164.5990,-1.9903,1.8931,0.4951,0.0002,0.0002,0.0044
164.6990,0.9868,-0.7329,1.0294,0.0012,-0.0008,0.0127
164.7990,1.5058,0.5190,-1.8713,-0.0218,-0.0067,0.0000
164.8990,-0.5705,-1.1985,-3.0774,-0.0013,0.0031,0.0010
164.9990,0.7730,0.9771,2.0523,0.0066,0.0065,0.0078
165.0990,1.3303,0.3816,-2.4057,0.0041,0.0060,0.0073
165.1990,0.3913,1.2366,-0.3904,-0.0013,-0.0072,0.0000
165.2990,0.2081,-1.3283,2.8920,0.0012,-0.0057,-0.0019
165.3990,0.2692,-0.1451,0.5485,-0.0076,0.0134,-0.0083
165.4990,0.4142,-0.1527,0.0600,-0.0061,-0.0028,0.0005
165.5990,0.9028,0.9847,-1.2988,0.0051,0.0075,0.0010
165.6990,-2.1888,0.9771,3.4798,-0.0071,0.0007,-0.0098
165.7990,-1.0896,0.7480,0.4645,0.0085,0.0002,0.0078
165.8990,-0.3415,1.7938,-2.6881,-0.0125,-0.0115,0.0108
165.9990,-0.2194,-0.1680,0.7623,-0.0017,0.0036,-0.0039
166.0990,-4.3949,-1.0458,1.1363,0.0080,-0.0052,0.0093
166.1990,0.7730,-1.4581,-1.1309,0.0007,0.0051,0.0108
166.2990,0.0097,0.2442,-1.9400,0.0114,-0.0067,0.0020
166.3990,-0.2575,-0.7100,-0.1232,0.0051,0.0065,0.0034
166.4990,-2.1659,1.5648,-2.1690,0.0031,-0.0032,0.0049
166.5990,-1.5934,0.0992,0.7012,-0.0061,0.0007,0.0020
166.6990,-0.3720,0.5572,-0.7721,0.0134,-0.0037,0.0034
166.7990,-0.3873,-1.8016,0.9455,0.0134,-0.0047,0.0015
166.8990,2.2005,-0.9542,0.4416,-0.0100,0.0104,-0.0054
166.9990,-1.8148,1.7709,-0.5736,0.0002,-0.0076,0.0103
167.0990,-2.0896,0.6183,0.7470,-0.0022,0.0104,-0.0034
167.1990,-1.4407,-3.4352,-0.7034,0.0075,-0.0159,0.0068
167.2990,0.2005,1.1526,-1.5889,0.0046,-0.0003,0.0005
167.3990,1.3684,0.0992,-3.1309,-0.0042,0.0070,-0.0044
167.4990,1.0707,0.5572,-0.9935,-0.0032,-0.0032,0.0103
167.5990,0.1242,0.1755,0.1058,0.0026,-0.0008,-0.0010
167.6990,0.3608,0.2290,-0.0545,-0.0081,0.0007,0.0064
167.7990,1.0784,1.2442,1.3653,-0.0022,0.0075,0.0025
167.8990,-0.4865,0.2977,1.0981,0.0022,-0.0081,-0.0083
167.9990,2.6432,2.2748,-1.2225,-0.0037,0.0031,0.0029
168.0990,1.3684,-0.5726,-0.7568,0.0070,0.0090,0.0064
168.1990,-1.3491,-0.4352,2.0600,-0.0022,0.0021,-0.0098
168.2990,0.3608,-0.7558,-0.6042,-0.0076,0.0070,0.0029
168.3990,0.7806,-0.2749,-0.1080,0.0109,-0.0047,0.0098
168.4990,1.1013,-0.6642,0.1668,0.0051,-0.0013,-0.0019
168.5990,0.7654,-1.1375,0.9455,-0.0013,-0.0072,0.0015
168.6990,0.7348,-0.2978,-0.7645,0.0114,0.0051,-0.0010
168.7990,-0.3873,-0.0306,-0.5660,0.0031,0.0036,-0.0063
168.8990,-1.0667,-0.1451,1.2355,0.0085,-0.0047,0.0010
168.9990,-1.0132,-1.5878,0.1210,0.0012,-0.0057,0.0078
169.0990,1.6967,2.2595,2.1516,-0.0037,0.0041,0.0025
169.1990,1.1471,0.7099,-0.9400,-0.0013,0.0055,0.0078
169.2990,-1.1125,0.5877,0.4340,0.0012,0.0016,0.0015
169.3990,-0.5552,1.1068,2.1897,0.0002,-0.0091,0.0171
169.4990,1.1471,2.1068,-2.2759,-0.0110,0.0012,0.0049
169.5990,-0.5934,-3.2596,-0.4973,-0.0022,-0.0057,-0.0010
169.6990,1.5593,-0.9161,3.7394,-0.0047,0.0055,-0.0024
169.7990,2.1242,-0.4886,-0.4515,0.0031,0.0099,0.0064
169.8990,0.5822,-0.5955,-0.1690,-0.0076,-0.0062,0.0005
169.9990,-1.9598,-1.8168,-0.4438,0.0022,-0.0150,0.0020
170.0990,-0.7384,0.6641,0.7928,0.0061,0.0148,0.0059
170.1990,2.6051,-0.6031,0.0752,-0.0110,-0.0023,0.0049
170.2990,0.4448,0.0763,0.0065,-0.0042,0.0007,-0.0151
170.3990,-1.2804,-1.3894,0.9302,-0.0071,0.0002,-0.0088
170.4990,-0.1583,-1.6871,1.4645,0.0085,-0.0052,0.0005
170.5990,1.1852,1.8473,0.0142,0.0031,-0.0091,-0.0083
170.6990,-0.1430,2.2061,1.0523,0.0085,-0.0008,-0.0054
170.7990,-1.0514,-0.7176,1.1974,0.0036,0.0041,-0.0044
170.8990,0.7119,3.1755,-3.3828,0.0095,-0.0037,-0.0024
170.9990,1.0020,-0.9466,-0.9095,0.0056,0.0114,0.0015
171.0990,-1.2881,0.7404,-0.2606,-0.0017,0.0060,0.0025
171.1990,0.2539,1.2595,-0.9782,-0.0076,0.0168,0.0025
171.2990,1.7348,2.2442,1.0065,-0.0042,-0.0042,-0.0078
171.3990,1.5822,-1.6031,-0.9248,0.0031,-0.0018,0.0059
171.4990,-0.8911,-1.2672,-0.9782,-0.0032,-0.0052,-0.0049
171.5990,1.2692,0.8091,-2.0927,-0.0042,0.0012,-0.0029
171.6990,-0.8224,1.0458,-3.4973,-0.0071,-0.0047,0.0064
171.7990,1.4219,-0.6107,2.5180,0.0056,-0.0023,0.0049
171.8990,-0.1430,-1.0687,1.1439,-0.0115,0.0138,0.0103
171.9990,0.4066,2.0000,-1.4286,0.0105,0.0055,0.0132
172.0990,1.7883,-3.4657,0.6249,-0.0027,0.0021,-0.0044
172.1990,-0.1277,-1.1680,1.6630,0.0017,0.0104,0.0000
172.2990,0.9944,1.7633,0.4035,-0.0008,-0.0067,0.0068
172.3990,0.6280,1.3740,0.7928,0.0017,-0.0125,-0.0049
172.4990,-0.2728,0.4274,0.5027,0.0119,0.0036,0.0156
172.5990,-1.5476,0.5343,-1.1156,-0.0057,-0.0072,0.0039
172.6990,0.7348,-0.1985,0.7165,-0.0100,-0.0008,-0.0078
172.7990,0.0402,1.4580,-2.1385,-0.0115,-0.0003,0.0010
172.8990,-0.6392,-1.0077,-1.6271,-0.0081,0.0065,0.0230
172.9990,2.5974,-0.2291,-0.1309,-0.0052,0.0021,0.0010
173.0990,0.3303,-1.6184,0.9684,0.0061,0.0016,-0.0019
173.1990,-2.6163,-0.9390,1.9913,-0.0003,0.0060,-0.0058
173.2990,1.2005,0.6335,-0.3141,-0.0135,0.0119,-0.0049
173.3990,-0.4407,0.9923,-1.4744,-0.0105,0.0060,-0.0029
173.4990,0.0173,-0.1680,1.4493,0.0036,0.0036,0.0025
173.5990,-1.1201,-4.0153,0.9226,-0.0066,0.0041,-0.0010
173.6990,1.6585,3.6946,-0.2072,0.0031,-0.0032,0.0073
173.7990,0.8723,0.9694,-0.6423,0.0129,0.0012,-0.0029
173.8990,0.3150,0.0076,0.9073,-0.0008,-0.0028,0.0088
173.9990,-3.1277,-2.2749,-0.0087,0.0109,-0.0013,-0.0063
174.0990,0.1929,2.6412,0.9302,-0.0096,-0.0003,0.0108
174.1990,2.4600,-0.8016,0.8004,0.0046,-0.0037,0.0005
174.2990,-1.1888,-3.6336,1.2355,0.0007,0.0021,0.0088
174.3990,-0.9598,-1.3283,0.5943,-0.0003,-0.0067,-0.0151
174.4990,-0.6621,-1.5268,-1.6576,0.0002,-0.0145,-0.0049
174.5990,-0.8148,1.6335,-0.0545,0.0017,0.0007,-0.0005
174.6990,1.0555,0.6335,1.1821,-0.0037,0.0026,0.0034
174.7990,1.4219,-3.1985,-0.3675,0.0002,0.0090,0.0078
174.8990,0.8341,0.5725,0.3271,-0.0125,0.0016,-0.0063
174.9990,-1.4255,-0.7176,-0.5889,0.0139,0.0119,-0.0019
175.0990,-1.2423,-1.2672,1.2203,0.0066,0.0012,0.0000
175.1990,1.4829,1.5496,-0.6500,-0.0032,-0.0057,0.0000
175.2990,0.9868,0.6564,-2.4744,-0.0017,0.0021,0.0064
175.3990,-0.6316,0.9084,2.0752,-0.0022,-0.0042,0.0142
175.4990,1.6967,0.2671,-1.3293,-0.0037,0.0075,0.0103
175.5990,0.8188,1.7022,-3.3141,0.0046,-0.0028,-0.0015
175.6990,-1.8835,-0.3588,-1.3370,-0.0027,0.0036,-0.0058
175.7990,-0.7308,-3.6107,1.0829,0.0090,0.0104,0.0068
175.8990,0.2539,-0.5802,-0.2301,-0.0003,0.0036,0.0054
175.9990,0.7883,0.2061,-1.1080,0.0085,-0.0101,0.0054
176.0990,1.8188,-0.1145,-0.9248,-0.0022,0.0065,-0.0010
176.1990,-0.1735,-0.3741,1.1363,-0.0037,-0.0076,0.0068
176.2990,1.0631,-0.1298,1.2432,0.0080,-0.0052,0.0044
176.3990,-0.5094,-0.1527,-0.7339,-0.0091,0.0134,0.0078
176.4990,-1.2423,-0.1145,2.7699,0.0124,-0.0028,0.0068
176.5990,0.1700,0.1679,1.4416,-0.0037,-0.0008,0.0064
176.6990,2.5364,2.9389,2.5409,0.0041,0.0055,0.0005
176.7990,-1.4331,0.7786,2.0142,0.0007,-0.0003,-0.0107
176.8990,-0.1735,0.8473,-0.6271,0.0007,-0.0062,-0.0122
176.9990,0.3684,2.5267,-0.9477,-0.0008,-0.0091,-0.0034
177.0990,0.3226,1.7022,-1.0698,-0.0022,-0.0052,0.0039
177.1990,0.7272,-0.3741,0.2432,-0.0047,-0.0003,-0.0068
177.2990,1.2692,1.1526,0.2432,0.0022,-0.0101,0.0068
177.3990,-0.6316,-0.2901,-1.2148,0.0026,0.0080,0.0025
177.4990,-1.4560,0.9313,0.9378,0.0051,-0.0008,0.0034
177.5990,1.7272,-0.7481,-0.6118,0.0114,0.0134,0.0010
177.6990,2.2997,1.2977,-2.1309,0.0056,-0.0013,0.0122
177.7990,-0.2423,-3.0535,0.6630,0.0105,-0.0037,0.0020
177.8990,-0.3415,1.5190,0.4340,0.0051,0.0060,0.0005
177.9990,0.0860,0.3664,0.8462,0.0007,0.0129,0.0029
178.0990,2.3455,2.1145,-0.6347,0.0075,0.0090,-0.0024
178.1990,-0.0743,-0.3436,0.7317,0.0031,0.0090,0.0015
178.2990,-1.3262,-1.3970,1.8233,0.0036,-0.0028,0.0000
178.3990,-0.3262,-0.1527,-1.2835,-0.0017,-0.0164,-0.0044
178.4990,0.0936,-0.9848,-0.4057,0.0066,-0.0018,0.0005
178.5990,-1.3797,-0.4428,0.4569,-0.0047,0.0031,0.0059
178.6990,-0.5400,0.4580,1.8768,0.0051,-0.0096,-0.0039
178.7990,2.6738,-3.3512,-0.2835,0.0046,0.0007,-0.0054
178.8990,-0.3797,1.8015,0.3577,-0.0100,0.0046,-0.0054
178.9990,-1.3644,-1.2443,2.1745,0.0012,0.0090,-0.0117
179.0990,2.1547,1.0305,0.8997,-0.0047,0.0138,-0.0010
179.1990,1.9257,0.4732,0.0142,0.0031,-0.0003,-0.0058
179.2990,-1.7003,-0.7405,0.8081,-0.0017,-0.0028,0.0073
179.3990,-1.1583,-2.5191,-1.7568,-0.0027,-0.0057,0.0025
179.4990,-1.6926,1.7862,0.4035,0.0046,-0.0003,0.0029
179.5990,-0.8529,-0.4733,-0.7645,0.0119,-0.0032,-0.0029
179.6990,-1.8071,0.1679,-0.5507,0.0002,-0.0057,0.0088
179.7990,0.2234,-1.1756,0.8768,-0.0115,0.0060,0.0108
179.8990,-0.3644,0.6946,-2.8103,-0.0042,0.0129,-0.0015
179.9990,-0.4484,-2.5268,-1.6423,0.0012,-0.0101,0.0025
180.0990,-1.5018,-1.6184,0.6783,-0.0105,-0.0008,0.0103
180.1990,0.6051,2.6870,-1.4133,0.0017,0.0002,0.0098
180.2990,1.7043,-0.4810,0.5333,-0.0100,0.0080,0.0025
180.3990,-0.7232,-2.7710,1.7852,-0.0086,-0.0091,0.0025
180.4990,0.0020,-0.2672,1.5180,0.0041,0.0080,-0.0005
180.5990,-0.2728,0.4732,-2.8026,0.0085,-0.0125,0.0010
180.6990,1.9410,1.1908,-2.0774,-0.0110,-0.0130,-0.0015
180.7990,-0.3720,1.6946,0.8768,0.0036,0.0012,0.0112
180.8990,0.0631,-0.7481,-1.1538,0.0036,-0.0052,0.0029
180.9990,1.2387,0.2671,-1.1080,-0.0081,0.0080,-0.0015
181.0990,-0.0132,-0.5268,0.6936,-0.0008,0.0016,-0.0049
181.1990,-0.7003,-0.1375,0.4645,-0.0003,0.0070,0.0005
181.2990,1.3455,-0.7329,-1.0545,0.0144,0.0070,0.0000
181.3990,-0.1354,0.5038,-0.6118,-0.0061,-0.0013,0.0068
181.4990,-0.9827,0.9465,2.0981,0.0036,-0.0091,0.0039
181.5990,-1.6010,0.0076,-0.9324,-0.0110,0.0129,-0.0058
181.6990,1.0555,0.7099,-2.7339,0.0144,0.0007,-0.0019
181.7990,-1.2957,-0.2291,2.6478,-0.0061,-0.0008,0.0029
181.8990,1.6203,-0.5497,0.0905,0.0080,-0.0003,0.0020
181.9990,0.1165,0.6259,-1.7568,-0.0110,-0.0003,-0.0034
182.0990,2.5745,0.9923,-1.2377,-0.0066,-0.0062,-0.0117
182.1990,-1.2423,-2.0000,-1.1919,-0.0052,0.0031,-0.0098
182.2990,-1.3568,-1.4886,-0.5584,0.0012,-0.0086,0.0147
182.3990,1.7806,0.1068,2.0142,0.0002,0.0031,-0.0068
182.4990,1.6661,1.1984,-0.6347,-0.0081,-0.0120,0.0068
182.5990,0.4982,-1.0000,2.7623,-0.0022,0.0007,0.0000
182.6990,0.9104,-0.3970,1.3500,-0.0208,0.0085,-0.0039
182.7990,-0.0896,1.0076,-0.3751,0.0119,0.0070,-0.0019
182.8990,-1.3110,2.4045,0.5485,-0.0037,0.0012,0.0059
182.9990,-0.8071,-1.0611,0.9073,0.0105,-0.0111,-0.0044
183.0990,0.0936,-0.3894,-1.0698,-0.0203,0.0026,-0.0073
183.1990,1.1700,-2.1069,1.2737,0.0041,0.0051,0.0098
183.2990,-0.8606,1.6335,0.6325,-0.0188,0.0036,-0.0029
183.3990,1.9486,1.6335,-0.9248,0.0022,-0.0106,-0.0058
183.4990,1.1776,0.7404,-2.1003,-0.0022,-0.0081,-0.0073
183.5990,0.9562,0.2061,0.9607,0.0002,0.0036,-0.0054
183.6990,-1.6087,-3.7100,0.3500,-0.0037,-0.0101,-0.0063
183.7990,1.4448,2.1145,-1.3522,0.0100,0.0016,0.0093
183.8990,1.1852,2.1603,-1.4667,0.0017,0.0026,0.0044
183.9990,-0.5552,0.5114,-0.6805,0.0017,-0.0062,-0.0044
184.0990,0.1776,-0.7405,-0.6881,0.0051,-0.0067,-0.0039
184.1990,2.2616,1.3358,-0.4362,0.0012,0.0075,0.0000
184.2990,0.3990,-0.1604,0.1745,-0.0027,0.0124,0.0049
184.3990,-1.6697,0.0534,-0.0393,-0.0037,-0.0106,0.0078
184.4990,0.1165,-0.0535,-0.9171,-0.0017,-0.0028,0.0025
184.5990,-0.0819,-1.0993,0.3882,0.0061,0.0021,-0.0015
184.6990,-1.2957,1.6259,-0.9400,-0.0027,-0.0086,0.0025
184.7990,0.7425,-2.4810,0.7546,0.0007,0.0016,-0.0005
184.8990,1.0860,-0.2443,-1.4591,-0.0071,0.0143,-0.0039
184.9990,1.2310,0.9465,-2.0469,0.0075,-0.0052,0.0108
185.0990,0.7806,0.0839,1.0142,0.0070,-0.0096,-0.0078
185.1990,1.2692,0.3053,1.6401,0.0085,-0.0062,0.0044
185.2990,0.9028,-0.7481,-3.5889,-0.0022,0.0002,0.0073
185.3990,-0.6545,-1.5573,1.3806,-0.0091,0.0036,0.0122
185.4990,0.2081,0.4122,2.0752,-0.0022,-0.0028,-0.0049
185.5990,1.6967,0.4351,0.8539,0.0012,0.0046,-0.0078
185.6990,1.0249,1.4580,1.7241,-0.0017,0.0002,-0.0058
185.7990,-0.8377,-1.8321,-0.6271,0.0031,0.0041,-0.0088
185.8990,-2.3186,1.6412,-0.3904,0.0075,-0.0028,0.0034
185.9990,-0.4255,4.0381,-0.1996,-0.0125,0.0012,0.0029
186.0990,-0.1354,-1.2672,1.9378,-0.0022,-0.0076,0.0010
186.1990,-1.6926,-0.5649,2.5943,0.0066,0.0012,-0.0078
186.2990,-0.7766,-0.5039,2.3042,-0.0042,-0.0091,0.0029
186.3990,1.7883,-0.0764,-3.1919,-0.0013,0.0007,-0.0015
186.4990,-0.4636,-0.8245,1.9149,0.0022,0.0036,0.0000
186.5990,-0.3873,-0.1604,3.5409,0.0051,-0.0057,0.0054
186.6990,2.8723,1.5725,-1.6881,-0.0037,0.0114,0.0103
186.7990,1.0936,0.6412,-0.1843,0.0051,-0.0052,-0.0127
186.8990,-0.8300,0.2519,0.5104,-0.0017,0.0041,-0.0015
186.9990,-0.1812,-0.4810,-0.5202,-0.0071,0.0070,-0.0098
187.0990,0.3303,1.9236,-0.6652,-0.0022,0.0095,0.0181
187.1990,0.4448,0.8091,1.4645,0.0007,-0.0076,-0.0019
187.2990,-0.0361,-0.7329,1.1897,0.0036,0.0090,0.0044
187.3990,0.7806,0.1526,1.8081,-0.0091,0.0031,-0.0034
187.4990,0.9562,3.0992,0.4569,-0.0032,0.0070,0.0005
187.5990,-0.5858,0.5801,-0.2530,-0.0061,0.0051,0.0000
187.6990,-0.7690,-1.7176,0.6554,0.0022,-0.0003,0.0034
187.7990,0.5211,-0.5955,1.4416,-0.0037,0.0085,0.0025
187.8990,-0.1048,-0.8321,3.1439,0.0036,0.0046,0.0044
187.9990,-1.7003,-1.0000,1.2279,-0.0022,-0.0023,-0.0015
188.0990,0.3532,2.8091,-3.4133,-0.0047,0.0012,-0.0083
188.1990,-0.0285,-0.4504,-2.1156,-0.0057,-0.0028,-0.0083
188.2990,-2.3873,-1.2138,2.5485,-0.0081,0.0241,0.0029
188.3990,-1.2423,-1.7634,-1.5965,-0.0052,0.0080,-0.0044
188.4990,0.9257,-1.6794,0.3195,0.0066,-0.0174,0.0044
188.5990,2.0402,1.7709,-0.3141,0.0007,0.0016,-0.0039
188.6990,-0.7995,-0.9771,1.1745,0.0066,0.0075,0.0005
188.7990,-0.3568,-1.4275,-0.6500,-0.0091,-0.0057,0.0005
188.8990,-0.2804,-0.4352,0.2890,-0.0008,-0.0057,0.0122
188.9990,-0.8224,-0.6413,0.3882,-0.0091,-0.0130,0.0093
189.0990,-0.7842,-0.0382,2.4951,-0.0057,-0.0042,0.0054
189.1990,0.2997,2.4732,0.6478,-0.0110,0.0090,0.0034
189.2990,-0.0361,-0.2596,-1.1156,-0.0061,0.0104,-0.0127
189.3990,0.3455,-1.9008,-0.5278,-0.0071,0.0007,-0.0107
189.4990,0.1165,0.8015,1.7546,0.0041,-0.0052,0.0054
189.5990,0.8188,1.0000,-3.2530,0.0100,-0.0047,-0.0054
189.6990,0.4371,-0.8245,0.9149,-0.0081,0.0148,-0.0083
189.7990,-0.6545,1.0000,-0.3675,0.0017,0.0153,-0.0024
189.8990,1.5135,-0.0000,-0.5355,-0.0017,0.0031,0.0034
189.9990,0.9562,1.1908,0.0371,-0.0017,-0.0057,0.0005
190.0990,-1.3262,-1.2214,-0.0622,-0.0120,-0.0067,0.0005
190.1990,-1.0438,0.8473,-0.7034,0.0105,-0.0086,-0.0029
190.2990,1.3608,2.9160,-1.5660,0.0031,-0.0037,-0.0054
190.3990,-0.4026,0.3129,-1.7492,0.0139,0.0075,-0.0019
190.4990,-1.3797,0.3282,-0.8103,0.0070,0.0143,-0.0039
190.5990,1.2158,-1.0458,-1.9553,-0.0003,-0.0047,0.0054
190.6990,1.9791,1.7480,0.2890,-0.0032,-0.0037,-0.0117
190.7990,-0.4178,-1.8474,-0.1767,0.0085,-0.0003,0.0010
190.8990,-2.4178,0.1450,2.4493,-0.0081,-0.0008,-0.0063
190.9990,0.2845,0.7480,-2.4820,0.0105,0.0041,-0.0024
191.0990,1.2081,4.7022,-2.4515,0.0046,0.0016,-0.0039
191.1990,-0.9598,-1.5878,-0.0927,-0.0110,0.0026,-0.0039
191.2990,0.9486,-1.3512,0.2355,0.0061,0.0026,0.0029
191.3990,-0.6392,1.0610,-0.8103,-0.0100,-0.0003,0.0093
191.4990,-0.4484,-1.4886,-0.1614,0.0061,0.0012,0.0054
191.5990,-1.2270,-0.8397,-0.5202,-0.0154,-0.0042,-0.0015
191.6990,1.1165,-1.2978,-2.6500,0.0017,-0.0062,0.0083
191.7990,1.7272,2.2290,0.8157,0.0007,-0.0067,-0.0010
191.8990,-0.3644,2.8702,-1.0851,-0.0032,0.0051,-0.0117
191.9990,-0.2194,1.3740,-0.0698,0.0007,-0.0057,0.0127
192.0990,1.1242,3.8396,-1.6652,-0.0032,0.0065,0.0000
192.1990,-1.7842,-0.5420,2.3042,-0.0081,0.0031,0.0078
192.2990,-1.2041,-2.2901,0.4493,-0.0003,-0.0047,0.0117
192.3990,0.1394,-0.6489,-3.5278,-0.0013,-0.0062,-0.0015
192.4990,-0.0819,0.9007,0.9149,-0.0017,-0.0052,-0.0049
192.5990,-0.6926,-1.4123,-0.4820,0.0080,0.0036,0.0059
192.6990,-1.1125,0.7022,2.8157,0.0041,-0.0018,0.0039
192.7990,1.1852,-0.1833,-2.0316,-0.0022,0.0021,0.0083
192.8990,-0.8300,-0.8779,-0.8866,-0.0037,-0.0072,0.0112
192.9990,0.5822,0.8244,1.8081,-0.0027,-0.0028,0.0078
193.0990,0.8723,1.7099,-2.3751,0.0002,-0.0140,-0.0039
193.1990,1.7425,-1.0764,0.6020,-0.0047,0.0055,-0.0005
193.2990,-0.8529,0.3206,0.5027,-0.0081,-0.0037,0.0083
193.3990,0.7501,-0.3436,1.5867,-0.0086,-0.0042,0.0025
193.4990,0.3532,0.7786,-0.1919,-0.0052,0.0002,-0.0005
193.5990,0.3074,0.7404,-2.5736,0.0066,-0.0032,-0.0034
193.6990,0.7730,-1.5726,2.9989,-0.0057,-0.0032,0.0034
193.7990,-1.8606,-0.6107,2.3958,-0.0100,-0.0184,-0.0088
193.8990,0.1547,0.5038,-1.9019,-0.0013,-0.0042,0.0073
193.9990,-0.3491,1.1297,0.5256,-0.0071,-0.0067,-0.0093
194.0990,-1.0972,-2.4123,0.3882,-0.0081,0.0085,0.0034
194.1990,-1.1735,-0.2214,0.3500,-0.0159,0.0114,0.0010
194.2990,2.2921,-1.5649,-0.4820,-0.0071,0.0012,0.0147
194.3990,-1.7690,-0.6184,0.9226,-0.0047,0.0114,0.0122
194.4990,1.0860,-0.4428,3.2661,0.0051,-0.0067,-0.0068
194.5990,0.0860,-0.5497,-0.5125,0.0075,0.0046,0.0010
194.6990,1.2234,0.3664,0.2203,-0.0120,0.0002,0.0034
194.7990,-1.9216,-0.5802,0.0600,0.0061,0.0007,-0.0058
194.8990,-2.0132,-1.6642,-0.3446,0.0105,-0.0008,0.0010
194.9990,2.2463,2.5954,-1.9629,-0.0135,-0.0159,-0.0058
195.0990,0.0784,-1.0153,2.3882,0.0002,0.0036,0.0108
195.1990,-0.3110,-1.2520,-0.2606,-0.0003,-0.0047,0.0029
195.2990,0.7654,0.6717,-1.1232,0.0061,0.0060,0.0005
195.3990,-0.5171,-0.4199,-1.8561,0.0051,-0.0003,-0.0102
195.4990,0.4677,0.0687,1.3653,-0.0042,0.0134,-0.0141
195.5990,-0.7384,-4.4733,1.5867,-0.0052,0.0002,0.0112
195.6990,2.0173,-0.5878,-0.6576,-0.0017,-0.0037,0.0073
195.7990,0.9944,2.5954,3.2737,0.0080,0.0060,-0.0015
195.8990,-1.5629,-2.3512,0.2203,0.0075,0.0129,0.0020
195.9990,-0.1430,0.6259,-0.1538,0.0022,-0.0072,-0.0176
196.0990,0.8646,2.1832,-1.5202,0.0066,0.0041,0.0054
196.1990,-2.2499,-1.1680,0.1210,0.0007,-0.0013,0.0112
196.2990,-1.7003,-2.7176,1.5562,0.0080,-0.0023,0.0054
196.3990,1.2768,-0.3588,-1.9171,-0.0037,-0.0169,0.0088
196.4990,0.5669,-0.9695,-0.2759,-0.0042,-0.0062,0.0073
196.5990,-1.9216,-0.5955,-0.1614,-0.0037,-0.0032,-0.0083
196.6990,2.8570,1.7557,1.0981,0.0026,-0.0076,-0.0058
196.7990,0.9028,-2.0764,-0.8713,0.0114,0.0016,0.0025
196.8990,0.6280,1.0000,0.5562,0.0026,0.0055,0.0078
196.9990,0.0936,1.2824,-1.1767,0.0002,0.0065,-0.0029
197.0990,0.5516,1.2213,-1.3522,-0.0013,-0.0042,0.0000
197.1990,0.8417,3.5801,-0.3828,-0.0120,-0.0101,-0.0039
197.2990,1.1471,-2.7252,-1.3751,-0.0086,-0.0047,-0.0005
197.3990,-1.8911,-1.2367,0.2508,0.0036,-0.0032,0.0015
197.4990,1.3913,-0.1375,0.8310,-0.0110,-0.0018,-0.0049
197.5990,0.7425,-2.4504,0.6478,0.0046,0.0016,0.0029
197.6990,-0.3720,-0.0611,-1.2301,-0.0032,0.0060,0.0025
197.7990,0.1089,0.9160,-0.4057,-0.0003,0.0148,0.0039
197.8990,2.6814,1.4961,0.4416,-0.0008,0.0148,-0.0088
197.9990,1.9791,-1.2138,1.6325,0.0163,-0.0023,0.0059
198.0990,-0.6697,0.1221,2.6859,-0.0008,-0.0018,0.0068
198.1990,0.2845,0.8091,-1.4515,-0.0091,-0.0101,-0.0039
198.2990,-1.0056,-0.5726,0.5027,-0.0047,0.0090,0.0005
198.3990,-1.6239,-0.6413,2.2737,-0.0227,0.0134,-0.0024
198.4990,-1.0285,1.6641,0.3729,-0.0091,-0.0013,0.0039
198.5990,1.1929,-0.7481,0.2661,-0.0066,-0.0106,-0.0132
198.6990,-0.6468,-1.7405,1.2355,0.0022,0.0012,0.0054
198.7990,0.1013,-1.9008,1.3958,-0.0086,-0.0003,0.0078
198.8990,0.8112,1.6259,-1.7874,0.0139,-0.0032,-0.0034
198.9990,-1.3033,2.8396,1.1745,-0.0081,-0.0081,-0.0107
199.0990,-0.8606,0.9847,2.2355,0.0095,0.0012,-0.0029
199.1990,-1.5476,-2.7252,3.0294,0.0031,-0.0013,-0.0010
199.2990,-2.2804,0.2213,0.9760,0.0036,0.0007,-0.0044
199.3990,-0.7690,-1.1909,0.9760,0.0026,0.0090,-0.0102
199.4990,-0.3797,-2.2749,2.7775,0.0075,-0.0042,-0.0049
199.5990,-1.5705,1.1145,-0.9171,0.0026,-0.0155,0.0015
199.6990,0.5898,1.4122,-1.6118,0.0095,0.0026,0.0020
199.7990,0.5211,0.3282,-0.8255,-0.0013,-0.0067,-0.0049
199.8990,-0.6163,-1.5268,-0.3064,0.0012,0.0124,0.0000
199.9990,0.0707,0.6335,-0.7797,-0.0052,-0.0028,-0.0054
200.0990,-0.6621,-0.4275,0.3119,-0.0057,0.0060,-0.0044
200.1990,-0.2652,-1.1298,1.6783,0.0022,0.0138,0.0083
200.2990,0.7730,0.5954,-2.4515,-0.0013,0.0021,0.0000
200.3990,0.7348,0.4809,-1.4973,0.0017,0.0090,-0.0063
200.4990,-1.9751,0.2977,-0.2301,0.0041,-0.0047,0.0098
200.5990,-1.3644,0.6183,1.1592,0.0066,-0.0037,0.0025
200.6990,1.5211,-0.2443,-0.6423,0.0022,-0.0018,-0.0019
200.7990,1.3913,-1.6489,-0.7034,-0.0061,-0.0062,0.0015
200.8990,-0.6239,-2.1756,-1.3370,0.0100,0.0036,-0.0019
200.9990,1.3990,-1.4428,-0.0698,0.0022,-0.0086,-0.0019
201.0990,-0.4865,1.0992,1.5256,-0.0017,-0.0003,0.0015
201.1990,0.4371,-0.5955,0.9455,0.0012,-0.0067,-0.0005
201.2990,0.0097,0.6793,-0.6576,-0.0135,-0.0062,0.0059
201.3990,1.1318,0.7557,-1.4591,0.0036,0.0002,0.0015
201.4990,-0.2117,-1.0458,0.7088,0.0017,-0.0081,-0.0010
201.5990,-1.0132,-0.1680,0.1745,-0.0061,0.0051,-0.0010
201.6990,0.0249,-0.7176,1.4264,-0.0013,-0.0013,0.0078
201.7990,-0.0132,1.0381,-0.1843,0.0012,-0.0003,0.0073
201.8990,0.0860,-1.1069,0.8462,-0.0008,0.0099,-0.0015
201.9990,-1.4331,-0.3054,0.3500,-0.0037,-0.0028,0.0010
202.0990,-1.3720,2.3969,-1.7339,-0.0140,-0.0023,0.0088
202.1990,0.5440,-2.6794,0.6630,-0.0096,-0.0076,0.0005
202.2990,0.3226,-0.7252,0.0523,0.0002,0.0085,0.0000
202.3990,-0.2957,2.3587,-0.2835,0.0178,-0.0042,-0.0044
202.4990,1.5822,1.8091,-1.8179,0.0012,0.0080,0.0098
202.5990,-0.3797,2.6488,0.1516,0.0026,-0.0028,-0.0010
202.6990,-1.7613,-2.1909,1.5791,0.0022,0.0031,-0.0044
202.7990,1.6432,4.6717,-2.1767,0.0007,-0.0018,-0.0019
202.8990,0.9333,1.7251,1.4645,0.0109,-0.0115,-0.0029
202.9990,-0.5018,-2.6336,1.2813,0.0036,0.0007,0.0073
203.0990,0.5516,-1.0382,0.5867,-0.0086,0.0080,0.0020
203.1990,0.4753,2.4274,1.0600,0.0090,-0.0076,0.0068
203.2990,0.3379,3.7633,-4.0011,-0.0022,-0.0013,-0.0039
203.3990,-0.9140,-1.2672,0.2355,0.0036,-0.0106,-0.0088
203.4990,0.1471,0.8473,0.2584,-0.0052,0.0085,-0.0015
203.5990,-0.5705,-0.5726,-1.3217,0.0090,-0.0096,-0.0049
203.6990,-1.2728,-0.6947,-0.9782,-0.0057,0.0012,-0.0019
203.7990,-3.3873,-0.9390,3.8233,0.0012,0.0002,0.0059
203.8990,1.4219,-1.0382,0.8920,0.0095,-0.0023,-0.0015
203.9990,1.8188,-1.0916,-1.7339,-0.0164,0.0051,0.0044
204.0990,1.3379,-0.0153,2.4722,0.0031,0.0012,-0.0093
204.1990,-0.3797,-0.1222,-0.6576,-0.0081,-0.0130,0.0049
204.2990,1.1547,-0.7329,0.1439,0.0085,0.0012,0.0068
204.3990,1.1242,0.6106,-0.7721,-0.0022,0.0026,0.0054
204.4990,0.2921,-2.1451,2.1287,0.0007,-0.0101,0.0044
204.5990,1.3303,1.2977,0.3195,0.0066,-0.0072,0.0005
204.6990,1.9104,-0.5191,-0.5889,-0.0057,0.0031,0.0044
204.7990,-0.6392,-0.2825,-1.4133,0.0056,-0.0037,-0.0015
204.8990,1.8952,-1.3359,0.0447,0.0095,0.0031,0.0044
204.9990,-0.6621,-0.5802,-0.7187,0.0036,-0.0052,0.0093
205.0990,1.4753,2.1603,-0.0469,-0.0076,0.0051,0.0015
205.1990,-0.3873,-2.2825,1.4111,0.0012,-0.0013,0.0000
205.2990,1.3455,-0.5420,2.6096,0.0012,-0.0018,0.0010
205.3990,1.5516,-0.5420,-4.2912,0.0002,0.0109,0.0020
205.4990,-0.5705,-0.6871,1.8310,0.0051,0.0046,0.0020
205.5990,-0.0667,-2.8779,0.3882,0.0036,0.0070,-0.0088
205.6990,-2.2194,-2.0153,0.6249,-0.0066,0.0075,0.0073
205.7990,-1.1125,2.4580,0.0218,0.0022,-0.0008,-0.0044
205.8990,-1.2270,0.5343,2.2966,0.0012,-0.0003,-0.0093
205.9990,-1.4865,0.5648,0.6401,-0.0057,0.0129,-0.0029
206.0990,0.6661,0.8244,-0.4286,0.0056,0.0104,0.0005
206.1990,-0.0438,-0.1069,-3.1996,0.0012,0.0124,0.0039
206.2990,0.0402,-1.7176,-0.5355,-0.0179,0.0051,-0.0049
206.3990,-0.5552,0.7786,0.0829,-0.0017,-0.0037,0.0103
206.4990,0.7883,-0.8397,-0.8790,-0.0105,-0.0057,0.0039
206.5990,0.7425,-1.1527,-0.5278,-0.0091,-0.0081,0.0034
206.6990,-0.0285,-0.6565,1.0676,-0.0037,-0.0013,-0.0034
206.7990,-0.5705,-0.4199,-1.2530,0.0129,-0.0028,0.0034
206.8990,0.2387,-2.1833,-0.4057,0.0061,0.0075,0.0059
206.9990,-0.9827,-1.6871,-0.2759,-0.0037,0.0104,-0.0019
207.0990,-0.3644,1.2290,-1.5584,-0.0100,0.0178,0.0073
207.1990,1.0173,2.7633,0.6783,-0.0071,0.0109,-0.0019
207.2990,-0.7919,-1.0000,3.1974,-0.0169,-0.0028,-0.0054
207.3990,-1.3491,-1.2825,-0.1156,-0.0105,0.0060,-0.0015
207.4990,0.6509,-0.8932,1.0142,0.0012,0.0080,0.0112
207.5990,0.6356,0.8625,-1.2759,-0.0047,0.0007,0.0073
207.6990,-1.7232,0.0152,-1.5202,0.0007,-0.0076,0.0039
207.7990,-1.6926,-0.9466,0.4645,0.0090,0.0075,-0.0049
207.8990,0.4753,0.2671,0.7394,0.0036,-0.0130,-0.0034
207.9990,0.4600,0.6106,-0.4820,-0.0037,0.0080,-0.0005
208.0990,-1.1277,-0.1069,1.7317,-0.0027,-0.0032,-0.0010
208.1990,-0.4026,1.8473,0.5562,-0.0057,0.0051,-0.0049
208.2990,0.7654,0.2977,-0.5660,-0.0081,-0.0076,-0.0029
208.3990,1.3608,-0.1756,1.3119,-0.0017,-0.0081,-0.0005
208.4990,0.1852,-0.8397,1.4493,-0.0027,0.0207,-0.0107
208.5990,-2.0209,0.0152,0.6936,-0.0076,-0.0003,0.0029
208.6990,0.3226,0.4351,0.2813,0.0149,-0.0155,0.0000
208.7990,-0.2423,0.5877,3.2050,-0.0013,0.0143,-0.0146
208.8990,-1.0132,-1.5344,1.5333,-0.0100,0.0055,0.0044
208.9990,-0.5781,-0.1909,-0.7492,0.0017,0.0016,-0.0015
209.0990,-1.5858,-2.5726,0.9760,0.0022,-0.0037,0.0025
209.1990,-0.3491,-0.0611,0.8157,-0.0047,0.0026,0.0093
209.2990,-0.7995,0.3358,1.5485,-0.0008,0.0051,-0.0044
209.3990,-0.0132,2.6870,-1.3980,0.0031,-0.0101,0.0029
209.4990,0.1471,-1.9619,-0.3370,0.0041,0.0016,0.0020
209.5990,0.4371,-2.7405,0.6096,-0.0125,0.0080,0.0020
209.6990,-0.5934,4.4656,-0.6958,-0.0047,-0.0169,-0.0010
209.7990,-0.0972,-0.4733,1.0600,-0.0032,0.0026,-0.0039
209.8990,0.4906,0.2977,1.4875,-0.0100,-0.0057,-0.0024
209.9990,-0.5171,2.3893,-0.4896,0.0022,0.0065,-0.0024
210.0990,0.4371,1.3129,-0.7721,0.0080,-0.0018,0.0117
210.1990,0.6661,-0.5878,0.1439,0.0090,-0.0013,0.0078
210.2990,0.8646,-1.2749,-0.5049,0.0031,0.0051,-0.0039
210.3990,-0.4636,-0.8855,-1.0622,0.0012,-0.0135,-0.0093
210.4990,-0.9751,-0.1756,2.6325,-0.0081,0.0021,0.0005
210.5990,-0.0896,-2.1145,-0.2912,0.0046,0.0012,0.0039
210.6990,0.3761,-0.1145,-1.7874,-0.0047,-0.0052,0.0010
210.7990,0.0860,-0.3665,-1.0774,-0.0017,-0.0032,0.0000
210.8990,-1.2652,0.1908,-1.1080,0.0095,0.0080,-0.0093
210.9990,-1.1048,-0.8168,0.7317,-0.0096,-0.0003,0.0039
211.0990,0.5669,-0.1833,3.0294,-0.0003,-0.0023,-0.0137
211.1990,1.9944,-2.2749,-2.7110,0.0041,0.0046,-0.0093
211.2990,-0.2041,-0.9313,0.8768,-0.0052,0.0016,0.0064
211.3990,-1.0667,1.8855,0.8233,-0.0017,0.0007,-0.0029
211.4990,1.8112,0.1984,0.4035,0.0168,-0.0101,0.0064
211.5990,0.8417,-0.4733,3.9913,0.0036,0.0002,0.0010
211.6990,-1.9216,-2.0535,-0.3980,0.0012,0.0158,0.0010
211.7990,-0.3491,-1.4962,-0.8103,0.0046,-0.0052,-0.0005
211.8990,0.5669,0.6793,1.7852,-0.0013,-0.0047,0.0034
211.9990,-0.2881,-1.6107,0.2661,-0.0052,0.0129,-0.0073
212.0990,-0.3797,-0.9161,1.0371,-0.0013,-0.0096,0.0108
212.1990,-0.3110,-0.3207,-1.0774,-0.0042,0.0031,-0.0039
212.2990,0.5593,-1.3283,-0.4896,-0.0144,0.0012,0.0142
212.3990,0.7425,-2.3130,0.6172,0.0183,0.0055,0.0083
212.4990,0.6890,1.0305,-0.3904,0.0051,0.0026,0.0025
212.5990,0.2158,-0.9237,1.5638,-0.0061,0.0036,-0.0024
212.6990,0.5745,-2.0535,-0.2454,0.0085,-0.0140,0.0015
212.7990,-0.6316,-3.1833,1.2279,-0.0169,-0.0042,0.0010
212.8990,1.7425,1.0305,-0.0851,0.0114,0.0031,0.0029
212.9990,-0.4102,1.7099,-0.8713,-0.0047,0.0041,0.0059
213.0990,-1.4789,0.2595,-1.4438,-0.0081,0.0012,0.0059
213.1990,2.1089,0.4809,1.8310,-0.0008,-0.0106,-0.0024
213.2990,0.4219,1.7175,-2.0393,-0.0017,0.0031,0.0098
213.3990,-1.0438,0.5877,-1.5049,-0.0047,-0.0052,-0.0054
213.4990,-0.6392,1.7175,-2.8866,-0.0047,0.0031,-0.0098
213.5990,0.4600,2.5190,-1.2454,0.0036,-0.0115,-0.0058
213.6990,1.7043,-1.0306,-0.0774,-0.0047,-0.0072,-0.0093
213.7990,-0.7384,1.5496,0.2279,0.0070,-0.0032,0.0078
213.8990,0.2845,-1.3741,2.2203,0.0012,-0.0032,0.0025
213.9990,0.0478,1.5267,-0.0164,-0.0091,0.0021,-0.0024
214.0990,-0.2270,0.8855,-0.6118,-0.0032,0.0095,0.0073
214.1990,-0.2346,0.3740,-0.6042,0.0109,-0.0096,-0.0039
214.2990,1.4142,0.8549,0.9607,-0.0071,-0.0047,0.0025
214.3990,-0.4560,-1.1451,0.5638,-0.0022,-0.0028,0.0093
214.4990,0.1623,-0.4046,0.0829,0.0183,0.0021,0.0025
214.5990,-2.5247,-2.1604,1.2966,0.0002,-0.0037,0.0054
214.6990,3.0402,0.3206,-1.9019,-0.0100,0.0055,0.0059
214.7990,1.7196,3.0534,-1.1919,0.0041,-0.0037,0.0132
214.8990,-1.3262,0.5572,3.1210,-0.0061,0.0119,0.0000
214.9990,-2.4102,-0.2443,3.2508,0.0036,0.0026,-0.0049
215.0990,1.4219,-0.4810,0.8233,0.0036,0.0055,-0.0166
215.1990,-0.2499,-2.2825,-0.0545,-0.0154,-0.0032,-0.0015
215.2990,-0.4560,2.1832,1.2126,-0.0198,-0.0028,0.0064
215.3990,-0.1277,-2.4275,-2.0316,0.0178,0.0007,-0.0137
215.4990,-0.7613,-0.5649,1.3271,0.0056,-0.0115,-0.0107
215.5990,-2.1659,-2.7329,1.5333,-0.0017,-0.0018,-0.0005
215.6990,-2.2041,-0.7176,-1.6423,0.0066,-0.0023,-0.0117
215.7990,0.7272,1.2061,0.7241,-0.0198,0.0055,-0.0054
215.8990,0.5287,-1.3741,1.0218,-0.0027,-0.0052,0.0112
215.9990,-0.6926,-0.8245,0.1439,0.0017,0.0041,0.0000
216.0990,0.6203,1.7022,1.1668,0.0051,0.0026,-0.0039
216.1990,-0.5552,-0.6565,0.4875,-0.0091,-0.0018,-0.0039
216.2990,-1.0819,-0.4352,0.9073,0.0056,-0.0023,0.0005
216.3990,2.2158,-0.0993,1.3195,-0.0008,0.0060,0.0034
216.4990,1.2997,0.2213,2.0371,0.0105,0.0012,0.0088
216.5990,-1.4713,-0.1069,1.2355,-0.0017,-0.0013,0.0073
216.6990,-0.0743,0.0076,-0.4438,0.0041,-0.0018,0.0000
216.7990,2.3913,-0.9313,-0.1003,-0.0071,-0.0023,0.0161
216.8990,-1.3797,0.9694,1.1974,0.0061,-0.0028,-0.0019
216.9990,-2.2957,-2.4428,0.8310,-0.0042,0.0021,-0.0093
217.0990,-0.9598,0.7175,0.1897,0.0017,0.0031,0.0010
217.1990,-0.8606,-0.9466,-0.5125,0.0002,-0.0096,0.0029
217.2990,-0.2499,1.5648,-1.7034,-0.0071,-0.0008,0.0064
217.3990,-1.7003,-0.3436,0.6936,-0.0003,-0.0037,0.0005
217.4990,-0.1430,2.5725,-0.3370,-0.0013,-0.0057,0.0093
217.5990,0.9410,1.3282,-0.9477,-0.0022,-0.0115,-0.0117
217.6990,0.1318,-0.7176,0.0752,0.0066,0.0036,-0.0146
217.7990,0.5898,-2.0916,0.0523,0.0012,0.0026,0.0093
217.8990,2.0936,2.1603,0.3500,-0.0027,-0.0111,0.0010
217.9990,2.6509,1.6870,-0.3751,0.0070,-0.0018,0.0039
218.0990,0.2463,0.4580,2.1592,0.0061,-0.0008,0.0005
218.1990,-0.5476,2.0152,3.1516,0.0017,0.0046,-0.0068
218.2990,1.1623,1.4274,-0.2377,0.0022,0.0080,0.0000
218.3990,2.9639,0.2595,-0.9400,0.0036,0.0060,0.0112
218.4990,-0.8529,-0.1833,1.2890,0.0007,-0.0042,0.0015
218.5990,-0.5858,0.8015,0.3424,0.0026,0.0182,-0.0141
218.6990,0.0631,0.1145,1.0676,-0.0100,0.0031,0.0015
218.7990,-0.4789,0.0381,-1.0622,0.0095,0.0007,-0.0015
218.8990,1.0249,-2.7863,0.3195,-0.0017,0.0016,0.0054
218.9990,0.9715,-0.3512,-1.9782,-0.0081,-0.0028,0.0034
219.0990,1.1013,-0.1604,1.0600,-0.0125,0.0109,-0.0015
219.1990,-2.1048,-0.1222,0.9913,0.0066,0.0007,0.0034
219.2990,0.8112,1.3129,1.3348,-0.0042,-0.0042,0.0005
219.3990,2.5364,-0.4962,-1.0164,-0.0032,-0.0111,0.0078
219.4990,1.1471,0.6183,-2.0011,-0.0066,-0.0018,0.0083
219.5990,-0.9064,1.1526,-1.4515,0.0090,-0.0067,-0.0068
219.6990,-1.5476,-0.2901,-1.0240,0.0056,0.0007,0.0005
219.7990,-0.2194,1.3664,0.4187,-0.0057,-0.0008,0.0064
219.8990,-2.9216,-1.1756,3.0752,-0.0013,0.0168,-0.0029
219.9990,0.5440,1.3969,-0.5355,-0.0071,0.0021,-0.0044
220.0990,0.9791,2.7251,1.1592,0.0012,0.0109,0.0029
220.1990,0.9562,-2.5878,-1.8561,0.0134,0.0041,0.0088
220.2990,-0.1277,-1.5115,0.9531,0.0168,0.0021,-0.0102
220.3990,-0.6468,-0.0077,-0.0698,0.0012,-0.0159,-0.0058
220.4990,-0.8224,-0.6642,0.3348,-0.0086,0.0070,-0.0010
220.5990,-0.9445,-2.8703,3.4187,0.0124,0.0012,0.0015
220.6990,1.1852,-2.9008,1.1668,0.0056,-0.0062,-0.0010
220.7990,1.0860,1.1984,0.7470,0.0017,-0.0076,0.0088
220.8990,1.1547,0.3511,2.1287,-0.0013,-0.0150,0.0005
220.9990,0.4295,-5.0229,1.5638,-0.0027,-0.0067,0.0029
221.0990,-0.9903,-0.5955,-0.9858,0.0080,-0.0072,0.0044
221.1990,1.5211,1.4809,-0.7568,0.0012,-0.0028,-0.0058
221.2990,0.8723,1.6641,-1.0698,0.0041,0.0036,-0.0019
221.3990,0.2997,1.4122,2.8157,0.0007,0.0041,0.0044
221.4990,1.6509,0.4809,-0.5049,-0.0042,0.0129,-0.0058
221.5990,0.8646,-1.2596,-0.6271,0.0017,-0.0047,0.0064
221.6990,-1.2575,-0.8092,-0.5965,-0.0105,-0.0135,-0.0005
221.7990,0.0860,1.0610,1.4111,0.0002,0.0016,0.0078
221.8990,-0.9293,0.4274,-1.3141,-0.0003,-0.0067,0.0015
221.9990,1.1165,-0.6794,-1.7034,0.0026,0.0041,0.0025
222.0990,-0.0667,-2.8855,2.1287,0.0070,0.0055,-0.0005
222.1990,-0.9293,1.6717,-1.2606,0.0080,0.0041,0.0000
222.2990,1.3455,0.8396,-1.7721,-0.0047,-0.0008,0.0034
222.3990,-0.0361,-0.6947,2.1134,0.0066,0.0016,-0.0122
222.4990,-0.7842,0.4503,-0.0622,0.0149,0.0031,-0.0078
222.5990,2.3684,1.9923,-0.4973,-0.0032,-0.0101,0.0025
222.6990,0.3226,1.7709,-2.0393,-0.0003,-0.0052,-0.0010
222.7990,-0.4255,2.2671,-0.8484,0.0002,-0.0032,0.0000
222.8990,-1.6621,-1.3665,-0.0851,-0.0042,-0.0037,-0.0068
222.9990,1.9257,0.4580,0.1897,0.0061,0.0104,-0.0049
223.0990,-0.4331,0.4274,2.2584,0.0095,-0.0003,-0.0058
223.1990,-0.5934,1.4198,1.9607,-0.0032,-0.0013,-0.0024
223.2990,0.2921,0.7404,-2.1843,-0.0037,0.0002,0.0010
223.3990,1.1776,0.0992,-1.6652,-0.0017,0.0109,-0.0034
223.4990,-0.1354,-1.0535,2.2813,0.0017,-0.0042,0.0049
223.5990,-0.7919,2.5496,0.1363,0.0031,0.0055,0.0044
223.6990,0.5211,0.4580,1.3500,0.0046,0.0060,-0.0015
223.7990,1.1547,1.9007,0.0218,-0.0086,-0.0096,-0.0024
223.8990,0.3913,-1.6107,-1.3217,-0.0037,-0.0032,0.0005
223.9990,-3.4865,-1.5039,0.7775,-0.0013,-0.0042,-0.0054
224.0990,0.4066,0.6183,-0.0240,0.0012,0.0016,-0.0058
224.1990,-1.2346,-1.9924,1.1134,-0.0042,0.0158,-0.0039
224.2990,-1.1125,-1.2138,1.6859,0.0022,-0.0028,-0.0019
224.3990,1.9868,1.3664,0.2890,-0.0008,0.0119,0.0068
224.4990,1.5287,0.2824,-1.7797,-0.0076,0.0090,-0.0107
224.5990,0.8875,0.7709,2.3806,0.0026,-0.0135,0.0103
224.6990,0.6509,0.2595,-1.4744,-0.0144,-0.0120,-0.0044
224.7990,1.1547,3.1603,-1.2454,0.0119,0.0095,-0.0054
224.8990,-0.0438,-0.5878,0.5638,0.0036,0.0021,0.0025
224.9990,0.1700,-0.7634,0.5791,-0.0144,-0.0003,-0.0049
225.0990,1.0555,0.1221,0.7928,0.0002,-0.0081,-0.0039
225.1990,-2.4178,-0.9848,-1.0240,-0.0086,-0.0003,0.0010
225.2990,-1.9903,1.1297,-0.5660,0.0017,0.0007,0.0054
225.3990,0.1700,0.9771,0.6249,0.0134,0.0090,-0.0010
225.4990,1.9333,3.3358,0.9226,-0.0037,-0.0008,-0.0073
225.5990,-0.3339,1.6259,-1.0927,-0.0110,0.0002,0.0015
225.6990,-1.1735,-0.8321,0.1134,-0.0022,0.0109,0.0156
225.7990,-0.4178,2.3206,1.3500,-0.0003,0.0026,0.0151
225.8990,1.2997,0.1755,0.0676,-0.0110,0.0007,-0.0078
225.9990,-0.5247,1.0458,2.0218,-0.0193,0.0007,0.0029
226.0990,-0.8377,0.3129,1.1592,0.0017,-0.0145,0.0122
226.1990,0.6738,0.7786,1.1439,-0.0149,-0.0057,-0.0005
226.2990,0.3226,0.7557,-1.1232,-0.0076,-0.0013,0.0015
226.3990,-1.1583,-1.5573,0.7470,-0.0076,0.0114,-0.0005
226.4990,-0.2194,0.7099,4.2584,-0.0110,-0.0018,0.0010
226.5990,2.0631,0.4656,1.3958,-0.0022,-0.0013,0.0034
226.6990,-1.8224,0.6106,0.0981,-0.0052,0.0099,0.0200
226.7990,0.5287,1.2671,-0.0545,0.0100,0.0070,0.0064
226.8990,0.6814,1.5419,-0.6576,-0.0057,-0.0067,0.0039
226.9990,-0.9751,-0.6413,1.4645,0.0090,-0.0013,-0.0029
227.0990,-1.3949,-0.3741,-0.8255,0.0124,-0.0086,-0.0039
227.1990,-1.2117,-0.9466,-1.4820,0.0046,0.0026,0.0034
227.2990,2.3913,0.2061,-0.9248,-0.0057,-0.0081,0.0054
227.3990,0.7043,-1.0611,3.3806,-0.0086,-0.0115,0.0039
227.4990,0.0402,-0.5344,1.1668,-0.0027,-0.0023,-0.0102
227.5990,-0.1888,1.2061,1.1210,0.0007,-0.0013,-0.0024
227.6990,1.6280,0.8320,-1.4515,-0.0052,-0.0125,-0.0054
227.7990,-0.5171,-1.6107,-0.3599,-0.0105,-0.0057,-0.0083
227.8990,-0.3568,-1.2520,2.6630,-0.0027,-0.0042,0.0073
227.9990,2.5593,1.6259,4.8462,0.0012,0.0021,0.0020
228.0990,-0.3720,-0.0687,-1.6805,0.0085,0.0026,-0.0005
228.1990,-0.0056,-0.3817,-0.5278,-0.0135,0.0002,0.0059
228.2990,-0.3797,0.1221,-1.1080,0.0017,-0.0047,-0.0049
228.3990,1.9562,-0.7176,0.8691,-0.0042,0.0075,-0.0034
228.4990,-2.7537,-4.0153,-1.4209,-0.0017,-0.0057,0.0147
228.5990,-0.7232,-2.7710,1.7394,-0.0027,0.0007,0.0000
228.6990,0.2921,-0.0000,-1.2530,-0.0110,-0.0155,0.0029
228.7990,1.1623,2.8931,-0.6347,-0.0047,-0.0028,-0.0029
228.8990,-1.7613,-2.8321,0.5562,-0.0032,0.0026,0.0083
228.9990,-1.9445,-3.0535,0.6401,-0.0071,-0.0115,-0.0132
229.0990,-1.5094,-0.4886,-2.6347,-0.0066,-0.0101,0.0005
229.1990,-0.6316,0.6717,-2.0545,0.0017,0.0021,-0.0054
229.2990,-1.5171,-1.1222,2.0523,-0.0115,-0.0032,0.0010
229.3990,0.5135,-0.6107,0.4798,0.0007,-0.0018,0.0093
229.4990,-0.3873,1.4122,-1.6805,-0.0047,-0.0032,0.0029
229.5990,0.7348,-0.1909,-0.9782,0.0056,0.0041,-0.0005
229.6990,-0.5629,-3.7023,1.4416,-0.0027,-0.0028,0.0039
229.7990,2.0097,0.6946,-0.0011,-0.0066,-0.0037,0.0005
229.8990,1.0249,0.9236,-1.0469,0.0041,0.0046,0.0029
229.9990,-0.2957,-2.8474,1.5027,-0.0086,0.0031,0.0010
230.0990,-2.3491,1.1221,0.8233,-0.0115,-0.0067,0.0034
230.1990,0.9028,1.9160,0.1058,-0.0100,0.0002,0.0054
230.2990,-1.7461,-0.7710,0.6630,-0.0013,0.0031,0.0049
230.3990,-1.5171,-2.3512,0.8462,0.0031,-0.0076,-0.0054
230.4990,0.2921,-0.4657,1.1134,-0.0008,-0.0130,0.0029
230.5990,0.6814,2.1526,-2.9935,0.0041,0.0095,0.0132
230.6990,-0.0361,1.6412,1.7012,0.0100,0.0075,-0.0073
230.7990,0.3837,-2.3130,1.2279,0.0022,-0.0106,-0.0073
230.8990,0.7883,0.8320,0.5027,0.0085,-0.0130,-0.0010
230.9990,0.8265,-1.5878,0.4187,0.0026,0.0026,-0.0078
231.0990,-0.0514,-2.4046,1.1287,-0.0017,0.0007,0.0151
231.1990,0.2081,-0.6260,-1.1156,-0.0027,-0.0067,-0.0044
231.2990,0.3379,1.6030,-0.8179,0.0046,0.0007,0.0029
231.3990,-0.4713,-1.5726,0.6172,-0.0066,-0.0032,-0.0034
231.4990,-0.6621,-1.2443,-1.2072,0.0002,-0.0115,0.0171
231.5990,0.3761,0.6870,-0.6576,0.0041,-0.0106,-0.0034
231.6990,0.0478,-1.0153,-2.2072,0.0075,-0.0032,0.0010
231.7990,0.2768,-0.5497,2.5485,-0.0022,-0.0028,0.0098
231.8990,1.4906,1.3053,-0.5889,-0.0037,0.0046,0.0000
231.9990,0.4371,-1.9237,-0.8561,0.0026,-0.0072,-0.0044
232.0990,0.5745,-0.9466,-0.8637,0.0026,-0.0106,-0.0019
232.1990,-0.8453,0.1450,-1.5431,0.0090,0.0002,-0.0015
232.2990,-0.3339,-0.1527,-1.7263,-0.0086,-0.0008,0.0029
232.3990,0.6509,2.0152,0.6859,-0.0013,-0.0076,0.0015
232.4990,0.2310,0.3053,-0.9629,0.0007,-0.0042,0.0044
232.5990,-1.0972,-0.8779,4.4416,-0.0081,0.0099,-0.0151
232.6990,1.0097,1.0687,-0.7568,0.0075,-0.0072,-0.0049
232.7990,-0.5018,-1.0382,3.5943,-0.0076,-0.0032,0.0083
232.8990,-0.4865,-1.5878,-0.2454,0.0080,-0.0047,-0.0015
232.9990,0.2005,0.2366,-2.7492,0.0066,0.0016,0.0034
233.0990,0.5364,2.9007,1.3271,-0.0125,-0.0067,0.0122
233.1990,-0.5247,0.2671,1.4111,-0.0052,-0.0096,0.0005
233.2990,0.8875,0.2595,1.8615,0.0119,-0.0076,-0.0078
233.3990,-0.7766,0.3969,-1.2530,0.0061,-0.0008,-0.0078
233.4990,1.2310,1.2748,-1.0164,0.0036,-0.0008,0.0044
233.5990,-1.1277,0.1068,-2.5355,0.0061,0.0021,-0.0024
233.6990,0.4829,0.0534,-1.6271,-0.0081,-0.0081,-0.0083
233.7990,0.0326,1.1603,0.3271,0.0012,-0.0028,0.0029
233.8990,0.0555,-0.7787,1.8615,0.0022,0.0055,-0.0010
233.9990,0.8265,0.6183,-1.0545,-0.0027,-0.0130,-0.0034
234.0990,1.0020,0.5114,-0.8561,0.0007,0.0031,-0.0058
234.1990,0.4600,1.3282,0.3500,0.0075,0.0075,-0.0029
234.2990,-2.1354,0.3664,0.2584,0.0046,-0.0072,-0.0044
234.3990,-0.5705,-1.9161,2.1745,-0.0003,-0.0155,0.0127
234.4990,-0.8682,1.2977,1.0676,-0.0081,0.0095,0.0073
234.5990,0.2005,0.8702,-1.6271,-0.0061,0.0080,0.0112
234.6990,-0.2804,-0.9619,0.1363,-0.0013,0.0041,0.0073
234.7990,0.9486,0.7099,-0.8103,0.0012,0.0119,0.0112
234.8990,0.5974,3.1832,-2.2835,-0.0042,-0.0013,-0.0049
234.9990,-2.7537,-1.6489,-0.2301,-0.0013,-0.0096,0.0098
235.0990,-1.7690,1.3435,0.5867,0.0002,0.0070,-0.0098
235.1990,0.6509,0.8396,0.6859,0.0012,0.0119,-0.0005
235.2990,1.3532,1.0610,1.0371,-0.0096,-0.0057,0.0020
235.3990,-0.0361,-4.9848,-1.1309,-0.0047,0.0036,0.0005
235.4990,0.3150,-0.3588,0.6936,-0.0008,0.0016,0.0029
235.5990,-1.4026,1.9007,0.6172,0.0012,-0.0008,0.0005
235.6990,-0.4484,-0.8855,-0.4438,0.0017,0.0026,-0.0127
235.7990,-1.9140,-1.1527,0.1210,0.0158,0.0065,0.0044
235.8990,-0.3797,-0.7558,-0.6118,0.0041,0.0070,-0.0005
235.9990,-0.3491,0.9923,-0.2912,0.0046,0.0051,0.0015
236.0990,-1.4178,-1.7634,-1.1919,0.0070,0.0016,0.0039
236.1990,-0.9598,-1.3054,0.0676,-0.0057,-0.0086,0.0083
236.2990,1.6356,2.1984,-0.3064,0.0173,-0.0037,-0.0127
236.3990,-0.2499,-1.4962,1.7394,0.0046,-0.0072,0.0025
236.4990,-1.5247,-2.0306,2.7623,-0.0052,-0.0013,0.0010
236.5990,1.2387,0.4961,3.4875,0.0036,0.0036,-0.0068
236.6990,-0.9903,1.7099,0.4340,0.0022,0.0031,0.0010
236.7990,-0.1659,-0.8245,0.0676,0.0007,-0.0072,0.0010
236.8990,-1.0514,-0.8779,-0.5736,0.0090,0.0016,0.0034
236.9990,0.8265,-1.7710,-0.2606,-0.0100,0.0002,0.0073
237.0990,-0.1430,-0.0916,3.3119,0.0002,-0.0032,0.0034
237.1990,0.9410,-0.0382,2.1134,0.0105,0.0002,-0.0107
237.2990,0.2845,-0.9008,0.4569,-0.0003,0.0021,-0.0068
237.3990,0.8341,0.6412,-1.1156,-0.0066,0.0153,-0.0015
237.4990,1.0020,-0.3283,-0.9706,-0.0081,-0.0008,-0.0015
237.5990,1.6203,0.2519,2.2737,-0.0071,0.0075,0.0054
237.6990,0.7883,-3.0458,-1.6423,-0.0003,0.0051,0.0034
237.7990,2.1852,0.2290,0.3348,0.0022,0.0055,-0.0098
237.8990,-0.9445,-0.5955,-0.5889,0.0022,0.0055,0.0015
237.9990,2.2616,1.4351,-1.4438,-0.0032,-0.0003,-0.0141
238.0990,-0.1583,-0.3894,-0.4515,-0.0008,0.0016,-0.0039
238.1990,-0.3568,0.0839,2.4187,-0.0110,0.0051,0.0108
238.2990,-0.2728,1.7862,0.4493,0.0100,0.0090,0.0020
238.3990,-0.5858,0.8167,-2.1385,0.0066,-0.0150,-0.0044
238.4990,-0.9216,2.0687,-1.3980,-0.0003,-0.0018,0.0039
238.5990,-1.8377,-2.8855,2.1974,-0.0125,-0.0008,-0.0010
238.6990,0.2768,0.0763,-0.9782,0.0036,0.0041,0.0044
238.7990,1.1471,3.1526,-0.3446,-0.0052,-0.0135,0.0078
238.8990,-0.0056,1.9236,2.5714,0.0012,0.0016,0.0039
238.9990,0.4142,-2.7329,1.2966,0.0075,-0.0018,-0.0058
239.0990,0.7043,1.1374,-1.8408,-0.0081,-0.0037,0.0020
239.1990,-0.4484,0.2595,-1.0774,-0.0017,-0.0062,-0.0068
239.2990,2.0936,-1.7329,4.3500,-0.0149,-0.0008,0.0005
239.3990,0.1776,-0.9390,1.4035,-0.0008,-0.0062,-0.0010
239.4990,-0.2728,-0.6947,1.6707,0.0119,-0.0076,0.0054
239.5990,-0.8606,-1.5726,0.7470,-0.0037,-0.0008,0.0054
239.6990,2.1318,1.4732,1.5943,-0.0096,0.0031,0.0127
239.7990,-0.4789,-1.2901,0.3348,0.0090,0.0026,0.0117
239.8990,1.2310,-1.9237,-2.1080,-0.0164,0.0080,0.0171
239.9990,0.1165,-0.8932,-0.1309,0.0197,0.0002,-0.0024
240.0990,-1.0743,-0.4733,0.3882,0.0066,-0.0003,-0.0127
240.1990,0.2997,-1.2672,1.3042,0.0017,0.0119,-0.0063
240.2990,-0.2881,-1.3512,0.1668,-0.0003,0.0095,-0.0044
240.3990,-1.0132,-0.7787,-2.1690,0.0085,0.0134,-0.0039
240.4990,-1.5629,-2.8321,2.1058,0.0007,0.0041,0.0005
240.5990,1.3684,0.8015,0.8157,-0.0042,-0.0111,-0.0068
240.6990,-0.6392,0.2748,1.2432,0.0105,-0.0003,0.0044
240.7990,-2.2575,0.0992,-0.2988,-0.0125,-0.0091,0.0010
240.8990,0.3532,-0.6184,-1.2835,-0.0017,-0.0008,-0.0024
240.9990,1.3150,0.9389,-1.7492,0.0139,0.0012,0.0044
241.0990,-0.4636,-0.5955,-0.0393,0.0051,0.0007,-0.0015
241.1990,0.0326,-3.9542,1.0981,-0.0032,0.0099,-0.0029
241.2990,-0.9369,-0.0229,-1.6423,0.0085,0.0060,-0.0029
241.3990,0.1852,2.8091,-0.0622,-0.0027,-0.0067,-0.0088
241.4990,0.9868,-0.1069,0.6325,0.0158,-0.0008,0.0137
241.5990,-1.1506,-0.9924,-1.6423,-0.0013,-0.0008,0.0098
241.6990,0.4448,0.7633,-0.8332,0.0114,0.0051,-0.0039
241.7990,-0.0056,-0.4123,-0.7950,-0.0027,0.0085,0.0064
241.8990,-0.9980,-1.2749,0.3271,0.0022,0.0007,-0.0029
241.9990,0.4677,-3.7481,-1.8637,-0.0096,-0.0081,0.0103
242.0990,-0.6468,-2.1909,0.2279,0.0007,-0.0042,-0.0102
242.1990,1.5822,-1.0458,0.0371,0.0046,-0.0067,0.0064
242.2990,-1.2270,-1.3359,-0.3751,-0.0081,-0.0081,-0.0102
242.3990,0.4448,2.1068,-0.9629,0.0163,-0.0028,0.0034
242.4990,-0.7537,1.3435,1.0065,-0.0003,-0.0013,0.0064
242.5990,-1.5171,-0.6871,-0.8790,0.0007,-0.0106,-0.0029
242.6990,0.4600,0.9313,0.0829,0.0022,0.0007,0.0000
242.7990,1.5287,0.3587,-2.2225,-0.0027,0.0012,-0.0098
242.8990,1.5974,1.1908,1.9149,-0.0027,0.0021,-0.0005
242.9990,-1.7690,0.3969,-0.5431,-0.0003,-0.0052,-0.0068
243.0990,1.2539,2.0763,-0.2912,0.0002,0.0055,-0.0107
243.1990,-0.1965,-1.7939,0.2279,0.0012,0.0007,0.0020
243.2990,0.5669,-2.0611,2.3577,0.0026,-0.0003,0.0098
243.3990,0.9791,-1.0764,-3.0774,-0.0042,0.0046,-0.0015
243.4990,-1.4484,0.2213,-0.5736,0.0056,0.0090,0.0025
243.5990,0.0097,-0.2214,3.0905,-0.0066,0.0021,0.0029
243.6990,-1.4636,-0.7023,0.3271,-0.0013,-0.0032,0.0064
243.7990,-0.3033,1.4351,-1.6194,-0.0066,-0.0081,-0.0078
243.8990,0.4829,2.8015,-3.1843,-0.0042,0.0041,0.0029
243.9990,-0.4484,1.0381,1.0447,-0.0027,-0.0018,0.0049
244.0990,0.7272,2.5038,2.9607,0.0041,-0.0062,-0.0010
244.1990,0.0555,0.9389,0.2584,-0.0047,0.0012,0.0034
244.2990,0.9562,1.5190,0.3729,-0.0017,-0.0057,-0.0044
244.3990,0.3532,-2.2596,2.1287,-0.0008,0.0012,-0.0029
244.4990,0.0555,0.6793,0.8920,-0.0193,0.0036,0.0010
244.5990,0.7043,0.4580,-1.1996,0.0026,-0.0032,0.0059
244.6990,-1.0285,-0.6565,2.9913,-0.0017,-0.0042,-0.0015
244.7990,-0.4178,-2.4504,2.2050,0.0002,0.0104,0.0010
244.8990,-1.6316,0.6412,-2.1996,0.0139,-0.0086,0.0010
244.9990,-0.8224,-3.9161,-0.4057,0.0007,0.0051,0.0025
245.0990,-0.6697,-2.1375,0.9607,0.0070,-0.0037,-0.0127
245.1990,0.9333,1.5954,-1.2988,-0.0057,0.0016,0.0005
245.2990,1.3761,0.1297,-1.1461,0.0056,-0.0081,0.0000
245.3990,0.2005,-0.0611,2.4493,-0.0013,-0.0042,0.0000
245.4990,-0.2194,-2.3130,0.6859,-0.0066,0.0099,-0.0073
245.5990,0.1471,1.8244,-1.9858,0.0002,-0.0028,-0.0010
245.6990,-1.1430,-1.9466,2.9455,0.0031,0.0075,-0.0039
245.7990,0.3684,-2.0000,0.4951,0.0051,-0.0091,-0.0039
245.8990,1.2234,1.9771,-1.0622,0.0075,0.0051,0.0049
245.9990,-0.1201,-0.0916,-2.8561,-0.0008,-0.0101,-0.0112
246.0990,1.0555,-1.9390,2.2737,-0.0017,0.0007,-0.0107
246.1990,0.4142,1.4732,-0.6271,0.0046,-0.0062,0.0000
246.2990,0.2921,3.5114,0.7470,0.0007,-0.0032,0.0108
