time,gyro x,gyro y,gyro z,accel x,accel y,accel z
100.800510,-6.871116638,-19.364013672,-5.564155579,-0.146713629,0.122077763,-0.928064823
100.801137,-6.565940857,-19.394531250,-5.541267395,-0.149887457,0.123542607,-0.926966190
100.801763,-7.031333923,-19.608154297,-5.320014954,-0.153183356,0.126472294,-0.926111698
100.802390,-6.909263611,-19.714965820,-5.472602844,-0.149032965,0.130012333,-0.922083378
100.803016,-7.038963318,-19.646301270,-5.556526184,-0.146835700,0.132942021,-0.920252323
100.803641,-7.244956970,-19.837036133,-5.464973450,-0.150497809,0.132209599,-0.916834354
100.816471,-10.327232361,-18.509521484,-5.060615540,-0.140976325,0.112434208,-0.864954472
100.817231,-10.128868103,-18.364562988,-4.953804016,-0.141464606,0.109260380,-0.866175175
100.817857,-10.128868103,-18.173828125,-5.045356750,-0.139999762,0.109016240,-0.867517948
100.818483,-9.762657166,-18.097534180,-4.938545227,-0.138534918,0.104377568,-0.865198612
100.819109,-9.404075623,-18.013610840,-5.068244934,-0.139755622,0.102180302,-0.861902714
100.819734,-9.236228943,-17.815246582,-4.946174622,-0.136215582,0.099006474,-0.862146854
100.820359,-9.091270447,-17.494812012,-5.075874329,-0.135605231,0.095222294,-0.864344120
100.820984,-8.274925232,-17.494812012,-4.885139465,-0.135239020,0.093879521,-0.861536503
100.821611,-7.916343689,-17.471923828,-4.915657043,-0.135483161,0.090095341,-0.861170292
100.822237,-7.618797302,-17.166748047,-4.877510071,-0.133163825,0.087776005,-0.859583378
100.822864,-6.863487244,-17.044677734,-5.106391907,-0.130966559,0.083381474,-0.860559940
100.823491,-6.504905701,-17.044677734,-5.091133118,-0.129867926,0.079597294,-0.858973026
100.824118,-5.871665955,-16.808166504,-4.763069153,-0.132919684,0.077522099,-0.857508183
100.824743,-5.398643494,-16.739501953,-4.885139465,-0.131821051,0.077522099,-0.860559940
100.825368,-4.689109802,-16.716613770,-4.816474915,-0.131210700,0.077400029,-0.857630253
100.825993,-3.849876404,-16.472473145,-4.740180969,-0.128647223,0.076301396,-0.853724003
100.826620,-3.453147888,-16.182556152,-4.625740051,-0.131454840,0.074104130,-0.855799198
100.827245,-2.797019958,-16.037597656,-4.572334290,-0.131088629,0.071296513,-0.853479862
100.827871,-2.140892029,-16.182556152,-4.526557922,-0.132919684,0.069221318,-0.852381229
100.828497,-1.248252869,-15.778198242,-4.488410950,-0.132431403,0.069831669,-0.850916386
100.829122,-0.729454041,-15.617980957,-4.396858215,-0.135483161,0.067756474,-0.847132206
100.829747,-0.058067322,-15.679016113,-4.366340637,-0.134384528,0.067756474,-0.849329472
100.830373,0.331031799,-15.503540039,-4.244270325,-0.136459723,0.067878544,-0.848352909
100.830998,1.078712463,-15.122070312,-4.381599426,-0.134872809,0.069099247,-0.846888065
100.831637,1.681434631,-14.916076660,-4.251899719,-0.137192145,0.068855107,-0.847010136
100.832262,2.200233459,-15.122070312,-4.129829407,-0.136581793,0.066535771,-0.844080448
100.832888,2.696144104,-14.656677246,-4.091682434,-0.132919684,0.070075810,-0.843958378
100.833515,3.298866272,-14.687194824,-4.045906067,-0.137070075,0.071906865,-0.845545292
100.834141,3.642189026,-14.481201172,-4.114570618,-0.136825934,0.070442021,-0.846643925
100.834768,4.366981506,-14.084472656,-4.190864563,-0.135361090,0.074226201,-0.845545292
100.835393,4.893409729,-13.954772949,-3.939094543,-0.135849372,0.073127568,-0.842859745
100.836020,5.587684631,-13.596191406,-3.984870911,-0.139023200,0.074714482,-0.846277714
100.836646,5.648719788,-13.359680176,-4.053535461,-0.136337653,0.075202763,-0.842615604
100.837271,6.037818909,-13.298645020,-4.061164856,-0.138412848,0.073982060,-0.842249393
100.837898,6.663429260,-13.161315918,-3.984870911,-0.135727301,0.076667607,-0.838221073
100.838523,6.808387756,-12.848510742,-3.961982727,-0.133530036,0.076545537,-0.842005253
100.839150,7.144081116,-12.589111328,-3.717842102,-0.133652106,0.076545537,-0.840662479
100.839775,7.273780823,-12.421264648,-3.900947571,-0.129867926,0.079353154,-0.839441776
100.840400,7.556068420,-12.146606445,-3.931465149,-0.127914801,0.082282841,-0.837976933
100.841026,7.594215393,-11.917724609,-3.557624817,-0.128647223,0.081672490,-0.839930058
100.841651,7.830726624,-11.734619141,-3.794136047,-0.126816168,0.084235966,-0.840052128
100.842276,8.044349670,-11.337890625,-3.893318176,-0.122177489,0.087165654,-0.842249393
100.842901,7.815467834,-11.147155762,-3.794136047,-0.118271239,0.089607060,-0.844812870
100.843526,7.769691467,-11.040344238,-3.694953918,-0.116562255,0.092170537,-0.844812870
100.844151,7.388221741,-10.674133301,-3.649177551,-0.113510497,0.092292607,-0.848474979
100.844776,7.342445374,-10.529174805,-3.595771790,-0.113388427,0.092902958,-0.848108768
100.858815,-8.763206482,-6.386413574,-2.138557434,-0.058700927,0.112312138,-0.863367558
100.859564,-10.670555115,-6.165161133,-1.993598938,-0.056137450,0.106452763,-0.865320683
100.860190,-11.731040955,-5.737915039,-1.940193176,-0.055038817,0.104255497,-0.866785526
100.860815,-12.539756775,-5.875244141,-1.818122864,-0.049057372,0.102180302,-0.866663456
100.861441,-13.577354431,-5.699768066,-1.696052551,-0.049423583,0.101203740,-0.866907597
100.862068,-14.469993591,-5.264892578,-1.665534973,-0.046615966,0.099250615,-0.866419315
100.862694,-15.438926697,-5.158081055,-1.459541321,-0.045761473,0.097907841,-0.870081425
100.863319,-15.988243103,-4.768981934,-1.451911926,-0.043442138,0.095100224,-0.866907597
100.863946,-16.842735291,-4.494323730,-1.245918274,-0.044540770,0.090949833,-0.870203495
100.864571,-17.575157166,-4.097595215,-1.009407043,-0.044662841,0.094245732,-0.871546268
100.865197,-18.277061462,-4.143371582,-0.971260071,-0.044418700,0.090217412,-0.871790409
100.865824,-19.123924255,-3.594055176,-0.833930969,-0.044296630,0.084113896,-0.871057987
100.866449,-19.719017029,-3.510131836,-0.780525208,-0.042465575,0.082160771,-0.874231815
100.867075,-20.169151306,-3.342285156,-0.551643372,-0.045151122,0.081550419,-0.875330448
100.867701,-20.527732849,-2.937927246,-0.467720032,-0.046982177,0.075324833,-0.876551151
100.868328,-21.038902283,-3.052368164,-0.452461243,-0.047836669,0.081550419,-0.875574589
100.868953,-21.580589294,-2.434387207,-0.086250305,-0.049545653,0.076423466,-0.881800175
100.869580,-21.984947205,-2.350463867,0.081596375,-0.051742919,0.074348271,-0.879236698
100.870205,-22.107017517,-2.197875977,0.257072449,-0.052719481,0.073249638,-0.878382206
100.870831,-22.648704529,-2.022399902,0.196037292,-0.055771239,0.074226201,-0.883875370
100.871457,-22.503746033,-1.763000488,0.379142761,-0.061020263,0.067634404,-0.881800175
100.872084,-22.686851501,-1.312866211,0.470695496,-0.060165770,0.066657841,-0.884485722
100.872711,-22.602928162,-1.351013184,0.691947937,-0.064316161,0.063972294,-0.885340214
100.873336,-22.778404236,-1.045837402,0.913200378,-0.063949950,0.063606083,-0.883265018
100.873961,-23.030174255,-0.977172852,0.997123718,-0.069076903,0.061652955,-0.886194706
100.874587,-22.717369080,-0.641479492,1.103935242,-0.067489989,0.062751591,-0.887659550
100.875213,-22.625816345,-0.427856445,1.393852234,-0.074447997,0.064704716,-0.889490604
100.875840,-22.709739685,0.007019043,1.607475281,-0.076156981,0.066901982,-0.888147831
100.876466,-22.435081482,0.151977539,1.660881042,-0.077621825,0.066169560,-0.889246464
100.877091,-22.389305115,0.235900879,1.805839539,-0.078354247,0.068488896,-0.889368534
100.877717,-22.229087830,0.731811523,1.821098328,-0.084335692,0.068855107,-0.893152714
100.878344,-22.007835388,0.579223633,2.042350769,-0.086166747,0.070442021,-0.894007206
100.878970,-21.901023865,1.105651855,2.187309265,-0.091659911,0.077522099,-0.894251347
100.879595,-21.695030212,1.319274902,2.240715027,-0.092758544,0.078864872,-0.894983768
100.880222,-21.771324158,1.326904297,2.500114441,-0.096542723,0.081062138,-0.896936893
100.880848,-21.496665955,1.616821289,2.866325378,-0.099594481,0.080940068,-0.901209354
100.881473,-21.237266541,1.876220703,2.698478699,-0.101059325,0.082038701,-0.901941776
100.882098,-21.214378357,2.013549805,2.881584167,-0.106674559,0.085944951,-0.904749393
100.882723,-21.077049255,2.219543457,3.018913269,-0.108139403,0.086189091,-0.907679081
100.883348,-20.657432556,2.219543457,3.003654480,-0.111069091,0.088386357,-0.908655643
100.883973,-20.542991638,2.578125000,3.087577820,-0.114975341,0.090827763,-0.909754276
100.884598,-20.123374939,2.654418945,3.354606628,-0.118271239,0.094734013,-0.914270878
100.885224,-19.940269470,2.913818359,3.377494812,-0.120102294,0.094001591,-0.913172245
100.885849,-19.482505798,3.180847168,3.575859070,-0.122177489,0.098762333,-0.915979862
100.886476,-19.497764587,3.547058105,3.728446960,-0.124008544,0.103034794,-0.914637089
100.887101,-19.307029724,3.486022949,3.690299988,-0.125717536,0.103645146,-0.919153690
100.887727,-18.788230896,3.989562988,3.575859070,-0.130234137,0.105598271,-0.913660526
100.907203,-16.369712830,3.470764160,4.972038269,-0.242782965,0.219734013,-1.050623417
100.909299,-17.117393494,1.929626465,4.766044617,-0.254257560,0.229621708,-1.060511112
100.909925,-17.407310486,1.906738281,4.880485535,-0.255356193,0.233283818,-1.064173222
100.910551,-17.628562927,1.387939453,4.552421570,-0.259506583,0.235114872,-1.064661503
100.911177,-17.704856873,0.975952148,4.643974304,-0.263534904,0.234748662,-1.068445683
100.911803,-17.880332947,0.464782715,4.621086121,-0.262070060,0.237067997,-1.070154667
100.912428,-18.040550232,-0.069274902,4.712638855,-0.264023185,0.239021122,-1.075525761
100.913054,-18.010032654,-0.214233398,4.338798523,-0.265243888,0.240241826,-1.074549198
100.913680,-18.521202087,-0.771179199,4.544792175,-0.271469474,0.241218388,-1.073572636
100.914306,-18.475425720,-1.351013184,4.514274597,-0.272934318,0.240852177,-1.070398808
100.914932,-18.391502380,-1.557006836,4.308280945,-0.273910880,0.240363896,-1.071009159
100.915557,-18.330467224,-1.892700195,4.338798523,-0.276596427,0.238044560,-1.071497440
100.916184,-18.452537537,-2.274169922,4.231987000,-0.279892325,0.236945927,-1.066492558
100.916809,-18.345726013,-2.579345703,3.995475769,-0.281845450,0.238410771,-1.069178104
100.917434,-18.254173279,-3.059997559,4.102287292,-0.280746818,0.237190068,-1.065760136
100.918060,-17.926109314,-3.128662109,4.087028503,-0.284775138,0.237312138,-1.065638065
100.918686,-17.712486267,-3.418579102,4.025993347,-0.289657950,0.237678349,-1.059900761
100.919313,-17.437828064,-3.761901855,3.797111511,-0.292343497,0.237678349,-1.057947636
100.919938,-17.208946228,-3.838195801,3.697929382,-0.295639396,0.237922490,-1.052576542
100.920564,-16.857994080,-4.128112793,3.758964539,-0.295639396,0.237312138,-1.052332401
100.921189,-16.423118591,-4.212036133,3.835258484,-0.301620841,0.232185185,-1.050135136
100.921815,-16.362083435,-4.410400391,3.545341492,-0.304306388,0.232307255,-1.048304081
100.922440,-15.560997009,-4.761352539,3.461418152,-0.304428458,0.235481083,-1.048304081
100.923066,-15.065086365,-4.898681641,3.385124207,-0.304306388,0.228889287,-1.044886112
100.923691,-14.462364197,-5.165710449,3.255424500,-0.306259513,0.229621708,-1.043299198
100.924317,-14.119041443,-5.264892578,3.263053894,-0.301864982,0.226569951,-1.040247440
100.924942,-13.333213806,-5.371704102,3.179130554,-0.301864982,0.226325810,-1.042566776
100.925568,-12.677085876,-5.509033203,3.125724792,-0.303329825,0.223029912,-1.041956425
100.926195,-11.883628845,-5.737915039,2.759513855,-0.305527091,0.223884404,-1.043665409
100.926822,-11.105430603,-5.875244141,2.881584167,-0.305038810,0.222419560,-1.041712284
100.927447,-10.311973572,-6.065979004,2.561149597,-0.308456779,0.219734013,-1.044153690
100.928072,-9.213340759,-6.104125977,2.690849304,-0.305527091,0.215583622,-1.044764042
100.928699,-8.313072205,-6.363525391,2.698478699,-0.305160880,0.211677372,-1.044275761
100.929324,-7.450950623,-6.317749023,2.484855652,-0.304306388,0.214118779,-1.046961308
100.929950,-6.367576599,-6.539001465,2.530632019,-0.302475333,0.209480107,-1.053186893
100.930575,-5.177391052,-6.546630859,2.126274109,-0.303207755,0.203498662,-1.052088261
100.931201,-3.979576111,-6.729736328,2.309379578,-0.301498771,0.205940068,-1.054407597
100.931827,-2.705467224,-6.828918457,2.355155945,-0.302231193,0.205695927,-1.056116581
100.932452,-1.789939880,-7.034912109,2.194938660,-0.300278068,0.204841435,-1.056849003
100.933077,-0.401390076,-7.294311523,2.294120789,-0.297104239,0.206672490,-1.058680058
100.933702,0.819313049,-7.355346680,2.248344421,-0.298935294,0.206306279,-1.057337284
100.934328,1.734840393,-7.546081543,1.912651062,-0.299667716,0.209968388,-1.055384159
100.934955,3.077613831,-7.530822754,2.034721375,-0.297958732,0.208137333,-1.059412479
100.935582,4.252540588,-7.637634277,1.874504089,-0.299057364,0.207649052,-1.059412479
100.936207,5.450355530,-7.927551270,1.935539246,-0.299301505,0.210822880,-1.056116581
100.936832,6.526100159,-8.377685547,1.912651062,-0.295883536,0.205329716,-1.055994511
100.937458,7.487403870,-8.461608887,1.706657410,-0.295761466,0.208991826,-1.056726933
100.950250,20.114051819,-9.659423828,0.463066101,-0.256454825,0.261848271,-1.033045292
100.950992,19.831764221,-9.758605957,0.554618835,-0.257919669,0.267219365,-1.031336308
100.951618,19.572364807,-9.636535645,0.508842468,-0.255966544,0.267219365,-1.032068729
100.952245,19.290077209,-9.285583496,0.325737000,-0.254501700,0.273811162,-1.028284550
100.952872,18.656837463,-9.468688965,0.142631531,-0.253769279,0.277473271,-1.029749393
100.953499,18.496620178,-9.171142578,0.302848816,-0.250473380,0.280769169,-1.025843143
100.954159,17.596351624,-8.934631348,0.279960632,-0.251205802,0.284797490,-1.027307987
100.954785,17.199623108,-9.056701660,0.035820007,-0.250229239,0.289680302,-1.026209354
100.955411,16.581642151,-8.659973145,0.104484558,-0.251449943,0.293342412,-1.024500370
100.956037,15.757667542,-8.728637695,-0.009956360,-0.248520270,0.294074833,-1.023645878
100.956662,14.803993225,-8.476867676,0.012931824,-0.251449943,0.299567997,-1.023157597
100.957288,13.949501038,-8.453979492,-0.276985168,-0.250229239,0.304450810,-1.024988651
100.957914,13.362037659,-7.958068848,-0.025215149,-0.248520270,0.309089482,-1.025965214
100.959767,9.890663147,-7.790222168,-0.513496399,-0.242660895,0.318977177,-1.028772831
100.960392,8.845436096,-7.515563965,-0.643196106,-0.242172614,0.324470341,-1.026819706
100.961018,7.815467834,-7.424011230,-0.650825500,-0.241928473,0.329353154,-1.028528690
100.961644,6.411659241,-7.141723633,-0.772895813,-0.237533942,0.331794560,-1.029627323
100.962269,5.114662170,-7.111206055,-0.940742493,-0.238266364,0.334480107,-1.028406620
100.962895,3.962623596,-6.981506348,-0.948371887,-0.234482184,0.336921513,-1.029505253
100.963520,2.734291077,-6.737365723,-1.123847961,-0.236679450,0.339973271,-1.030237675
100.964146,1.582252502,-6.737365723,-1.100959778,-0.234115973,0.344489872,-1.031214237
100.964771,0.201332092,-6.401672363,-1.207771301,-0.232162848,0.349128544,-1.031580448
100.965397,-1.324546814,-6.264343262,-1.314582825,-0.236313239,0.353034794,-1.034754276
100.966024,-2.499473572,-6.340637207,-1.657905579,-0.234115973,0.355476201,-1.033167362
100.966649,-3.788841248,-6.050720215,-1.543464661,-0.232651129,0.357795537,-1.030970097
100.967275,-5.207908630,-5.753173828,-1.810493469,-0.232529059,0.361091435,-1.029871464
100.967901,-6.588829041,-5.768432617,-2.176704407,-0.230331793,0.362922490,-1.028894901
100.968527,-7.885826111,-5.333557129,-2.184333801,-0.230942145,0.363410771,-1.024866581
100.969153,-9.487998962,-5.173339844,-2.222480774,-0.228989020,0.367561162,-1.025232792
100.969780,-10.464561462,-5.127563477,-2.382698059,-0.226059332,0.370002568,-1.021692753
100.970405,-11.937034607,-4.799499512,-2.512397766,-0.228866950,0.370979130,-1.022547245
100.971032,-13.165367126,-4.456176758,-2.619209290,-0.229355231,0.372810185,-1.017298222
100.971658,-14.477622986,-4.356994629,-2.741279602,-0.227157965,0.375984013,-1.016565800
100.972284,-16.056907654,-4.318847656,-2.947273254,-0.227157965,0.377692997,-1.013269901
100.972910,-17.170799255,-4.097595215,-3.206672668,-0.227402106,0.380622685,-1.013269901
100.973535,-18.536460876,-3.632202148,-3.511848450,-0.227890387,0.384284794,-1.010950565
100.974161,-19.925010681,-3.327026367,-3.580513000,-0.224594489,0.388679326,-1.010828495
100.974787,-21.199119568,-3.365173340,-3.763618469,-0.225815192,0.392463505,-1.009851933
100.975412,-22.740257263,-3.090515137,-3.931465149,-0.225448981,0.392463505,-1.010950565
100.976038,-23.968589783,-2.846374512,-4.015388489,-0.225326911,0.394904912,-1.011805058
100.976664,-25.227439880,-2.701416016,-4.412117004,-0.226913825,0.397102177,-1.015955448
100.977291,-26.173484802,-2.701416016,-4.587593079,-0.226059332,0.402229130,-1.017298222
100.977917,-27.363670349,-2.388610840,-4.969062805,-0.227890387,0.402473271,-1.019373417
100.978542,-28.492820740,-2.434387207,-5.281867981,-0.232406989,0.404548466,-1.020227909
100.979167,-29.545677185,-1.968994141,-5.403938293,-0.233383551,0.406013310,-1.023767948
100.979792,-30.438316345,-2.113952637,-5.785408020,-0.230698004,0.408576787,-1.026575565
100.992608,-41.607749939,-1.457824707,-13.513984680,-0.280624747,0.465339482,-1.014856815
100.993395,-41.996849060,-1.663818359,-14.055671692,-0.284530997,0.465827763,-1.013880253
100.994021,-42.836082458,-1.335754395,-14.658393860,-0.285873771,0.468147099,-1.012903690
100.994646,-43.545616150,-1.312866211,-14.902534485,-0.285263419,0.464607060,-1.010950565
100.995273,-43.835533142,-1.068725586,-15.390815735,-0.285385489,0.464973271,-1.010096073
100.995900,-44.125450134,-1.145019531,-15.901985168,-0.280746818,0.461799443,-1.006189823
100.996527,-44.476402283,-1.221313477,-16.169013977,-0.283432364,0.463386357,-1.003870487
100.997154,-44.964683533,-0.893249512,-16.802253723,-0.284530997,0.462287724,-1.002283573
100.997780,-45.185935974,-0.656738281,-17.420234680,-0.280014396,0.459968388,-0.996668339
100.998405,-45.414817810,-0.481262207,-17.412605286,-0.283798575,0.461921513,-0.994104862
100.999031,-45.445335388,-0.351562500,-18.213691711,-0.282944083,0.463386357,-0.993982792
100.999657,-45.948875427,0.068054199,-18.732490540,-0.284164786,0.462287724,-0.990931034
101.000284,-46.139610291,0.213012695,-18.946113586,-0.285263419,0.462165654,-0.986658573
101.000910,-46.307456970,0.426635742,-19.716682434,-0.283676505,0.455085576,-0.982141972
101.001535,-46.330345154,0.327453613,-20.098152161,-0.285751700,0.454841435,-0.980188847
101.002160,-46.399009705,0.594482422,-20.471992493,-0.283554435,0.452400029,-0.977869511
101.002785,-46.269309998,0.884399414,-20.891609192,-0.283310294,0.451301396,-0.970545292
101.003412,-46.276939392,0.647888184,-21.738471985,-0.283188224,0.448371708,-0.970057011
101.004038,-46.406639099,1.052246094,-21.875801086,-0.281601310,0.442878544,-0.970911503
101.004664,-46.208274841,1.555786133,-22.524299622,-0.281235099,0.439216435,-0.965174198
101.005289,-45.910728455,1.525268555,-23.012580872,-0.278915763,0.432990849,-0.965540409
101.005915,-45.956504822,1.571044922,-23.508491516,-0.280136466,0.426399052,-0.962976933
101.006540,-45.308006287,1.815185547,-23.950996399,-0.276230216,0.416755497,-0.964197636
101.007166,-44.842613220,2.097473145,-24.401130676,-0.275253654,0.406379521,-0.961634159
101.007792,-44.209373474,2.173767090,-24.980964661,-0.272690177,0.398567021,-0.961756229
101.008418,-43.255699158,2.234802246,-25.209846497,-0.267441154,0.390998662,-0.962366581
101.010210,-40.440452576,2.776489258,-26.750984192,-0.263779044,0.372077763,-0.970179081
101.010835,-39.280784607,2.807006836,-26.995124817,-0.265610099,0.361823857,-0.977381229
101.011460,-38.098228455,2.761230469,-27.483406067,-0.258774161,0.352668583,-0.975916386
101.012085,-36.541831970,2.929077148,-27.956428528,-0.255844474,0.339118779,-0.976160526
101.012711,-34.527671814,3.096923828,-28.231086731,-0.255600333,0.329475224,-0.976038456
101.013338,-32.833946228,3.035888672,-28.513374329,-0.251205802,0.318610966,-0.973841190
101.013964,-30.827415466,3.386840820,-29.123725891,-0.247787848,0.312629521,-0.972620487
101.014589,-28.851402283,3.646240234,-29.436531067,-0.248398200,0.300178349,-0.972986698
101.015215,-26.669395447,3.562316895,-29.650154114,-0.243515387,0.295173466,-0.978601933
101.015842,-24.876487732,3.852233887,-30.161323547,-0.240463629,0.281989872,-0.971643925
101.016468,-22.694480896,4.119262695,-30.497016907,-0.238876715,0.273567021,-0.968348026
101.017094,-20.604026794,3.928527832,-30.619087219,-0.237533942,0.264777958,-0.971033573
101.017721,-18.505943298,4.111633301,-30.924263000,-0.237778082,0.262458622,-0.967005253
101.018347,-16.369712830,4.355773926,-31.244697571,-0.233017340,0.248908818,-0.968348026
101.018972,-14.065635681,4.157409668,-31.397285461,-0.234726325,0.241828740,-0.967371464
101.019597,-11.601341248,4.363403320,-31.671943665,-0.225693122,0.235969365,-0.966150761
101.020223,-9.594810486,4.432067871,-32.091560364,-0.222275153,0.229743779,-0.963953495
101.020848,-7.260215759,4.454956055,-32.144966125,-0.218735114,0.219734013,-0.965418339
101.021473,-5.062950134,4.348144531,-32.427253723,-0.216293707,0.213630497,-0.960169315
101.022098,-2.873313904,4.744873047,-32.686653137,-0.210922614,0.207038701,-0.961512089
101.034808,29.284584045,5.019531250,-33.068122864,-0.100326903,0.153693974,-0.985559940
101.035515,29.605018616,4.897460938,-32.762947083,-0.098251708,0.148200810,-0.983118534
101.036146,29.887306213,5.057678223,-32.610359192,-0.091293700,0.150398076,-0.981531620
101.036771,29.955970764,4.966125488,-32.465400696,-0.086288817,0.148811162,-0.982019901
101.037397,30.024635315,5.111083984,-32.282295227,-0.083114989,0.151862919,-0.978479862
101.038024,29.978858948,4.989013672,-31.916084290,-0.079330809,0.148811162,-0.978724003
101.038651,30.024635315,5.217895508,-31.977119446,-0.073349364,0.146980107,-0.978724003
101.039276,29.826271057,5.309448242,-31.694831848,-0.068588622,0.146735966,-0.974817753
101.039902,29.513465881,5.408630371,-31.435432434,-0.066635497,0.142097294,-0.975550175
101.040527,29.231178284,5.545959473,-31.343879700,-0.064682372,0.137092412,-0.973841190
101.041153,28.918373108,5.507812500,-30.931892395,-0.060287841,0.134651005,-0.972864628
101.041780,28.582679749,5.637512207,-30.718269348,-0.057968505,0.131965458,-0.973474979
101.042407,28.002845764,5.790100098,-30.466499329,-0.050522216,0.128181279,-0.972010136
101.043034,27.682411194,5.782470703,-30.229988098,-0.048447020,0.123908818,-0.974085331
101.043660,27.346717834,5.919799805,-30.298652649,-0.046127684,0.121223271,-0.977625370
101.044285,26.995765686,6.034240723,-29.840888977,-0.039902098,0.119026005,-0.975916386
101.044910,26.423561096,6.141052246,-29.634895325,-0.039902098,0.113654912,-0.976892948
101.045537,25.897132874,6.163940430,-29.444160461,-0.035141356,0.113288701,-0.977503300
101.046164,25.607215881,6.255493164,-29.138984680,-0.034897216,0.107551396,-0.977015018
101.046791,25.126564026,6.209716797,-28.871955872,-0.032333739,0.106696904,-0.980066776
101.047416,24.729835510,6.339416504,-28.582038879,-0.027328856,0.106818974,-0.984827518
101.048041,24.233924866,6.316528320,-28.337898254,-0.024765380,0.103523076,-0.986170292
101.048668,23.661720276,6.598815918,-27.864875793,-0.023422606,0.099006474,-0.987390995
101.049294,23.524391174,6.293640137,-27.857246399,-0.017807372,0.097907841,-0.995081425
101.049920,23.097145081,6.438598633,-27.498664856,-0.011825928,0.096442997,-0.992762089
101.050545,22.730934143,6.629333496,-27.323188782,-0.011581787,0.096565068,-0.996912479
101.051170,22.265541077,6.415710449,-26.918830872,-0.009628662,0.094856083,-0.998987675
101.051797,21.815406799,6.591186523,-26.606025696,-0.006698974,0.092658818,-0.998743534
101.052423,21.319496155,6.568298340,-26.514472961,-0.001938232,0.094367802,-1.003138065
101.053049,21.067726135,6.514892578,-26.308479309,0.002212158,0.095222294,-1.004480839
101.053675,20.609962463,6.423339844,-25.797309875,0.007094971,0.091193974,-1.002771854
101.054301,19.953834534,6.873474121,-25.629463196,0.007827393,0.094611943,-1.004969120
101.054927,19.625770569,6.697998047,-25.194587708,0.011489502,0.096687138,-1.003626347
101.055553,18.862831116,6.728515625,-25.019111633,0.012343994,0.095100224,-1.001429081
101.056272,18.229591370,6.842956543,-24.691047668,0.017470948,0.097907841,-1.001429081
101.056897,17.603981018,7.140502930,-24.500312805,0.018691652,0.101203740,-0.998621464
101.057522,16.963111877,6.980285645,-24.332466125,0.022719972,0.101814091,-0.999109745
101.058149,16.337501526,7.125244141,-23.790779114,0.020034425,0.104865849,-0.995081425
101.058775,15.566932678,7.361755371,-23.584785461,0.020156495,0.107429326,-0.992273808
101.060605,12.698280334,7.758483887,-22.646369934,0.019912355,0.109138310,-0.978724003
101.061231,11.447059631,7.933959961,-22.325935364,0.018447511,0.108161747,-0.974817753
101.061858,10.790931702,8.117065430,-22.226753235,0.020034425,0.112312138,-0.969934940
101.062483,9.791481018,8.406982422,-21.967353821,0.013930908,0.110359013,-0.967371464
101.063109,8.509742737,8.429870605,-21.448554993,0.011123291,0.111213505,-0.964319706
101.063736,7.456886292,8.567199707,-21.379890442,0.010390869,0.114753544,-0.959803104
101.064362,6.342994690,8.826599121,-21.196784973,0.006362549,0.114265263,-0.959681034
101.064987,5.099403381,8.895263672,-20.731391907,0.005385987,0.114509404,-0.956385136
101.077806,-3.491294861,11.168823242,-14.986457825,-0.032822020,0.044441041,-1.000940800
101.078597,-3.086936951,11.138305664,-14.803352356,-0.035995848,0.044807252,-0.997644901
101.079222,-2.247703552,11.039123535,-14.551582336,-0.033432372,0.037116822,-0.995081425
101.079849,-1.553428650,11.031494141,-14.009895325,-0.035019286,0.036384400,-0.999598026
101.080474,-0.737083435,11.092529297,-14.162483215,-0.034775145,0.033088502,-0.997522831
101.081099,0.064002991,11.107788086,-13.575019836,-0.039291747,0.027961548,-0.996790409
101.081724,1.345741272,10.993347168,-13.323249817,-0.039780028,0.025520142,-0.997034550
101.082349,2.223121643,10.672912598,-13.071479797,-0.034042723,0.024421509,-0.997278690
101.082975,3.398048401,10.901794434,-12.697639465,-0.038803466,0.022224244,-0.993616581
101.083602,4.435646057,11.092529297,-12.598457336,-0.038925536,0.021247681,-0.992517948
101.084227,5.915748596,10.924682617,-12.201728821,-0.039902098,0.021125611,-0.994349003
101.084852,7.189857483,10.863647461,-11.827888489,-0.042587645,0.021613892,-0.991785526
101.085478,8.410560608,10.947570801,-11.728706360,-0.043686278,0.020515259,-0.994104862
101.086104,9.738075256,11.069641113,-11.553230286,-0.048202880,0.016609009,-0.991419315
101.086729,11.241065979,10.856018066,-10.965766907,-0.046615966,0.020149048,-0.993372440
101.087354,12.713539124,11.123046875,-10.744514465,-0.048569091,0.022712525,-0.994715214
101.087981,14.369117737,11.519775391,-10.584297180,-0.053573973,0.027229127,-0.992640018
101.088608,15.566932678,11.252746582,-10.469856262,-0.055282958,0.029426392,-0.996180058
101.089234,17.115699768,11.390075684,-10.126533508,-0.060654052,0.033576783,-0.990808964
101.089861,18.588172913,11.580810547,-10.096015930,-0.063705809,0.035407837,-0.991419315
101.090488,19.862281799,11.580810547,-9.722175598,-0.067245848,0.041633423,-0.993616581
101.091114,21.365272522,11.611328125,-9.485664368,-0.069687255,0.043586548,-0.994226933
101.091741,22.524940491,11.931762695,-9.310188293,-0.076523192,0.047004517,-0.993128300
101.092368,24.020301819,11.596069336,-9.256782532,-0.076889403,0.050910767,-0.995935917
101.092993,25.172340393,11.916503906,-9.081306458,-0.080429442,0.056892212,-0.995813847
101.093619,26.614295959,12.000427246,-8.875312805,-0.084579833,0.063239872,-1.000452518
101.094246,27.834999084,11.847839355,-8.768501282,-0.088364013,0.065070927,-0.999353886
101.094872,29.009925842,11.962280273,-8.783760071,-0.090439208,0.069587529,-1.002771854
101.095498,30.017005920,11.885986328,-8.623542786,-0.092026122,0.074348271,-1.005091190
101.096124,30.932533264,11.985168457,-8.409919739,-0.094345458,0.080695927,-1.008997440
101.096750,32.084571838,12.122497559,-8.364143372,-0.096176513,0.084602177,-1.009974003
101.097376,33.167945862,12.099609375,-8.478584290,-0.095566161,0.087287724,-1.011805058
101.098001,33.648597717,11.954650879,-8.295478821,-0.099960692,0.094367802,-1.013880253
101.098628,34.739601135,12.221679688,-8.165779114,-0.100204833,0.094978154,-1.020472050
101.099290,35.372840881,12.107238770,-8.226814270,-0.100448973,0.102912724,-1.024866581
101.099917,36.067115784,11.855468750,-7.830085754,-0.106186278,0.105720341,-1.028162479
101.100543,36.723243713,11.863098145,-7.967414856,-0.107284911,0.111213505,-1.030237675
101.101169,37.387001038,11.702880859,-7.852973938,-0.110336669,0.115363896,-1.035730839
101.101795,38.088905334,11.832580566,-7.944526672,-0.111557372,0.116584599,-1.041468143
101.102420,38.539039612,11.527404785,-7.952156067,-0.113632567,0.121589482,-1.041224003
101.103047,38.935768127,11.512145996,-7.784309387,-0.116806395,0.124641240,-1.046350956
101.103673,39.408790588,11.397705078,-7.654609680,-0.122665770,0.130134404,-1.053186893
101.104298,39.660560608,11.115417480,-7.837715149,-0.124130614,0.132697880,-1.053919315
101.104925,40.125953674,11.268005371,-7.700386047,-0.128647223,0.135383427,-1.059290409
101.105550,40.545570374,11.077270508,-7.921638489,-0.132675543,0.138801396,-1.059656620
101.106175,40.522682190,10.749206543,-7.997932434,-0.137436286,0.142463505,-1.062586308
101.106802,40.797340393,10.711059570,-7.669868469,-0.145859137,0.140632451,-1.066004276
101.120820,38.249122620,4.081115723,-8.585395813,-0.166000739,0.139289677,-1.092859745
101.121579,38.188087463,4.020080566,-8.806648254,-0.167953864,0.134773076,-1.091028690
101.122206,38.035499573,3.600463867,-8.730354309,-0.166611090,0.136726201,-1.089930058
101.122831,38.020240784,3.295288086,-8.791389465,-0.162460700,0.131477177,-1.090052128
101.123456,37.867652893,3.066406250,-8.936347961,-0.163193122,0.132575810,-1.089319706
101.124083,37.959205627,2.799377441,-8.982124329,-0.161606207,0.130134404,-1.087000370
101.124710,37.783729553,2.318725586,-8.860054016,-0.154770270,0.129401982,-1.089441776
101.125337,37.715065002,2.127990723,-8.943977356,-0.156479254,0.125739872,-1.085291386
101.125962,37.867652893,1.853332520,-9.020271301,-0.155502692,0.120857060,-1.082361698
101.126588,37.913429260,1.242980957,-8.890571594,-0.152695075,0.119636357,-1.080652714
101.127215,37.753211975,1.334533691,-9.134712219,-0.152450934,0.116340458,-1.080408573
101.127840,37.852394104,1.036987305,-9.104194641,-0.144638434,0.118293583,-1.079187870
101.128466,37.783729553,0.609741211,-9.050788879,-0.139999762,0.116584599,-1.073084354
101.129091,37.898170471,0.655517578,-9.020271301,-0.137314215,0.116950810,-1.073572636
101.129716,37.646400452,0.480041504,-9.195747375,-0.134018317,0.113044560,-1.068933964
101.130343,37.753211975,0.159606934,-9.249153137,-0.134262457,0.114265263,-1.069178104
101.130969,37.646400452,-0.008239746,-9.294929504,-0.128769293,0.114143193,-1.064295292
101.131594,37.516700745,-0.176086426,-9.325447083,-0.125229254,0.117439091,-1.060755253
101.132219,37.524330139,-0.183715820,-9.294929504,-0.121567138,0.117927372,-1.058680058
101.132846,37.242042542,-0.466003418,-9.348335266,-0.123276122,0.119514287,-1.058435917
101.133471,37.066566467,-0.290527344,-9.317817688,-0.116196044,0.123420537,-1.054651737
101.134096,36.593544006,-0.595703125,-9.249153137,-0.114731200,0.127082646,-1.049524784
101.134722,36.219703674,-0.542297363,-9.409370422,-0.111923583,0.130378544,-1.046839237
101.135347,35.967933655,-0.481262207,-9.439888000,-0.107773192,0.133186162,-1.044886112
101.135973,35.159217834,-0.633850098,-9.432258606,-0.102890380,0.134895146,-1.040735722
101.136600,34.815895081,-0.733032227,-9.401741028,-0.100204833,0.140876591,-1.042932987
101.137226,34.045326233,-0.633850098,-9.523811340,-0.099350341,0.143317997,-1.040003300
101.137852,33.145057678,-0.511779785,-9.767951965,-0.098373778,0.148811162,-1.038050175
101.138477,32.527076721,-0.763549805,-9.676399231,-0.098862059,0.155036747,-1.034632206
101.139104,31.443702698,-0.710144043,-9.645881653,-0.093246825,0.159797490,-1.028162479
101.139731,30.284034729,-0.679626465,-9.912910461,-0.095199950,0.158942997,-1.030848026
101.140358,29.200660706,-0.679626465,-9.851875305,-0.091537841,0.162971318,-1.024744511
101.140984,28.361427307,-0.610961914,-10.050239563,-0.092148192,0.160529912,-1.024622440
101.141609,26.896583557,-0.420227051,-10.172309875,-0.084701903,0.160529912,-1.021936893
101.142234,25.561439514,-0.595703125,-10.111274719,-0.082870848,0.162360966,-1.019373417
101.142860,24.241554260,-0.565185547,-10.218086243,-0.082138427,0.160651982,-1.014490604
101.143485,23.058998108,-0.633850098,-10.218086243,-0.080185302,0.161872685,-1.015100956
101.144110,21.632301331,-0.542297363,-10.271492004,-0.073715575,0.165656865,-1.011682987
101.144736,19.854652405,-0.466003418,-10.302009583,-0.070419677,0.165534794,-1.015345097
101.145361,18.252479553,-0.511779785,-10.523262024,-0.067612059,0.164802372,-1.007410526
101.145988,16.780006409,-0.404968262,-10.378303528,-0.069076903,0.163215458,-1.006800175
101.146615,15.086280823,-0.359191895,-10.469856262,-0.062851317,0.163581669,-1.007898808
101.147240,13.529884338,-0.183715820,-10.431709290,-0.063949950,0.163703740,-1.005823612
101.147865,11.630165100,-0.382080078,-10.431709290,-0.059555419,0.165656865,-1.002649784
101.148492,9.913551331,-0.298156738,-10.805549622,-0.055405028,0.163703740,-1.003382206
101.149118,8.639442444,-0.267639160,-10.736885071,-0.052597411,0.164314091,-1.004724979
101.168647,-22.122276306,2.181396484,-8.036079407,0.012954346,0.033698853,-0.933069706
101.169477,-22.297752380,2.311096191,-7.715644836,0.011855713,0.032356080,-0.932459354
101.171344,-22.930992126,3.508911133,-7.006111145,0.008315674,0.021980103,-0.923059940
101.171969,-23.083580017,4.004821777,-6.937446594,0.008681885,0.017219361,-0.921106815
101.172594,-23.266685486,4.363403320,-6.685676575,0.010635010,0.013923462,-0.918909550
101.173221,-23.465049744,4.622802734,-6.357612610,0.011489502,0.015388306,-0.918665409
101.173846,-23.556602478,5.011901855,-6.258430481,0.012588135,0.012458619,-0.920862675
101.174472,-23.869407654,5.294189453,-5.815925598,0.011489502,0.012580689,-0.918177128
101.175098,-24.212730408,5.652770996,-5.625190735,0.012954346,0.012336548,-0.919764042
101.175724,-24.235618591,6.003723145,-5.442085266,0.009414307,0.016242798,-0.920252323
101.176351,-24.632347107,6.392822266,-5.182685852,0.007827393,0.014045533,-0.920862675
101.176978,-25.341880798,6.949768066,-4.435005188,-0.000107178,0.015266236,-0.927332401
101.177604,-25.708091736,6.995544434,-4.358711243,-0.004135498,0.016731080,-0.933191776
101.178229,-25.898826599,6.965026855,-4.061164856,-0.003769287,0.015876587,-0.938074589
101.178856,-25.982749939,7.308349609,-3.862800598,-0.006821045,0.015510377,-0.943811893
101.179481,-26.280296326,7.445678711,-3.549995422,-0.007065185,0.018317994,-0.945520878
101.180107,-26.677024841,7.331237793,-3.336372375,-0.010239013,0.018195923,-0.953455448
101.180733,-27.020347595,7.186279297,-3.145637512,-0.011947998,0.015876587,-0.959803104
101.181358,-27.264488220,7.460937500,-2.535285950,-0.012802490,0.014167603,-0.964319706
101.181984,-27.150047302,7.262573242,-2.390327454,-0.013779053,0.015876587,-0.968103886
101.182609,-27.287376404,7.171020508,-2.146186829,-0.016830809,0.014900025,-0.977625370
101.183235,-27.356040955,7.254943848,-1.779975891,-0.020737059,0.013313111,-0.981165409
101.183860,-27.508628845,7.285461426,-1.482429504,-0.022812255,0.013801392,-0.987146854
101.184485,-27.760398865,7.064208984,-1.291694641,-0.026962645,0.015022095,-0.990442753
101.185110,-27.737510681,6.774291992,-0.826301575,-0.026474364,0.013801392,-0.994226933
101.185737,-27.432334900,6.751403809,-0.627937317,-0.030380614,0.012580689,-0.994837284
101.186364,-27.348411560,6.553039551,-0.383796692,-0.028671630,0.012946900,-0.995691776
101.186990,-27.424705505,6.057128906,-0.284614563,-0.026840575,0.012946900,-0.994471073
101.187617,-27.279747009,6.041870117,0.051078796,-0.025986083,0.016486939,-1.002161503
101.188243,-27.295005798,5.721435547,0.409660339,-0.025864013,0.026008423,-1.000940800
101.188869,-27.066123962,5.469665527,0.730094910,-0.029281981,0.025642212,-1.008020878
101.189495,-27.287376404,5.172119141,1.004753113,-0.040024169,0.028449830,-1.007898808
101.190120,-27.211082458,5.385742188,1.172599792,-0.042221434,0.026374634,-0.997766972
101.190762,-26.730430603,5.088195801,1.637992859,-0.047958739,0.018684205,-0.993738651
101.191387,-26.524436951,5.118713379,1.874504089,-0.057236083,0.021369752,-0.993250370
101.192013,-26.127708435,4.821166992,2.095756531,-0.066269286,0.021369752,-0.987635136
101.192638,-25.936973572,4.470214844,2.324638367,-0.079452880,0.024543580,-0.987268925
101.193265,-25.547874451,4.424438477,2.210197449,-0.085312255,0.023200806,-0.987513065
101.193892,-25.364768982,3.920898438,2.431449890,-0.091415770,0.024055298,-0.983850956
101.194517,-25.051963806,3.630981445,2.683219910,-0.085678466,0.022834595,-0.986048222
101.195143,-25.105369568,3.096923828,3.202018738,-0.079574950,0.025398072,-0.986048222
101.195768,-24.845970154,3.096923828,3.392753601,-0.072861083,0.021247681,-0.979578495
101.196395,-24.342430115,2.829895020,3.827629089,-0.069198973,0.015876587,-0.977991581
101.197021,-24.067771912,2.776489258,4.231987000,-0.069565184,0.018562134,-0.976038456
101.197646,-23.747337341,2.753601074,4.064140320,-0.069076903,0.019050416,-0.976404667
101.198271,-23.556602478,2.593383789,4.483757019,-0.070175536,0.021613892,-0.978846073
101.198897,-22.992027283,2.562866211,4.705009460,-0.069687255,0.014533814,-0.972986698
101.211724,-8.038414001,-0.076904297,10.617790222,-0.062729247,0.020881470,-0.970423222
101.212492,-7.283103943,-0.244750977,10.770378113,-0.068100341,0.026618775,-0.972254276
101.213118,-6.596458435,-0.351562500,11.205253601,-0.069687255,0.026252564,-0.971399784
101.213744,-5.627525330,-0.908508301,11.189994812,-0.071518309,0.031257447,-0.972986698
101.214369,-4.711997986,-1.114501953,11.548576355,-0.069443114,0.036628541,-0.972498417
101.214994,-4.071128845,-1.373901367,11.800346375,-0.067612059,0.040168580,-0.967859745
101.215620,-3.292930603,-1.640930176,12.013969421,-0.065170653,0.045783814,-0.971399784
101.216245,-2.583396912,-1.808776855,12.654838562,-0.064316161,0.046150025,-0.971888065
101.216871,-2.079856873,-1.732482910,12.548027039,-0.063095458,0.053962525,-0.976404667
101.217496,-1.255882263,-2.052917480,12.929496765,-0.063461669,0.056770142,-0.972986698
101.218123,-0.782859802,-2.266540527,13.112602234,-0.064316161,0.056892212,-0.973963261
101.218750,0.231849670,-2.319946289,13.402519226,-0.067856200,0.054572877,-0.971521854
101.219376,1.132118225,-2.556457520,13.440666199,-0.062607177,0.061042603,-0.969934940
101.220011,1.788246155,-3.052368164,13.738212585,-0.061630614,0.063239872,-0.966394901
101.221819,3.573524475,-3.586425781,14.478263855,-0.059067138,0.076545537,-0.962122440
101.222445,3.962623596,-3.662719727,14.524040222,-0.058578856,0.076789677,-0.960535526
101.223070,4.405128479,-3.792419434,14.852104187,-0.057358153,0.083259404,-0.959436893
101.223695,4.611122131,-4.036560059,15.012321472,-0.054184325,0.086067021,-0.961878300
101.224321,5.137550354,-4.074707031,15.256462097,-0.052353270,0.089362919,-0.954554081
101.224946,5.282508850,-4.303588867,15.340385437,-0.054794677,0.093391240,-0.954187870
101.225572,5.717384338,-4.524841309,15.760002136,-0.051376708,0.095954716,-0.954065800
101.226199,5.999671936,-4.608764648,15.805778503,-0.050156005,0.101325810,-0.954554081
101.226824,6.381141663,-4.746093750,15.950737000,-0.045517333,0.106086552,-0.953821659
101.227451,6.846534729,-5.081787109,15.988883972,-0.045151122,0.111213505,-0.953577518
101.228076,6.938087463,-4.982604980,16.377983093,-0.045517333,0.113776982,-0.951746464
101.228701,7.182228088,-5.287780762,16.561088562,-0.040024169,0.120857060,-0.951868534
101.229328,7.273780823,-5.386962891,16.713676453,-0.041489013,0.121833622,-0.948450565
101.229955,7.289039612,-5.600585938,16.912040710,-0.042343505,0.126350224,-0.950159550
101.230580,7.601844788,-5.615844727,17.232475281,-0.039780028,0.129035771,-0.949060917
101.231205,7.754432678,-5.875244141,16.995964050,-0.039047606,0.130134404,-0.945887089
101.231831,7.914649963,-5.661621094,17.217216492,-0.039657958,0.137336552,-0.944910526
101.232457,7.975685120,-6.081237793,17.659721375,-0.040268309,0.142341435,-0.946375370
101.233083,7.578956604,-6.264343262,17.598686218,-0.042587645,0.145393193,-0.946619511
101.233709,7.540809631,-6.447448730,17.736015320,-0.043564208,0.152473271,-0.949427128
101.234335,7.243263245,-6.714477539,17.880973816,-0.045151122,0.151740849,-0.949915409
101.234960,7.502662659,-6.790771484,18.109855652,-0.041611083,0.153449833,-0.947107792
101.235585,7.670509338,-7.149353027,17.865715027,-0.042221434,0.153327763,-0.944544315
101.236211,7.983314514,-7.111206055,18.209037781,-0.032333739,0.158332646,-0.943445683
101.236837,8.044349670,-7.378234863,18.201408386,-0.030136473,0.162360966,-0.941004276
101.237463,8.303749084,-7.393493652,18.338737488,-0.025009520,0.167854130,-0.937098026
101.238088,8.166419983,-7.012023926,18.529472351,-0.022323973,0.170539677,-0.932703495
101.238713,8.257972717,-7.164611816,18.575248718,-0.023178466,0.171760380,-0.930994511
101.239338,8.158790588,-7.256164551,18.636283875,-0.025375731,0.177497685,-0.927698612
101.239963,7.960426331,-7.202758789,18.712577820,-0.025619872,0.179572880,-0.929163456
101.240588,7.792579651,-7.027282715,18.773612976,-0.025864013,0.184699833,-0.923426151
101.241215,7.563697815,-7.240905762,18.781242371,-0.028793700,0.189582646,-0.922571659
101.241840,7.670509338,-7.248535156,18.956718445,-0.030624755,0.191779912,-0.916101933
101.254694,4.542457581,-4.578247070,18.224296570,-0.020859130,0.263191044,-0.887537479
101.255480,4.412757874,-4.196777344,18.292961121,-0.025986083,0.265998662,-0.887537479
101.256105,4.283058167,-4.196777344,18.209037781,-0.025864013,0.270026982,-0.891565800
101.256731,3.886329651,-3.990783691,18.056449890,-0.023910888,0.270149052,-0.890833378
101.257357,3.855812073,-3.960266113,18.094596863,-0.025986083,0.275642216,-0.893640995
101.257983,3.390419006,-3.616943359,17.606315613,-0.027328856,0.281013310,-0.892664433
101.258609,3.245460510,-3.563537598,17.659721375,-0.025986083,0.283942997,-0.893030643
101.259234,2.757179260,-3.563537598,17.644462585,-0.027572997,0.285896122,-0.893518925
101.259859,2.558815002,-3.296508789,17.331657410,-0.031235106,0.287605107,-0.897303104
101.260503,2.177345276,-3.143920898,17.377433777,-0.032944091,0.294196904,-0.901819706
101.261129,1.757728577,-2.998962402,17.293510437,-0.036239989,0.294318974,-0.899134159
101.261755,1.414405823,-3.235473633,17.179069519,-0.039047606,0.297248662,-0.905848026
101.262380,0.971900940,-2.991333008,16.759452820,-0.037826903,0.297736943,-0.909143925
101.263013,0.887977600,-2.907409668,16.599235535,-0.039169677,0.297370732,-0.911219120
101.263638,0.521766663,-3.121032715,16.545829773,-0.042709716,0.299079716,-0.911829472
101.264265,0.308143616,-3.113403320,16.416130066,-0.041733153,0.299079716,-0.915003300
101.264891,0.201332092,-3.098144531,16.179618835,-0.041244872,0.301643193,-0.915247440
101.265516,0.125038147,-3.059997559,16.141471863,-0.039291747,0.301154912,-0.917200565
101.266141,0.086891174,-3.250732422,16.011772156,-0.042221434,0.301032841,-0.915247440
101.266766,-0.149620056,-2.922668457,15.698966980,-0.040878661,0.301399052,-0.918665409
101.267391,-0.347984314,-3.204956055,15.538749695,-0.045151122,0.304450810,-0.916712284
101.268018,-0.332725525,-3.212585449,15.378532410,-0.045761473,0.303108037,-0.918909550
101.268644,-0.462425232,-3.204956055,15.294609070,-0.047958739,0.305305302,-0.917566776
101.269270,-0.325096130,-3.082885742,14.920768738,-0.052475341,0.308112919,-0.919031620
101.269897,-0.325096130,-3.296508789,14.867362976,-0.054062255,0.307746708,-0.922327518
101.270522,-0.569236755,-3.319396973,14.516410828,-0.055282958,0.308967412,-0.919275761
101.272342,-0.599754333,-3.746643066,13.997612000,-0.059555419,0.312263310,-0.923548222
101.272967,-0.180137634,-3.677978516,13.646659851,-0.064316161,0.313606083,-0.925379276
101.273593,-0.370872498,-4.021301270,13.654289246,-0.064194091,0.314216435,-0.927088261
101.274220,-0.424278259,-4.257812500,13.074455261,-0.065170653,0.313728154,-0.931360722
101.274846,0.117408752,-4.334106445,13.021049500,-0.064072020,0.311775029,-0.932215214
101.275471,-0.157249451,-4.532470703,12.921867371,-0.064926513,0.310798466,-0.932459354
101.276097,0.414955139,-4.723205566,12.555656433,-0.063949950,0.309333622,-0.932215214
101.276723,0.666725159,-4.959716797,12.342033386,-0.062851317,0.307868779,-0.934168339
101.277350,1.055824280,-4.776611328,12.181816101,-0.067489989,0.307624638,-0.932703495
101.277976,1.254188538,-4.990234375,11.945304871,-0.063339598,0.305427372,-0.936731815
101.278602,1.650917053,-5.249633789,11.769828796,-0.062363036,0.307624638,-0.933435917
101.279228,1.994239807,-5.226745605,11.380729675,-0.060287841,0.306526005,-0.938318729
101.279854,2.246009827,-5.417480469,11.113700867,-0.061142333,0.309821904,-0.932215214
101.280479,2.970802307,-5.455627441,11.151847839,-0.061752684,0.309821904,-0.932581425
101.281104,3.039466858,-5.493774414,10.869560242,-0.063339598,0.310798466,-0.932093143
101.281729,3.359901428,-5.692138672,10.488090515,-0.062729247,0.315681279,-0.933069706
101.282356,3.932106018,-5.936279297,10.449943542,-0.060776122,0.315192997,-0.930262089
101.282983,4.054176331,-5.936279297,10.160026550,-0.060409911,0.318366826,-0.928064823
101.283610,4.176246643,-6.012573242,9.793815613,-0.061752684,0.321906865,-0.928675175
101.284236,4.473793030,-6.271972656,9.862480164,-0.063095458,0.320319951,-0.924524784
101.284862,4.458534241,-6.447448730,9.496269226,-0.061142333,0.323859990,-0.920984745
101.297600,7.075416565,-7.866516113,5.269584656,-0.066147216,0.318366826,-0.902307987
101.298324,7.060157776,-8.003845215,5.399284363,-0.066879638,0.312263310,-0.903040409
101.298950,7.517921448,-7.866516113,5.002555847,-0.064560302,0.312873662,-0.902063847
101.299576,7.624732971,-7.912292480,4.987297058,-0.059189208,0.315437138,-0.903894901
101.300203,7.899391174,-8.133544922,4.544792175,-0.060531981,0.310554326,-0.902796268
101.300828,8.212196350,-8.232727051,4.453239441,-0.058334716,0.312629521,-0.900354862
101.301454,8.494483948,-8.080139160,4.369316101,-0.056259520,0.310920537,-0.904016972
101.302079,8.837806702,-8.270874023,4.025993347,-0.052353270,0.312629521,-0.902185917
101.302704,9.181129456,-8.255615234,3.728446960,-0.050278075,0.319343388,-0.901331425
101.303329,9.532081604,-8.110656738,3.858146667,-0.047836669,0.319343388,-0.902918339
101.303955,9.547340393,-8.392944336,3.545341492,-0.053573973,0.321174443,-0.904627323
101.304580,9.982215881,-8.354797363,3.377494812,-0.055160888,0.322273076,-0.905970097
101.305205,10.104286194,-8.415832520,3.118095398,-0.057846434,0.323982060,-0.906458378
101.305832,10.432350159,-8.576049805,2.934989929,-0.057358153,0.323982060,-0.904993534
101.306458,10.623085022,-8.682861328,2.759513855,-0.057602294,0.326911747,-0.906946659
101.307085,10.813819885,-8.949890137,2.683219910,-0.059799559,0.326057255,-0.903772831
101.307711,10.867225647,-8.873596191,2.309379578,-0.062363036,0.327033818,-0.905115604
101.308338,11.126625061,-8.827819824,2.194938660,-0.062607177,0.327644169,-0.903406620
101.308964,11.111366272,-9.178771973,2.042350769,-0.061386473,0.329353154,-0.902796268
101.309589,11.416542053,-9.110107422,1.645622253,-0.062607177,0.333259404,-0.901941776
101.310214,11.439430237,-9.178771973,1.538810730,-0.063827880,0.333381474,-0.905359745
101.310841,11.263954163,-9.354248047,1.309928894,-0.066635497,0.337409794,-0.907557011
101.311466,11.241065979,-9.598388672,1.050529480,-0.068222411,0.340217412,-0.902063847
101.312091,11.073219299,-9.598388672,1.020011902,-0.068100341,0.345588505,-0.901941776
101.312716,10.867225647,-9.728088379,0.913200378,-0.071640380,0.347907841,-0.898035526
101.313342,10.874855042,-9.621276855,0.363883972,-0.076156981,0.351692021,-0.899378300
101.313968,10.439979553,-9.903564453,0.302848816,-0.073227294,0.354499638,-0.899988651
101.314593,9.936439514,-9.918823242,-0.040473938,-0.078354247,0.357795537,-0.894739628
101.315218,9.661781311,-10.262145996,-0.086250305,-0.076889403,0.362678349,-0.896204472
101.315845,9.585487366,-10.170593262,-0.498237610,-0.079208739,0.365485966,-0.895227909
101.316472,8.784400940,-10.254516602,-0.513496399,-0.077011473,0.364875615,-0.891443729
101.317097,8.593666077,-10.506286621,-0.841560364,-0.076523192,0.368415654,-0.889002323
101.317723,7.777320862,-10.452880859,-1.055183411,-0.079697020,0.366462529,-0.885340214
101.318348,7.304298401,-10.437622070,-1.322212219,-0.076523192,0.368049443,-0.882898808
101.318974,6.655799866,-10.582580566,-1.520576477,-0.080185302,0.371955693,-0.882776737
101.319599,6.083595276,-10.521545410,-1.802864075,-0.079208739,0.370246708,-0.879236698
101.320225,5.564796448,-10.597839355,-2.008857727,-0.084091552,0.370490849,-0.878138065
101.320851,4.687416077,-10.735168457,-2.222480774,-0.082504638,0.373176396,-0.873499393
101.322682,3.146278381,-10.819091797,-2.977790833,-0.083969481,0.371345341,-0.865442753
101.323309,2.398597717,-10.780944824,-3.008308411,-0.082382567,0.371711552,-0.861414433
101.323934,1.711952209,-10.727539062,-3.214302063,-0.084823973,0.367683232,-0.858484745
101.324580,1.193153381,-10.872497559,-3.611030579,-0.080429442,0.365608037,-0.857630253
101.325206,0.620948792,-10.727539062,-3.908576965,-0.083237059,0.364143193,-0.854822636
101.325833,0.224220276,-10.841979980,-4.076423645,-0.082870848,0.364143193,-0.852503300
101.326459,-0.248802185,-10.513916016,-4.305305481,-0.084946044,0.360725224,-0.849817753
101.327085,-0.912559509,-10.361328125,-4.610481262,-0.083969481,0.358894169,-0.847742558
101.327712,-1.248252869,-10.307922363,-4.793586731,-0.084579833,0.351936162,-0.846155643
101.340548,6.777870178,-6.958618164,-8.676948547,-0.063339598,0.259773076,-0.787439823
101.341329,7.762062073,-6.706848145,-8.821907043,-0.059555419,0.253791630,-0.784876347
101.341956,8.776771545,-6.439819336,-8.989753723,-0.061752684,0.255256474,-0.784754276
101.342582,9.715187073,-6.027832031,-9.088935852,-0.060654052,0.249397099,-0.780237675
101.343207,10.569679260,-5.638732910,-9.310188293,-0.062729247,0.248908818,-0.777674198
101.343832,11.614906311,-5.104675293,-9.241523743,-0.063949950,0.250129521,-0.773645878
101.344459,12.675392151,-4.662170410,-9.493293762,-0.060776122,0.245124638,-0.770838261
101.345085,13.499366760,-4.456176758,-9.699287415,-0.060287841,0.248054326,-0.770716190
101.345711,14.582740784,-3.723754883,-9.714546204,-0.060165770,0.247321904,-0.764124393
101.346336,15.208351135,-3.319396973,-9.890022278,-0.060654052,0.247566044,-0.764490604
101.346962,16.093360901,-2.731933594,-9.783210754,-0.066757567,0.243659794,-0.760828495
101.347587,16.841041565,-2.487792969,-10.027351379,-0.064194091,0.247443974,-0.757288456
101.348212,17.710792542,-1.831665039,-10.065498352,-0.065170653,0.245734990,-0.750696659
101.348839,18.458473206,-1.175537109,-10.370674133,-0.066269286,0.249519169,-0.750940800
101.349465,19.000160217,-0.748291016,-10.698738098,-0.064682372,0.249885380,-0.746180058
101.350091,19.641029358,-0.046386719,-10.462226868,-0.065292723,0.249275029,-0.743738651
101.350716,20.129310608,0.556335449,-10.782661438,-0.069076903,0.249641240,-0.746057987
101.351341,20.686256409,1.021728516,-10.775032043,-0.066879638,0.251960576,-0.745691776
101.351968,21.075355530,1.479492188,-10.843696594,-0.069076903,0.254157841,-0.744349003
101.352594,21.632301331,2.120361328,-11.095466614,-0.068466552,0.259651005,-0.747034550
101.353220,21.784889221,2.829895020,-11.118354797,-0.066147216,0.257575810,-0.750818729
101.353845,21.937477112,3.379211426,-11.324348450,-0.069931395,0.263313115,-0.753138065
101.354470,22.402870178,3.959045410,-11.499824524,-0.070419677,0.261604130,-0.751429081
101.355097,22.189247131,4.424438477,-11.568489075,-0.077377684,0.264533818,-0.757166386
101.355722,22.273170471,4.943237305,-11.599006653,-0.077255614,0.263068974,-0.764978886
101.356347,22.418128967,5.416259766,-11.637153625,-0.082138427,0.260627568,-0.766932011
101.356972,22.654640198,6.018981934,-11.919441223,-0.083725341,0.262092412,-0.769495487
101.357598,22.715675354,6.247863770,-12.110176086,-0.085312255,0.258552372,-0.775232792
101.358225,22.372352600,6.797180176,-12.361946106,-0.087021239,0.255988896,-0.780848026
101.358851,22.433387756,7.079467773,-12.216987610,-0.089706786,0.256477177,-0.784876347
101.359477,22.662269592,7.491455078,-12.255134583,-0.091293700,0.250617802,-0.791468143
101.360104,22.585975647,7.758483887,-12.575569153,-0.095566161,0.247566044,-0.796106815
101.360729,22.685157776,8.216247559,-12.545051575,-0.094101317,0.245612919,-0.800501347
101.361354,22.578346252,8.391723633,-12.590827942,-0.092636473,0.243293583,-0.803919315
101.361979,22.967445374,8.719787598,-12.743415833,-0.096908934,0.241950810,-0.809900761
101.362605,22.860633850,8.994445801,-13.094367981,-0.097519286,0.243659794,-0.817591190
101.363230,23.013221741,8.979187012,-12.911262512,-0.097763427,0.241584599,-0.823572636
101.363856,22.776710510,9.375915527,-12.957038879,-0.100204833,0.237556279,-0.829920292
101.364481,22.860633850,9.703979492,-13.048591614,-0.101669677,0.236335576,-0.830774784
101.365106,22.997962952,9.940490723,-13.300361633,-0.104843505,0.240363896,-0.838465214
101.365732,22.746192932,10.131225586,-13.391914368,-0.105331786,0.236579716,-0.843958378
101.366357,22.761451721,10.093078613,-13.460578918,-0.110458739,0.236579716,-0.849207401
101.366982,22.540199280,10.138854980,-13.689460754,-0.108993895,0.238166630,-0.856775761
101.367608,22.547828674,10.459289551,-13.948860168,-0.111801513,0.238044560,-0.860071659
101.368233,22.532569885,10.436401367,-13.796272278,-0.109238036,0.236335576,-0.864099979
101.368858,22.463905334,10.573730469,-14.093818665,-0.110214598,0.233405888,-0.870569706
101.382846,17.550575256,10.688171387,-15.604438782,-0.130600348,0.206550419,-0.911341190
101.383576,17.298805237,10.604248047,-15.818061829,-0.130478278,0.203376591,-0.915003300
101.384201,17.092811584,10.482177734,-15.802803040,-0.130478278,0.200813115,-0.920740604
101.384827,16.665565491,10.360107422,-15.779914856,-0.129379645,0.197151005,-0.921473026
101.385452,16.642677307,10.131225586,-15.947761536,-0.130356207,0.196174443,-0.925257206
101.386077,16.497718811,10.108337402,-15.985908508,-0.126816168,0.195808232,-0.926111698
101.386703,16.230690002,9.971008301,-15.863838196,-0.127182379,0.195930302,-0.926966190
101.387329,16.139137268,10.009155273,-15.985908508,-0.125351325,0.195686162,-0.932459354
101.387956,15.917884827,9.810791016,-15.917243958,-0.123764403,0.197761357,-0.930994511
101.388582,15.574562073,9.536132812,-16.115608215,-0.121200927,0.194831669,-0.930750370
101.389207,15.597450256,9.589538574,-16.176643372,-0.118149169,0.195442021,-0.933191776
101.389833,15.277015686,9.635314941,-16.207160950,-0.118637450,0.196784794,-0.931360722
101.390459,15.071022034,9.589538574,-16.245307922,-0.120468505,0.197395146,-0.933313847
101.391085,14.811622620,9.147033691,-16.420783997,-0.120468505,0.195686162,-0.933680058
101.391712,14.918434143,9.261474609,-16.275825500,-0.119858153,0.199348271,-0.931726933
101.392337,14.842140198,9.032592773,-16.664924622,-0.118393309,0.195930302,-0.930750370
101.392963,14.346229553,9.055480957,-16.672554016,-0.119614013,0.196174443,-0.935389042
101.393588,14.208900452,9.070739746,-16.832771301,-0.113510497,0.195075810,-0.932947636
101.394214,14.033424377,8.902893066,-16.527595520,-0.115097411,0.196906865,-0.930262089
101.394840,13.926612854,8.811340332,-16.725959778,-0.113144286,0.198615849,-0.931360722
101.395465,13.232337952,8.948669434,-17.160835266,-0.110824950,0.197273076,-0.929773808
101.396091,13.247596741,8.742675781,-17.298164368,-0.109604247,0.198493779,-0.927942753
101.396716,12.766944885,8.742675781,-17.275276184,-0.110458739,0.194587529,-0.929651737
101.397342,12.469398499,8.971557617,-17.420234680,-0.109115966,0.196662724,-0.925745487
101.397968,12.156593323,8.910522461,-17.633857727,-0.104477294,0.196296513,-0.924158573
101.398595,11.683570862,8.796081543,-17.572822571,-0.104721434,0.195075810,-0.922327518
101.399221,11.233436584,9.040222168,-17.916145325,-0.103256591,0.194709599,-0.919397831
101.399847,10.783302307,8.841857910,-17.778816223,-0.101181395,0.195319951,-0.919886112
101.400473,10.226356506,8.895263672,-17.916145325,-0.097275145,0.191047490,-0.919397831
101.401100,9.730445862,8.941040039,-18.228950500,-0.096176513,0.192878544,-0.916590214
101.401726,9.295570374,8.941040039,-17.992439270,-0.089706786,0.189460576,-0.917444706
101.402352,8.563148499,9.154663086,-18.244209290,-0.085068114,0.187507451,-0.915003300
101.402978,7.853614807,9.269104004,-18.404426575,-0.080185302,0.187141240,-0.915125370
101.403603,7.624732971,8.971557617,-18.289985657,-0.076889403,0.189460576,-0.915247440
101.404228,6.587135315,9.360656738,-18.503608704,-0.072250731,0.185432255,-0.917078495
101.404854,5.763160706,9.711608887,-18.351020813,-0.071884520,0.185554326,-0.914515018
101.405479,5.328285217,9.475097656,-18.610420227,-0.067612059,0.182746708,-0.915369511
101.406104,4.328834534,9.627685547,-18.366279602,-0.060287841,0.178718388,-0.918055058
101.406730,3.855812073,9.543762207,-18.656196594,-0.058456786,0.178596318,-0.915979862
101.407357,3.054725647,9.765014648,-18.816413879,-0.056381591,0.174690068,-0.920740604
101.407982,2.429115295,10.093078613,-18.610420227,-0.050644286,0.171760380,-0.918665409
101.408609,1.971351624,10.039672852,-18.625679016,-0.046127684,0.171027958,-0.920374393
101.409235,1.109230042,10.215148926,-18.763008118,-0.043808348,0.166633427,-0.922571659
101.409860,0.422584534,10.611877441,-18.717231750,-0.038193114,0.168708622,-0.921228886
101.410485,-0.080955505,10.665283203,-18.793525696,-0.037948973,0.161384404,-0.920984745
101.411110,-0.813377380,11.008605957,-18.656196594,-0.035141356,0.160896122,-0.918421268
101.411736,-1.469505310,10.947570801,-18.686714172,-0.032211669,0.158088505,-0.921473026
101.431228,-9.785545349,20.324096680,-14.803352356,-0.009262451,0.050788697,-0.910852909
101.433331,-9.640586853,21.834716797,-14.063301086,-0.015732177,0.049201783,-0.923914433
101.433956,-9.838951111,22.101745605,-13.918342590,-0.010971435,0.051276978,-0.929041386
101.434582,-9.373558044,22.307739258,-13.636054993,-0.012314209,0.051154908,-0.940271854
101.435208,-8.892906189,22.521362305,-13.254585266,-0.013901123,0.055671509,-0.943933964
101.435833,-8.801353455,22.925720215,-13.208808899,-0.013779053,0.048713502,-0.945765018
101.436460,-8.389366150,23.421630859,-12.896003723,-0.020981200,0.044441041,-0.949915409
101.437086,-8.099449158,23.894653320,-12.575569153,-0.021957763,0.036018189,-0.957239628
101.437713,-7.374656677,24.436340332,-12.377204895,-0.025864013,0.035896119,-0.958826542
101.438340,-6.993186951,24.619445801,-12.194099426,-0.030258544,0.038093384,-0.964685917
101.438965,-6.459129333,24.756774902,-12.102546692,-0.039291747,0.039069947,-0.972010136
101.439590,-6.161582947,24.894104004,-12.125434875,-0.046982177,0.043342408,-0.981409550
101.440215,-6.008995056,24.901733398,-11.797370911,-0.050156005,0.043708619,-0.986048222
101.440841,-5.741966248,24.878845215,-11.660041809,-0.048080809,0.045783814,-0.991785526
101.441468,-5.467308044,25.130615234,-11.476936340,-0.038559325,0.047981080,-0.999109745
101.442094,-5.200279236,25.176391602,-11.011543274,-0.035507567,0.052497681,-1.005945683
101.442719,-4.795921326,25.122985840,-10.652961731,-0.037704833,0.054694947,-1.012903690
101.443344,-4.544151306,25.206909180,-10.622444153,-0.041611083,0.056159791,-1.020105839
101.443970,-4.376304626,25.458679199,-10.424079895,-0.043197997,0.061164673,-1.027430058
101.444596,-4.170310974,25.290832520,-10.454597473,-0.053818114,0.067390263,-1.039881229
101.445222,-3.979576111,25.367126465,-10.149421692,-0.056747802,0.065437138,-1.043543339
101.445847,-3.743064880,25.161132812,-9.920539856,-0.060654052,0.064948857,-1.048426151
101.446535,-3.430259705,25.184020996,-9.752693176,-0.067123778,0.069099247,-1.056116581
101.447161,-3.216636658,24.779663086,-9.691658020,-0.072983153,0.070930302,-1.062342167
101.447786,-3.147972107,24.451599121,-9.531440735,-0.076156981,0.076057255,-1.068567753
101.448412,-2.781761169,24.253234863,-9.584846497,-0.079208739,0.076911747,-1.072474003
101.449038,-2.690208435,23.925170898,-9.279670715,-0.080917723,0.080451787,-1.081018925
101.449665,-2.697837830,24.009094238,-8.974494934,-0.086044677,0.085456669,-1.081629276
101.450291,-2.972496033,24.100646973,-9.073677063,-0.089218505,0.089973271,-1.087244511
101.450918,-2.812278748,23.833618164,-8.936347961,-0.092026122,0.093147099,-1.091516972
101.451544,-2.850425720,23.558959961,-8.585395813,-0.098495848,0.094734013,-1.093958378
101.452170,-3.064048767,23.085937500,-8.631172180,-0.102646239,0.096687138,-1.096521854
101.452796,-3.125083923,22.872314453,-8.531990051,-0.108993895,0.099494755,-1.100183964
101.453423,-3.300559998,22.399291992,-8.409919739,-0.113022216,0.102668583,-1.104700565
101.454049,-3.559959412,22.147521973,-8.234443665,-0.116928466,0.107063115,-1.112513065
101.454674,-3.620994568,21.727905273,-8.036079407,-0.120834716,0.112434208,-1.113977909
101.455300,-3.880393982,21.460876465,-8.097114563,-0.119736083,0.114265263,-1.118860722
101.455926,-4.231346130,20.980224609,-7.944526672,-0.121567138,0.114265263,-1.117640018
101.456552,-4.696739197,20.858154297,-7.807197571,-0.122909911,0.114387333,-1.120081425
101.457179,-4.711997986,20.385131836,-7.883491516,-0.128891364,0.120612919,-1.122766972
101.457805,-5.185020447,19.812927246,-7.540168762,-0.133041754,0.116584599,-1.130213261
101.458432,-5.467308044,19.698486328,-7.547798157,-0.134872809,0.118293583,-1.132166386
101.459057,-5.680931091,19.072875977,-7.494392395,-0.141098395,0.119514287,-1.136438847
101.459684,-6.016624451,18.836364746,-7.425727844,-0.139877692,0.115974247,-1.138636112
101.460309,-6.031883240,18.103942871,-7.318916321,-0.142563239,0.117683232,-1.137415409
101.460934,-5.917442322,17.806396484,-7.204475403,-0.146347418,0.114143193,-1.144007206
101.473733,3.764259338,8.361206055,-5.419197083,-0.138168707,0.060066041,-1.159143925
101.474502,6.312477112,7.613525391,-4.984321594,-0.130966559,0.054572877,-1.154139042
101.475128,7.662879944,7.308349609,-5.068244934,-0.126694098,0.051032837,-1.152552128
101.475753,8.784400940,6.881103516,-4.953804016,-0.125839606,0.052253541,-1.147913456
101.476379,10.279762268,6.606445312,-4.511299133,-0.121567138,0.048835572,-1.146936893
101.477018,11.759864807,6.148681641,-4.724922180,-0.121200927,0.047004517,-1.146448612
101.477644,12.988197327,6.041870117,-4.435005188,-0.119003661,0.046394166,-1.143274784
101.478271,14.475929260,5.858764648,-4.274787903,-0.113754638,0.043220337,-1.140467167
101.478896,15.551673889,5.431518555,-4.442634583,-0.114731200,0.046638306,-1.136316776
101.479523,17.085182190,5.172119141,-4.114570618,-0.111679442,0.041755494,-1.133997440
101.480148,18.427955627,4.943237305,-4.099311829,-0.107406981,0.043586548,-1.134851933
101.480774,19.747840881,4.615173340,-3.977241516,-0.107773192,0.040412720,-1.131433964
101.481401,21.144020081,4.256591797,-3.702583313,-0.105209716,0.041023072,-1.130091190
101.483277,25.248634338,3.501281738,-3.168525696,-0.101425536,0.038337525,-1.130823612
101.483903,26.614295959,3.196105957,-3.237190247,-0.098251708,0.038947877,-1.134363651
101.484530,27.865516663,2.982482910,-3.054084778,-0.092880614,0.039924439,-1.133387089
101.485155,29.070960999,2.745971680,-2.848091125,-0.092758544,0.041877564,-1.133997440
101.485781,30.238258362,2.570495605,-2.932014465,-0.093857177,0.038581666,-1.136560917
101.486406,31.725990295,1.983032227,-2.733650208,-0.087997802,0.036140259,-1.138025761
101.487032,32.878028870,1.693115234,-2.420845032,-0.085922606,0.039802369,-1.140100956
101.487659,34.098731995,1.281127930,-2.352180481,-0.081406005,0.040656861,-1.138880253
101.488284,35.357582092,1.166687012,-2.191963196,-0.078476317,0.038337525,-1.139978886
101.488909,36.524879456,0.586853027,-2.146186829,-0.071518309,0.038825806,-1.140589237
101.489535,37.592994690,0.663146973,-1.802864075,-0.072128661,0.040412720,-1.137781620
101.490162,38.752662659,0.243530273,-1.490058899,-0.063583739,0.041755494,-1.137171268
101.490788,39.675819397,-0.137939453,-1.650276184,-0.061142333,0.045539673,-1.138514042
101.491413,40.827857971,-0.252380371,-1.276435852,-0.053451903,0.044807252,-1.136072636
101.492039,41.758644104,-0.458374023,-1.398506165,-0.052475341,0.052741822,-1.136438847
101.492664,42.620765686,-0.771179199,-0.978889465,-0.048935302,0.056281861,-1.132166386
101.493289,43.368446350,-0.961914062,-0.963630676,-0.041855223,0.057746705,-1.127161503
101.493915,44.154273987,-1.091613770,-0.666084290,-0.039169677,0.063728154,-1.123865604
101.494541,44.787513733,-1.198425293,-0.620307922,-0.032699950,0.066779912,-1.119349003
101.495166,45.313941956,-1.450195312,-0.528755188,-0.028549559,0.070808232,-1.117762089
101.495792,45.779335022,-1.244201660,-0.368537903,-0.021713622,0.075691044,-1.110926151
101.496418,46.374427795,-1.518859863,-0.231208801,-0.018051513,0.084968388,-1.108484745
101.497043,46.679603577,-1.335754395,-0.078620911,-0.013412842,0.089729130,-1.102991581
101.497670,46.687232971,-1.404418945,-0.132026672,-0.011581787,0.097053349,-1.097254276
101.498295,46.649085999,-1.267089844,0.226554871,-0.007919678,0.102058232,-1.091883183
101.498920,46.710121155,-1.076354980,0.302848816,-0.002914795,0.109016240,-1.085901737
101.499545,46.443092346,-0.816955566,0.356254578,0.000503174,0.115241826,-1.081629276
101.500170,46.099769592,-0.595703125,0.546989441,0.002212158,0.125373662,-1.074793339
101.500796,45.886146545,-0.336303711,0.684318542,0.002578369,0.132087529,-1.067347050
101.501423,45.207130432,-0.084533691,0.791130066,0.007094971,0.141364872,-1.064417362
101.502049,44.528114319,0.388488770,0.829277039,0.007827393,0.153327763,-1.056849003
101.502675,43.864356995,0.808105469,0.806388855,0.008315674,0.161140263,-1.052698612
101.503301,42.719947815,1.181945801,0.890312195,0.011123291,0.169563115,-1.050013065
101.503927,41.613685608,1.807556152,0.920829773,0.008803955,0.180061162,-1.042932987
101.516766,-4.849327087,16.356811523,-0.811042786,-0.083603270,0.353034794,-1.039637089
101.517581,-11.044395447,17.752990723,-1.390876770,-0.093979247,0.358650029,-1.049768925
101.518208,-14.111412048,18.241271973,-1.696052551,-0.103134520,0.365485966,-1.056482792
101.518833,-16.880882263,18.843994141,-1.856269836,-0.109115966,0.368903935,-1.064905643
101.519459,-19.856346130,19.393310547,-2.359809875,-0.116196044,0.371589482,-1.071741581
101.520084,-23.037803650,19.782409668,-2.481880188,-0.122421630,0.375495732,-1.078211308
101.520709,-25.677574158,20.118103027,-2.924385071,-0.125595465,0.377082646,-1.086512089
101.521335,-28.431785583,20.690307617,-3.206672668,-0.132065192,0.381233037,-1.095301151
101.521961,-31.071556091,21.018371582,-3.488960266,-0.134628668,0.380866826,-1.103479862
101.522587,-33.413780212,21.239624023,-3.832283020,-0.141098395,0.381843388,-1.114954472
101.523212,-36.267173767,21.712646484,-3.954353333,-0.147812262,0.378669560,-1.118982792
101.523838,-38.319480896,21.727905273,-4.427375793,-0.150131598,0.379035771,-1.124964237
101.524464,-40.730369568,21.994934082,-4.679145813,-0.153183356,0.379768193,-1.131556034
101.525091,-42.584312439,22.269592285,-5.030097961,-0.163681403,0.373908818,-1.136316776
101.525717,-44.529808044,22.567138672,-5.648078918,-0.165756598,0.368293583,-1.137415409
101.526344,-46.093833923,22.788391113,-5.922737122,-0.158554450,0.352424443,-1.132166386
101.526970,-46.742332458,23.345336914,-6.029548645,-0.151840582,0.344856083,-1.122278690
101.527596,-47.802818298,23.833618164,-6.449165344,-0.152939215,0.346320927,-1.119959354
101.528223,-48.977745056,24.436340332,-6.617012024,-0.158554450,0.359260380,-1.126062870
101.528848,-51.098716736,24.741516113,-6.678047180,-0.173202887,0.370002568,-1.131433964
101.529475,-53.257835388,25.298461914,-7.173957825,-0.188339606,0.368781865,-1.134363651
101.530102,-55.226219177,25.412902832,-7.654609680,-0.201279059,0.360114872,-1.135340214
101.530728,-56.774986267,25.512084961,-7.959785461,-0.217636481,0.361457646,-1.137171268
101.531354,-58.194053650,25.550231934,-8.745613098,-0.221908942,0.359504521,-1.147058964
101.531981,-59.574974060,24.955139160,-8.837165833,-0.225326911,0.355598271,-1.153528690
101.533830,-61.451805115,24.428710938,-9.897651672,-0.216537848,0.335334599,-1.159632206
101.534483,-61.985862732,24.169311523,-10.080757141,-0.215683356,0.340827763,-1.165247440
101.535108,-62.352073669,24.482116699,-10.637702942,-0.213486090,0.332526982,-1.168665409
101.535734,-62.802207947,24.703369141,-10.919990540,-0.216781989,0.321052372,-1.171595097
101.536359,-63.221824646,24.741516113,-11.141242981,-0.224106207,0.308357060,-1.172571659
101.536985,-63.359153748,25.023803711,-11.446418762,-0.231308356,0.303352177,-1.172083378
101.537612,-63.046348572,24.840698242,-11.705818176,-0.240097418,0.291755497,-1.170374393
101.538239,-62.435997009,24.505004883,-11.927070618,-0.245590582,0.284919560,-1.173670292
101.538865,-62.451255798,23.940429688,-12.323799133,-0.248886481,0.277595341,-1.178064823
101.539492,-61.497581482,23.764953613,-12.712898254,-0.247909918,0.271247685,-1.174768925
101.540119,-61.024559021,23.475036621,-12.751045227,-0.249496832,0.264411747,-1.176233768
101.540745,-60.368431091,23.467407227,-13.155403137,-0.243759528,0.263801396,-1.181482792
101.541372,-59.559715271,23.429260254,-13.628425598,-0.238998786,0.258552372,-1.184656620
101.541998,-58.865440369,23.246154785,-13.674201965,-0.234970465,0.253547490,-1.182581425
101.542625,-57.721031189,22.963867188,-14.017524719,-0.237045661,0.247566044,-1.182337284
101.543251,-56.446922302,22.841796875,-14.116706848,-0.235458747,0.243537724,-1.177332401
101.543878,-55.104148865,22.757873535,-14.452400208,-0.235947028,0.234992802,-1.178064823
101.544505,-53.425682068,22.391662598,-14.681282043,-0.235214606,0.227180302,-1.174890995
101.545132,-51.709068298,22.208557129,-14.856758118,-0.231064215,0.220344365,-1.172083378
101.545757,-50.175559998,22.071228027,-15.108528137,-0.228378668,0.213020146,-1.173059940
101.546384,-48.313987732,21.491394043,-15.253486633,-0.220566168,0.202400029,-1.170374393
101.559167,-0.401390076,20.804748535,-18.824043274,-0.129745856,0.135139287,-1.144251347
101.559888,1.795875549,20.697937012,-18.618049622,-0.122665770,0.135383427,-1.143763065
101.560514,4.153358459,20.888671875,-18.930854797,-0.117538817,0.138068974,-1.146082401
101.561141,6.159889221,20.797119141,-19.014778137,-0.115219481,0.137336552,-1.148279667
101.561766,8.250343323,20.858154297,-19.106330872,-0.112289794,0.138679326,-1.149988651
101.562391,10.295021057,21.125183105,-19.037666321,-0.108749755,0.137824833,-1.147913456
101.563016,11.973487854,21.231994629,-19.167366028,-0.103500731,0.139533818,-1.149134159
101.563643,13.789283752,21.407470703,-19.457283020,-0.102157958,0.139289677,-1.149866581
101.564268,15.559303284,21.369323730,-19.449653625,-0.102280028,0.138557255,-1.153528690
101.564893,16.978370667,21.582946777,-19.518318176,-0.099472411,0.139411747,-1.152430058
101.565518,18.832313538,21.621093750,-19.663276672,-0.093613036,0.141853154,-1.156702518
101.566143,20.236122131,21.911010742,-19.754829407,-0.086899169,0.139167607,-1.152185917
101.566768,21.548377991,22.010192871,-19.487800598,-0.081650145,0.139655888,-1.151453495
101.567393,22.837745667,22.239074707,-19.632759094,-0.073349364,0.143440068,-1.153772831
101.568070,24.684059143,22.765502930,-19.907417297,-0.070419677,0.153938115,-1.155359745
101.568697,25.065528870,23.139343262,-19.785346985,-0.067734130,0.160896122,-1.160242558
101.569322,25.614845276,23.139343262,-19.777717590,-0.067123778,0.164192021,-1.166712284
101.569948,25.897132874,23.169860840,-19.930305481,-0.068222411,0.171027958,-1.167688847
101.570573,25.767433167,23.421630859,-20.021858215,-0.064560302,0.175056279,-1.170008183
101.571199,25.958168030,23.551330566,-20.189704895,-0.062851317,0.173469365,-1.170984745
101.571825,25.996315002,23.558959961,-20.220222473,-0.059677489,0.176032841,-1.175867558
101.572450,25.920021057,23.581848145,-20.128669739,-0.059189208,0.181648076,-1.184900761
101.573076,25.523292542,23.475036621,-20.258369446,-0.055771239,0.181526005,-1.188074589
101.573702,25.248634338,23.589477539,-20.166816711,-0.049545653,0.180061162,-1.188807011
101.574328,24.966346741,23.711547852,-20.426216125,-0.049545653,0.185920537,-1.200891972
101.574954,23.936378479,23.520812988,-20.388069153,-0.056503661,0.200202763,-1.206629276
101.575581,22.906410217,23.543701172,-20.075263977,-0.055527098,0.204231083,-1.218958378
101.576208,21.777259827,23.299560547,-20.388069153,-0.052963622,0.198859990,-1.224207401
101.576835,20.968544006,23.246154785,-20.548286438,-0.056625731,0.198249638,-1.233850956
101.577461,19.564735413,23.032531738,-20.586433411,-0.063461669,0.209724247,-1.244593143
101.578087,18.191444397,22.445068359,-20.433845520,-0.065414794,0.213508427,-1.258631229
101.578712,16.467201233,21.872863770,-20.426216125,-0.059067138,0.212043583,-1.269129276
101.579338,15.063392639,21.514282227,-20.655097961,-0.063339598,0.213996708,-1.278040409
101.579965,13.339149475,21.026000977,-20.647468567,-0.071640380,0.216438115,-1.291834354
101.580592,11.798011780,20.255432129,-20.487251282,-0.069076903,0.214851201,-1.302454472
101.581218,10.363685608,19.408569336,-20.647468567,-0.062485106,0.212898076,-1.311975956
101.581845,8.441078186,18.828735352,-20.708503723,-0.063827880,0.203376591,-1.316736698
101.582471,7.289039612,18.264160156,-20.517768860,-0.062118895,0.192390263,-1.321375370
101.584318,2.848731995,15.754089355,-20.449104309,-0.055893309,0.182746708,-1.320642948
101.584945,1.277076721,15.136108398,-20.479621887,-0.053329833,0.182868779,-1.322962284
101.585572,-0.103843689,14.182434082,-20.601692200,-0.051742919,0.179450810,-1.319178104
101.586199,-1.995933533,13.663635254,-20.288887024,-0.042831786,0.173713505,-1.316126347
101.586826,-3.758323669,13.160095215,-20.426216125,-0.039413817,0.174812138,-1.315393925
101.587451,-5.474937439,12.381896973,-20.281257629,-0.038803466,0.172981083,-1.310389042
101.588077,-7.023704529,11.756286621,-20.311775208,-0.036850341,0.171516240,-1.302820683
101.588702,-8.831871033,11.115417480,-20.082893372,-0.026352294,0.165901005,-1.297693729
101.602365,-31.041038513,3.692016602,-16.046943665,0.010512940,0.037360962,-1.213587284
101.603190,-31.361473083,3.211364746,-15.680732727,0.010146729,0.032600220,-1.210901737
101.603815,-31.330955505,3.157958984,-15.489997864,0.008559815,0.026374634,-1.212366581
101.604440,-31.788719177,3.157958984,-14.803352356,0.009170166,0.023933228,-1.208094120
101.605066,-32.032859802,2.944335938,-14.513435364,0.011489502,0.022468384,-1.207972050
101.605720,-31.964195251,2.745971680,-14.414253235,0.006606690,0.015144166,-1.206140995
101.606350,-32.124412537,2.868041992,-13.918342590,0.008193604,0.013923462,-1.206018925
101.606977,-32.116783142,2.456054688,-13.575019836,0.005874268,0.010627564,-1.206385136
101.607604,-32.139671326,2.448425293,-13.163032532,-0.000717529,0.005378541,-1.202478886
101.608230,-32.139671326,2.089843750,-12.796821594,-0.001694092,0.005256470,-1.200891972
101.608857,-31.659019470,1.952514648,-12.407722473,-0.006454834,0.003913697,-1.203699589
101.609482,-31.628501892,1.685485840,-11.881294250,-0.010361084,0.004646119,-1.198084354
101.610107,-31.330955505,1.510009766,-11.705818176,-0.014755615,0.002692994,-1.196497440
101.610732,-31.124961853,1.479492188,-11.202278137,-0.016952880,0.004279908,-1.194422245
101.611362,-30.903709412,1.159057617,-10.927619934,-0.023666747,0.004401978,-1.198816776
101.611987,-30.888450623,0.937805176,-10.515632629,-0.028915770,0.007331666,-1.195032597
101.612612,-30.392539978,0.716552734,-10.195198059,-0.034653075,0.005134400,-1.190760136
101.613238,-30.018699646,0.670776367,-9.539070129,-0.039535888,0.007575806,-1.189905643
101.613863,-29.652488708,0.312194824,-9.218635559,-0.046371825,0.007209595,-1.191614628
101.614488,-29.362571716,0.075683594,-8.982124329,-0.051376708,0.005378541,-1.190027714
101.615113,-28.797996521,-0.130310059,-8.501472473,-0.057968505,0.004157837,-1.186365604
101.615740,-28.370750427,-0.282897949,-8.120002747,-0.066757567,0.004524048,-1.185389042
101.616367,-27.882469177,-0.527038574,-7.685127258,-0.070175536,0.002082642,-1.185144901
101.616993,-27.218711853,-0.740661621,-7.456245422,-0.071152098,-0.001457397,-1.184534550
101.617618,-26.677024841,-1.373901367,-7.013740540,-0.078354247,-0.005119506,-1.179407597
101.618244,-25.708091736,-1.610412598,-6.639900208,-0.079697020,-0.004387084,-1.176844120
101.618869,-24.914634705,-1.785888672,-6.227912903,-0.086532958,-0.004509155,-1.176355839
101.619494,-24.166954041,-2.457275391,-5.907478333,-0.089950927,-0.003776733,-1.176355839
101.620121,-23.175132751,-2.541198730,-5.480232239,-0.092514403,0.002570923,-1.177332401
101.620746,-22.534263611,-2.884521484,-5.236091614,-0.093857177,0.010139283,-1.177576542
101.621371,-21.756065369,-3.204956055,-4.946174622,-0.100571044,0.012336548,-1.184290409
101.621996,-21.122825623,-3.571166992,-4.503669739,-0.108017333,0.018562134,-1.188807011
101.622623,-20.565879822,-3.784790039,-4.122200012,-0.112656005,0.023933228,-1.194544315
101.623250,-19.772422791,-4.295959473,-3.672065735,-0.119491942,0.022346314,-1.193201542
101.623875,-18.956077576,-4.952087402,-3.626289368,-0.126205817,0.023567017,-1.196985722
101.624500,-17.956626892,-5.371704102,-3.221931458,-0.132919684,0.021491822,-1.202356815
101.625125,-16.926658630,-5.921020508,-2.733650208,-0.135849372,0.013313111,-1.201990604
101.625752,-15.553367615,-6.569519043,-2.344551086,-0.137680426,0.013191041,-1.198206425
101.626378,-14.050376892,-6.950988770,-2.291145325,-0.146591559,0.011726197,-1.195642948
101.627012,-12.249839783,-7.645263672,-1.871528625,-0.146591559,0.011482056,-1.195765018
101.627638,-11.204612732,-8.476867676,-1.512947083,-0.150497809,0.016364869,-1.195765018
101.628265,-9.793174744,-9.003295898,-1.413764954,-0.155014411,0.021369752,-1.195032597
101.628890,-8.503807068,-8.919372559,-1.001777649,-0.154404059,0.021491822,-1.193689823
101.629516,-7.084739685,-9.850158691,-0.826301575,-0.160019293,0.028083619,-1.186975956
101.630142,-5.803001404,-10.391845703,-0.475349426,-0.168686286,0.034431275,-1.187586308
101.630768,-4.574668884,-10.765686035,-0.215950012,-0.171249762,0.040534791,-1.186609745
101.644842,22.975074768,-23.010864258,3.644523621,-0.157577887,0.102424443,-1.085291386
101.645611,23.882972717,-23.369445801,3.728446960,-0.155990973,0.105964482,-1.079065800
101.646236,24.943458557,-23.537292480,3.705558777,-0.154770270,0.109138310,-1.071253300
101.646863,25.843727112,-24.063720703,3.743705750,-0.148788825,0.111457646,-1.062830448
101.647489,26.942359924,-24.132385254,3.995475769,-0.144028082,0.115852177,-1.057093143
101.648114,27.506935120,-24.460449219,4.010734558,-0.141098395,0.119392216,-1.053431034
101.648739,28.178321838,-24.757995605,4.056510925,-0.135971442,0.124763310,-1.043909550
101.649366,29.086219788,-24.651184082,4.041252136,-0.129379645,0.124519169,-1.031946659
101.649992,29.795753479,-24.559631348,4.125175476,-0.127182379,0.129035771,-1.026575565
101.650617,30.581581116,-24.590148926,4.453239441,-0.125351325,0.132697880,-1.017664433
101.651242,31.184303284,-24.689331055,4.415092468,-0.125595465,0.131843388,-1.010096073
101.651868,31.787025452,-24.666442871,4.399833679,-0.123642333,0.132331669,-1.000940800
101.652495,32.229530334,-24.552001953,4.491386414,-0.119858153,0.136970341,-0.993372440
101.653121,32.572853088,-24.658813477,4.529533386,-0.119614013,0.137824833,-0.986414433
101.653747,33.236610413,-24.750366211,4.567680359,-0.115951903,0.139045537,-0.980555058
101.654373,33.450233459,-24.750366211,4.529533386,-0.112289794,0.139900029,-0.969568729
101.654998,33.892738342,-24.719848633,4.773674011,-0.102646239,0.141609013,-0.964197636
101.655623,34.365760803,-24.483337402,4.483757019,-0.099228270,0.146858037,-0.956873417
101.656248,34.533607483,-24.468078613,4.666862488,-0.093246825,0.147346318,-0.950891972
101.656875,35.044776917,-24.185791016,4.682121277,-0.091171630,0.148322880,-0.943079472
101.657501,35.502540588,-23.979797363,5.017814636,-0.085312255,0.147102177,-0.938562870
101.658126,35.502540588,-23.659362793,4.605827332,-0.080673583,0.147102177,-0.930140018
101.658751,35.990821838,-23.499145508,4.956779480,-0.077255614,0.145759404,-0.924524784
101.659376,36.357032776,-23.026123047,4.872856140,-0.073959716,0.145759404,-0.919641972
101.660011,36.662208557,-23.186340332,4.834709167,-0.073471434,0.142341435,-0.917078495
101.660638,36.883460999,-22.850646973,4.773674011,-0.066025145,0.141120732,-0.910364628
101.661264,37.417518616,-22.659912109,4.979667664,-0.059433348,0.140022099,-0.909265995
101.661889,37.837135315,-22.400512695,4.743156433,-0.053329833,0.140144169,-0.903162479
101.662515,38.287269592,-21.958007812,4.865226746,-0.044906981,0.140144169,-0.899744511
101.663154,39.042579651,-21.721496582,4.788932800,-0.033920653,0.136726201,-0.892786503
101.663780,39.538490295,-21.393432617,4.796562195,-0.028061278,0.134773076,-0.886194706
101.664405,39.973365784,-20.798339844,4.834709167,-0.018783934,0.135383427,-0.880701542
101.665031,40.843116760,-20.546569824,4.811820984,-0.015121826,0.133064091,-0.876673222
101.665657,41.293251038,-20.165100098,5.010185242,-0.007553467,0.134284794,-0.871302128
101.666282,41.720497131,-19.669189453,4.735527039,0.000747315,0.133064091,-0.865198612
101.666907,42.414772034,-19.028320312,4.758415222,0.005019776,0.133674443,-0.860315800
101.667532,43.078529358,-18.807067871,4.918632507,0.011489502,0.133430302,-0.857630253
101.668158,43.749916077,-18.303527832,4.598197937,0.019179933,0.133796513,-0.848719120
101.668783,44.245826721,-17.868652344,4.781303406,0.026382081,0.134773076,-0.845423222
101.669410,44.467079163,-16.983642578,4.674491882,0.035049073,0.138313115,-0.841394901
101.670055,45.046913147,-16.502990723,4.697380066,0.044082277,0.139900029,-0.833216190
101.670682,45.291053772,-15.900268555,4.613456726,0.049087159,0.144660771,-0.829676151
101.671309,45.687782288,-15.434875488,4.621086121,0.057387941,0.144782841,-0.825159550
101.671935,46.160804749,-14.610900879,4.407463074,0.061904542,0.148444951,-0.819056034
101.672561,46.450721741,-13.809814453,4.605827332,0.067275636,0.149787724,-0.813929081
101.673187,46.519386292,-13.077392578,4.376945496,0.072768800,0.153327763,-0.809290409
101.673814,47.007667542,-12.245788574,4.186210632,0.073257081,0.154670537,-0.803186893
101.693381,8.608924866,14.083251953,-2.420845032,0.072524659,0.288825810,-0.879480839
101.695481,2.764808655,15.120849609,-3.145637512,0.071059816,0.289680302,-0.898035526
101.696108,1.002418518,15.372619629,-3.611030579,0.068130128,0.289069951,-0.902063847
101.696735,-1.141441345,15.693054199,-3.527107239,0.068008058,0.290656865,-0.906336308
101.697362,-2.934349060,16.044006348,-4.099311829,0.066787355,0.290046513,-0.909143925
101.697987,-4.803550720,16.288146973,-4.328193665,0.064468019,0.289558232,-0.911097050
101.698614,-6.482017517,16.356811523,-4.862251282,0.061294191,0.284797490,-0.911219120
101.699241,-8.404624939,16.623840332,-5.037727356,0.060561769,0.287971318,-0.916346073
101.699867,-9.991539001,16.845092773,-5.335273743,0.057265870,0.285774052,-0.917200565
101.700493,-12.097251892,17.012939453,-5.625190735,0.054214112,0.281135380,-0.918421268
101.701118,-13.485801697,17.562255859,-5.709114075,0.052749269,0.279182255,-0.916834354
101.701744,-15.255821228,17.707214355,-6.174507141,0.051040284,0.274665654,-0.916224003
101.702371,-16.812217712,17.989501953,-6.311836243,0.049575441,0.271491826,-0.916101933
101.702998,-18.216026306,18.233642578,-6.594123840,0.044814698,0.267829716,-0.914148808
101.703625,-19.558799744,18.370971680,-6.960334778,0.041274659,0.264777958,-0.914148808
101.704252,-21.267784119,18.515930176,-7.090034485,0.041396730,0.258552372,-0.915613651
101.704878,-22.686851501,18.966064453,-7.425727844,0.037246339,0.262214482,-0.916834354
101.705503,-24.189842224,19.301757812,-7.669868469,0.030166261,0.257209599,-0.919519901
101.706158,-25.227439880,19.301757812,-7.837715149,0.025405519,0.248298466,-0.921228886
101.706785,-26.600730896,19.683227539,-8.135261536,0.019424073,0.242317021,-0.924524784
101.707410,-27.668846130,19.446716309,-8.287849426,0.015395752,0.239021122,-0.932093143
101.708036,-28.714073181,19.950256348,-8.707466125,0.009292237,0.232551396,-0.933802128
101.708661,-29.789817810,19.835815430,-8.852424622,0.007461182,0.230964482,-0.937464237
101.709287,-30.323875427,19.721374512,-9.149971008,0.005019776,0.224983037,-0.940882206
101.709912,-31.147850037,19.866333008,-9.218635559,0.002456299,0.217536747,-0.944788456
101.710538,-31.666648865,19.980773926,-9.424629211,-0.001449951,0.214362919,-0.946619511
101.711164,-31.803977966,20.049438477,-9.745063782,-0.005966553,0.208137333,-0.952356815
101.711790,-32.330406189,19.965515137,-10.042610168,-0.006454834,0.201789677,-0.954554081
101.712415,-32.338035583,19.873962402,-10.340156555,-0.012070068,0.196296513,-0.959925175
101.713040,-32.864463806,20.102844238,-10.309638977,-0.015976317,0.187751591,-0.965418339
101.713665,-32.513511658,19.942626953,-10.668220520,-0.015365967,0.185676396,-0.971277714
101.714291,-32.574546814,19.721374512,-10.866584778,-0.022079833,0.180915654,-0.979090214
101.714916,-32.719505310,19.553527832,-11.003913879,-0.025253661,0.178718388,-0.983728886
101.715541,-32.292259216,19.187316895,-11.293830872,-0.026352294,0.170539677,-0.989954472
101.716166,-32.277000427,19.133911133,-11.469306946,-0.027817138,0.165290654,-0.994226933
101.716792,-31.605613708,18.866882324,-11.759223938,-0.028427489,0.161994755,-1.000452518
101.717418,-31.277549744,18.531188965,-11.743965149,-0.027695067,0.158820927,-1.006678104
101.718044,-30.705345154,18.454895020,-12.155952454,-0.029037841,0.156379521,-1.011682987
101.718669,-30.384910583,17.966613770,-12.049140930,-0.031113036,0.150031865,-1.018518925
101.719295,-29.782188416,17.600402832,-12.216987610,-0.032089598,0.149787724,-1.022425175
101.719922,-29.087913513,17.402038574,-12.697639465,-0.031845458,0.141486943,-1.022303104
101.720549,-28.447044373,16.791687012,-12.552680969,-0.033432372,0.139655888,-1.029627323
101.721176,-27.645957947,16.303405762,-12.865486145,-0.042221434,0.136359990,-1.030481815
101.721802,-26.989830017,15.914306641,-12.644233704,-0.038071044,0.134651005,-1.032679081
101.722427,-26.272666931,15.349731445,-12.941780090,-0.042587645,0.130134404,-1.042078495
101.723052,-25.357139587,14.838562012,-13.033332825,-0.049057372,0.125739872,-1.041712284
101.735910,-8.557212830,3.630981445,-13.987007141,-0.049545653,0.057258423,-1.014002323
101.736688,-7.756126404,3.440246582,-13.765754700,-0.042587645,0.054450806,-1.008875370
101.737313,-7.000816345,3.142700195,-13.521614075,-0.042221434,0.051154908,-1.003260136
101.737938,-6.352317810,2.646789551,-13.735237122,-0.040146239,0.049079712,-1.000086308
101.738563,-5.505455017,2.570495605,-13.613166809,-0.038681395,0.050178345,-0.996302128
101.739189,-4.933250427,2.539978027,-13.498725891,-0.036239989,0.048469361,-0.986536503
101.739816,-4.170310974,2.333984375,-13.399543762,-0.033432372,0.045417603,-0.984095097
101.740442,-3.758323669,2.402648926,-13.163032532,-0.027817138,0.044318970,-0.981775761
101.741068,-3.041160583,1.983032227,-13.170661926,-0.024643309,0.043098267,-0.977625370
101.741693,-2.423179626,2.066955566,-12.857856750,-0.023910888,0.039314087,-0.972620487
101.742319,-1.820457458,1.899108887,-12.896003723,-0.024399169,0.036628541,-0.971155643
101.742946,-1.164329529,1.883850098,-12.735786438,-0.019882567,0.036628541,-0.966272831
101.743571,-0.790489197,1.822814941,-12.560310364,-0.018539794,0.037605103,-0.965296268
101.745436,0.681983948,1.944885254,-11.949958801,-0.010849365,0.030402955,-0.964563847
101.746062,1.101600647,1.769409180,-11.827888489,-0.012070068,0.028083619,-0.960779667
101.746688,1.437294006,1.693115234,-11.492195129,-0.009384521,0.026008423,-0.958338261
101.747314,1.849281311,1.807556152,-11.385383606,-0.010605224,0.025886353,-0.958704472
101.747940,2.047645569,1.769409180,-11.232795715,-0.010727295,0.026618775,-0.958948612
101.748566,2.452003479,1.700744629,-11.026802063,-0.007675537,0.026740845,-0.963099003
101.749192,2.879249573,1.845703125,-10.866584778,-0.008530029,0.027473267,-0.964075565
101.749817,3.214942932,1.487121582,-10.637702942,-0.007797607,0.028816041,-0.967127323
101.750443,3.245460510,1.708374023,-10.530891418,-0.007797607,0.027107056,-0.967005253
101.751068,3.520118713,1.532897949,-10.408821106,-0.007553467,0.025520142,-0.965662479
101.751693,3.581153870,1.555786133,-10.080757141,-0.006332763,0.026008423,-0.970423222
101.752320,3.901588440,1.265869141,-9.828987122,-0.006698974,0.027717408,-0.970179081
101.752947,4.145729065,1.036987305,-9.851875305,-0.009628662,0.024909791,-0.970911503
101.753573,4.191505432,0.884399414,-9.470405579,-0.006454834,0.024299439,-0.970789433
101.754199,4.275428772,0.983581543,-9.287300110,-0.005966553,0.026252564,-0.974817753
101.754825,4.389869690,0.754699707,-9.035530090,-0.003647217,0.029670533,-0.974451542
101.755450,4.527198792,0.670776367,-8.936347961,-0.001938232,0.028083619,-0.975428104
101.756075,4.611122131,0.464782715,-8.707466125,0.000747315,0.027351197,-0.976282597
101.756702,4.428016663,0.342712402,-8.249702454,0.000991455,0.027351197,-0.976404667
101.757328,4.565345764,0.090942383,-8.531990051,0.005263916,0.028693970,-0.977991581
101.757955,4.603492737,-0.168457031,-8.112373352,0.005874268,0.028693970,-0.977259159
101.758580,4.611122131,-0.061645508,-7.898750305,0.008193604,0.029792603,-0.973597050
101.759206,4.557716370,-0.176086426,-7.669868469,0.009292237,0.027595337,-0.975672245
101.759831,4.450904846,-0.397338867,-7.471504211,0.012099854,0.034797486,-0.973108768
101.760456,4.588233948,-0.389709473,-7.227363586,0.012588135,0.032356080,-0.968592167
101.761081,4.603492737,-0.641479492,-6.983222961,0.018935792,0.030158814,-0.969690800
101.761707,4.336463928,-0.549926758,-6.761970520,0.016494386,0.028327759,-0.963831425
101.762332,4.176246643,-0.626220703,-6.449165344,0.020156495,0.028571900,-0.961756229
101.762958,4.023658752,-0.694885254,-6.266059875,0.021377198,0.031257447,-0.956751347
101.763583,3.840553284,-0.374450684,-5.991401672,0.021865480,0.026130494,-0.954187870
101.764208,3.535377502,-0.710144043,-5.739631653,0.024306886,0.026496705,-0.949427128
101.764833,3.275978088,-0.542297363,-5.564155579,0.024795167,0.024909791,-0.946497440
101.765459,3.054725647,-0.389709473,-5.350532532,0.026260011,0.027473267,-0.941248417
101.766085,2.551185608,-0.221862793,-5.022468567,0.024428956,0.024177369,-0.937098026
101.766712,2.307044983,-0.351562500,-4.915657043,0.024917237,0.028816041,-0.936609745
101.779534,0.239479065,0.556335449,0.691947937,0.029677980,-0.007316772,-0.963099003
101.780249,0.811683655,0.342712402,0.928459167,0.027846925,-0.008171264,-0.966516972
101.780875,1.216041565,0.182495117,1.302299500,0.027846925,-0.008659545,-0.968348026
101.781500,1.711952209,0.220642090,1.660881042,0.031997316,-0.008171264,-0.968592167
101.782125,2.230751038,0.113830566,1.699028015,0.029311769,-0.005241577,-0.971277714
101.782751,2.719032288,-0.061645508,2.233085632,0.024917237,-0.004142944,-0.971033573
101.783376,3.390419006,-0.069274902,2.034721375,0.027968995,-0.004265014,-0.972986698
101.784002,4.031288147,-0.336303711,2.393302917,0.024917237,-0.000602905,-0.972742558
101.784628,4.527198792,-0.542297363,2.881584167,0.023452394,0.001838502,-0.970179081
101.785253,5.259620667,-0.603332520,2.980766296,0.021621339,0.002082642,-0.974085331
101.785879,5.610572815,-0.733032227,3.339347839,0.021010987,0.008186158,-0.972254276
101.786504,6.274330139,-0.900878906,3.346977234,0.017104737,0.011726197,-0.972132206
101.787129,7.067787170,-1.022949219,3.720817566,0.018325441,0.014167603,-0.970301151
101.787754,7.540809631,-1.061096191,3.881034851,0.012710205,0.015022095,-0.968592167
101.788381,7.899391174,-1.221313477,4.079399109,0.010146729,0.019538697,-0.966516972
101.789011,8.555519104,-1.160278320,4.521903992,0.009170166,0.024909791,-0.963831425
101.789636,8.677589417,-1.419677734,4.582939148,0.006240479,0.031379517,-0.966394901
101.790261,9.066688538,-1.572265625,4.727897644,0.005263916,0.035651978,-0.965296268
101.790888,9.287940979,-1.465454102,5.048332214,0.005508057,0.038947877,-0.963587284
101.791513,9.524452209,-1.816406250,5.162773132,0.001357666,0.041633423,-0.962366581
101.792139,9.585487366,-1.686706543,5.094108582,0.000991455,0.049812134,-0.962244511
101.792764,9.883033752,-1.946105957,5.460319519,0.001723877,0.051887330,-0.962854862
101.793391,9.905921936,-1.740112305,5.460319519,0.001723877,0.057746705,-0.959681034
101.794016,10.119544983,-2.014770508,5.734977722,-0.003281006,0.061408814,-0.961145878
101.795837,9.898292542,-2.174987793,5.895195007,-0.007553467,0.079475224,-0.960047245
101.796462,9.890663147,-2.365722656,6.238517761,-0.006454834,0.083259404,-0.962610722
101.797088,9.608375549,-2.243652344,6.215629578,-0.007797607,0.089484990,-0.964319706
101.797713,9.623634338,-2.281799316,6.314811707,-0.009506592,0.092170537,-0.966639042
101.798340,9.387123108,-2.174987793,6.543693542,-0.015121826,0.097297490,-0.968470097
101.798965,8.906471252,-2.571716309,6.505546570,-0.017074950,0.103034794,-0.968225956
101.799591,8.807289124,-2.602233887,6.558952332,-0.014877685,0.108283818,-0.975061893
101.800216,8.608924866,-2.792968750,6.574211121,-0.019638427,0.114997685,-0.976038456
101.800843,8.349525452,-2.907409668,6.711540222,-0.024643309,0.113899052,-0.976770878
101.801469,7.739173889,-3.105773926,6.536064148,-0.022690184,0.116584599,-0.982141972
101.802094,7.517921448,-3.006591797,6.711540222,-0.025864013,0.123176396,-0.982752323
101.802720,7.357704163,-3.342285156,6.635246277,-0.025131591,0.122566044,-0.983850956
101.803347,6.785499573,-3.426208496,6.764945984,-0.025253661,0.124763310,-0.987879276
101.803973,6.663429260,-3.616943359,6.787834167,-0.029281981,0.131477177,-0.986658573
101.804599,6.426918030,-3.563537598,6.848869324,-0.030990966,0.135017216,-0.984583378
101.805224,6.045448303,-3.845825195,6.703910828,-0.031723388,0.135261357,-0.988489628
101.805849,5.816566467,-4.097595215,6.711540222,-0.028915770,0.140144169,-0.991297245
101.806474,5.557167053,-4.326477051,6.688652039,-0.031235106,0.139655888,-0.993372440
101.807100,5.251991272,-4.578247070,6.650505066,-0.032822020,0.140266240,-0.992151737
101.807726,4.817115784,-4.860534668,6.566581726,-0.035629638,0.144294560,-0.992395878
101.808351,4.641639709,-5.013122559,6.658134460,-0.033554442,0.144904912,-0.990320683
101.808978,4.321205139,-5.081787109,6.391105652,-0.033920653,0.148567021,-0.994471073
101.809604,3.970252991,-5.493774414,6.520805359,-0.036850341,0.146003544,-0.995813847
101.822368,1.002418518,-8.637084961,5.658683777,-0.018417723,0.146858037,-0.964930058
101.823092,1.093971252,-8.743896484,5.681571960,-0.023300536,0.145393193,-0.964807987
101.823719,1.109230042,-8.972778320,5.467948914,-0.021591552,0.143073857,-0.963953495
101.824345,1.299964905,-8.789672852,5.414543152,-0.019272216,0.145393193,-0.963709354
101.824970,1.132118225,-8.858337402,5.673942566,-0.020492919,0.143562138,-0.964563847
101.825597,1.383888245,-9.071960449,5.338249207,-0.021225341,0.147712529,-0.959436893
101.826222,1.521217346,-9.194030762,5.521354675,-0.020614989,0.146125615,-0.959925175
101.826849,1.383888245,-8.919372559,5.513725281,-0.020248778,0.145271122,-0.962854862
101.827475,1.681434631,-9.277954102,5.483207703,-0.018173583,0.146613896,-0.960779667
101.828101,1.696693420,-9.163513184,5.330619812,-0.018417723,0.144660771,-0.958826542
101.828726,1.864540100,-9.056701660,5.185661316,-0.022812255,0.147712529,-0.960169315
101.829351,2.299415588,-9.453430176,5.429801941,-0.023666747,0.149543583,-0.962244511
101.829977,2.490150452,-9.354248047,5.170402527,-0.022812255,0.151252568,-0.960291386
101.830604,2.574073792,-9.789123535,5.162773132,-0.021347411,0.151984990,-0.961634159
101.831230,2.841102600,-9.781494141,5.208549500,-0.021713622,0.154426396,-0.961756229
101.831857,3.039466858,-9.773864746,5.033073425,-0.022446044,0.155647099,-0.962488651
101.832482,3.306495667,-9.956970215,5.147514343,-0.020492919,0.156257451,-0.963099003
101.833109,3.298866272,-9.949340820,5.094108582,-0.020370848,0.160285771,-0.965174198
101.833734,3.314125061,-10.208740234,4.895744324,-0.019028075,0.161018193,-0.962854862
101.834359,3.779518127,-10.620727539,5.132255554,-0.022079833,0.161384404,-0.966639042
101.834985,3.672706604,-10.506286621,5.048332214,-0.022446044,0.161384404,-0.967005253
101.835610,3.932106018,-10.635986328,4.987297058,-0.020859130,0.165290654,-0.966272831
101.836237,4.160987854,-10.803833008,4.682121277,-0.017807372,0.166999638,-0.965784550
101.836862,4.321205139,-10.841979980,4.689750671,-0.021713622,0.165412724,-0.964930058
101.837489,4.313575745,-10.971679688,4.636344910,-0.020492919,0.169441044,-0.964319706
101.838134,4.504310608,-11.177673340,4.743156433,-0.020492919,0.170539677,-0.963343143
101.838761,4.412757874,-11.292114258,4.651603699,-0.019882567,0.168464482,-0.962244511
101.839386,4.527198792,-11.444702148,4.407463074,-0.021713622,0.176276982,-0.961512089
101.840012,4.580604553,-11.505737305,4.476127625,-0.023666747,0.176765263,-0.963099003
101.840639,4.565345764,-11.749877930,4.468498230,-0.023422606,0.177619755,-0.962488651
101.841264,4.534828186,-11.810913086,4.338798523,-0.022323973,0.177009404,-0.960901737
101.841889,4.550086975,-12.062683105,4.331169128,-0.020859130,0.179939091,-0.959558964
101.842515,4.588233948,-12.238159180,4.315910339,-0.019638427,0.178108037,-0.958948612
101.843140,4.428016663,-12.131347656,4.155693054,-0.022568114,0.184699833,-0.958582401
101.843765,4.527198792,-12.528076172,4.315910339,-0.022812255,0.184089482,-0.953821659
101.844390,4.565345764,-12.779846191,4.285392761,-0.019028075,0.183234990,-0.952600956
101.846201,4.252540588,-12.985839844,4.300651550,-0.018906005,0.187629521,-0.944178104
101.846826,4.389869690,-12.955322266,4.048881531,-0.025986083,0.187629521,-0.942224979
101.847453,4.038917542,-12.932434082,3.980216980,-0.022323973,0.188361943,-0.945276737
101.848078,4.077064514,-13.344421387,4.018363953,-0.023300536,0.191657841,-0.944422245
101.848704,3.794776917,-13.291015625,3.957328796,-0.025009520,0.190070927,-0.941980839
101.849330,3.840553284,-13.153686523,3.758964539,-0.024521239,0.191657841,-0.941248417
101.849956,3.916847229,-13.420715332,3.896293640,-0.023788817,0.193855107,-0.943811893
101.850583,3.817665100,-13.504638672,3.919181824,-0.024887450,0.196784794,-0.937830448
101.851209,3.680335999,-13.764038086,3.659782410,-0.025619872,0.194221318,-0.938074589
101.851835,3.573524475,-13.832702637,3.797111511,-0.025986083,0.194221318,-0.939417362
101.852462,3.657447815,-14.107360840,3.568229675,-0.030868895,0.201057255,-0.942957401
101.853087,3.329383850,-14.168395996,3.461418152,-0.035751708,0.199836552,-0.944910526
101.865916,9.158241272,-15.595092773,1.271781921,-0.043564208,0.217658818,-0.907312870
101.866700,9.501564026,-15.694274902,1.096305847,-0.044906981,0.220588505,-0.906336308
101.867325,9.806739807,-15.495910645,0.875053406,-0.046738036,0.224250615,-0.903894901
101.867951,9.966957092,-15.663757324,0.638542175,-0.048080809,0.225593388,-0.899744511
101.868576,10.027992249,-15.648498535,0.531730652,-0.051498778,0.225105107,-0.898523808
101.869202,10.027992249,-15.640869141,0.478324890,-0.051376708,0.227302372,-0.896692753
101.869828,10.302650452,-15.457763672,0.402030945,-0.049301513,0.232673466,-0.896082401
101.870453,10.607826233,-15.106811523,-0.116767883,-0.050033934,0.236701787,-0.891077518
101.871079,10.264503479,-15.427246094,-0.353279114,-0.048447020,0.240119755,-0.889002323
101.871705,10.241615295,-14.809265137,-0.269355774,-0.048813231,0.243293583,-0.888025761
101.872331,10.256874084,-14.618530273,-0.490608215,-0.047958739,0.250617802,-0.886682987
101.872958,9.860145569,-14.374389648,-0.971260071,-0.053696044,0.255988896,-0.883753300
101.873583,9.493934631,-14.122619629,-1.009407043,-0.054184325,0.259651005,-0.882898808
101.874209,9.287940979,-14.053955078,-1.200141907,-0.054428466,0.263435185,-0.881311893
101.874835,9.005653381,-14.145507812,-1.383247375,-0.054672606,0.266486943,-0.880945683
101.875579,7.945167542,-13.626708984,-1.909675598,-0.052597411,0.276130497,-0.877649784
101.876204,7.418739319,-13.588562012,-2.153816223,-0.056137450,0.276618779,-0.881189823
101.876830,6.922828674,-13.291015625,-2.565803528,-0.054916747,0.280280888,-0.880701542
101.877456,6.404029846,-13.207092285,-2.642097473,-0.054550536,0.283332646,-0.880457401
101.878082,5.572425842,-13.138427734,-2.848091125,-0.056747802,0.287605107,-0.884851933
101.878708,4.756080627,-12.871398926,-3.374519348,-0.054184325,0.290046513,-0.883997440
101.879334,4.054176331,-12.619628906,-3.481330872,-0.057602294,0.290778935,-0.882288456
101.879959,3.138648987,-12.299194336,-3.656806946,-0.057358153,0.290656865,-0.885462284
101.880585,2.467262268,-12.352600098,-4.175605774,-0.063217528,0.291389287,-0.885828495
101.881211,1.528846741,-12.245788574,-4.175605774,-0.061508544,0.294318974,-0.887659550
101.881837,0.559913635,-12.016906738,-4.503669739,-0.059311278,0.295905888,-0.887049198
101.882462,-0.119102478,-11.978759766,-4.511299133,-0.061264403,0.293464482,-0.881922245
101.883087,-1.095664978,-11.871948242,-5.083503723,-0.062240966,0.290412724,-0.886682987
101.883712,-1.973045349,-11.772766113,-5.533638000,-0.061142333,0.294074833,-0.886438847
101.884338,-2.804649353,-11.620178223,-5.670967102,-0.063095458,0.292121708,-0.888758183
101.884965,-3.895652771,-11.269226074,-5.991401672,-0.060654052,0.294074833,-0.888269901
101.885590,-4.628074646,-11.368408203,-6.189765930,-0.061996825,0.289680302,-0.889978886
101.886217,-5.528343201,-11.292114258,-6.273689270,-0.061630614,0.291755497,-0.888880253
101.886842,-6.390464783,-11.551513672,-6.685676575,-0.063095458,0.290412724,-0.887903690
101.887467,-7.298362732,-11.253967285,-6.929817200,-0.061508544,0.286140263,-0.887537479
101.888092,-8.274925232,-11.315002441,-7.128181458,-0.059677489,0.285529912,-0.885584354
101.888717,-9.060752869,-11.101379395,-7.456245422,-0.060531981,0.282478154,-0.885706425
101.889342,-9.831321716,-11.147155762,-7.959785461,-0.060165770,0.282111943,-0.886560917
101.889967,-10.624778748,-11.192932129,-8.135261536,-0.059433348,0.276008427,-0.883753300
101.890593,-11.517417908,-11.154785156,-8.272590637,-0.058090575,0.272590458,-0.888758183
101.891218,-12.234580994,-11.078491211,-8.501472473,-0.055893309,0.268073857,-0.887659550
101.891845,-12.799156189,-11.208190918,-8.898200989,-0.055527098,0.265022099,-0.888636112
101.892471,-13.638389587,-11.154785156,-8.951606750,-0.054550536,0.258918583,-0.888514042
101.893096,-14.134300232,-11.253967285,-9.241523743,-0.057602294,0.255500615,-0.888880253
101.893721,-14.637840271,-11.124267578,-9.539070129,-0.055160888,0.249763310,-0.886805058
101.894346,-15.149009705,-11.109008789,-9.745063782,-0.051132567,0.245734990,-0.889246464
101.908384,-10.273826599,-10.826721191,-12.697639465,-0.034897216,0.133308232,-0.855677128
101.909145,-9.320152283,-10.735168457,-12.957038879,-0.033432372,0.125984013,-0.854578495
101.909770,-8.824241638,-11.017456055,-13.071479797,-0.033798583,0.120857060,-0.855799198
101.910395,-7.840049744,-10.895385742,-13.384284973,-0.032699950,0.119636357,-0.855677128
101.911020,-7.115257263,-10.979309082,-13.079109192,-0.031235106,0.115485966,-0.854822636
101.911645,-6.176841736,-10.864868164,-13.208808899,-0.027695067,0.113166630,-0.853479862
101.912272,-5.108726501,-10.941162109,-13.353767395,-0.029648192,0.105354130,-0.853601933
101.912898,-4.422080994,-10.994567871,-13.346138000,-0.028305419,0.106574833,-0.851892948
101.913523,-3.415000916,-10.735168457,-13.437690735,-0.023666747,0.101325810,-0.853968143
101.914148,-2.598655701,-11.047973633,-13.468208313,-0.024277098,0.097175419,-0.853235722
101.914774,-1.553428650,-11.109008789,-13.597908020,-0.026230223,0.097785771,-0.852869511
101.915400,-0.370872498,-11.086120605,-13.407173157,-0.024155028,0.093757451,-0.853235722
101.916026,0.430213928,-10.918273926,-13.468208313,-0.018295653,0.091804326,-0.852381229
101.916652,1.444923401,-11.276855469,-13.338508606,-0.018661864,0.087653935,-0.851892948
101.917279,2.337562561,-11.292114258,-13.468208313,-0.014145263,0.087165654,-0.848719120
101.917906,3.214942932,-11.383666992,-13.521614075,-0.013534912,0.084358037,-0.847986698
101.918531,4.160987854,-11.284484863,-13.552131653,-0.009750732,0.085578740,-0.846765995
101.919156,5.229103088,-11.246337891,-13.582649231,-0.009750732,0.083747685,-0.846888065
101.919783,5.999671936,-11.223449707,-13.399543762,-0.008285888,0.082526982,-0.844568729
101.920408,6.877052307,-11.215820312,-13.552131653,-0.006943115,0.080085576,-0.839685917
101.921033,8.250343323,-11.200561523,-13.513984680,-0.005356201,0.079475224,-0.836145878
101.921660,8.250343323,-11.200561523,-13.513984680,-0.005356201,0.079475224,-0.836145878
101.922285,9.966957092,-11.467590332,-13.338508606,-0.003036865,0.078010380,-0.830652714
101.922910,10.287391663,-11.086120605,-13.330879211,-0.001327881,0.076545537,-0.823938847
101.923535,11.233436584,-11.093750000,-13.384284973,0.000869385,0.076667607,-0.826258183
101.924161,11.645423889,-11.086120605,-13.147773743,0.006240479,0.076423466,-0.823084354
101.924787,12.087928772,-10.712280273,-13.079109192,0.003799072,0.073615849,-0.819178104
101.925413,12.713539124,-10.864868164,-13.025703430,0.006850830,0.073371708,-0.813318729
101.926039,13.247596741,-10.803833008,-12.903633118,0.012343994,0.074226201,-0.813684940
101.926664,13.476478577,-10.353698730,-13.025703430,0.011489502,0.076423466,-0.808313847
101.927289,13.758766174,-10.010375977,-13.048591614,0.016616456,0.074470341,-0.805628300
101.927916,14.010536194,-9.796752930,-12.850227356,0.014052979,0.073249638,-0.803553104
101.928542,14.399635315,-9.689941406,-12.659492493,0.018325441,0.075935185,-0.799158573
101.929168,14.330970764,-9.232177734,-12.529792786,0.020766847,0.078010380,-0.795862675
101.929793,14.414894104,-8.957519531,-12.468757629,0.022964112,0.077155888,-0.792932987
101.930418,14.735328674,-8.743896484,-12.476387024,0.023696534,0.078620732,-0.790247440
101.931044,14.750587463,-8.362426758,-12.216987610,0.022109620,0.079719365,-0.790857792
101.931669,14.460670471,-7.858886719,-12.468757629,0.023208253,0.079963505,-0.787073612
101.932294,14.300453186,-7.630004883,-12.133064270,0.022597902,0.080940068,-0.788782597
101.932921,14.239418030,-7.179870605,-12.110176086,0.026260011,0.081062138,-0.788172245
101.933547,13.987648010,-6.683959961,-11.988105774,0.023940675,0.083381474,-0.782190800
101.934172,13.682472229,-6.157531738,-11.995735168,0.026015870,0.083991826,-0.781092167
101.934797,13.400184631,-5.867614746,-11.812629700,0.028213136,0.082893193,-0.780359745
101.935423,12.942420959,-5.158081055,-11.713447571,0.026870362,0.085944951,-0.783167362
101.936048,12.644874573,-4.944458008,-11.644783020,0.028945558,0.085578740,-0.784510136
101.943328,5.129920959,0.312194824,-10.019721985,0.012466065,0.099372685,-0.796839237
101.956256,-11.021507263,4.561767578,-8.943977356,-0.071640380,0.114021122,-0.876673222
101.957052,-11.158836365,4.821166992,-8.699836731,-0.071518309,0.117927372,-0.878015995
101.958908,-13.264549255,4.615173340,-8.760871887,-0.077988036,0.115119755,-0.885096073
101.959534,-13.798606873,4.844055176,-8.890571594,-0.081406005,0.112556279,-0.884729862
101.960159,-14.302146912,4.798278809,-8.737983704,-0.081894286,0.117072880,-0.884974003
101.960785,-14.943016052,4.927978516,-8.615913391,-0.085800536,0.111701787,-0.886316776
101.961410,-15.675437927,4.889831543,-8.615913391,-0.089828856,0.113166630,-0.889246464
101.962037,-15.919578552,4.874572754,-8.631172180,-0.089828856,0.113654912,-0.886927128
101.962664,-16.552818298,4.935607910,-8.684577942,-0.093979247,0.108772099,-0.889856815
101.963290,-17.041099548,4.973754883,-8.898200989,-0.092880614,0.109260380,-0.892420292
101.963915,-17.681968689,5.027160645,-8.715095520,-0.094467528,0.109748662,-0.890467167
101.964542,-17.819297791,4.790649414,-8.585395813,-0.096664794,0.110725224,-0.892176151
101.965169,-18.414390564,5.240783691,-8.631172180,-0.102402098,0.107673466,-0.894861698
101.965796,-18.589866638,5.309448242,-8.631172180,-0.102524169,0.106574833,-0.890345097
101.966421,-19.139183044,4.836425781,-8.524360657,-0.103378661,0.109626591,-0.891809940
101.967046,-19.528282166,5.118713379,-8.821907043,-0.107529052,0.105476201,-0.893274784
101.967671,-19.741905212,5.111083984,-8.715095520,-0.110092528,0.105598271,-0.893518925
101.968297,-20.008934021,5.164489746,-8.486213684,-0.115341552,0.104255497,-0.894495487
101.968923,-20.413291931,5.393371582,-8.722724915,-0.115829833,0.101569951,-0.894373417
101.969549,-20.527732849,5.286560059,-8.539619446,-0.118759520,0.099616826,-0.894739628
101.970175,-20.596397400,5.256042480,-8.654060364,-0.119369872,0.099860966,-0.897058964
101.970800,-20.619285583,5.286560059,-8.539619446,-0.123886473,0.100105107,-0.901209354
101.971426,-21.016014099,5.324707031,-8.585395813,-0.129013434,0.096565068,-0.899134159
101.972052,-20.878684998,5.439147949,-8.577766418,-0.130356207,0.097541630,-0.898890018
101.972679,-21.191490173,5.355224609,-8.562507629,-0.137314215,0.097663701,-0.901087284
101.973304,-21.099937439,5.408630371,-8.486213684,-0.136215582,0.092658818,-0.900965214
101.973930,-20.970237732,5.492553711,-8.577766418,-0.138656989,0.094978154,-0.899988651
101.974556,-21.099937439,5.271301270,-8.440437317,-0.139877692,0.093025029,-0.904749393
101.975183,-20.848167419,5.248413086,-8.654060364,-0.145370856,0.093513310,-0.909388065
101.975809,-20.817649841,5.370483398,-8.692207336,-0.147690192,0.094123662,-0.909265995
101.976435,-20.542991638,5.248413086,-8.425178528,-0.152450934,0.091438115,-0.911097050
101.977061,-20.245445251,5.088195801,-8.791389465,-0.154648200,0.089362919,-0.913904667
101.977707,-20.077598572,5.500183105,-8.638801575,-0.160385504,0.086677372,-0.916468143
101.978334,-19.749534607,5.034790039,-8.470954895,-0.164535895,0.084724247,-0.917444706
101.978960,-19.413841248,4.844055176,-8.768501282,-0.163193122,0.084602177,-0.916956425
101.979586,-19.047630310,4.950866699,-8.760871887,-0.166611090,0.081062138,-0.918665409
101.980211,-18.635643005,4.912719727,-8.684577942,-0.169906989,0.081550419,-0.917078495
101.980838,-18.010032654,4.798278809,-8.745613098,-0.169540778,0.078376591,-0.915857792
101.981464,-17.445457458,4.592285156,-8.814277649,-0.171249762,0.077888310,-0.919519901
101.982091,-16.743553162,4.752502441,-8.463325500,-0.172226325,0.081062138,-0.917688847
101.982718,-16.308677673,4.668579102,-8.379402161,-0.174545661,0.076545537,-0.915857792
101.983345,-15.858543396,4.775390625,-8.776130676,-0.179428473,0.073737919,-0.916224003
101.983971,-15.339744568,4.683837891,-8.600654602,-0.180405036,0.074348271,-0.911707401
101.984596,-14.759910583,4.721984863,-8.470954895,-0.180649176,0.078986943,-0.916346073
101.985223,-14.035118103,4.729614258,-8.562507629,-0.184555426,0.077033818,-0.915491581
101.985848,-13.676536560,4.737243652,-8.539619446,-0.186508551,0.074958622,-0.915369511
101.986475,-12.928855896,4.744873047,-8.486213684,-0.189926520,0.074836552,-0.916224003
101.999235,3.436195374,2.234802246,-8.646430969,-0.246445075,0.040534791,-0.934900761
101.999956,4.435646057,2.066955566,-8.806648254,-0.247421637,0.035407837,-0.937830448
102.000582,5.419837952,1.944885254,-8.814277649,-0.243515387,0.032478150,-0.934412479
102.001208,6.411659241,1.761779785,-8.699836731,-0.245956793,0.028449830,-0.935633183
102.001833,7.502662659,1.815185547,-8.776130676,-0.241928473,0.026862916,-0.934290409
102.002458,8.677589417,1.502380371,-8.661689758,-0.241928473,0.024543580,-0.931116581
102.003084,9.501564026,1.578674316,-8.623542786,-0.238388434,0.023322877,-0.930506229
102.003710,10.729896545,1.395568848,-8.524360657,-0.237900153,0.019172486,-0.928675175
102.004335,11.828529358,1.288757324,-8.646430969,-0.237045661,0.016609009,-0.930384159
102.004960,12.713539124,1.189575195,-8.737983704,-0.233505622,0.013191041,-0.927698612
102.005585,13.743507385,0.846252441,-8.325996399,-0.231796637,0.011970337,-0.922571659
102.006210,14.819252014,1.044616699,-8.440437317,-0.232162848,0.011237916,-0.917200565
102.006836,15.841590881,0.800476074,-8.234443665,-0.229355231,0.008918580,-0.917444706
102.007461,16.436683655,0.769958496,-8.409919739,-0.226059332,0.009284791,-0.913416386
102.009291,19.732582092,0.640258789,-8.112373352,-0.217636481,0.003303345,-0.908289433
102.009918,20.640480042,1.006469727,-8.089485168,-0.221176520,0.002448853,-0.902552128
102.010544,21.494972229,0.945434570,-7.883491516,-0.212143317,-0.001091186,-0.901209354
102.011170,22.029029846,1.105651855,-8.036079407,-0.212509528,0.000739869,-0.900476933
102.011795,22.990333557,1.220092773,-8.036079407,-0.210678473,-0.000724975,-0.900476933
102.012420,23.577796936,1.082763672,-7.715644836,-0.207382575,-0.002922241,-0.892908573
102.013045,24.348365784,1.166687012,-7.692756653,-0.206039801,-0.005729858,-0.892176151
102.013670,25.027381897,1.319274902,-7.830085754,-0.205185309,-0.005485717,-0.890100956
102.014297,25.363075256,1.464233398,-7.608833313,-0.205307379,-0.006340209,-0.890223026
102.014923,26.118385315,1.662597656,-7.326545715,-0.205307379,-0.011223022,-0.889856815
102.015549,26.835548401,1.883850098,-7.212104797,-0.204697028,-0.012443725,-0.888269901
102.016175,27.392494202,2.021179199,-7.364692688,-0.206039801,-0.013054077,-0.887903690
102.016800,28.033363342,2.196655273,-7.234992981,-0.205673590,-0.019890014,-0.882898808
102.017427,28.735267639,2.265319824,-7.143440247,-0.201034918,-0.025261108,-0.880945683
102.018053,29.154884338,2.410278320,-7.173957825,-0.201645270,-0.030388061,-0.876917362
102.018680,29.994117737,2.662048340,-6.906929016,-0.196762457,-0.031730834,-0.878870487
102.019306,30.612098694,2.829895020,-6.937446594,-0.191269293,-0.038566772,-0.874842167
102.019931,31.367408752,2.921447754,-6.464424133,-0.188461676,-0.039909545,-0.873621464
102.020558,31.939613342,3.127441406,-6.502571106,-0.183456793,-0.045890991,-0.871057987
102.021183,32.359230042,3.493652344,-6.540718079,-0.176742926,-0.045646850,-0.873621464
102.021808,32.679664612,3.730163574,-6.319465637,-0.173080817,-0.046379272,-0.871546268
102.022435,32.923805237,4.081115723,-6.395759583,-0.163925543,-0.052482788,-0.872400761
102.023060,33.442604065,4.096374512,-6.006660461,-0.158554450,-0.051994506,-0.869226933
102.023687,33.900367737,4.355773926,-5.793037415,-0.156113043,-0.057731811,-0.869104862
102.024312,34.152137756,4.889831543,-5.510749817,-0.144882575,-0.059807006,-0.869471073
102.024938,34.571754456,5.080566406,-5.289497375,-0.137680426,-0.065666378,-0.865076542
102.025563,34.991371155,5.629882812,-5.121650696,-0.126694098,-0.066765010,-0.863977909
102.026203,35.609352112,5.759582520,-4.816474915,-0.117172606,-0.071891963,-0.862024784
102.026829,35.845863342,6.247863770,-4.457893372,-0.107284911,-0.073356807,-0.862513065
102.027455,36.021339417,6.743774414,-4.480781555,-0.100693114,-0.069572628,-0.861780643
102.028080,36.524879456,7.155761719,-4.000129700,-0.096664794,-0.077018917,-0.860071659
102.028707,36.791908264,7.857666016,-3.649177551,-0.094711669,-0.078727901,-0.855921268
102.041553,31.123268127,20.850524902,2.858695984,-0.024032958,-0.026481811,-0.859827518
102.042342,29.879676819,21.376953125,2.843437195,-0.019760497,-0.018425170,-0.863977909
102.042968,28.903114319,22.467956543,3.049430847,-0.017807372,-0.011345092,-0.866297245
102.043594,27.651893616,23.009643555,3.530082703,-0.014145263,-0.002189819,-0.866663456
102.044219,26.293861389,23.955688477,3.842887878,-0.010483154,0.005988892,-0.868372440
102.044844,25.241004944,24.428710938,4.071769714,-0.012192138,0.014045533,-0.870569706
102.045483,23.959266663,25.420532227,3.903923035,-0.012558349,0.022956666,-0.869959354
102.046109,22.532569885,26.091918945,4.506645203,-0.011825928,0.029670533,-0.870569706
102.046735,21.288978577,26.938781738,4.659233093,-0.009750732,0.035774048,-0.869837284
102.047361,19.648658752,27.678833008,4.666862488,-0.015854247,0.044685181,-0.868860722
102.047987,18.046485901,28.533325195,4.987297058,-0.009506592,0.050300416,-0.869104862
102.048613,16.574012756,29.250488281,5.086479187,-0.012802490,0.059211548,-0.873865604
102.049238,14.849769592,30.074462891,5.109367371,-0.009994873,0.062995732,-0.873011112
102.049864,12.782203674,31.028137207,5.269584656,-0.016464598,0.071174443,-0.870569706
102.050491,11.012184143,31.707153320,5.513725281,-0.014267334,0.077400029,-0.873987675
102.051118,9.226905823,32.729492188,5.452690125,-0.018906005,0.078376591,-0.873865604
102.051743,7.228004456,33.400878906,5.643424988,-0.021469481,0.087653935,-0.876307011
102.052369,5.274879456,34.354553223,5.834159851,-0.025497802,0.088630497,-0.876551151
102.052994,3.222572327,35.148010254,5.567131042,-0.027572997,0.097053349,-0.880457401
102.053619,1.414405823,36.033020020,5.910453796,-0.028305419,0.097297490,-0.878015995
102.054245,-0.462425232,36.582336426,5.948600769,-0.027939208,0.091071904,-0.873865604
102.054870,-1.240623474,37.757263184,5.864677429,-0.006821045,0.073737919,-0.857752323
102.055495,-1.522911072,39.496765137,5.895195007,0.005874268,0.074104130,-0.844446659
102.056120,-2.652061462,40.816650391,6.009635925,0.007827393,0.100227177,-0.844812870
102.056747,-4.528892517,42.212829590,6.513175964,0.006972901,0.123176396,-0.850428104
102.057374,-7.229698181,43.540344238,6.619987488,-0.010727295,0.133674443,-0.859705448
102.058000,-10.388267517,45.005187988,6.513175964,-0.026718505,0.130378544,-0.865808964
102.059829,-15.896690369,47.652587891,5.933341980,-0.059433348,0.135505497,-0.889124393
102.060455,-17.712486267,48.262939453,5.857048035,-0.060898192,0.135505497,-0.899134159
102.061081,-19.162071228,48.461303711,6.131706238,-0.058578856,0.126228154,-0.904993534
102.061707,-20.222557068,49.125061035,6.223258972,-0.058700927,0.114631474,-0.914148808
102.062334,-20.626914978,49.987182617,5.986747742,-0.048813231,0.106574833,-0.923548222
102.062961,-20.741355896,51.032409668,5.704460144,-0.045151122,0.111579716,-0.927942753
102.063586,-21.633995056,52.146301270,5.429801941,-0.051010497,0.118903935,-0.941980839
102.064211,-22.869956970,52.924499512,5.673942566,-0.058578856,0.117561162,-0.954676151
102.064836,-24.189842224,53.672180176,5.658683777,-0.059311278,0.103278935,-0.969080448
102.065462,-24.433982849,54.541931152,5.460319519,-0.076523192,0.099860966,-0.978846073
102.066088,-24.968040466,55.220947266,5.368766785,-0.097519286,0.104621708,-0.999109745
102.066713,-25.669944763,55.251464844,5.406913757,-0.110580809,0.110969365,-1.020960331
102.067338,-26.196372986,54.992065430,5.200920105,-0.112167723,0.107917607,-1.042322636
102.067963,-26.783836365,55.381164551,5.101737976,-0.116073973,0.097785771,-1.055262089
102.068589,-26.554954529,55.411682129,4.880485535,-0.122421630,0.094489872,-1.069300175
102.069216,-26.081932068,55.289611816,4.827079773,-0.126816168,0.097663701,-1.081385136
102.069841,-25.929344177,55.121765137,4.689750671,-0.123276122,0.096320927,-1.092371464
102.070467,-25.563133240,55.129394531,4.682121277,-0.115341552,0.092658818,-1.101526737
102.071093,-24.937522888,55.007324219,4.407463074,-0.124863036,0.095344365,-1.113977909
102.071720,-24.495018005,54.702148438,4.300651550,-0.135116950,0.097663701,-1.128015995
102.084561,-8.320701599,44.715270996,1.218376160,-0.178329840,0.088874638,-1.212244511
102.085355,-7.550132751,44.082031250,1.203117371,-0.179428473,0.091804326,-1.215784550
102.085981,-6.764305115,43.921813965,1.012382507,-0.176864997,0.090705693,-1.218225956
102.086606,-6.001365662,43.410644531,0.745353699,-0.173813239,0.092170537,-1.223230839
102.087231,-5.299461365,42.952880859,0.783500671,-0.176376715,0.093635380,-1.227137089
102.087857,-5.047691345,42.640075684,0.493583679,-0.172714606,0.097297490,-1.227869511
102.088482,-4.055870056,42.197570801,0.447807312,-0.173691168,0.095466435,-1.231897831
