time,gyro x,gyro y,gyro z,accel x,accel y,accel z
90.508136,0.132667542,-3.288879395,-1.161994934,0.133803949,1.002570868,0.410192013
90.518058,0.636207581,-2.426757812,-1.795234680,0.130996332,1.013190985,0.453649044
90.518865,0.826942444,-2.236022949,-1.779975891,0.130752191,1.013923407,0.456822872
90.519491,0.811683655,-2.182617188,-1.856269836,0.133437738,1.014411688,0.458898067
90.520118,0.865089417,-1.976623535,-1.909675598,0.134292230,1.014167547,0.456090450
90.520743,0.857460022,-1.686706543,-2.069892883,0.135146722,1.009528875,0.456334591
90.521368,1.147377014,-1.503601074,-1.932563782,0.135635003,1.007087469,0.455724239
90.521994,1.124488831,-1.190795898,-2.146186829,0.133803949,1.009406805,0.456822872
90.522621,1.307594299,-0.824584961,-2.138557434,0.137588128,1.004035711,0.452428341
90.523246,1.246559143,-0.855102539,-2.321662903,0.135146722,1.007819891,0.450597286
90.523873,1.216041565,-0.282897949,-2.314033508,0.136367425,1.009528875,0.451573849
90.524498,1.330482483,-0.137939453,-2.321662903,0.139419183,1.010017157,0.448277950
90.525124,1.292335510,0.167236328,-2.451362610,0.141372308,1.010017157,0.449254513
90.525749,1.208412170,0.541076660,-2.573432922,0.141006097,1.006477118,0.448400021
90.526376,0.964271545,0.792846680,-2.573432922,0.138198480,1.007453680,0.444493771
90.527001,0.956642151,1.014099121,-2.817573547,0.140029535,1.010017157,0.440465450
90.527628,0.857460022,1.349792480,-2.878608704,0.137954339,1.007209539,0.437413692
90.528255,0.750648499,1.647338867,-2.756538391,0.135146722,1.004157782,0.435826778
90.528881,0.735389709,1.983032227,-2.939643860,0.136001214,1.004401922,0.433385372
90.529508,0.460731506,2.105102539,-2.825202942,0.135512933,1.002937078,0.431188107
90.530133,0.414955139,2.311096191,-3.099861145,0.132461175,1.002448797,0.428014278
90.530759,0.262367249,2.707824707,-3.076972961,0.134048089,0.998786747,0.424840450
90.531385,0.445472717,2.639160156,-3.000679016,0.133071527,0.996833622,0.419957638
90.532011,0.178443909,2.707824707,-3.252449036,0.136855707,0.992439091,0.419347286
90.532636,0.102149963,3.272399902,-3.351631165,0.131484613,0.986945927,0.419469357
90.533262,0.269996643,3.150329590,-3.168525696,0.130385980,0.985481083,0.414708614
90.533887,0.338661194,3.188476562,-3.481330872,0.129409418,0.986457646,0.409947872
90.534512,0.178443909,3.592834473,-3.305854797,0.124648683,0.980232060,0.409337521
90.535137,0.247108459,3.501281738,-3.649177551,0.121352784,0.980354130,0.405309200
90.535762,0.537025452,3.623352051,-3.519477844,0.123550050,0.972053349,0.399938107
90.536388,0.720130920,3.371582031,-3.618659973,0.120498292,0.970100224,0.401402950
90.537013,0.559913635,3.562316895,-3.473701477,0.120742433,0.965339482,0.393590450
90.537638,0.720130920,3.394470215,-3.656806946,0.120986573,0.963630497,0.393224239
90.538264,0.674354553,3.463134766,-3.374519348,0.121230714,0.962409794,0.390660763
90.538890,0.926124573,3.486022949,-3.679695129,0.120254152,0.962653935,0.383580685
90.539517,0.895606995,3.417358398,-3.519477844,0.117202394,0.957160771,0.380650997
90.540143,1.078712463,3.257141113,-3.542366028,0.118423097,0.953376591,0.377843380
90.540768,0.788795471,3.524169922,-3.504219055,0.116347902,0.951789677,0.376378536
90.541394,0.765907288,3.234252930,-3.580513000,0.116347902,0.949958622,0.375035763
90.542020,0.910865784,3.318176270,-3.336372375,0.120010011,0.948005497,0.367467403
90.542645,0.781166077,3.295288086,-3.527107239,0.117812745,0.945075810,0.364171505
90.543271,1.040565491,3.409729004,-3.359260559,0.118911378,0.943122685,0.359410763
90.543898,0.849830627,3.333435059,-3.504219055,0.121230714,0.941901982,0.355504513
90.544524,0.765907288,3.470764160,-3.168525696,0.124526612,0.937141240,0.352452755
90.545149,0.605690002,3.455505371,-3.122749329,0.124770753,0.932014287,0.346227169
90.545775,0.437843323,3.592834473,-3.130378723,0.118545167,0.929084599,0.344151974
90.546402,0.216590881,3.623352051,-2.993049622,0.123305909,0.922126591,0.336949825
90.547027,0.170814514,3.646240234,-2.855720520,0.123305909,0.917487919,0.335240841
90.547652,0.315773010,3.615722656,-2.832832336,0.120010011,0.913459599,0.334752560
90.548279,0.163185120,3.569946289,-2.802314758,0.121596925,0.911750615,0.333287716
90.561441,-1.339805603,0.144348145,0.196037292,0.113174073,0.898933232,0.271886349
90.562144,-1.461875916,-0.084533691,0.424919128,0.115737550,0.904548466,0.266637325
90.562769,-1.614463806,-0.450744629,0.569877625,0.119399659,0.905280888,0.267491817
90.563395,-1.950157166,-0.397338867,0.714836121,0.119399659,0.910407841,0.268712521
90.564020,-2.217185974,-0.641479492,0.875053406,0.123061769,0.914436162,0.265294552
90.564647,-2.301109314,-0.794067383,0.882682800,0.124404542,0.917732060,0.263951778
90.565272,-2.804649353,-0.801696777,1.081047058,0.126845941,0.924323857,0.262731075
90.565898,-2.964866638,-0.687255859,0.859794617,0.128432855,0.924812138,0.257359982
90.566524,-3.369224548,-0.801696777,1.195487976,0.126113519,0.928108037,0.260411739
90.568324,-3.949058533,-1.335754395,1.699028015,0.120254152,0.926887333,0.269078732
90.568949,-4.010093689,-1.595153809,1.515922546,0.119765870,0.922248662,0.270177364
90.569574,-4.139793396,-1.900329590,1.668510437,0.121718995,0.921516240,0.271031857
90.570201,-3.903282166,-2.190246582,1.805839539,0.126479730,0.925300419,0.267491817
90.570826,-4.284751892,-2.373352051,1.775321960,0.131484613,0.930305302,0.263463497
90.571451,-4.643333435,-2.327575684,1.737174988,0.139297113,0.935676396,0.257970333
90.572076,-4.948509216,-2.449645996,1.798210144,0.131484613,0.923469365,0.267003536
90.572701,-4.155052185,-2.808227539,2.164421082,0.115981691,0.910285771,0.283971310
90.573328,-3.849876404,-3.327026367,1.920280457,0.116714112,0.910774052,0.297521114
90.573954,-3.628623962,-4.295959473,1.767692566,0.126723871,0.927985966,0.292882442
90.574579,-3.727806091,-4.463806152,2.172050476,0.142959222,0.936164677,0.283238888
90.575206,-3.994834900,-4.219665527,1.950798035,0.159194574,0.951057255,0.265294552
90.575833,-4.460227966,-3.754272461,2.042350769,0.156997308,0.940681279,0.257726192
90.576459,-4.177940369,-3.708496094,2.103385925,0.137343988,0.929450810,0.266515255
90.577084,-4.437339783,-3.853454590,1.988945007,0.137588128,0.934943974,0.278722286
90.577711,-4.460227966,-3.906860352,1.874504089,0.145034418,0.959358037,0.277013302
90.578336,-4.879844666,-3.571166992,2.103385925,0.144912347,0.948615849,0.272008419
90.578962,-4.383934021,-4.028930664,2.118644714,0.103164308,0.916755497,0.292394161
90.579587,-3.834617615,-5.028381348,2.072868347,0.076186769,0.884284794,0.332555294
90.580213,-2.041709900,-6.905212402,2.225456238,0.073501222,0.894050419,0.354894161
90.580838,-1.789939880,-7.713928223,2.080497742,0.144790277,0.963020146,0.319493771
90.581464,-2.537620544,-7.263793945,1.752433777,0.144912347,0.957282841,0.306920528
90.582091,-1.988304138,-7.263793945,2.217826843,0.133681878,0.940437138,0.296910763
90.582718,-2.461326599,-6.691589355,1.882133484,0.169814691,0.976814091,0.259191036
90.583343,-2.964866638,-5.356445312,1.760063171,0.171523675,0.969245732,0.254430294
90.583969,-2.461326599,-5.051269531,2.019462585,0.131728753,0.958747685,0.274571896
90.584595,-2.964866638,-4.898681641,1.744804382,0.123061769,0.979255497,0.293736935
90.585221,-2.819908142,-4.707946777,1.714286804,0.131362543,0.990485966,0.299962521
90.585846,-3.491294861,-4.448547363,1.630363464,0.120620362,1.004279852,0.291295528
90.586472,-3.186119080,-5.158081055,1.493034363,0.092177980,0.984260380,0.310216427
90.587097,-2.842796326,-6.104125977,1.271781921,0.095473878,0.997688115,0.326817989
90.587723,-2.682579041,-7.004394531,1.210746765,0.085586183,0.998176396,0.341100216
90.588348,-2.148521423,-8.461608887,1.264152527,0.060927980,0.988166630,0.368443966
90.588974,-1.530540466,-10.109558105,1.081047058,0.077407472,1.003425360,0.369786739
90.589599,-1.706016541,-10.925903320,0.844535828,0.125869378,1.035407782,0.349889278
90.590226,-2.102745056,-10.979309082,0.569877625,0.141128168,1.047004461,0.325597286
90.590853,-2.957237244,-10.407104492,0.226554871,0.145766839,1.049323797,0.307897091
90.591479,-2.934349060,-10.231628418,0.356254578,0.110000245,1.007575750,0.331456661
90.592106,-1.477134705,-11.459960938,-0.002326965,0.060683839,0.977790654,0.390538692
90.606849,9.326087952,-12.192382812,-6.716194153,0.109389894,1.076545477,0.494786739
90.607728,10.417091370,-13.092651367,-6.685676575,0.083755128,1.058845282,0.523229122
90.608362,11.370765686,-14.481201172,-7.379951477,0.065078370,1.039069891,0.554357052
90.608987,12.972938538,-16.342773438,-7.563056946,0.047622316,1.016486883,0.584630489
90.609633,15.269386292,-19.043579102,-7.753791809,0.013442627,0.968269169,0.632482052
90.610260,17.092811584,-21.599426270,-8.066596985,0.096572511,1.045539618,0.609532833
90.610934,15.071022034,-20.119323730,-8.943977356,0.291274667,1.209357977,0.469274044
90.611560,11.401283264,-15.099182129,-8.974494934,0.353164315,1.219856024,0.352818966
90.612185,10.287391663,-10.155334473,-8.982124329,0.258926034,1.126350164,0.334752560
90.612812,11.241065979,-8.026733398,-9.119453430,0.138930902,1.032478094,0.410680294
90.613439,12.980567932,-8.240356445,-9.722175598,0.072280519,1.005378485,0.522374630
90.614065,13.796913147,-9.766235352,-10.096015930,0.078872316,1.056648016,0.595860958
90.614692,13.445960999,-10.895385742,-10.233345032,0.119521730,1.100837469,0.602574825
90.615319,13.171302795,-11.322631836,-10.439338684,0.131118402,1.098762274,0.576329708
90.615946,13.651954651,-11.871948242,-10.805549622,0.108901612,1.061652899,0.558873653
90.616572,15.002357483,-12.985839844,-10.874214172,0.088637941,1.014289618,0.571446896
90.618453,15.956031799,-13.908996582,-11.415901184,0.157363519,1.025031805,0.546178341
90.619079,16.543495178,-12.779846191,-11.797370911,0.184096918,1.040168524,0.510655880
90.619704,15.696632385,-10.918273926,-12.224617004,0.226699457,1.072761297,0.469518185
90.620331,15.071022034,-8.469238281,-12.232246399,0.218154535,1.081916571,0.459752560
90.620958,14.681922913,-6.661071777,-12.224617004,0.184707269,1.057380438,0.480138302
90.621583,14.628517151,-5.592956543,-12.407722473,0.155166253,1.033210516,0.510411739
90.622209,14.681922913,-5.036010742,-12.682380676,0.150649652,1.034797430,0.523717403
90.622836,14.025794983,-4.654541016,-12.728157043,0.149184808,1.044685125,0.520787716
90.623462,13.705360413,-4.265441895,-12.896003723,0.146621332,1.046272039,0.514440060
90.624089,13.445960999,-4.028930664,-12.857856750,0.154189691,1.065803289,0.490392208
90.624714,12.591468811,-3.349914551,-13.178291321,0.165786371,1.073005438,0.479650021
90.625339,11.614906311,-2.663269043,-13.124885559,0.155654535,1.055183172,0.476964474
90.625965,11.317359924,-2.350463867,-13.292732239,0.136733636,1.026008368,0.481603146
90.626591,11.401283264,-2.747192383,-13.330879211,0.120742433,1.004279852,0.492589474
90.627217,11.744606018,-3.510131836,-13.391914368,0.122329347,1.014045477,0.489903927
90.627842,11.210548401,-3.441467285,-13.750495911,0.160537347,1.048103094,0.470250607
90.628469,10.111915588,-2.831115723,-13.681831360,0.176528558,1.051887274,0.445958614
90.629094,9.364234924,-1.732482910,-14.032783508,0.189345941,0.961311162,0.408116817
90.629721,9.936439514,-0.824584961,-13.597908020,0.166152582,0.996467412,0.433019161
90.630347,10.043251038,-0.946655273,-13.498725891,0.168471918,1.025275946,0.458043575
90.630972,8.425819397,-0.527038574,-13.498725891,0.154555902,1.051521063,0.466344357
90.631598,7.151710510,0.014648438,-13.445320129,0.160781488,1.048469305,0.455602169
90.632224,6.404029846,0.045166016,-13.559761047,0.149551019,1.021247625,0.442296505
90.632849,5.778419495,-0.176086426,-13.262214661,0.140517816,1.001350164,0.435216427
90.633476,5.625831604,-0.694885254,-13.559761047,0.146621332,0.992072880,0.437901974
90.634102,5.129920959,-0.404968262,-13.620796204,0.157607660,0.995246708,0.438756466
90.634729,4.565345764,-0.595703125,-13.277473450,0.159804925,0.990974247,0.437169552
90.635354,3.840553284,-0.397338867,-13.056221008,0.159194574,0.985969365,0.432042599
90.635980,3.573524475,-0.229492188,-13.231697083,0.159560785,0.972297490,0.426793575
90.636606,3.222572327,-0.115051270,-13.079109192,0.157729730,0.966193974,0.420934200
90.637231,2.528297424,-0.267639160,-12.842597961,0.159072503,0.962898076,0.417394161
90.637858,2.108680725,-0.115051270,-12.720527649,0.158462152,0.956672490,0.419957638
90.650900,-3.613365173,4.149780273,-7.242622375,0.125136957,0.881477177,0.381505489
90.651608,-3.964317322,4.279479980,-7.044258118,0.124892823,0.881843388,0.382359982
90.652234,-4.048240662,4.256591797,-6.723823547,0.123305909,0.878181279,0.375035763
90.652859,-4.101646423,4.737243652,-6.533088684,0.124648683,0.873786747,0.372350216
90.653485,-4.277122498,4.683837891,-6.426277161,0.125136957,0.874519169,0.367223263
90.654111,-4.055870056,5.050048828,-5.777778625,0.120986573,0.874885380,0.362706661
90.654736,-4.132164001,4.966125488,-5.953254700,0.119765870,0.875495732,0.361852169
90.655361,-3.895652771,5.004272461,-5.320014954,0.118301027,0.871955693,0.357945919
90.655987,-3.895652771,4.935607910,-5.121650696,0.123427980,0.868659794,0.356969357
90.656613,-3.735435486,5.286560059,-4.869880676,0.118423097,0.881233037,0.353673458
90.657238,-3.903282166,4.943237305,-4.824104309,0.121718995,0.884528935,0.350499630
90.657864,-3.735435486,4.897460938,-4.419746399,0.115737550,0.880866826,0.346227169
90.658489,-3.620994568,4.920349121,-4.297676086,0.116103761,0.878547490,0.342442989
90.659114,-3.231895447,4.943237305,-4.137458801,0.124526612,0.888679326,0.334630489
90.659739,-3.582847595,4.943237305,-3.992500305,0.132339105,0.899543583,0.318883419
90.660364,-3.559959412,5.370483398,-3.733100891,0.131240472,0.903205693,0.307164669
90.660989,-3.620994568,5.690917969,-3.755989075,0.124770753,0.901618779,0.304112911
90.661615,-2.949607849,5.652770996,-3.565254211,0.119155519,0.900031865,0.304112911
90.662240,-2.400291443,5.240783691,-3.595771790,0.106704347,0.898811162,0.304723263
90.662866,-2.125633240,5.065307617,-3.389778137,0.102431886,0.902107060,0.307286739
90.663491,-1.751792908,4.302368164,-3.481330872,0.099868409,0.906013310,0.304357052
90.664116,-1.088035583,4.165039062,-3.321113586,0.100967042,0.907722294,0.293126583
90.664742,-0.111473083,3.218994141,-3.420295715,0.097060792,0.910896122,0.281651974
90.665367,-0.111473083,3.218994141,-3.420295715,0.097060792,0.910896122,0.281651974
90.665992,1.620399475,2.745971680,-3.542366028,0.088760011,0.916267216,0.273961544
90.666617,2.589332581,1.975402832,-3.496589661,0.089736573,0.919441044,0.274083614
90.668432,4.405128479,1.357421875,-3.649177551,0.090957277,0.931159794,0.272252560
90.669057,4.939186096,1.029357910,-3.557624817,0.091201417,0.939948857,0.274816036
90.669682,5.709754944,0.617370605,-3.626289368,0.087417237,0.950202763,0.274693966
90.670308,6.495582581,0.113830566,-3.755989075,0.089004152,0.955085576,0.273229122
90.670933,7.342445374,0.052795410,-4.114570618,0.091811769,0.962531865,0.272618771
90.671558,7.899391174,-0.321044922,-4.076423645,0.091201417,0.964851201,0.273839474
90.672183,8.769142151,-0.717773438,-4.114570618,0.091201417,0.968757451,0.277135372
90.672809,9.493934631,-0.908508301,-4.274787903,0.087661378,0.970954716,0.281041622
90.673435,10.302650452,-1.206054688,-4.518928528,0.087783448,0.970222294,0.284459591
90.674060,11.317359924,-1.480712891,-4.465522766,0.088882081,0.973518193,0.286778927
90.674686,12.004005432,-1.701965332,-4.755439758,0.093398683,0.980598271,0.292272091
90.675312,12.866127014,-1.778259277,-4.900398254,0.102431886,0.982429326,0.293736935
90.675939,13.598548889,-1.740112305,-5.320014954,0.103164308,0.986457646,0.294469357
90.676564,14.712440491,-1.892700195,-5.335273743,0.093154542,0.988166630,0.301061153
90.677190,15.856849670,-2.297058105,-5.472602844,0.087295167,0.990608037,0.305699825
90.677816,16.802894592,-2.739562988,-5.411567688,0.085952394,0.993537724,0.309606075
90.678441,17.642127991,-2.892150879,-6.014289856,0.093398683,0.999152958,0.311803341
90.679066,18.496620178,-3.044738770,-6.082954407,0.101455323,1.000983953,0.312169552
90.679691,19.404518127,-2.632751465,-6.235542297,0.110000245,0.994514287,0.295567989
90.680316,20.709144592,-2.464904785,-6.136360168,0.123672120,0.994270146,0.300084591
90.680941,22.471534729,-3.349914551,-6.517829895,0.004653565,0.895881474,0.376866817
90.681567,25.736915588,-5.806579590,-6.464424133,0.074111573,0.998176396,0.349156857
90.682193,24.928199768,-5.463256836,-6.716194153,0.138564691,1.027717352,0.321568966
90.694956,27.125465393,-6.813659668,-11.919441223,0.074721925,1.049934149,0.260900021
90.695783,28.185951233,-7.362976074,-12.041511536,0.077773683,1.044685125,0.242345333
90.696409,29.681312561,-7.698669434,-12.438240051,0.086684816,1.050544500,0.231725216
90.697035,31.039344788,-7.622375488,-12.598457336,0.099013917,1.051765203,0.225621700
90.697661,32.603370667,-7.218017578,-12.674751282,0.100722902,1.047370672,0.212316036
90.698287,33.923255920,-7.301940918,-13.384284973,0.084731691,1.043952703,0.217687130
90.698912,35.494911194,-7.332458496,-13.742866516,0.089248292,1.038947821,0.225377560
90.699539,36.852943420,-7.492675781,-13.903083801,0.089370362,1.041755438,0.238805294
90.700166,38.272010803,-7.652893066,-14.063301086,0.097060792,1.045539618,0.252233028
90.700792,39.134132385,-7.439270020,-14.772834778,0.154677972,0.999275029,0.238317013
90.701418,40.820228577,-6.134643555,-14.627876282,0.070693605,0.991584599,0.264440060
90.702043,42.391883850,-7.187500000,-14.185371399,0.102309816,1.041999578,0.289708614
90.702668,43.528663635,-7.744445801,-14.498176575,0.085342042,1.094245672,0.294713497
90.703293,43.772804260,-7.912292480,-14.521064758,0.076308839,1.121101141,0.316319942
90.703919,43.238746643,-8.003845215,-15.055122375,0.089248292,1.125983953,0.333653927
90.704544,42.666542053,-7.866516113,-15.993537903,0.096572511,1.127692938,0.336339474
90.705171,42.109596252,-7.568969727,-16.260566711,0.110122316,1.121955633,0.329259396
90.705796,41.308509827,-7.950439453,-16.420783997,0.119277589,1.095100164,0.335851192
90.706421,41.537391663,-7.889404297,-16.458930969,0.101211183,1.065803289,0.341710567
90.707046,41.613685608,-8.225097656,-16.733589172,0.093520753,1.055427313,0.344029903
90.707671,41.667091370,-8.705749512,-16.870918274,0.097060792,1.051765203,0.341832638
90.708298,42.185890198,-8.865966797,-16.992988586,0.114028566,1.056525946,0.331212521
90.708923,42.628395081,-8.942260742,-17.183723450,0.140884027,1.066291571,0.320226192
90.709549,43.261634827,-8.194580078,-17.229499817,0.156020746,1.048225164,0.293126583
90.710175,42.224037170,-5.577697754,-17.557563782,0.298110604,1.169074774,0.238927364
90.710800,38.943397522,1.723632812,-18.480720520,0.283340096,1.056281805,0.313024044
90.711438,39.637672424,4.111633301,-18.816413879,0.144057855,0.990730107,0.386144161
90.712064,41.667091370,2.456054688,-17.908515930,0.055801027,0.956672490,0.404698849
90.712690,43.467628479,-0.229492188,-17.511787415,0.029922120,0.968025029,0.418859005
90.713318,44.756996155,-2.609863281,-17.832221985,0.017593019,1.017097235,0.417882442
90.714036,44.940101624,-4.570617676,-19.091072083,0.092177980,1.074714422,0.430943966
90.714662,44.703590393,-5.081787109,-19.426765442,0.120254152,1.080085516,0.441564083
90.715289,44.200050354,-5.684509277,-19.091072083,0.124770753,1.080085516,0.446446896
90.715915,43.368446350,-5.913391113,-19.121589661,0.116836183,1.069587469,0.454747677
90.716541,42.124855042,-5.974426270,-19.297065735,0.110366456,1.067146063,0.450475216
90.717168,40.965187073,-5.982055664,-19.655647278,0.117202394,1.067268133,0.438756466
90.719018,41.026222229,-6.287231445,-19.930305481,0.087417237,1.018684149,0.441564083
90.719643,41.316139221,-7.271423340,-19.937934875,0.102431886,1.039680243,0.427281857
90.720269,41.300880432,-7.858886719,-20.601692200,0.113418214,1.043220282,0.419225216
90.720896,40.957557678,-7.858886719,-20.548286438,0.129287347,1.030402899,0.424230099
90.721523,41.499244690,-8.469238281,-20.761909485,0.129653558,1.013313055,0.442906857
90.722149,42.063819885,-9.262695312,-20.594062805,0.113052003,1.021369696,0.453771114
90.722775,42.109596252,-9.949340820,-20.647468567,0.110854737,1.078010321,0.470738888
90.723402,41.163551331,-10.887756348,-20.555915833,0.141372308,1.130866766,0.491490841
90.724029,38.256752014,-10.201110840,-21.250190735,0.225967035,1.186652899,0.453282833
90.724654,34.655677795,-6.806030273,-22.135200500,0.255263925,1.167121649,0.433629513
90.725280,31.710731506,-3.601684570,-22.257270813,0.274795175,1.140266180,0.403478146
90.737982,28.880226135,-10.170593262,-23.615303040,0.096328370,0.964484990,0.249303341
90.738713,30.032264709,-11.788024902,-23.096504211,0.058974855,0.939338505,0.254064083
90.739339,31.901466370,-13.062133789,-24.111213684,0.072036378,0.995734990,0.215611935
90.739964,33.000099182,-12.985839844,-25.179328918,0.102553956,0.944343388,0.191442013
90.740591,35.853492737,-13.382568359,-24.851264954,0.120254152,0.903571904,0.198644161
90.741218,37.715065002,-14.366760254,-24.202766418,0.120864503,0.906013310,0.210484982
90.741844,40.476905823,-14.992370605,-24.088325500,0.091445558,0.902595341,0.224645138
90.742471,42.430030823,-15.068664551,-24.477424622,0.102187745,0.949226201,0.225743771
90.743096,42.559730530,-14.458312988,-24.340095520,0.165786371,0.981208622,0.255773067
90.743721,42.903053284,-14.061584473,-24.164619446,0.122329347,0.980964482,0.297521114
90.744348,42.277442932,-13.855590820,-23.973884583,0.101577394,1.011848211,0.301427364
90.744975,40.812599182,-14.114990234,-23.813667297,0.106216066,1.020759344,0.318395138
90.745601,39.050209045,-14.336242676,-23.905220032,0.101089112,1.025520086,0.334264278
90.746227,37.661659241,-14.412536621,-23.966255188,0.079604737,1.007087469,0.332677364
90.746852,36.959754944,-14.633789062,-24.202766418,0.070327394,0.973396122,0.325719357
90.747483,36.212074280,-15.350952148,-23.996772766,0.096328370,0.967414677,0.305821896
90.748108,35.571205139,-15.228881836,-24.095954895,0.123916261,0.933845341,0.294347286
90.748733,36.311256409,-14.832153320,-23.958625793,0.069472902,0.918098271,0.301427364
90.749359,37.013160706,-15.999450684,-23.745002747,0.041518800,0.901008427,0.303502560
90.749986,37.631141663,-16.525878906,-23.615303040,0.072768800,0.889289677,0.301549435
90.750612,38.630592346,-16.266479492,-23.897590637,0.104262941,0.883796513,0.308385372
90.751239,39.630043030,-15.671386719,-23.294868469,0.105605714,0.876960576,0.333043575
90.751865,40.743934631,-15.328063965,-23.020210266,0.084243409,0.883308232,0.351354122
90.752491,41.087257385,-15.160217285,-22.722663879,0.072890870,0.899543583,0.361608028
90.753117,41.163551331,-15.366210938,-22.684516907,0.071426027,0.908088505,0.385411739
90.753742,40.995704651,-15.221252441,-22.684516907,0.068130128,0.919685185,0.405553341
90.754369,40.415870667,-14.679565430,-22.577705383,0.070571534,0.923469365,0.417638302
90.754994,39.645301819,-14.778747559,-22.211494446,0.071303956,0.921272099,0.433751583
90.755619,38.951026917,-14.328613281,-22.165718079,0.074111573,0.916023076,0.444005489
90.756246,38.447486877,-13.794555664,-21.952095032,0.084609620,0.915290654,0.449132442
90.756872,37.600624084,-13.146057129,-21.936836243,0.077285402,0.914680302,0.454381466
90.757497,36.944496155,-12.940063477,-21.593513489,0.079970948,0.914192021,0.457555294
90.758122,35.975563049,-12.222900391,-21.273078918,0.096450441,0.929206669,0.447911739
90.758747,34.510719299,-11.040344238,-21.181526184,0.103286378,0.939216435,0.437657833
90.759373,32.908546448,-10.155334473,-21.151008606,0.101211183,0.940803349,0.429845333
90.766611,25.874244690,-7.835998535,-19.258918762,0.153701410,0.836921513,0.291051388
90.767236,27.117835999,-7.424011230,-18.961372375,0.098403566,0.848884404,0.286534786
90.769098,28.361427307,-9.567871094,-18.701972961,0.101211183,0.864997685,0.283483028
90.769724,28.452980042,-9.583129883,-18.709602356,0.110122316,0.861823857,0.294103146
90.770350,28.658973694,-9.445800781,-18.457832336,0.122817628,0.859992802,0.301549435
90.770977,28.842079163,-8.995666504,-18.434944153,0.124770753,0.858772099,0.312169552
90.771603,28.597938538,-9.071960449,-18.297615051,0.115371339,0.865730107,0.319005489
90.772229,28.163063049,-9.010925293,-18.000068665,0.105727784,0.880988896,0.321202755
90.772855,27.972328186,-9.239807129,-18.015327454,0.092422120,0.894050419,0.323522091
90.773482,27.583229065,-9.812011719,-17.809333801,0.094985597,0.900642216,0.321568966
90.774108,27.293312073,-10.231628418,-17.900886536,0.100967042,0.885627568,0.323644161
90.774733,27.354347229,-10.269775391,-17.572822571,0.116958253,0.878791630,0.322667599
90.775359,27.522193909,-10.162963867,-17.351570129,0.115493409,0.875373662,0.321935177
90.788107,35.754310608,-6.645812988,-16.451301575,0.077041261,0.955085576,0.398717403
90.788895,36.631690979,-6.256713867,-16.649665833,0.079970948,0.963020146,0.396031857
90.789522,36.898719788,-5.875244141,-16.558113098,0.071548097,0.966560185,0.388707638
90.790149,37.524330139,-5.539550781,-16.718330383,0.071059816,0.959602177,0.386998653
90.790774,38.195716858,-5.371704102,-16.947212219,0.071181886,0.958015263,0.375768185
90.791399,39.324867249,-5.150451660,-16.878547668,0.071059816,0.957649052,0.366490841
90.792024,40.179359436,-4.921569824,-16.916694641,0.070449464,0.965827763,0.354283810
90.792649,40.934669495,-4.944458008,-16.909065247,0.069106691,0.969489872,0.351842403
90.793276,42.170631409,-4.486694336,-16.748847961,0.057876222,0.964851201,0.348790646
90.793903,42.735206604,-4.303588867,-17.031135559,0.063979737,0.974372685,0.344396114
90.794529,43.688880920,-4.372253418,-17.260017395,0.062881105,0.973151982,0.344396114
90.795155,44.787513733,-4.402770996,-16.832771301,0.059463136,0.977302372,0.338414669
90.795780,45.992958069,-4.311218262,-17.282905579,0.066909425,0.981208622,0.335484982
90.796406,46.588050842,-4.006042480,-17.076911926,0.064712159,0.992072880,0.330235958
90.797031,47.778236389,-4.166259766,-17.076911926,0.056167237,0.992072880,0.330235958
90.797657,48.777687073,-3.998413086,-17.389717102,0.065322511,0.995612919,0.321691036
90.798284,49.586402893,-3.990783691,-17.397346497,0.064590089,1.003913641,0.317784786
90.798910,50.562965393,-4.135742188,-17.137947083,0.064223878,1.010749578,0.317174435
90.799587,51.158058167,-3.952636719,-17.473640442,0.064101808,1.015510321,0.314366817
90.800223,52.218544006,-4.135742188,-17.603340149,0.069106691,1.023322821,0.312291622
90.800848,52.538978577,-4.021301270,-17.633857727,0.073989503,1.031745672,0.308995724
90.801481,53.469764709,-4.089965820,-17.656745911,0.068130128,1.031501532,0.309850216
90.802108,54.232704163,-4.280700684,-17.801704407,0.071059816,1.034553289,0.307042599
90.802733,54.988014221,-4.608764648,-17.809333801,0.075088136,1.039191961,0.304112911
90.803359,55.659400940,-4.288330078,-17.809333801,0.075576417,1.049567938,0.298741817
90.803985,55.918800354,-4.562988281,-18.068733215,0.078506105,1.054572821,0.302159786
90.804611,56.384193420,-4.234924316,-18.015327454,0.081557862,1.060920477,0.302525997
90.805238,56.780921936,-4.204406738,-18.221321106,0.080825441,1.067756414,0.304723263
90.805863,56.948768616,-4.295959473,-18.213691711,0.080215089,1.070441961,0.299962521
90.806489,57.391273499,-4.242553711,-18.152656555,0.084609620,1.073859930,0.303502560
90.807114,57.414161682,-4.326477051,-18.228950500,0.081069581,1.074592352,0.297399044
90.807741,57.963478088,-4.349365234,-18.366279602,0.086318605,1.072273016,0.293248653
90.808366,58.108436584,-4.280700684,-18.183174133,0.082656495,1.074714422,0.291417599
90.808993,58.520423889,-4.402770996,-18.526496887,0.084365480,1.070441961,0.286778927
90.809619,58.741676331,-4.006042480,-18.442573547,0.080337159,1.065803289,0.286168575
90.810245,59.374916077,-4.418029785,-18.618049622,0.082046144,1.063117743,0.286046505
90.810872,59.916603088,-4.173889160,-18.732490540,0.082778566,1.058967352,0.287755489
90.811497,60.153114319,-4.379882812,-18.579902649,0.084121339,1.051398993,0.286656857
90.812128,60.999977112,-4.555358887,-18.625679016,0.081069581,1.049934149,0.289220333
90.812755,61.480628967,-4.128112793,-18.686714172,0.084731691,1.051032782,0.288609982
90.813380,62.022315979,-4.074707031,-18.740119934,0.082290284,1.053352118,0.292150021
90.814012,62.480079651,-3.998413086,-18.877449036,0.078506105,1.048591375,0.299596310
90.814639,63.075172424,-3.990783691,-18.564643860,0.078261964,1.048469305,0.304234982
90.815265,62.876808167,-3.937377930,-18.869819641,0.080337159,1.054206610,0.304357052
90.815924,63.166725159,-3.876342773,-18.587532043,0.079604737,1.053718328,0.308995724
90.816549,63.212501526,-3.670349121,-18.648567200,0.081435792,1.053230047,0.312535763
90.817175,62.960731506,-3.494873047,-18.854560852,0.080825441,1.050544500,0.315953732
90.831184,44.383155823,0.052795410,-16.786994934,0.120498292,1.022346258,0.289830685
90.831972,43.788063049,0.602111816,-16.603889465,0.122207277,1.017951727,0.308141232
90.832598,43.269264221,0.892028809,-16.375007629,0.121108644,1.024543524,0.310704708
90.833223,42.620765686,1.197204590,-16.176643372,0.123550050,1.028449774,0.313390255
90.833850,41.445838928,1.548156738,-16.069831848,0.117690675,1.027839422,0.313756466
90.834476,40.774452209,1.815185547,-16.107978821,0.123305909,1.032844305,0.316808224
90.835101,39.492713928,2.127990723,-15.779914856,0.115493409,1.039436102,0.309239864
90.835727,38.394081116,2.456054688,-15.413703918,0.103896730,1.038703680,0.307775021
90.836356,36.898719788,2.318725586,-15.406074524,0.097793214,1.037605047,0.305211544
90.836981,35.830604553,2.593383789,-15.375556946,0.097549073,1.034187078,0.299230099
90.837607,34.663307190,2.799377441,-15.154304504,0.093764894,1.022468328,0.291661739
90.838232,33.473121643,2.791748047,-14.910163879,0.087295167,1.017097235,0.283483028
90.838857,32.969581604,2.753601074,-14.727058411,0.088637941,1.006355047,0.282140255
90.839484,32.221900940,3.081665039,-14.437141418,0.083388917,0.996223271,0.279698849
90.840110,31.733619690,3.119812012,-14.170112610,0.075698487,0.989387333,0.278234005
90.840735,31.352149963,3.173217773,-14.269294739,0.072402589,0.987434208,0.273961544
90.841361,31.321632385,3.394470215,-14.086189270,0.065322511,0.989265263,0.271520138
90.841986,31.222450256,3.142700195,-13.956489563,0.060927980,0.985236943,0.276280880
90.842612,31.046974182,3.295288086,-13.819160461,0.061904542,0.982551396,0.284093380
90.843237,31.199562073,3.440246582,-13.483467102,0.061782472,0.983283818,0.284337521
90.843863,31.001197815,3.630981445,-13.201179504,0.058974855,0.987312138,0.289708614
90.844490,30.604469299,3.600463867,-12.918891907,0.062026612,0.997321904,0.294225216
90.845117,29.986488342,3.943786621,-12.758674622,0.060805909,1.005622625,0.301793575
90.845743,29.200660706,4.088745117,-12.651863098,0.058120362,1.011482000,0.308629513
90.846368,28.071510315,4.134521484,-12.361946106,0.065078370,1.022712469,0.316319942
90.846995,26.972877502,4.523620605,-12.079658508,0.066421144,1.024177313,0.324864864
90.847621,25.462257385,4.935607910,-11.812629700,0.075210206,1.044563055,0.328649044
90.848246,23.638832092,5.339965820,-11.858406067,0.078506105,1.061286688,0.336095333
90.848873,21.227943420,5.988464355,-11.805000305,0.072890870,1.068244696,0.339025021
90.849499,18.878089905,6.362304688,-11.652412415,0.061172120,1.062995672,0.332921505
90.850128,16.963111877,6.408081055,-11.599006653,0.062636964,1.056281805,0.325719357
90.850754,15.139686584,6.675109863,-11.454048157,0.063613527,1.032233953,0.315953732
90.851379,14.300453186,6.980285645,-11.385383606,0.069594972,1.015876532,0.297521114
90.852012,13.735877991,6.850585938,-11.316719055,0.067031495,0.994758427,0.282018185
90.852638,13.537513733,7.056579590,-11.057319641,0.057021730,0.970100224,0.272374630
90.853263,14.186012268,6.957397461,-10.866584778,0.057021730,0.947761357,0.265416622
90.853889,15.299903870,6.865844727,-10.897102356,0.063125245,0.933601201,0.258458614
90.854514,16.512977600,6.858215332,-10.782661438,0.059341066,0.928474247,0.259801388
90.855139,18.214332581,6.766662598,-10.446968079,0.055312745,0.918220341,0.264317989
90.855765,19.801246643,6.766662598,-10.134162903,0.059829347,0.929084599,0.275792599
90.856391,20.670997620,6.774291992,-10.134162903,0.054702394,0.946296513,0.289708614
90.857016,21.433937073,6.766662598,-9.722175598,0.055312745,0.959724247,0.299718380
90.857641,22.051918030,6.705627441,-9.630622864,0.054458253,0.962165654,0.317906857
90.858266,22.593605042,6.965026855,-9.668769836,0.054458253,0.960578740,0.342687130
90.858891,22.936927795,7.003173828,-9.256782532,0.057143800,0.958625615,0.358556271
90.859517,22.860633850,7.224426270,-9.142341614,0.066177003,0.973029912,0.367833614
90.860144,22.334205627,7.842407227,-8.821907043,0.068008058,0.987800419,0.368688107
90.860769,22.013771057,8.300170898,-8.722724915,0.060561769,0.992194951,0.377599239
90.861395,21.395790100,8.544311523,-8.356513977,0.049575441,0.994880497,0.377843380
90.874138,141.619781494,19.294128418,-2.558174133,-0.081772216,1.001960516,2.472692013
90.874964,132.701019287,19.362792969,-0.513496399,0.984023690,1.243049383,2.204381466
90.875590,118.403541565,41.610107422,-0.673713684,0.900405526,1.207893133,2.130773067
90.876216,104.525672913,60.424194336,0.012931824,1.302749276,1.479255438,1.642735958
90.876842,65.577613831,106.109008789,-1.512947083,2.253798962,2.644904852,0.482457638
90.877468,29.078590393,145.255432129,1.973686218,0.193862543,1.642219305,1.345860958
90.878095,30.268775940,91.178283691,12.525138855,-3.115585804,-0.023796264,2.234166622
90.878720,45.481788635,8.750305176,8.924064636,-1.002304435,1.257697821,0.995885372
90.879347,-25.380027771,76.850280762,-9.676399231,4.013808727,4.057258606,-2.071985722
90.881199,-100.926292419,50.910339355,9.694633484,-0.493149161,1.539191961,-1.192102909
90.881825,-110.836875916,58.722839355,-5.747261047,0.208144769,1.837409735,-2.028406620
90.882450,-114.811790466,59.745178223,-8.501472473,-0.217636481,0.740119755,-2.181238651
90.883075,-102.192771912,44.455871582,-4.145088196,-0.144150153,0.071662724,-2.145594120
90.883702,-80.403221130,35.086975098,-2.298774719,0.052749269,0.422248662,-2.368616581
90.884328,-61.978233337,34.156188965,-1.223030090,-0.021347411,0.243415654,-2.434046268
90.884953,-38.769615173,27.999267578,-1.146736145,-0.318954825,0.078986943,-2.233484745
90.885578,-16.842735291,17.302856445,-0.177803040,-0.246689215,0.309089482,-2.097376347
90.886204,2.886878967,9.719238281,1.210746765,-0.269760489,0.334113896,-1.825525761
90.886831,22.555458069,3.302917480,0.516471863,-0.293564200,0.478401005,-1.539270878
90.887456,36.128150940,-4.532470703,0.363883972,-0.253769279,0.648811162,-1.171473026
90.888083,46.511756897,-9.895935059,1.088676453,-0.077865966,0.813606083,-0.726892948
90.888708,50.974952698,-9.392395020,1.729545593,0.082168214,1.125495672,-0.436121464
90.889333,47.404396057,-7.820739746,2.767143250,-0.003036865,1.241218328,-0.131800175
90.889960,41.575538635,-8.225097656,3.781852722,-0.127182379,1.254157782,0.130895138
90.890587,35.815345764,-9.087219238,3.560600281,-0.082260497,1.236701727,0.265782833
90.891213,31.962501526,-8.247985840,2.767143250,0.000014893,1.182136297,0.332677364
90.891838,29.093849182,-6.516113281,3.194389343,0.028457277,1.197761297,0.311681271
90.892463,25.996315002,-6.043090820,3.842887878,0.011855713,1.236579657,0.306676388
90.893090,23.272621155,-4.570617676,3.659782410,-0.045273192,1.183845282,0.447911739
90.893717,20.884620667,-3.639831543,3.629264832,0.006484619,1.229865789,0.499913692
90.894342,17.932044983,-2.274169922,3.537712097,0.042495362,1.172126532,0.512731075
90.894969,17.161476135,-0.069274902,4.170951843,0.054702394,1.136482000,0.489049435
90.895595,17.802345276,1.738891602,4.170951843,0.021865480,1.100715399,0.466832638
90.896220,19.595252991,3.318176270,4.231987000,0.032363527,1.103767157,0.433141232
90.896847,21.762001038,4.615173340,4.354057312,0.037002198,1.115852118,0.383336544
90.897473,24.104225159,5.950317383,4.277763367,-0.002304443,1.067756414,0.389928341
90.898098,26.949989319,7.300720215,4.270133972,0.013564697,1.043098211,0.403600216
90.898723,30.123817444,8.765563965,3.995475769,0.043716066,1.044196844,0.405065060
90.899350,32.450782776,11.031494141,4.033622742,0.037856691,1.071662664,0.395665646
90.899977,33.747779846,12.488708496,4.056510925,0.008437744,1.093635321,0.394689083
90.900602,35.037147522,13.167724609,3.926811218,0.001968018,1.105964422,0.403478146
90.901227,35.090553284,14.289245605,3.118095398,0.030532472,1.130378485,0.393712521
90.901852,34.609901428,15.632019043,3.209648132,0.044326417,1.121101141,0.387609005
90.902479,33.648597717,16.616210938,3.034172058,0.055434816,1.100593328,0.405431271
90.903152,33.343421936,18.042907715,2.812919617,0.066787355,1.103034735,0.399571896
90.903778,31.802284241,19.065246582,2.950248718,0.059096925,1.124397039,0.369542599
90.904405,29.566871643,19.774780273,2.584037781,0.040420167,1.126594305,0.340245724
90.905031,27.278053284,19.973144531,2.355155945,0.028579347,1.124152899,0.313512325
90.917722,35.746681213,-9.506835938,-0.925483704,0.160293207,1.096687078,0.025670528
90.918629,31.306373596,-11.368408203,-1.734199524,0.159072503,1.222053289,0.160802364
90.919255,27.705299377,-11.635437012,-2.291145325,0.172256097,1.236213446,0.223668575
90.919881,24.035560608,-11.772766113,-2.741279602,0.185073480,1.230720282,0.264928341
90.920507,21.060096741,-11.688842773,-3.122749329,0.185439691,1.224128485,0.289342403
90.921132,17.939674377,-11.009826660,-3.626289368,0.169814691,1.214607000,0.298985958
90.921757,15.933143616,-10.933532715,-4.084053040,0.145034418,1.212531805,0.294957638
90.922382,14.140235901,-10.788574219,-4.625740051,0.125625238,1.207404852,0.287755489
90.923013,12.774574280,-11.322631836,-5.136909485,0.119521730,1.195197821,0.285314083
90.923638,12.164222717,-10.796203613,-5.716743469,0.125136957,1.176276922,0.293981075
90.924265,12.415992737,-10.445251465,-6.288948059,0.124038331,1.169196844,0.307530880
90.924890,12.713539124,-9.689941406,-6.472053528,0.113174073,1.180793524,0.324742794
90.925516,12.621986389,-9.354248047,-7.051887512,0.102798097,1.196662664,0.346837521
90.926142,12.492286682,-8.598937988,-7.555427551,0.098891847,1.221565008,0.369908810
90.926769,11.721717834,-7.729187012,-8.188667297,0.089370362,1.250983953,0.389928341
90.927394,10.752784729,-6.905212402,-8.539619446,0.078872316,1.266608953,0.411534786
90.928019,9.081947327,-5.882873535,-9.043159485,0.071792237,1.279792547,0.420812130
90.928644,7.342445374,-5.142822266,-9.722175598,0.061416261,1.282111883,0.432042599
90.929270,5.435096741,-4.273071289,-10.065498352,0.051650636,1.288581610,0.435948849
90.929896,3.039466858,-2.625122070,-11.209907532,0.010757080,1.374397039,0.485143185
90.931756,-5.162132263,-0.511779785,-11.515083313,0.058242433,1.229499578,0.416417599
90.932382,-6.092918396,1.571044922,-12.049140930,0.025527589,1.199714422,0.384557247
90.933013,-6.108177185,2.585754395,-12.636604309,0.001357666,1.197761297,0.358556271
90.933638,-6.192100525,3.112182617,-12.758674622,-0.007919678,1.200690985,0.341954708
90.934264,-6.176841736,3.074035645,-12.667121887,-0.005966553,1.182258368,0.321446896
90.934889,-5.558860779,3.951416016,-13.040962219,-0.031235106,1.179084539,0.285680294
90.935514,-4.216087341,4.660949707,-14.574470520,-0.053451903,1.178474188,0.266393185
90.936139,-2.972496033,4.645690918,-15.009346008,-0.023056395,1.159187078,0.248815060
90.936764,-1.881492615,4.523620605,-14.917793274,0.009414307,1.136848211,0.236974239
90.937390,-0.775230408,5.027160645,-14.086189270,0.023696534,1.131721258,0.237340450
90.938016,0.567543030,5.690917969,-14.276924133,0.000991455,1.155647039,0.250401974
90.938641,1.460182190,6.133422852,-14.376106262,-0.001205810,1.164558172,0.245763302
90.939267,2.467262268,6.171569824,-15.169563293,0.008437744,1.148566961,0.234288692
90.939894,3.382789612,6.820068359,-15.055122375,0.021865480,1.140632391,0.232579708
90.940520,4.321205139,7.026062012,-15.291633606,0.026626222,1.126838446,0.230260372
90.941145,5.313026428,7.003173828,-15.070381165,0.040542237,1.131232977,0.219029903
90.941772,6.411659241,7.064208984,-15.253486633,0.039321534,1.124274969,0.223668575
90.942398,7.327186584,7.308349609,-15.314521790,0.044448487,1.122077703,0.216832638
90.943024,8.456336975,6.949768066,-15.711250305,0.047256105,1.115241766,0.208165646
90.943649,9.707557678,6.720886230,-15.543403625,0.050429933,1.107551336,0.193761349
90.944274,11.126625061,6.270751953,-15.711250305,0.060683839,1.091315985,0.187047482
90.944900,12.995826721,5.759582520,-15.757026672,0.069594972,1.076301336,0.173741817
90.945527,15.124427795,5.278930664,-15.787544250,0.085342042,1.072517157,0.169347286
90.946154,17.260658264,5.019531250,-15.955390930,0.087173097,1.079108953,0.175939083
90.946779,19.312965393,4.668579102,-16.077461243,0.090957277,1.087898016,0.188024044
90.947405,20.762550354,4.378662109,-16.237678528,0.103164308,1.099616766,0.205235958
90.948030,22.173988342,3.898010254,-16.199531555,0.112685792,1.106940985,0.219029903
90.948656,23.509132385,3.638610840,-16.489448547,0.116347902,1.102790594,0.228917599
90.961408,31.329261780,-1.305236816,-17.343940735,0.106704347,0.991218388,0.298619747
90.962174,30.947792053,-1.396789551,-17.206611633,0.099380128,0.987800419,0.295079708
90.962799,30.535804749,-1.404418945,-17.023506165,0.095962159,0.983772099,0.287389278
90.963426,29.872047424,-1.587524414,-16.901435852,0.093886964,0.979377568,0.285314083
90.964051,29.200660706,-1.824035645,-16.703071594,0.089492433,0.973884404,0.277135372
90.964678,28.712379456,-2.037658691,-16.611518860,0.083755128,0.968513310,0.268102169
90.965303,28.117286682,-2.136840820,-16.359748840,0.077041261,0.961067021,0.254918575
90.965930,27.690040588,-2.457275391,-16.069831848,0.070571534,0.954475224,0.247472286
90.966557,27.102577209,-2.426757812,-16.115608215,0.068252198,0.948371708,0.234166622
90.967182,26.492225647,-2.953186035,-15.772285461,0.063003175,0.946784794,0.224889278
90.967809,25.996315002,-3.151550293,-15.573921204,0.055556886,0.942024052,0.216100216
90.968435,25.294410706,-3.296508789,-15.131416321,0.055556886,0.942634404,0.209386349
90.969060,25.019752502,-3.540649414,-14.841499329,0.051650636,0.943488896,0.201573849
90.969685,24.165260315,-3.716125488,-14.643135071,0.048232667,0.947273076,0.197911739
90.970312,23.402320862,-3.677978516,-14.475288391,0.046157472,0.946784794,0.192174435
90.970938,22.471534729,-4.051818848,-14.055671692,0.045791261,0.947883427,0.192174435
90.971564,21.693336487,-4.486694336,-13.666572571,0.041885011,0.948859990,0.185460567
90.972189,20.800697327,-4.349365234,-13.391914368,0.040176027,0.945564091,0.184850216
90.972815,19.999610901,-4.509582520,-13.231697083,0.039809816,0.947395146,0.178990841
90.973440,19.106971741,-4.707946777,-12.903633118,0.039809816,0.946906865,0.176183224
90.974067,18.145668030,-4.860534668,-12.743415833,0.038100831,0.948127568,0.171910763
90.974692,17.741310120,-5.135192871,-12.453498840,0.039199464,0.945319951,0.166661739
90.975317,17.054664612,-5.203857422,-12.125434875,0.043227784,0.944099247,0.164586544
90.975943,16.299354553,-5.386962891,-12.140693665,0.042983644,0.943488896,0.157140255
90.976569,15.765296936,-5.547180176,-11.576118469,0.043105714,0.940437138,0.152135372
90.977195,15.406715393,-5.852355957,-11.187019348,0.047256105,0.934943974,0.147130489
90.977820,15.017616272,-6.111755371,-11.133613586,0.052871339,0.934699833,0.146275997
90.978445,14.834510803,-6.424560547,-10.874214172,0.055434816,0.936164677,0.144811153
90.979070,14.063941956,-6.615295410,-10.500373840,0.058242433,0.935432255,0.145787716
90.979696,13.972389221,-6.775512695,-10.363044739,0.062881105,0.934943974,0.143224239
90.980323,13.499366760,-7.027282715,-9.943428040,0.066909425,0.932136357,0.141515255
90.982155,12.736427307,-7.660522461,-9.180488586,0.075088136,0.926399052,0.135411739
90.982780,12.560951233,-8.125915527,-8.989753723,0.076797120,0.929084599,0.134679317
90.983407,12.126075745,-8.522644043,-8.890571594,0.075210206,0.929084599,0.133336544
90.984032,11.942970276,-8.568420410,-8.211555481,0.078506105,0.928474247,0.132482052
90.984659,11.462318420,-8.988037109,-8.142890930,0.080703370,0.920417607,0.129186153
90.985286,11.439430237,-9.476318359,-7.845344543,0.080947511,0.918708622,0.127721310
90.985911,11.416542053,-9.857788086,-7.738533020,0.080215089,0.916145146,0.119664669
90.986537,11.408912659,-10.285034180,-7.471504211,0.077041261,0.917243779,0.117711544
90.987164,11.241065979,-10.582580566,-7.204475403,0.074966066,0.917487919,0.117833614
90.987790,11.302101135,-11.192932129,-6.845893860,0.070571534,0.924812138,0.112218380
90.988417,11.302101135,-11.589660645,-6.586494446,0.071670167,0.929206669,0.113805294
90.989043,10.859596252,-12.047424316,-6.563606262,0.074111573,0.932014287,0.111363888
90.989668,10.928260803,-12.650146484,-6.403388977,0.067763917,0.934943974,0.106481075
90.990295,10.737525940,-13.153686523,-6.349983215,0.066299073,0.935554326,0.106236935
90.990922,10.707008362,-13.435974121,-5.846443176,0.065688722,0.938484013,0.106236935
90.991549,10.684120178,-14.122619629,-5.854072571,0.059585206,0.940315068,0.104283810
90.992175,10.989295959,-14.511718750,-5.602302551,0.060805909,0.949592412,0.104650021
91.004836,5.328285217,-18.074645996,-4.625740051,0.041762941,0.992683232,0.230504513
91.005572,5.435096741,-17.876281738,-4.518928528,0.046279542,0.990485966,0.228185177
91.006198,5.396949768,-17.807617188,-4.503669739,0.044204347,0.984260380,0.223424435
91.006823,5.259620667,-17.830505371,-4.549446106,0.041152589,0.984016240,0.224889278
91.007448,5.274879456,-17.532958984,-4.435005188,0.038222902,0.987067997,0.222692013
91.008075,5.457984924,-17.540588379,-4.236640930,0.035781495,0.983650029,0.220738888
91.008700,5.938636780,-17.563476562,-4.328193665,0.035293214,0.983283818,0.220006466
91.009325,5.931007385,-17.433776855,-4.061164856,0.036391847,0.985359013,0.217076778
91.016595,7.823097229,-15.755310059,-3.313484192,0.025771730,1.015998602,0.206944942
91.017229,7.845985413,-15.465393066,-3.260078430,0.023452394,1.015876532,0.205602169
91.017854,7.830726624,-15.190734863,-3.168525696,0.023208253,1.014167547,0.207799435
91.018479,8.181678772,-15.305175781,-3.122749329,0.026504152,1.018684149,0.206578732
91.019105,8.204566956,-14.816894531,-3.153266907,0.027724855,1.020393133,0.207311153
91.019731,8.380043030,-14.763488770,-2.993049622,0.021133058,1.021247625,0.206456661
91.020407,8.425819397,-14.397277832,-2.764167786,0.022475831,1.021247625,0.207555294
91.021034,8.410560608,-14.366760254,-2.664985657,0.021865480,1.026252508,0.211583614
91.021661,8.601295471,-14.130249023,-2.558174133,0.022719972,1.024543524,0.206944942
91.022309,8.654701233,-13.947143555,-2.474250793,0.028213136,1.022712469,0.211339474
91.022934,9.028541565,-13.809814453,-2.489509583,0.029433839,1.024665594,0.208287716
91.023559,8.982765198,-13.451232910,-2.420845032,0.030776612,1.029060125,0.206578732
91.024184,9.066688538,-13.512268066,-2.123298645,0.032729737,1.026496649,0.207433224
91.024810,9.127723694,-13.146057129,-1.947822571,0.030044191,1.029670477,0.206578732
91.025436,9.432899475,-12.909545898,-1.825752258,0.032973878,1.027107000,0.207799435
91.026063,9.486305237,-12.680664062,-2.085151672,0.032485597,1.025031805,0.207311153
91.026705,9.448158264,-12.520446777,-1.764717102,0.032485597,1.025031805,0.203526974
91.027335,9.799110413,-12.428894043,-1.497688293,0.034682862,1.027473211,0.204015255
91.027961,10.165321350,-11.849060059,-1.535835266,0.032729737,1.027717352,0.205113888
91.028588,10.150062561,-11.932983398,-1.230659485,0.036147706,1.032722235,0.203160763
91.029214,10.508644104,-11.940612793,-1.100959778,0.032363527,1.028083563,0.204381466
91.029840,10.501014709,-11.421813965,-1.223030090,0.036513917,1.028571844,0.211095333
91.030466,10.920631409,-11.284484863,-0.978889465,0.040908448,1.031013250,0.209508419
91.032348,11.286842346,-10.544433594,-0.727119446,0.035171144,1.032478094,0.214879513
91.032974,11.187660217,-10.353698730,-0.505867004,0.035293214,1.035529852,0.214879513
91.033600,11.530982971,-10.018005371,-0.528755188,0.034194581,1.031501532,0.221105099
91.034226,11.317359924,-9.773864746,-0.376167297,0.036025636,1.030647039,0.221959591
91.034853,11.477577209,-9.659423828,-0.292243958,0.033095948,1.035529852,0.223302364
91.035478,11.515724182,-9.560241699,-0.139656067,0.034072511,1.036872625,0.227941036
91.036105,11.340248108,-9.232177734,0.127372742,0.033828370,1.040168524,0.234532833
91.036732,11.492835999,-8.820190430,-0.025215149,0.033462159,1.038337469,0.234654903
91.037358,11.172401428,-8.667602539,0.096855164,0.032119386,1.039069891,0.241490841
91.037984,11.241065979,-8.339538574,0.333366394,0.033828370,1.035285711,0.244908810
91.038611,11.309730530,-7.996215820,0.508842468,0.033095948,1.037116766,0.249791622
91.039238,11.042701721,-7.698669434,0.135002136,0.032363527,1.033210516,0.252599239
91.039863,11.012184143,-7.492675781,0.470695496,0.028701417,1.035896063,0.254674435
91.040489,10.783302307,-7.309570312,0.463066101,0.028945558,1.033576727,0.258702755
91.041115,10.996925354,-6.813659668,0.699577332,0.032729737,1.035041571,0.261632442
91.041740,10.958778381,-6.340637207,0.829277039,0.027358644,1.036140203,0.262975216
91.042365,10.806190491,-6.310119629,0.867424011,0.027846925,1.033454657,0.264562130
91.055166,8.334266663,1.624450684,1.660881042,0.044448487,1.068855047,0.279332638
91.055977,8.372413635,2.150878906,1.721916199,0.045425050,1.072395086,0.279332638
91.056603,8.181678772,2.524719238,1.699028015,0.048476808,1.076545477,0.278478146
91.057228,8.357154846,2.791748047,1.805839539,0.049941652,1.076423407,0.275060177
91.057854,8.395301819,3.135070801,1.897392273,0.049575441,1.084357977,0.273961544
91.058479,8.372413635,3.386840820,1.569328308,0.050552003,1.086799383,0.271520138
91.059104,8.212196350,3.844604492,1.561698914,0.050918214,1.090217352,0.271275997
91.059731,8.021461487,4.058227539,1.569328308,0.053481691,1.090827703,0.266515255
91.060356,8.021461487,4.187927246,1.378593445,0.054092042,1.093269110,0.264928341
91.060982,7.945167542,4.454956055,1.584587097,0.056533448,1.094856024,0.259313107
91.061607,7.891761780,4.813537598,1.500663757,0.054214112,1.099250555,0.259191036
91.062234,7.868873596,5.141601562,1.210746765,0.057876222,1.102302313,0.256993771
91.062866,7.830726624,5.301818848,1.340446472,0.059218995,1.102058172,0.254064083
91.063491,7.731544495,5.515441895,1.149711609,0.066299073,1.104011297,0.255528927
91.064117,7.678138733,5.599365234,1.180229187,0.065078370,1.101447821,0.256261349
91.064744,7.830726624,5.889282227,0.989494324,0.069594972,1.102668524,0.255406857
91.065369,7.914649963,5.912170410,0.730094910,0.074355714,1.106696844,0.255284786
91.065994,7.838356018,6.255493164,0.806388855,0.074966066,1.104255438,0.256505489
91.066621,8.113014221,6.240234375,0.897941589,0.070937745,1.100593328,0.254674435
91.067248,8.410560608,6.484375000,0.669059753,0.074111573,1.093757391,0.251500607
91.067873,8.677589417,6.774291992,0.539360046,0.077529542,1.093024969,0.246495724
91.068500,9.150611877,6.972656250,0.524101257,0.077773683,1.082893133,0.245275021
91.069127,9.638893127,6.995544434,0.699577332,0.082900636,1.083259344,0.241246700
91.069754,10.165321350,7.056579590,0.417289734,0.079970948,1.080085516,0.240636349
91.070379,10.783302307,7.232055664,0.142631531,0.084487550,1.075202703,0.240025997
91.071013,11.324989319,7.438049316,0.295219421,0.083388917,1.075568914,0.237706661
91.071639,12.042152405,7.674560547,0.096855164,0.083388917,1.075813055,0.236852169
91.072265,12.759315491,7.666931152,0.241813660,0.083022706,1.077766180,0.235509396
91.072890,13.224708557,7.659301758,0.096855164,0.081435792,1.071052313,0.230992794
91.073517,13.957130432,7.583007812,0.089225769,0.078139894,1.071540594,0.229161739
91.074143,14.330970764,7.705078125,-0.109138489,0.075576417,1.072639227,0.233922482
91.074769,14.704811096,7.987365723,-0.147285461,0.073623292,1.070686102,0.230138302
91.075395,15.063392639,7.888183594,-0.132026672,0.071914308,1.067634344,0.231236935
91.076020,15.582191467,7.926330566,-0.254096985,0.072890870,1.067390203,0.230748653
91.076646,16.245948792,7.750854492,-0.452461243,0.068862550,1.058479071,0.235265255
91.077272,16.718971252,7.979736328,-0.185432434,0.065932862,1.057502508,0.235753536
91.077899,16.848670959,7.994995117,-0.353279114,0.066665284,1.055183172,0.235875607
91.078524,17.764198303,8.017883301,-0.162544250,0.063369386,1.054328680,0.241979122
91.079150,18.260108948,8.056030273,-0.605049133,0.060927980,1.051521063,0.240025997
91.079777,18.405067444,8.239135742,-0.559272766,0.058364503,1.048957586,0.242467403
91.080403,18.946754456,8.262023926,-0.574531555,0.059096925,1.046027899,0.246129513
91.081030,19.343482971,8.460388184,-0.536384583,0.054336183,1.042609930,0.243321896
91.082865,21.144020081,8.696899414,-0.688972473,0.049941652,1.027961493,0.240880489
91.083490,21.975624084,8.742675781,-0.696601868,0.045425050,1.014655828,0.229527950
91.084116,23.661720276,8.727416992,-1.161994934,-0.009384521,0.964729130,0.191197872
91.084742,26.652442932,7.842407227,-1.718940735,0.084121339,1.007087469,0.143468380
91.085367,28.201210022,8.025512695,-1.017036438,0.061904542,0.970344365,0.211461544
91.085993,29.025184631,8.551940918,-0.681343079,0.078261964,1.035529852,0.245641232
91.086618,28.788673401,8.666381836,-0.727119446,0.057876222,1.068855047,0.274327755
91.100656,25.950538635,10.596618652,-0.132026672,0.031875245,1.002937078,0.067662716
91.101407,27.163612366,10.253295898,-0.078620911,0.026992433,1.010505438,0.063634396
91.102032,28.376686096,9.971008301,-0.040473938,0.016982667,1.017829657,0.067906857
91.102659,29.185401917,9.665832520,-0.048103333,0.018569581,1.033942938,0.071691036
91.103285,29.864418030,9.528503418,-0.109138489,0.015273682,1.041511297,0.075353146
91.103910,30.459510803,8.941040039,-0.055732727,0.010390869,1.042487860,0.080235958
91.104536,31.024085999,8.742675781,-0.238838196,0.013564697,1.044807196,0.086095333
91.105161,31.626808167,8.590087891,-0.246467590,0.015395752,1.045783758,0.086949825
91.105786,32.115089417,8.254394531,-0.383796692,0.017470948,1.051398993,0.091832638
91.106413,32.679664612,8.231506348,-0.246467590,0.016738527,1.058723211,0.098546505
91.107039,32.717811584,7.857666016,-0.498237610,0.018203370,1.069709539,0.103673458
91.107666,33.190834045,7.857666016,-0.482978821,0.019179933,1.074470282,0.103307247
91.108291,33.038246155,7.735595703,-0.666084290,0.015151612,1.069831610,0.106359005
91.108917,33.511268616,7.605895996,-0.566902161,0.016982667,1.066291571,0.105626583
91.109543,33.770668030,7.430419922,-0.841560364,0.021987550,1.061286688,0.105992794
91.110169,34.411537170,7.232055664,-0.894966125,0.022353761,1.069099188,0.100987911
91.110795,34.983741760,7.293090820,-1.093330383,0.020522706,1.069099188,0.099278927
91.111422,35.372840881,7.132873535,-1.139106750,0.021621339,1.073493719,0.104039669
91.112047,36.112892151,6.835327148,-1.444282532,0.025527589,1.073737860,0.107091427
91.112674,36.753761292,7.018432617,-1.406135559,0.030654542,1.070564032,0.108190060
91.113300,37.371742249,6.697998047,-1.474800110,0.027846925,1.065192938,0.113561153
91.113926,38.119422913,6.591186523,-1.543464661,0.030044191,1.064216375,0.111241817
91.114551,38.760292053,6.553039551,-1.718940735,0.027846925,1.069587469,0.110997677
91.115177,39.507972717,6.560668945,-1.772346497,0.028091066,1.062385321,0.116246700
91.115803,40.278541565,6.400451660,-2.085151672,0.032241456,1.059089422,0.122472286
91.116430,41.049110413,6.324157715,-1.902046204,0.030410402,1.054572821,0.120885372
91.117056,42.140113831,6.308898926,-2.108039856,0.021865480,1.060676336,0.121373653
91.117681,42.811500549,6.179199219,-2.100410461,0.021133058,1.060188055,0.125768185
91.118308,43.742286682,5.973205566,-2.321662903,0.019546144,1.056159735,0.126378536
91.118934,44.551002502,6.148681641,-2.321662903,0.015273682,1.053840399,0.130528927
91.119560,45.191871643,6.118164062,-2.466621399,0.013930908,1.054694891,0.126866817
91.120212,45.962440491,5.912170410,-2.413215637,0.010512940,1.050422430,0.131749630
91.120837,46.610939026,5.675659180,-2.405586243,0.013076416,1.043586493,0.129186153
91.121462,47.839271545,5.828247070,-2.619209290,0.012710205,1.033820868,0.130162716
91.122088,48.724281311,5.866394043,-2.558174133,-0.002670654,1.028815985,0.129552364
91.122713,49.746620178,5.561218262,-2.703132629,-0.014511474,1.029060125,0.133702755
91.123406,50.547706604,5.164489746,-2.718391418,-0.015976317,1.026862860,0.132604122
91.124052,51.821815491,5.462036133,-2.932014465,-0.010239013,1.024299383,0.128209591
91.124679,52.844154358,5.362854004,-2.741279602,-0.004745849,1.015754461,0.129674435
91.125305,54.156410217,5.423889160,-2.718391418,-0.015732177,1.015388250,0.127965450
91.125931,55.140602112,5.462036133,-2.726020813,-0.022201903,1.013923407,0.128575802
91.126558,56.269752502,5.332336426,-2.840461731,-0.025864013,1.012946844,0.127355099
91.127184,57.208168030,5.072937012,-3.191413879,-0.037338622,1.020271063,0.128453732
91.127809,57.780372620,4.676208496,-2.901496887,-0.052353270,1.026374578,0.117955685
91.128435,58.611976624,4.477844238,-3.191413879,-0.028427489,1.006965399,0.128819942
91.129061,60.046302795,5.072937012,-3.282966614,-0.021103270,1.005256414,0.134068966
91.129687,61.320411682,5.050048828,-3.038825989,-0.026352294,0.994270146,0.133702755
91.130313,62.220680237,5.172119141,-2.924385071,-0.038803466,1.000373602,0.132359982
91.130940,63.067543030,5.027160645,-3.008308411,-0.046860106,1.010505438,0.138219357
91.144991,82.316505432,3.630981445,-1.139106750,-0.137802497,0.879890263,0.152745724
91.145779,84.567176819,2.211914062,-0.910224915,-0.167099372,0.853523076,0.175084591
91.146405,87.199317932,0.243530273,-0.940742493,-0.154648200,0.869392216,0.167394161
91.147032,88.450538635,0.045166016,-1.360359192,-0.090195067,0.927253544,0.132482052
91.147659,88.648902893,1.510009766,-1.375617981,-0.042221434,0.960822880,0.120275021
91.148286,88.221656799,3.577575684,-1.154365540,-0.042221434,0.951057255,0.147252560
91.148911,87.847816467,4.798278809,-0.780525208,-0.062118895,0.945197880,0.184361935
91.149537,87.359535217,4.699096680,-0.376167297,-0.107529052,0.926154912,0.223424435
91.150162,87.618934631,3.112182617,-0.017585754,-0.174179450,0.914436162,0.268712521
91.150789,87.191688538,0.747070312,0.112113953,-0.167831793,0.972785771,0.269811153
91.151416,84.887611389,0.052795410,-0.460090637,-0.105087645,1.044807196,0.242467403
91.152042,82.720863342,0.182495117,-0.521125793,-0.093368895,1.004157782,0.263341427
91.152669,81.927406311,-0.580444336,-0.887336731,-0.124863036,0.913947880,0.292882442
91.153296,83.392250061,-2.876892090,-0.078620911,-0.158920661,0.828986943,0.286412716
91.153921,86.260902405,-6.035461426,0.310478210,-0.152084723,0.841438115,0.235875607
91.154547,88.656532288,-8.637084961,0.592765808,-0.115707763,0.842536747,0.212071896
91.155173,90.701210022,-9.659423828,0.958976746,-0.040024169,0.937507451,0.162877560
91.155798,89.549171448,-8.324279785,0.592765808,0.021987550,0.988654912,0.135900021
91.156425,87.916481018,-5.638732910,-0.025215149,0.073135011,1.029914618,0.125401974
91.157050,85.459815979,-2.358093262,0.073966980,0.097793214,1.049934149,0.113683224
91.157676,82.835304260,0.480041504,0.379142761,0.075942628,1.027107000,0.150426388
91.158303,81.446754456,1.479492188,0.958976746,0.022719972,0.987800419,0.190831661
91.158930,80.363380432,0.754699707,1.119194031,-0.032822020,0.944099247,0.209996700
91.159555,80.577003479,-1.152648926,1.378593445,-0.066147216,0.926521122,0.213902950
91.160181,80.538856506,-2.968444824,1.287040710,-0.046982177,0.946906865,0.193028927
91.160807,81.004249573,-4.448547363,0.974235535,-0.018417723,0.966682255,0.168614864
91.161434,80.477821350,-4.784240723,0.867424011,0.029800050,0.964973271,0.157384396
91.162059,80.683815002,-4.440917969,0.371513367,0.062881105,0.947761357,0.173131466
91.162684,81.240760803,-4.036560059,0.264701843,0.072280519,0.962776005,0.188390255
91.163310,81.278907776,-3.876342773,0.058708191,0.086684816,0.976569951,0.196568966
91.163935,81.004249573,-3.807678223,0.058708191,0.056289308,1.022590399,0.205724239
91.164562,80.233680725,-5.135192871,0.051078796,0.015029541,1.054450750,0.210851192
91.165187,79.653846741,-6.966247559,0.096855164,-0.021835692,1.004157782,0.277745724
91.165813,78.959571838,-9.132995605,-0.185432434,-0.030746825,1.013190985,0.366368771
91.166440,75.625526428,-9.949340820,-0.460090637,0.022719972,1.083991766,0.356114864
91.167067,71.681129456,-10.254516602,-0.673713684,0.074233644,1.108527899,0.321446896
91.167692,68.408119202,-9.621276855,-0.116767883,0.107680909,1.094123602,0.241246700
91.168319,67.202674866,-8.690490723,0.409660339,0.096084230,0.989875615,0.192418575
91.168944,68.797218323,-8.667602539,0.508842468,0.074111573,0.911506474,0.175206661
91.169569,70.864784241,-8.141174316,0.707206726,0.063613527,0.920417607,0.160924435
91.170195,71.452247620,-7.660522461,0.699577332,0.081557862,0.978523076,0.159581661
91.170820,70.498573303,-6.615295410,0.623283386,0.108413331,1.047492743,0.171056271
91.171445,68.316566467,-5.158081055,0.897941589,0.120986573,1.088752508,0.182286739
91.172071,66.531288147,-4.227294922,1.294670105,0.113784425,1.078986883,0.199376583
91.172697,65.371620178,-3.899230957,1.691398621,0.091201417,1.071418524,0.213902950
91.173323,64.288246155,-3.525390625,1.798210144,0.095351808,1.062385321,0.241734982
91.173949,62.983619690,-3.204956055,1.973686218,0.080947511,1.041755438,0.236974239
91.174576,61.259376526,-3.838195801,1.340446472,0.044692628,1.034309149,0.243077755
91.187309,34.052955627,8.628234863,7.939872742,0.113174073,0.982795537,0.208409786
91.188030,32.214271545,9.742126465,8.733329773,0.111343019,0.974738896,0.192418575
91.188655,31.405555725,10.466918945,9.419975281,0.100844972,0.972785771,0.185460567
91.189282,30.398475647,10.581359863,9.938774109,0.082900636,0.962898076,0.184117794
91.189907,29.841529846,10.558471680,10.663566589,0.072890870,0.956306279,0.182408810
91.190533,29.002296448,10.672912598,11.113700867,0.069472902,0.953864872,0.181920528
91.191160,28.155433655,10.650024414,11.571464539,0.077895753,0.958991826,0.175450802
91.191786,27.056800842,11.077270508,12.036857605,0.082656495,0.953742802,0.168492794
91.192413,26.278602600,11.214599609,12.578544617,0.088760011,0.954597294,0.157506466
91.193040,25.492774963,11.725769043,13.173637390,0.098037355,0.957038701,0.151402950
91.193666,24.699317932,12.748107910,13.783988953,0.094497316,0.951911747,0.144933224
91.195496,22.944557190,14.182434082,14.874992371,0.077163331,0.960822880,0.135411739
91.196121,21.952735901,14.586791992,15.470085144,0.073257081,0.960578740,0.130895138
91.196746,21.205055237,15.189514160,15.683708191,0.072768800,0.973884404,0.126500607
91.197371,20.182716370,15.464172363,16.477165222,0.071792237,1.007453680,0.115148067
91.197998,16.604530334,16.120300293,17.751274109,0.088149659,1.131843328,0.071324825
91.198625,12.850868225,17.554626465,17.636833191,0.113174073,1.012946844,0.022984982
91.199250,12.965309143,19.606933594,17.156181335,0.080337159,0.886848271,0.017858028
91.199877,14.605628967,20.964965820,17.758903503,0.130263910,0.884895146,0.040563107
91.200503,15.719520569,22.597656250,18.415031433,0.117812745,0.944831669,0.062413692
91.201129,15.734779358,23.833618164,18.819389343,0.115371339,0.898567021,0.094029903
91.201754,15.612709045,25.740966797,18.544731140,0.230361566,0.941779912,0.050206661
91.202380,16.009437561,29.067382812,19.734916687,0.034072511,0.821418583,0.054112911
91.203011,18.611061096,27.892456055,20.131645203,-0.125961676,0.805305302,0.127843380
91.203638,19.267189026,22.788391113,21.092948914,-0.172104254,1.097175360,0.227208614
91.204263,13.842689514,18.775329590,21.215019226,-0.074325927,1.144904852,0.246373653
91.204889,8.929359436,17.402038574,21.924552917,0.119033448,1.399055243,0.196568966
91.205516,0.811683655,21.422729492,22.565422058,0.336928964,1.331184149,0.024327755
91.206141,-2.240074158,28.060302734,22.382316589,0.270400643,0.864997685,-0.154749393
91.206768,4.740821838,31.409606934,23.343620300,-0.118027098,0.486823857,-0.097498417
91.207393,13.720619202,28.235778809,22.306022644,-0.259384513,0.603401005,0.035192013
91.208018,16.635047913,22.612915039,22.573051453,-0.165390387,0.934333622,0.184850216
91.208643,12.599098206,19.339904785,24.060783386,0.019668214,1.384284735,0.274327755
91.209270,2.688514709,20.057067871,25.495109558,0.333510995,1.632209539,0.204625607
91.209897,-9.968650818,30.257568359,23.946342468,0.548110604,1.282478094,-0.118860722
91.210523,-6.283653259,38.611755371,25.991020203,-0.084091552,0.599494755,-0.165979862
91.211149,3.924476624,37.528381348,24.312553406,-0.109482177,0.574470341,-0.153406620
91.211776,10.417091370,33.614501953,24.762687683,-0.335678458,0.734260380,-0.046228886
91.212401,11.286842346,26.488647461,25.899467468,-0.181381598,1.096442938,0.131505489
91.213027,4.695045471,22.452697754,26.769218445,0.204726800,1.688972235,0.273229122
91.213652,-10.235679626,30.646667480,26.998100281,0.802505136,1.934943914,0.075597286
91.214279,-21.366966248,46.500549316,29.378471375,0.290298104,1.285896063,-0.092005253
91.214904,-18.299949646,51.619873047,26.593742371,0.077285402,0.859504521,-0.190393925
91.215531,-11.410606384,51.001892090,24.350700378,-0.674545646,0.553352177,-0.128138065
91.216157,-0.363243103,38.451538086,22.374687195,-0.505356193,0.776496708,0.007359982
91.216783,-1.812828064,29.807434082,19.765434265,0.582412362,1.533088446,-0.072718143
91.217409,-9.037864685,36.780700684,30.377922058,0.415542245,1.445075750,-0.065638065
91.218034,-13.737571716,40.480957031,31.125602722,0.364516854,1.274909735,0.070958614
91.230824,-18.986595154,34.293518066,21.596488953,-0.085434325,1.100349188,-0.119837284
91.231657,-15.461814880,33.797607422,20.871696472,-0.074325927,1.108039618,-0.140345097
91.232282,-12.394798279,33.500061035,20.383415222,-0.044052489,1.117805243,-0.151941776
91.232908,-9.716880798,33.408508301,20.116386414,-0.029648192,1.114021063,-0.148645878
91.233535,-7.016075134,33.576354980,19.559440613,-0.038559325,1.101569891,-0.134729862
91.234160,-4.116905212,33.797607422,19.399223328,-0.032699950,1.074348211,-0.127893925
91.234785,-1.065147400,33.744201660,19.315299988,-0.046371825,1.067756414,-0.116419315
91.235412,1.658546448,33.072814941,19.124565125,-0.067123778,1.064216375,-0.110804081
91.236039,4.061805725,32.012329102,19.116935730,-0.081039794,1.072028875,-0.112513065
91.236664,7.205116272,30.578002930,19.162712097,-0.092880614,1.078254461,-0.115320683
91.237291,13.377296448,28.083190918,18.582878113,-0.094833739,1.089240789,-0.120447636
91.237917,16.467201233,27.060852051,17.659721375,-0.093002684,1.099738836,-0.127649784
91.238544,19.030677795,26.381835938,17.262992859,-0.081772216,1.110603094,-0.129602909
91.239229,21.342384338,25.863037109,16.622123718,-0.071518309,1.109382391,-0.130335331
91.239854,23.715126038,25.260314941,16.248283386,-0.064316161,1.109870672,-0.124842167
91.240479,25.828468323,24.634704590,15.668449402,-0.056991942,1.114021063,-0.119837284
91.241105,27.979957581,24.184570312,15.348014832,-0.048202880,1.118171453,-0.116663456
91.241746,30.017005920,23.635253906,14.928398132,-0.050522216,1.127082586,-0.106653690
91.242373,31.443702698,23.269042969,14.562187195,-0.045517333,1.136359930,-0.100916386
91.242998,32.977210999,22.696838379,13.860282898,-0.045273192,1.148933172,-0.092005253
91.243624,34.060585022,22.490844727,13.463554382,-0.047226317,1.165778875,-0.080042362
91.245503,36.593544006,20.385131836,11.411247253,-0.033676513,1.215095282,-0.068933964
91.246130,37.127601624,19.721374512,11.022148132,-0.025619872,1.222541571,-0.069178104
91.246755,37.486183167,19.439086914,10.304985046,-0.020370848,1.228767157,-0.063318729
91.247380,37.798988342,19.011840820,9.725151062,-0.015365967,1.236457586,-0.063929081
91.248011,37.890541077,18.477783203,9.000358582,-0.016586669,1.244758368,-0.061487675
91.248636,37.798988342,18.386230469,8.252677917,-0.010971435,1.253303289,-0.059168339
91.249262,37.539588928,17.844543457,7.833061218,-0.004623779,1.259162664,-0.060755253
91.249889,37.387001038,17.386779785,7.047233582,-0.000473388,1.264045477,-0.059778690
91.250514,37.341224670,16.898498535,6.505546570,0.001845947,1.268928289,-0.060755253
91.251139,37.287818909,16.539916992,5.643424988,-0.000473388,1.277473211,-0.060022831
91.251764,37.242042542,16.379699707,4.956779480,0.003188721,1.281867743,-0.062586308
91.252389,37.036048889,15.807495117,4.216728210,0.002456299,1.282478094,-0.066370487
91.253014,36.707984924,15.723571777,3.560600281,0.007339112,1.284797430,-0.069422245
91.253641,36.532508850,15.395507812,3.118095398,0.011855713,1.287238836,-0.072474003
91.254294,36.494361877,14.998779297,2.393302917,0.011367432,1.284919500,-0.078089237
91.254925,36.517250061,14.777526855,1.744804382,0.013930908,1.278938055,-0.083582401
91.255552,36.723243713,14.617309570,0.806388855,0.010512940,1.278449774,-0.089930058
91.256179,36.997901917,14.182434082,0.211296082,0.008437744,1.277473211,-0.094690800
91.256804,37.348854065,13.930664062,-0.544013977,0.007461182,1.274787664,-0.101770878
91.257433,37.600624084,13.327941895,-1.223030090,0.007949463,1.274909735,-0.101404667
91.258059,38.088905334,12.915954590,-1.993598938,0.006606690,1.277229071,-0.112635136
91.258685,38.859474182,12.587890625,-2.436103821,0.003310791,1.277229071,-0.116175175
91.259310,39.538490295,11.756286621,-3.351631165,0.001357666,1.277595282,-0.120203495
91.266596,53.256141663,2.700195312,-11.690559387,-0.006454834,1.246711493,-0.188196659
91.267275,54.881202698,1.677856445,-12.720527649,-0.002670654,1.244392157,-0.199305058
91.267909,56.361305237,0.846252441,-13.285102844,-0.005844482,1.247321844,-0.204798222
91.268534,58.245765686,-0.504150391,-13.773384094,-0.005844482,1.248054266,-0.213099003
91.281303,87.473976135,-20.668640137,-29.200019836,-0.019028075,1.295905828,-0.184656620
91.282093,88.000404358,-21.622314453,-30.046882629,-0.019516356,1.300300360,-0.182215214
91.282719,88.549720764,-22.400512695,-30.641975403,-0.018051513,1.301521063,-0.174890995
91.283344,89.152442932,-23.163452148,-31.404914856,-0.021225341,1.303352118,-0.172937870
91.283970,89.793312073,-24.002685547,-32.335700989,-0.022079833,1.304816961,-0.165125370
91.284596,90.190040588,-24.559631348,-32.839241028,-0.022934325,1.307258368,-0.164148808
91.285222,90.663063049,-25.314941406,-33.678474426,-0.021469481,1.307624578,-0.159632206
91.285847,91.296302795,-25.879516602,-34.532966614,-0.021957763,1.304084539,-0.155115604
91.286473,91.677772522,-26.581420898,-35.265388489,-0.021347411,1.304084539,-0.155359745
91.287100,92.265235901,-27.229919434,-35.959663391,-0.024155028,1.301765203,-0.154261112
91.287726,92.700111389,-27.825012207,-36.615791321,-0.020981200,1.296882391,-0.151697636
91.288352,93.157875061,-28.160705566,-37.455024719,-0.022690184,1.295661688,-0.150476933
91.288978,93.485939026,-29.015197754,-38.057746887,-0.027084716,1.291267157,-0.148157597
91.289605,94.210731506,-29.419555664,-38.744392395,-0.027817138,1.286750555,-0.151087284
91.290231,95.141517639,-29.923095703,-39.484443665,-0.025741942,1.287971258,-0.150110722
91.290856,95.713722229,-30.663146973,-39.888801575,-0.029037841,1.277961493,-0.150965214
91.291481,96.606361389,-31.288757324,-40.750923157,-0.031479247,1.275520086,-0.149378300
91.292108,97.468482971,-31.906738281,-41.376533508,-0.031723388,1.272224188,-0.148279667
91.292734,98.361122131,-32.524719238,-41.841926575,-0.033920653,1.265022039,-0.149622440
91.293359,99.200355530,-32.883300781,-42.795600891,-0.034775145,1.259406805,-0.150965214
91.293985,100.535499573,-33.630981445,-43.375434875,-0.041000731,1.255744696,-0.153284550
91.295877,103.945838928,-35.355224609,-45.076789856,-0.043564208,1.244025946,-0.161097050
91.296503,105.120765686,-36.102905273,-45.549812317,-0.044784911,1.239143133,-0.165369511
91.297128,106.661903381,-36.743774414,-46.289863586,-0.045883544,1.233772039,-0.168543339
91.297754,108.096229553,-37.689819336,-46.739997864,-0.049179442,1.230232000,-0.172449589
91.298380,109.469520569,-38.216247559,-47.357978821,-0.049301513,1.227302313,-0.176844120
91.299013,111.209022522,-39.139404297,-47.998847961,-0.046249755,1.223029852,-0.182703495
91.299640,112.757789612,-39.543762207,-48.296394348,-0.049057372,1.220466375,-0.188196659
91.300266,114.558326721,-40.566101074,-48.647346497,-0.047348388,1.216193914,-0.190515995
91.300893,116.137611389,-41.145935059,-49.211921692,-0.045151122,1.215705633,-0.193323612
91.301520,117.716896057,-41.824951172,-49.631538391,-0.044540770,1.216682196,-0.197107792
91.302146,119.448768616,-42.229309082,-50.356330872,-0.040756591,1.213996649,-0.197596073
91.302773,121.249305725,-43.114318848,-50.623359680,-0.040756591,1.215949774,-0.196009159
91.303399,123.072731018,-43.541564941,-51.012458801,-0.035385497,1.216315985,-0.202356815
91.304025,125.926124573,-44.663085938,-51.821174622,-0.030136473,1.219611883,-0.203821659
91.304698,127.558815002,-45.357360840,-52.202644348,-0.024155028,1.222663641,-0.205896854
91.305335,129.099945068,-45.815124512,-52.576484680,-0.020492919,1.227180243,-0.209803104
91.305961,130.305389404,-46.188964844,-53.041877747,-0.019882567,1.231574774,-0.207727909
91.306587,131.228546143,-46.860351562,-53.278388977,-0.015243896,1.234748602,-0.211878300
91.307234,132.601837158,-47.302856445,-53.774299622,-0.013046631,1.241218328,-0.210535526
91.307859,133.471588135,-47.867431641,-54.163398743,-0.008407959,1.249274969,-0.212610722
91.308485,134.417633057,-48.302307129,-54.270210266,-0.008652099,1.256477118,-0.215784550
91.309112,134.974578857,-48.462524414,-54.995002747,-0.000717529,1.262580633,-0.220789433
91.309737,135.790924072,-49.225463867,-55.086555481,-0.000107178,1.272346258,-0.219812870
91.310362,135.882476807,-49.248352051,-55.460395813,0.004043213,1.274543524,-0.222864628
91.323160,120.776283264,-56.358947754,-61.716499329,0.000747315,1.335212469,-0.271570683
91.323975,118.022071838,-57.167663574,-62.227668762,-0.003158935,1.328742743,-0.274256229
91.324602,118.022071838,-57.167663574,-62.227668762,-0.003158935,1.328742743,-0.274256229
91.325227,116.412269592,-57.518615723,-62.540473938,0.001723877,1.329719305,-0.278650761
91.325852,114.977943420,-57.800903320,-62.883796692,-0.001938232,1.331672430,-0.282190800
91.326477,111.918556213,-58.464660645,-63.173713684,-0.007309326,1.319343328,-0.279749393
91.327103,110.217201233,-58.685913086,-63.623847961,-0.015365967,1.318977118,-0.279016972
91.327793,108.882057190,-58.983459473,-63.936653137,-0.010971435,1.314826727,-0.279627323
91.328418,107.546913147,-59.410705566,-64.104499817,-0.014145263,1.309333563,-0.278284550
91.329043,106.158363342,-59.975280762,-64.371528625,-0.016586669,1.307014227,-0.275599003
91.329672,104.533302307,-60.318603516,-64.539375305,-0.013168701,1.303230047,-0.279871464
91.330297,103.282081604,-60.547485352,-64.806404114,-0.013656982,1.295051336,-0.275354862
91.330923,102.213966370,-60.883178711,-65.226020813,-0.016830809,1.287360907,-0.279383183
91.331550,100.833045959,-61.035766602,-65.432014465,-0.020126708,1.281379461,-0.275721073
91.332177,99.421607971,-61.096801758,-65.485420227,-0.023544677,1.275153875,-0.275476933
91.332804,98.254310608,-61.417236328,-66.027107239,-0.025375731,1.271003485,-0.274256229
91.333429,96.888648987,-61.745300293,-66.111030579,-0.031601317,1.265754461,-0.274866581
91.334055,95.706092834,-61.852111816,-66.248359680,-0.028671630,1.258674383,-0.270105839
91.334682,94.500648499,-62.393798828,-66.477241516,-0.033188231,1.255256414,-0.270838261
91.335309,93.524085999,-62.737121582,-66.614570618,-0.040268309,1.249763250,-0.267420292
91.335935,92.120277405,-62.744750977,-66.973152161,-0.042343505,1.242072821,-0.266077518
91.336561,91.174232483,-63.324584961,-67.018928528,-0.043075927,1.236579657,-0.260462284
91.337186,90.014564514,-63.477172852,-67.232551575,-0.044174559,1.229987860,-0.262049198
91.337811,89.022743225,-63.889160156,-67.552986145,-0.043442138,1.223762274,-0.259974003
91.338437,87.954627991,-64.148559570,-67.812385559,-0.043075927,1.216682196,-0.255213261
91.339062,86.878883362,-64.560546875,-67.896308899,-0.047836669,1.210578680,-0.256800175
91.339687,85.764991760,-64.919128418,-67.896308899,-0.049057372,1.205329657,-0.254236698
91.340312,84.612953186,-65.125122070,-68.140449524,-0.051742919,1.196418524,-0.252039433
91.340938,83.674537659,-65.483703613,-68.422737122,-0.051742919,1.193000555,-0.250086308
91.341563,82.743751526,-65.811767578,-68.293037415,-0.056259520,1.184699774,-0.251795292
91.342190,81.568824768,-66.155090332,-68.544807434,-0.055038817,1.181159735,-0.247889042
91.342815,80.714332581,-66.261901855,-68.743171692,-0.060531981,1.174690008,-0.246668339
91.343442,79.859840393,-66.589965820,-68.666877747,-0.058945067,1.162971258,-0.239099979
91.344067,78.974830627,-67.047729492,-68.781318665,-0.060043700,1.157111883,-0.241297245
91.345942,76.388465881,-68.138732910,-69.208564758,-0.057114013,1.138190985,-0.230677128
91.346568,75.587379456,-68.337097168,-69.246711731,-0.058822997,1.133674383,-0.227381229
91.347195,74.740516663,-68.825378418,-69.193305969,-0.056503661,1.126960516,-0.222742558
91.347821,73.878395081,-69.161071777,-69.284858704,-0.051620848,1.120857000,-0.220179081
91.348448,73.001014709,-69.527282715,-69.231452942,-0.051864989,1.114143133,-0.215540409
91.349073,72.314369202,-69.763793945,-69.094123840,-0.052475341,1.109870672,-0.210657597
91.349698,71.452247620,-70.107116699,-69.155158997,-0.053207763,1.107429266,-0.208338261
91.350323,70.384132385,-70.198669434,-69.017829895,-0.051254638,1.103034735,-0.203333378
91.350948,69.590675354,-70.770874023,-69.033088684,-0.054184325,1.097175360,-0.197351933
91.351573,69.087135315,-70.961608887,-68.842353821,-0.049179442,1.092048407,-0.193811893
91.352198,68.095314026,-71.312561035,-68.918647766,-0.046860106,1.088142157,-0.190393925
91.352825,67.172157288,-71.587219238,-68.659248352,-0.046127684,1.081550360,-0.182459354
91.365838,57.124244690,-76.332702637,-64.394416809,-0.022323973,0.974128544,-0.115076542
91.366566,57.330238342,-76.325073242,-63.661994934,-0.022568114,0.969611943,-0.109705448
91.367191,57.093727112,-76.653137207,-63.700141907,-0.022812255,0.963752568,-0.105310917
91.367816,57.322608948,-76.836242676,-63.280525208,-0.020370848,0.957893193,-0.101892948
91.368442,57.406532288,-76.798095703,-63.028755188,-0.020492919,0.954109013,-0.099207401
91.369067,57.894813538,-77.263488770,-62.548103333,-0.022690184,0.951789677,-0.099817753
91.369693,57.818519592,-77.362670898,-62.273445129,-0.022323973,0.947883427,-0.092981815
91.370320,58.291542053,-77.477111816,-62.159004211,-0.023056395,0.942268193,-0.096277714
91.370947,58.566200256,-77.675476074,-61.861457825,-0.026474364,0.939948857,-0.094202518
91.371573,59.168922424,-77.782287598,-61.411323547,-0.027695067,0.936286747,-0.093103886
91.372199,59.680091858,-77.660217285,-61.136665344,-0.031235106,0.935798466,-0.092859745
91.372826,60.084449768,-77.873840332,-60.785713196,-0.030380614,0.929817021,-0.091394901
91.373453,60.603248596,-78.087463379,-60.442390442,-0.033188231,0.923835576,-0.091639042
91.374078,61.358558655,-77.896728516,-60.221138000,-0.034653075,0.926765263,-0.090784550
91.374704,61.869728088,-78.072204590,-59.626045227,-0.037338622,0.922981083,-0.091272831
91.375330,62.678443909,-78.156127930,-59.191169739,-0.038803466,0.925178349,-0.093836308
91.375955,63.273536682,-78.293457031,-58.832588196,-0.045761473,0.924812138,-0.095423222
91.376582,64.158546448,-78.430786133,-58.680000305,-0.047958739,0.922126591,-0.097132206
91.377207,64.799415588,-78.240051270,-58.161201477,-0.048202880,0.924079716,-0.098841190
91.377833,65.363990784,-78.591003418,-57.718696594,-0.051132567,0.925666630,-0.099817753
91.378458,66.378700256,-78.339233398,-57.268562317,-0.054062255,0.924567997,-0.104090214
91.379085,67.034828186,-78.385009766,-57.039680481,-0.056259520,0.924934208,-0.106531620
91.379711,67.973243713,-78.644409180,-56.421699524,-0.060043700,0.926154912,-0.110071659
91.380337,68.591224670,-78.735961914,-55.933418274,-0.062729247,0.928718388,-0.112024784
91.380962,69.369422913,-78.591003418,-55.750312805,-0.059677489,0.932380497,-0.111048222
91.381588,69.865333557,-78.720703125,-55.353584290,-0.065536864,0.932380497,-0.114344120
91.382213,70.613014221,-78.644409180,-54.743232727,-0.066757567,0.939216435,-0.117029667
91.382840,71.017372131,-78.629150391,-54.140510559,-0.068100341,0.938484013,-0.120813847
91.383466,71.612464905,-78.499450684,-53.987922668,-0.066025145,0.942390263,-0.122034550
91.384093,72.527992249,-78.545227051,-53.430976868,-0.070297606,0.945442021,-0.125696659
91.384718,72.680580139,-78.400268555,-52.889289856,-0.070541747,0.950813115,-0.130091190
91.385345,73.298561096,-78.545227051,-52.561225891,-0.073471434,0.951423466,-0.128748417
91.385972,73.824989319,-78.461303711,-52.172126770,-0.078842528,0.954841435,-0.130945683
91.386599,73.710548401,-78.522338867,-51.912727356,-0.077865966,0.957038701,-0.135828495
91.387224,73.962318420,-78.415527344,-51.371040344,-0.076279052,0.963020146,-0.134851933
91.387851,74.092018127,-78.705444336,-50.760688782,-0.079086669,0.963508427,-0.135706425
91.388476,74.290382385,-78.713073730,-50.379219055,-0.076523192,0.970588505,-0.139734745
91.389101,74.420082092,-78.346862793,-50.241889954,-0.080795653,0.972785771,-0.141077518
91.389727,74.290382385,-78.583374023,-49.662055969,-0.082016356,0.975715458,-0.141687870
91.390352,74.305641174,-78.499450684,-49.181404114,-0.081039794,0.980109990,-0.142908573
91.390977,73.916542053,-78.514709473,-49.059333801,-0.077743895,0.982307255,-0.142786503
91.391602,73.748695374,-78.346862793,-48.517646790,-0.076523192,0.986457646,-0.144007206
91.392228,73.596107483,-78.545227051,-48.113288879,-0.078232177,0.987434208,-0.142176151
91.392854,73.153602600,-78.461303711,-47.800483704,-0.078476317,0.988288701,-0.149012089
91.393481,72.840797424,-78.438415527,-47.518196106,-0.079086669,0.984260380,-0.147669315
91.394106,72.375404358,-78.537597656,-46.945991516,-0.075546630,0.986823857,-0.150232792
91.408074,71.017372131,-76.378479004,-41.147651672,-0.076767333,0.949348271,-0.174646854
91.408855,71.414100647,-76.134338379,-40.880622864,-0.077865966,0.948859990,-0.177454472
91.409481,71.650611877,-76.027526855,-40.552558899,-0.080917723,0.947273076,-0.180384159
91.410106,72.199928284,-75.722351074,-40.232124329,-0.087509520,0.947883427,-0.181971073
91.410733,72.283851624,-75.676574707,-40.163459778,-0.083237059,0.949836552,-0.183924198
91.411360,72.657691956,-75.623168945,-39.873542786,-0.088241942,0.946662724,-0.186243534
91.411985,72.802650452,-75.516357422,-39.759101868,-0.090439208,0.949592412,-0.184046268
91.412611,73.084938049,-75.279846191,-39.598884583,-0.086532958,0.950202763,-0.187342167
91.413238,73.405372620,-75.203552246,-39.240303040,-0.091537841,0.953376591,-0.188929081
91.413863,73.420631409,-74.997558594,-39.316596985,-0.088486083,0.957771122,-0.188440800
91.414488,73.809730530,-75.134887695,-38.889350891,-0.088974364,0.959235966,-0.185144901
91.415114,73.855506897,-74.883117676,-38.950386047,-0.086044677,0.963508427,-0.188440800
91.415739,73.893653870,-74.555053711,-38.767280579,-0.087997802,0.964729130,-0.181238651
91.416364,73.710548401,-74.600830078,-38.683357239,-0.083603270,0.967902958,-0.180017948
91.416989,73.672401428,-74.371948242,-38.202705383,-0.083114989,0.974494755,-0.179285526
91.417615,73.336708069,-74.280395508,-38.286628723,-0.081161864,0.975349247,-0.177576542
91.418242,73.313819885,-74.097290039,-37.981452942,-0.078598388,0.979621708,-0.173792362
91.418867,72.749244690,-73.975219727,-37.958564758,-0.075058348,0.986091435,-0.172327518
91.419493,72.238075256,-73.761596680,-37.897529602,-0.072372802,0.986335576,-0.173914433
91.420120,71.688758850,-73.830261230,-37.569465637,-0.067489989,0.993415654,-0.168665409
91.420745,71.131813049,-73.532714844,-37.561836243,-0.068344481,0.994270146,-0.170496464
91.421370,70.399391174,-73.441162109,-37.226142883,-0.067245848,0.998786747,-0.170008183
91.421997,69.705116272,-73.280944824,-37.104072571,-0.067978270,0.999641240,-0.169886112
91.422623,68.965065002,-73.486938477,-36.959114075,-0.066635497,1.002204657,-0.171106815
91.423250,68.217384338,-73.448791504,-36.745491028,-0.062973388,1.001716375,-0.172449589
91.423877,67.233192444,-73.471679688,-36.676826477,-0.060165770,0.998786747,-0.172571659
91.424518,66.393959045,-73.425903320,-36.531867981,-0.057968505,1.002204657,-0.175623417
91.425150,65.508949280,-73.494567871,-36.165657043,-0.056259520,0.997321904,-0.172571659
91.425777,64.715492249,-73.708190918,-35.997810364,-0.053696044,0.999275029,-0.176722050
91.426403,64.082252502,-73.891296387,-35.654487610,-0.052719481,0.999763310,-0.179163456
91.427028,63.250648499,-73.929443359,-35.593452454,-0.049423583,0.999763310,-0.178431034
91.427653,62.319862366,-74.120178223,-35.356941223,-0.048813231,0.998542607,-0.182093143
91.428278,61.732398987,-73.937072754,-35.021247864,-0.044418700,0.996711552,-0.184168339
91.428903,61.053382874,-74.188842773,-34.922065735,-0.048202880,0.992683232,-0.182215214
91.429528,60.275184631,-74.364318848,-34.731330872,-0.044418700,0.996101201,-0.181238651
91.430253,59.619056702,-74.448242188,-34.441413879,-0.041366942,0.992439091,-0.181360722
91.430879,59.283363342,-74.280395508,-34.288825989,-0.041244872,0.990852177,-0.179529667
91.431505,58.611976624,-74.768676758,-33.953132629,-0.042099364,0.992683232,-0.177454472
91.432157,58.100807190,-74.890747070,-33.838691711,-0.041244872,0.995124638,-0.172571659
91.432783,57.459938049,-75.012817383,-33.556404114,-0.043686278,0.994148076,-0.174280643
91.433410,56.834327698,-75.020446777,-33.304634094,-0.042343505,0.995124638,-0.169886112
91.434036,56.208717346,-75.218811035,-32.862129211,-0.042221434,0.996101201,-0.164759159
91.434661,55.926429749,-75.249328613,-32.839241028,-0.042709716,0.993903935,-0.159021854
91.435286,55.346595764,-75.417175293,-32.488288879,-0.036484130,0.998908818,-0.154383183
91.435911,54.682838440,-75.493469238,-32.244148254,-0.039657958,1.000739813,-0.151087284
91.436537,54.049598694,-75.630798340,-32.106819153,-0.037826903,1.005012274,-0.148279667
91.449263,43.643104553,-74.898376465,-27.544441223,-0.077499755,0.986457646,-0.070398808
91.449992,43.734657288,-74.768676758,-27.254524231,-0.078232177,0.981818974,-0.066004276
91.450618,43.658363342,-74.982299805,-27.132453918,-0.082870848,0.979011357,-0.070154667
91.451243,43.955909729,-74.669494629,-26.865425110,-0.082626708,0.976447880,-0.069178104
91.451868,43.963539124,-74.524536133,-26.438179016,-0.082870848,0.976814091,-0.071497440
91.452495,44.306861877,-74.478759766,-26.270332336,-0.085190184,0.969489872,-0.074915409
91.453121,44.650184631,-74.631347656,-26.300849915,-0.087143309,0.970954716,-0.078699589
91.453746,45.138465881,-74.448242188,-25.850715637,-0.085190184,0.963630497,-0.080896854
91.454373,45.237648010,-74.135437012,-25.522651672,-0.086044677,0.960578740,-0.082361698
91.454999,45.954811096,-73.914184570,-25.507392883,-0.083969481,0.958503544,-0.090296268
91.455624,46.519386292,-73.784484863,-25.171699524,-0.087631591,0.954109013,-0.093714237
91.456250,47.122108459,-73.753967285,-24.736824036,-0.088974364,0.952277958,-0.097742558
91.458068,48.220741272,-73.433532715,-24.324836731,-0.090195067,0.954597294,-0.116175175
91.458694,48.838722229,-73.525085449,-23.935737610,-0.091171630,0.955817997,-0.116907597
91.459320,49.517738342,-73.250427246,-23.729743958,-0.093246825,0.953864872,-0.126795292
91.459945,50.326454163,-73.158874512,-23.401679993,-0.098617919,0.954841435,-0.132898808
91.460570,51.600563049,-73.113098145,-22.898139954,-0.108505614,0.950691044,-0.139734745
91.461195,52.081214905,-73.021545410,-22.707405090,-0.110580809,0.947639287,-0.143152714
91.461820,52.844154358,-73.258056641,-22.646369934,-0.110214598,0.942512333,-0.148523808
91.462445,53.378211975,-73.776855469,-22.379341125,-0.107651122,0.945686162,-0.152185917
91.463072,54.003822327,-73.906555176,-22.150459290,-0.107162841,0.943488896,-0.155359745
91.463697,54.247962952,-73.853149414,-22.074165344,-0.105697997,0.941047490,-0.160242558
91.464324,55.026161194,-74.219360352,-22.150459290,-0.106918700,0.942390263,-0.161341190
91.464950,55.537330627,-74.364318848,-21.982612610,-0.105942138,0.935554326,-0.168055058
91.465575,56.048500061,-74.211730957,-21.776618958,-0.107773192,0.932624638,-0.164392948
91.466200,56.780921936,-74.402465820,-21.761360168,-0.106430419,0.933967412,-0.165857792
91.466827,57.238685608,-74.539794922,-21.776618958,-0.106186278,0.925178349,-0.162928104
91.467453,58.093177795,-74.532165527,-21.837654114,-0.107406981,0.923469365,-0.161341190
91.468080,58.619606018,-74.593200684,-21.639289856,-0.107773192,0.922126591,-0.161097050
91.468706,59.237586975,-74.532165527,-21.639289856,-0.109482177,0.920905888,-0.154261112
91.469333,60.008155823,-74.593200684,-21.479072571,-0.111313231,0.924690068,-0.151209354
91.469958,60.626136780,-74.860229492,-21.524848938,-0.113388427,0.925300419,-0.151697636
91.470583,60.977088928,-74.814453125,-21.791877747,-0.112289794,0.928840458,-0.147425175
91.471210,61.320411682,-75.111999512,-21.608772278,-0.112045653,0.932258427,-0.149012089
91.471836,61.793434143,-75.043334961,-21.547737122,-0.110947020,0.941657841,-0.144373417
91.472461,62.182533264,-74.837341309,-21.761360168,-0.114364989,0.940070927,-0.146204472
91.473086,62.625038147,-74.974670410,-21.601142883,-0.115951903,0.937385380,-0.145349979
91.473711,62.930213928,-75.134887695,-22.036018372,-0.116806395,0.938484013,-0.150965214
91.474336,63.265907288,-75.096740723,-21.738471985,-0.117294677,0.937263310,-0.152063847
91.474961,63.769447327,-75.249328613,-21.746101379,-0.117172606,0.935798466,-0.151819706
91.475587,64.234840393,-74.967041016,-21.952095032,-0.117538817,0.933845341,-0.155970097
91.476212,64.791786194,-75.264587402,-21.814765930,-0.118149169,0.931037724,-0.161097050
91.476839,65.386878967,-75.173034668,-21.814765930,-0.115951903,0.930183232,-0.165003300
91.477466,66.363441467,-75.028076172,-21.875801086,-0.118027098,0.928108037,-0.170008183
91.478091,66.882240295,-75.005187988,-21.700325012,-0.118271239,0.922981083,-0.173670292
91.478718,67.843544006,-74.898376465,-21.837654114,-0.115951903,0.925666630,-0.173304081
91.491416,82.522499084,-70.725097656,-22.692146301,0.047866456,0.613532841,-0.183435917
91.492190,92.318641663,-67.719116211,-24.294319153,0.135635003,0.345710576,-0.066126347
91.492816,107.058631897,-63.065185547,-24.965705872,0.213637933,0.138679326,0.014562130
91.493441,121.035682678,-58.830871582,-24.454536438,0.220351800,0.206184208,0.037267208
91.494068,127.925025940,-59.349670410,-23.134651184,0.190688714,0.407722294,0.133580685
91.494694,131.579498291,-59.990539551,-19.838752747,0.147842035,0.663337529,0.199864864
91.495319,131.625274658,-60.593261719,-16.954841614,0.085952394,0.935432255,0.300694942
91.495945,128.634552002,-59.654846191,-14.704170227,-0.003403076,1.179939032,0.344518185
91.496571,120.249855042,-57.373657227,-13.903083801,-0.034775145,1.345466375,0.285192013
91.497196,109.126197815,-54.787292480,-15.619697571,-0.065048583,1.392951727,0.238683224
91.497822,100.764381409,-50.415649414,-17.794075012,-0.036484130,1.310798407,0.199376583
91.498449,98.200904846,-45.181884766,-20.960273743,-0.064682372,1.176643133,0.187169552
91.499076,99.505531311,-41.702880859,-23.439826965,-0.142807379,1.026008368,0.144078732
91.499703,102.061378479,-41.130676270,-25.003852844,-0.206161872,0.867805302,0.101842403
91.500329,103.327857971,-43.251647949,-25.156440735,-0.250351310,0.751228154,0.088414669
91.500954,103.625404358,-46.562805176,-23.470344543,-0.220932379,0.658698857,0.041905880
91.501579,103.671180725,-49.591674805,-22.104682922,-0.157333747,0.620734990,0.022252560
91.502205,106.120216370,-50.636901855,-20.555915833,-0.077988036,0.614021122,0.014928341
91.502831,111.041175842,-49.492492676,-19.648017883,-0.015365967,0.675056279,0.030675411
91.503457,115.809547424,-46.723022461,-19.930305481,0.014663330,0.785285771,0.058751583
91.504082,118.060218811,-43.175354004,-19.808235168,0.024795167,0.910407841,0.080602169
91.504707,117.251502991,-39.261474609,-19.998970032,0.022109620,0.981208622,0.125279903
91.505332,115.382301331,-34.760131836,-20.189704895,0.015029541,0.996467412,0.197179317
91.505957,113.864051819,-30.182495117,-20.456733704,0.012832276,0.985359013,0.258580685
91.506584,112.551795959,-26.413574219,-20.655097961,0.011977783,0.974494755,0.320348263
91.508412,108.401405334,-17.555847168,-19.533576965,-0.004867920,0.948371708,0.442784786
91.509037,106.898414612,-15.381469727,-19.556465149,-0.035263427,0.965827763,0.491246700
91.509664,104.663002014,-13.367309570,-20.060005188,-0.047592528,0.992683232,0.531529903
91.516903,68.667518616,12.824401855,-18.450202942,0.049331300,0.839607060,0.370885372
91.517528,70.193397522,14.411315918,-18.572273254,0.019424073,0.811286747,0.304479122
91.518154,72.184669495,15.311584473,-18.801155090,-0.004013428,0.781379521,0.241857052
91.518780,75.564491272,16.288146973,-19.121589661,-0.016464598,0.748542607,0.197179317
91.519406,79.585182190,16.578063965,-19.274177551,-0.025497802,0.727546513,0.152989864
91.520033,83.933937073,16.326293945,-18.907966614,-0.026840575,0.709235966,0.112706661
91.520659,88.572608948,15.845642090,-18.351020813,-0.011459717,0.703986943,0.073644161
91.521285,93.020545959,15.853271484,-17.786445618,0.000503174,0.696784794,0.031774044
91.521911,97.560035706,16.440734863,-16.710700989,0.010146729,0.699226201,-0.012415409
91.522537,102.046119690,17.119750977,-16.474189758,0.011733643,0.707771122,-0.057703495
91.523163,106.822120667,17.844543457,-15.711250305,0.007827393,0.703254521,-0.093958378
91.523790,111.735450745,18.874511719,-15.566291809,-0.015610107,0.711189091,-0.123011112
91.524415,116.870033264,19.530639648,-15.329780579,-0.040756591,0.726325810,-0.148401737
91.525042,121.798622131,19.019470215,-15.108528137,-0.071274169,0.747321904,-0.164270878
91.525667,126.544105530,18.348083496,-14.833869934,-0.092148192,0.768195927,-0.181238651
91.526292,130.923370361,17.035827637,-14.711799622,-0.113632567,0.784675419,-0.192347050
91.526918,134.753326416,15.586242676,-14.406623840,-0.119003661,0.801765263,-0.198938847
91.527543,138.682464600,14.426574707,-14.185371399,-0.122787841,0.823371708,-0.204065800
91.528168,141.718963623,13.068542480,-14.292182922,-0.114853270,0.846687138,-0.208826542
91.540835,139.964202881,12.755737305,-12.957038879,-0.124496825,1.067268133,-0.051722050
91.541608,137.797454834,12.992248535,-12.743415833,-0.121445067,1.081672430,-0.061243534
91.542233,135.340789795,13.358459473,-13.071479797,-0.123398192,1.094733953,-0.070032597
91.542860,133.288482666,13.961181641,-13.163032532,-0.120102294,1.100715399,-0.081873417
91.543486,131.030181885,14.769897461,-13.391914368,-0.118393309,1.093879461,-0.093592167
91.544111,129.191497803,15.754089355,-13.468208313,-0.112289794,1.084724188,-0.104700565
91.544737,127.429115295,16.448364258,-13.712348938,-0.112167723,1.071662664,-0.119471073
91.545364,126.200782776,17.493591309,-13.697090149,-0.112533934,1.058479071,-0.128015995
91.545991,124.880897522,17.958984375,-13.628425598,-0.118759520,1.046516180,-0.141321659
91.546618,123.805152893,18.279418945,-13.536872864,-0.125351325,1.046516180,-0.157434940
91.547245,122.904884338,18.584594727,-13.384284973,-0.126694098,1.047004461,-0.172449589
91.547871,122.172462463,18.943176270,-13.491096497,-0.125717536,1.043586493,-0.187220097
91.548498,121.691810608,19.515380859,-13.452949524,-0.124618895,1.048103094,-0.205530643
91.549124,121.409523010,19.820556641,-13.513984680,-0.127182379,1.058845282,-0.222742558
91.549750,120.852577209,20.476684570,-13.773384094,-0.122543700,1.061408758,-0.238489628
91.550376,120.333778381,21.071777344,-13.742866516,-0.121689208,1.066169500,-0.252283573
91.551002,119.471656799,21.926269531,-13.948860168,-0.129867926,1.064948797,-0.273035526
91.551628,119.029151917,22.025451660,-13.842048645,-0.130600348,1.060676336,-0.279505253
91.552253,118.327247620,22.078857422,-13.887825012,-0.132675543,1.065681219,-0.287561893
91.552878,117.846595764,22.254333496,-13.758125305,-0.132675543,1.061774969,-0.293909550
91.553505,117.449867249,22.010192871,-14.017524719,-0.135483161,1.057868719,-0.296595097
91.554130,116.961585999,21.941528320,-13.880195618,-0.137558356,1.053352118,-0.298548222
91.554755,116.770851135,22.086486816,-14.238777161,-0.140610114,1.059089422,-0.304529667
91.555382,115.962135315,21.933898926,-14.246406555,-0.136093512,1.067756414,-0.304285526
91.556011,114.756690979,21.849975586,-14.254035950,-0.131576911,1.076545477,-0.314539433
91.556637,112.963783264,21.560058594,-14.032783508,-0.144150153,1.101691961,-0.318201542
91.558517,105.586158752,20.415649414,-13.414802551,-0.168686286,1.098396063,-0.348963261
91.559143,103.404151917,20.095214844,-13.628425598,-0.165634528,1.073615789,-0.362390995
91.559768,101.519691467,19.523010254,-13.376655579,-0.167465582,1.049690008,-0.368982792
91.560395,99.719154358,18.843994141,-13.292732239,-0.168686286,1.040046453,-0.388758183
91.561020,97.643959045,17.882690430,-13.132514954,-0.166366950,1.020393133,-0.398767948
91.561647,96.140968323,17.089233398,-12.720527649,-0.170273200,1.010017157,-0.408899784
91.562273,94.172584534,15.891418457,-12.117805481,-0.178085700,1.010749578,-0.424646854
91.562900,92.005836487,14.724121094,-11.606636047,-0.178818122,1.007819891,-0.438684940
91.563527,89.984046936,13.861999512,-11.095466614,-0.175888434,1.008674383,-0.452845097
91.564153,87.603675842,12.732849121,-10.553779602,-0.173691168,1.005134344,-0.467981815
91.564780,85.475074768,11.985168457,-9.905281067,-0.181991950,0.996711552,-0.477991581
91.565405,83.354103088,11.084899902,-9.363594055,-0.181503668,0.979133427,-0.488977909
91.566031,81.896888733,10.100708008,-9.073677063,-0.184555426,0.955451787,-0.498499393
91.566656,80.302345276,8.925781250,-8.348884583,-0.183823004,0.935310185,-0.503626347
91.567281,78.791725159,7.850036621,-7.769050598,-0.186386481,0.924201787,-0.513514042
91.567907,76.991188049,6.499633789,-6.891670227,-0.188461676,0.911994755,-0.525843143
91.568532,74.984657288,5.164489746,-5.625190735,-0.187607184,0.911018193,-0.541101933
91.569158,73.062049866,3.417358398,-4.679145813,-0.188339606,0.901496708,-0.554163456
91.569783,71.742164612,2.013549805,-3.961982727,-0.193710700,0.891486943,-0.561853886
91.570410,70.765602112,0.869140625,-3.176155090,-0.193832770,0.885749638,-0.568323612
91.583102,62.991249084,-25.337829590,13.234672546,-0.147812262,0.810066044,-0.590784550
91.583843,63.685523987,-26.497497559,13.974723816,-0.145859137,0.814216435,-0.592493534
91.584468,64.089881897,-27.710571289,14.531669617,-0.150131598,0.827888310,-0.590296268
91.585094,64.822303772,-28.725280762,14.981803894,-0.153183356,0.833381474,-0.592615604
91.585721,65.280067444,-29.831542969,15.325126648,-0.147934332,0.841193974,-0.590662479
91.586347,65.829383850,-30.830993652,15.843925476,-0.145859137,0.852912724,-0.592493534
91.586973,66.485511780,-32.166137695,16.316947937,-0.148910895,0.862434208,-0.592981815
91.587600,66.790687561,-33.058776855,16.843376160,-0.151230231,0.868659794,-0.592127323
91.588227,67.317115784,-33.882751465,17.224845886,-0.144882575,0.872321904,-0.600183964
91.588853,67.950355530,-34.943237305,17.163810730,-0.128158942,0.877326787,-0.598719120
91.589479,68.743812561,-36.034240723,17.018852234,-0.098373778,0.888679326,-0.601526737
91.590105,70.132362366,-36.957397461,17.148551941,-0.072739013,0.906013310,-0.607019901
91.590732,71.818458557,-37.750854492,17.064628601,-0.046371825,0.937507451,-0.608240604
91.591359,73.969947815,-38.597717285,17.255363464,-0.037948973,0.973151982,-0.618616581
91.591985,75.862037659,-39.330139160,16.851005554,-0.036117919,1.010627508,-0.627039433
91.592611,77.281105042,-39.795532227,16.133842468,-0.034408934,1.050422430,-0.626795292
91.593237,78.539955139,-40.154113770,15.370903015,-0.023178466,1.089973211,-0.621546268
91.593862,79.836952209,-40.863647461,14.279899597,-0.013901123,1.132697821,-0.616663456
91.594487,81.278907776,-41.489257812,13.227043152,0.004043213,1.177131414,-0.606531620
91.595186,82.987892151,-42.046203613,11.998710632,0.017104737,1.219123602,-0.593836308
91.595811,84.979164124,-42.275085449,10.480461121,0.029067628,1.272956610,-0.582605839
91.596437,87.298500061,-42.748107910,8.405265808,0.033828370,1.331184149,-0.570642948
91.597063,88.832008362,-42.687072754,6.131706238,0.034316652,1.404914618,-0.561487675
91.597689,90.968238831,-42.969360352,3.255424500,0.036269777,1.481574774,-0.552576542
91.598316,92.539894104,-43.251647949,0.173149109,0.038833253,1.564094305,-0.536219120
91.598941,94.386207581,-43.526306152,-3.351631165,0.042129152,1.646857977,-0.516565800
91.599568,95.637428284,-43.778076172,-6.906929016,0.032973878,1.725715399,-0.493372440
91.600194,96.606361389,-44.098510742,-10.691108704,0.017715089,1.796516180,-0.468958378
91.600819,96.888648987,-44.212951660,-15.253486633,-0.003769287,1.856574774,-0.437464237
91.601444,96.675025940,-44.403686523,-19.495429993,-0.023422606,1.898444891,-0.396204472
91.602069,95.355140686,-44.342651367,-23.950996399,-0.041489013,1.902351141,-0.347742558
91.602695,92.654335022,-44.357910156,-27.452888489,-0.052109130,1.869025946,-0.293543339
91.603321,89.068519592,-44.273986816,-30.756416321,-0.049667723,1.803596258,-0.233240604
91.603946,84.437477112,-44.136657715,-33.045234680,-0.033188231,1.709968328,-0.174524784
91.604573,79.157936096,-43.717041016,-34.761848450,-0.015121826,1.602302313,-0.124109745
91.605199,74.259864807,-43.167724609,-35.608711243,-0.002914795,1.503181219,-0.087732792
91.605825,68.980323792,-42.465820312,-35.677375793,0.003432862,1.415168524,-0.070887089
91.606486,64.028846741,-42.099609375,-35.196723938,0.000381104,1.335578680,-0.073816776
91.607120,59.290992737,-41.206970215,-34.738960266,-0.010361084,1.264777899,-0.085413456
91.608991,50.105201721,-39.604797363,-32.869758606,-0.072983153,1.122810125,-0.191492558
91.609616,49.021827698,-39.421691895,-32.053413391,-0.070663817,1.075324774,-0.227869511
91.610242,48.785316467,-39.230957031,-31.290473938,-0.070419677,1.052863836,-0.256433964
91.610867,49.204933167,-39.322509766,-30.306282043,-0.066269286,1.027961493,-0.289637089
91.611493,49.876319885,-39.276733398,-29.390754700,-0.054062255,1.015022039,-0.307215214
91.612119,50.868141174,-39.238586426,-28.521003723,-0.033798583,1.013435125,-0.321375370
91.612745,51.791297913,-38.277282715,-27.773323059,-0.017685302,1.011115789,-0.330408573
91.613371,52.706825256,-37.491455078,-27.010383606,-0.005478271,1.000617743,-0.334558964
91.626095,58.581459045,-26.550903320,-20.365180969,-0.068222411,1.054450750,-0.106531620
91.626868,56.895362854,-26.169433594,-20.403327942,-0.073715575,1.054328680,-0.094812870
91.627493,54.827796936,-25.635375977,-19.998970032,-0.077377684,1.056403875,-0.087488651
91.628118,52.561866760,-25.047912598,-19.785346985,-0.077988036,1.056281805,-0.078943729
91.628744,50.303565979,-24.330749512,-19.564094543,-0.081039794,1.053230047,-0.076014042
91.629370,48.159706116,-23.804321289,-19.442024231,-0.081894286,1.052741766,-0.071253300
91.629996,46.259986877,-23.361816406,-19.281806946,-0.086655028,1.054816961,-0.070642948
91.630622,44.352638245,-22.659912109,-19.007148743,-0.090439208,1.051887274,-0.070398808
91.631249,42.491065979,-21.942749023,-19.243659973,-0.092270263,1.048103094,-0.071009159
91.631874,40.698158264,-21.347656250,-18.701972961,-0.096542723,1.046638250,-0.076380253
91.632499,39.248573303,-21.072998047,-18.579902649,-0.096786864,1.033088446,-0.079920292
91.633124,37.921058655,-20.477905273,-18.434944153,-0.093124755,1.023200750,-0.084192753
91.633750,36.898719788,-19.661560059,-18.038215637,-0.093246825,1.011115789,-0.096888065
91.634377,36.067115784,-19.409790039,-17.687263489,-0.090805419,0.995612919,-0.104456425
91.635023,35.616981506,-18.532409668,-17.366828918,-0.088241942,0.983039677,-0.119104862
91.635649,35.281288147,-17.967834473,-17.000617981,-0.089340575,0.967780888,-0.128992558
91.636274,35.288917542,-17.166748047,-16.756477356,-0.084457763,0.948371708,-0.140955448
91.636900,35.891639709,-16.564025879,-16.375007629,-0.081772216,0.932746708,-0.158777714
91.637526,36.837684631,-15.923156738,-15.894355774,-0.080673583,0.923347294,-0.172205448
91.638153,38.088905334,-15.221252441,-15.612068176,-0.083847411,0.914680302,-0.188684940
91.638778,39.378273010,-14.565124512,-15.207710266,-0.080063231,0.913825810,-0.198450565
91.639404,40.957557678,-13.703002930,-14.849128723,-0.080917723,0.905525029,-0.210291386
91.640031,42.742835999,-13.054504395,-14.521064758,-0.079574950,0.903083622,-0.218470097
91.640658,44.558631897,-12.360229492,-14.475288391,-0.073593505,0.902107060,-0.224085331
91.641284,46.168434143,-11.566772461,-13.803901672,-0.070907958,0.897346318,-0.225794315
91.641909,47.831642151,-10.613098145,-13.460578918,-0.064316161,0.893928349,-0.228113651
91.642536,49.563514709,-9.956970215,-13.201179504,-0.062118895,0.891975224,-0.226404667
91.643163,50.891029358,-9.087219238,-12.552680969,-0.058578856,0.886115849,-0.225794315
91.643789,52.264320374,-8.148803711,-12.178840637,-0.055405028,0.886359990,-0.221033573
91.644416,53.332435608,-7.202758789,-11.705818176,-0.053940184,0.889289677,-0.218103886
91.645042,54.537879944,-6.477966309,-11.293830872,-0.051498778,0.894416630,-0.215174198
91.645669,55.560218811,-5.730285645,-10.584297180,-0.052353270,0.903205693,-0.213221073
91.646294,56.330787659,-5.020751953,-10.508003235,-0.057602294,0.906501591,-0.209558964
91.646919,56.941139221,-4.212036133,-9.882392883,-0.062240966,0.914192021,-0.212366581
91.647545,57.421791077,-3.677978516,-9.432258606,-0.058822997,0.922370732,-0.210779667
91.648171,57.704078674,-3.067626953,-9.188117981,-0.062973388,0.935432255,-0.214441776
91.648798,57.917701721,-2.449645996,-8.882942200,-0.065781005,0.942878544,-0.218592167
91.649425,58.184730530,-2.091064453,-8.661689758,-0.067612059,0.955085576,-0.224207401
91.650051,58.138954163,-1.633300781,-8.181037903,-0.072006591,0.967048466,-0.228601933
91.650677,57.635414124,-1.038208008,-7.959785461,-0.074814208,0.971442997,-0.239099979
91.651304,57.414161682,-0.450744629,-7.845344543,-0.074570067,0.979987919,-0.247644901
91.651929,57.177650452,-0.389709473,-7.593574524,-0.077133544,0.990485966,-0.260950565
91.652554,57.177650452,0.136718750,-7.227363586,-0.082016356,0.997932255,-0.273767948
91.653180,57.063209534,0.403747559,-7.418098450,-0.083603270,1.007941961,-0.287317753
91.653806,56.773292542,0.563964844,-7.296028137,-0.086655028,1.012458563,-0.297815800
91.654432,56.658851624,1.067504883,-7.257881165,-0.087387450,1.017097235,-0.319056034
91.668447,89.602577209,-2.701416016,-12.438240051,-0.126694098,1.047126532,-0.569300175
91.669271,91.891395569,-3.105773926,-12.804450989,-0.126694098,1.050544500,-0.567713261
91.669896,94.416725159,-3.494873047,-13.445320129,-0.129623786,1.049445868,-0.569544315
91.670523,96.972572327,-4.082336426,-13.697090149,-0.130234137,1.051521063,-0.575525761
91.671148,99.581825256,-4.509582520,-14.460029602,-0.130356207,1.051154852,-0.574060917
91.671773,102.130043030,-5.280151367,-15.001716614,-0.130356207,1.055427313,-0.572718143
91.672399,104.548561096,-5.760803223,-15.741767883,-0.131576911,1.058357000,-0.577356815
91.673024,107.073890686,-6.584777832,-16.558113098,-0.130234137,1.061652899,-0.577356815
91.673649,109.652626038,-7.088317871,-17.076911926,-0.134628668,1.062385321,-0.580652714
91.674275,112.361061096,-7.835998535,-17.893257141,-0.130356207,1.065681219,-0.582605839
91.674900,115.351783752,-8.782043457,-19.022407532,-0.123520263,1.068732977,-0.584558964
91.675525,118.479835510,-9.674682617,-20.006599426,-0.126938239,1.079841375,-0.588221073
91.676152,121.813880920,-10.086669922,-20.937385559,-0.135239020,1.097907782,-0.592859745
91.676777,124.751197815,-10.697021484,-22.242012024,-0.152084723,1.112800360,-0.600183964
91.677402,127.345191956,-11.475219727,-23.157539368,-0.164780036,1.114875555,-0.602503300
91.678029,130.053619385,-12.322082520,-24.202766418,-0.168808356,1.105354071,-0.601648808
91.678656,132.601837158,-13.115539551,-25.629463196,-0.170395270,1.085334539,-0.597986698
91.679281,135.279754639,-14.305725098,-26.331367493,-0.159042731,1.065070868,-0.593225956
91.679908,137.843231201,-15.312805176,-27.323188782,-0.158920661,1.045173407,-0.592859745
91.680534,140.925506592,-16.091003418,-27.933540344,-0.156601325,1.028083563,-0.591150761
91.681159,144.030670166,-16.930236816,-28.429450989,-0.161728278,1.008796453,-0.598230839
91.681786,147.097686768,-17.967834473,-29.032173157,-0.164047614,0.995002568,-0.603235722
91.682413,150.370697021,-18.692626953,-29.901924133,-0.173324957,0.980842412,-0.610437870
91.683039,153.445343018,-19.280090332,-30.519905090,-0.177841559,0.969611943,-0.618006229
91.683665,156.832794189,-20.538940430,-31.099739075,-0.184921637,0.966926396,-0.626062870
91.684290,160.510162354,-21.423950195,-31.473579407,-0.187729254,0.966438115,-0.637537479
91.684916,163.889984131,-22.247924805,-31.938972473,-0.195419684,0.965827763,-0.650599003
91.685541,167.170623779,-23.430480957,-32.556953430,-0.205185309,0.964851201,-0.660608768
91.686166,170.870880127,-24.582519531,-32.900276184,-0.211288825,0.961433232,-0.667078495
91.686793,173.945526123,-25.673522949,-33.457221985,-0.216293707,0.953620732,-0.671473026
91.687418,177.256683350,-26.642456055,-34.037055969,-0.220444098,0.946174443,-0.679041386
91.688044,180.468658447,-27.672424316,-34.349861145,-0.221908942,0.932990849,-0.680750370
91.688669,183.543304443,-28.694763184,-34.441413879,-0.222885504,0.922004521,-0.685022831
91.689294,186.640838623,-29.579772949,-34.601631165,-0.222519293,0.912360966,-0.687952518
91.689919,189.509490967,-30.533447266,-34.883918762,-0.228866950,0.898322880,-0.690027714
91.690544,192.423919678,-31.525268555,-34.670295715,-0.233383551,0.886726201,-0.689905643
91.691169,195.071319580,-32.456054688,-34.952583313,-0.240829840,0.873664677,-0.687708378
91.691794,197.795013428,-33.463134766,-34.876289368,-0.244614020,0.861457646,-0.682337284
91.692420,200.381378174,-34.577026367,-34.883918762,-0.246811286,0.860359013,-0.681849003
91.693047,202.624420166,-35.545959473,-34.532966614,-0.245956793,0.861091435,-0.678431034
91.693674,204.844573975,-36.759033203,-34.273567200,-0.250839591,0.859016240,-0.674524784
91.694301,206.675628662,-37.560119629,-34.326972961,-0.254745841,0.861579716,-0.667932987
91.694926,208.544830322,-38.529052734,-33.960762024,-0.254867911,0.861091435,-0.661585331
91.695552,210.063079834,-39.482727051,-33.861579895,-0.257187247,0.860847294,-0.657312870
91.696177,211.154083252,-40.344848633,-33.380928040,-0.254135489,0.863166630,-0.651941776
91.696802,212.634185791,-41.115417480,-32.930793762,-0.252060294,0.855476201,-0.639734745
91.709435,218.569854736,-47.112121582,-20.784797668,-0.295761466,0.796760380,-0.444544315
91.710151,218.806365967,-47.196044922,-20.327033997,-0.298691154,0.795783818,-0.439661503
91.710777,219.409088135,-46.913757324,-19.579353333,-0.302231193,0.796638310,-0.431238651
91.711403,219.996551514,-46.761169434,-18.816413879,-0.307358146,0.793586552,-0.420374393
91.712029,220.828155518,-46.410217285,-18.389167786,-0.310043693,0.794685185,-0.415491581
91.712656,221.743682861,-46.150817871,-17.923774719,-0.313217521,0.793952763,-0.405970097
91.713282,222.872833252,-45.616760254,-17.534675598,-0.313827872,0.795905888,-0.401941776
91.713908,223.849395752,-45.151367188,-16.970100403,-0.319687247,0.794074833,-0.392176151
91.714535,224.948028564,-44.899597168,-16.489448547,-0.319809318,0.791023076,-0.387171268
91.715161,226.237396240,-44.510498047,-16.375007629,-0.325790763,0.795661747,-0.374842167
91.715787,227.915863037,-43.915405273,-15.795173645,-0.337509513,0.790290654,-0.367273808
91.716412,229.403594971,-43.388977051,-15.573921204,-0.356552482,0.787238896,-0.358362675
91.717037,230.631927490,-42.603149414,-14.704170227,-0.380112052,0.771247685,-0.347986698
91.718840,236.239532471,-40.543212891,-13.719978333,-0.397446036,0.718269169,-0.297449589
91.719465,238.246063232,-40.215148926,-13.185920715,-0.394394279,0.718513310,-0.289148808
91.720091,240.542510986,-39.833679199,-12.758674622,-0.387558341,0.715949833,-0.283899784
91.720718,242.495635986,-39.353027344,-11.927070618,-0.388046622,0.712776005,-0.276941776
91.721343,245.310882568,-38.643493652,-11.721076965,-0.386947989,0.717658818,-0.280359745
91.721970,248.149017334,-38.017883301,-11.743965149,-0.392563224,0.725959599,-0.282679081
91.722595,249.507049561,-37.308349609,-11.576118469,-0.393173575,0.740363896,-0.287806034
91.723220,249.507049561,-36.575927734,-11.209907532,-0.389023185,0.746955693,-0.287561893
91.723846,249.507049561,-36.041870117,-11.217536926,-0.379135489,0.741218388,-0.287317753
91.724472,249.507049561,-34.981384277,-10.622444153,-0.363632560,0.736213505,-0.274012089
91.725098,249.507049561,-34.142150879,-10.561408997,-0.346542716,0.720344365,-0.261927128
91.725725,249.507049561,-33.089294434,-10.103645325,-0.330917716,0.708137333,-0.244471073
91.726350,249.507049561,-31.983032227,-9.661140442,-0.314804435,0.697028935,-0.225428104
91.726977,249.507049561,-30.777587891,-8.966865540,-0.297104239,0.683845341,-0.204065800
91.727604,249.507049561,-29.251708984,-8.486213684,-0.279526114,0.671638310,-0.185999393
91.728230,249.507049561,-27.748718262,-7.997932434,-0.268661857,0.658698857,-0.165369511
91.728855,249.507049561,-26.054992676,-7.288398743,-0.265243888,0.648200810,-0.149500370
91.729481,249.507049561,-24.681701660,-6.830635071,-0.251205802,0.632575810,-0.136072636
91.730107,249.507049561,-23.049011230,-6.586494446,-0.241440192,0.629157841,-0.121790409
91.730732,249.507049561,-21.538391113,-6.098213196,-0.230331793,0.628059208,-0.109827518
91.731357,249.507049561,-20.081176758,-5.579414368,-0.221176520,0.628425419,-0.101038456
91.731982,249.507049561,-18.540039062,-5.220832825,-0.208969489,0.628425419,-0.083460331
91.732609,249.507049561,-17.006530762,-4.991950989,-0.197128668,0.625007451,-0.074305058
91.733234,249.507049561,-15.297546387,-4.595222473,-0.190903082,0.624030888,-0.066980839
91.733860,249.507049561,-13.779296875,-4.564704895,-0.182968512,0.621955693,-0.055994511
91.734486,249.507049561,-11.986389160,-4.167976379,-0.175278082,0.616706669,-0.045252323
91.735113,249.507049561,-10.491027832,-3.817024231,-0.160751715,0.617317021,-0.041956425
91.735740,249.507049561,-9.247436523,-3.763618469,-0.152695075,0.613532841,-0.040247440
91.736366,249.507049561,-7.523193359,-3.282966614,-0.151596442,0.610847294,-0.038660526
91.736992,249.507049561,-5.966796875,-3.359260559,-0.149521247,0.595832646,-0.040735722
91.737617,249.507049561,-4.868164062,-3.008308411,-0.149399176,0.583503544,-0.042566776
91.738261,249.507049561,-3.098144531,-2.687873840,-0.146591559,0.575324833,-0.049280643
91.738887,249.507049561,-1.648559570,-2.390327454,-0.134872809,0.555427372,-0.053186893
91.751676,249.507049561,8.796081543,8.763847351,-0.589096427,-0.418083370,-0.077356815
91.752466,249.507049561,-0.267639160,11.189994812,-0.491318107,-0.373283565,-0.163416386
91.753092,249.507049561,-1.869812012,11.510429382,-0.373031974,-0.323600948,-0.201136112
91.753717,249.507049561,-0.847473145,11.220512390,-0.318588614,-0.199577510,-0.240931034
91.754342,249.507049561,0.388488770,11.884269714,-0.280746818,-0.090080440,-0.287439823
91.754967,249.507049561,2.089843750,12.898979187,-0.227035895,-0.037590209,-0.298182011
91.755593,249.507049561,4.371032715,13.852653503,-0.219223395,0.040412720,-0.293177128
91.756218,249.507049561,5.805358887,14.623222351,-0.233139411,0.114143193,-0.296350956
91.756845,249.507049561,6.812438965,15.500602722,-0.209946051,0.171882451,-0.285730839
91.757471,249.507049561,8.414611816,15.439567566,-0.192978278,0.243781865,-0.269495487
91.758096,249.507049561,9.787902832,15.828666687,-0.159653082,0.330573857,-0.265345097
91.758723,249.507049561,11.504516602,15.943107605,-0.120468505,0.427985966,-0.282679081
91.759349,249.507049561,13.579711914,16.706047058,-0.106430419,0.505622685,-0.295862675
91.759975,249.507049561,15.746459961,17.003593445,-0.069809325,0.573005497,-0.291712284
91.767191,249.507049561,62.552795410,10.556755066,-0.128525153,1.370612860,0.065831661
91.769121,249.507049561,72.707519531,7.787284851,-0.155258551,1.324958563,0.151158810
91.769747,249.507049561,75.705871582,7.031974792,-0.141464606,1.271735907,0.147740841
91.770373,249.507049561,78.887329102,5.757865906,-0.112045653,1.195564032,0.157018185
91.770999,249.507049561,82.145080566,3.606376648,-0.120102294,1.142463446,0.148961544
91.771625,249.507049561,85.105285645,1.836357117,-0.140976325,1.102668524,0.128697872
91.772251,249.507049561,88.256225586,1.607475281,-0.204574957,1.144294500,0.034459591
91.772877,249.507049561,90.155944824,2.095756531,-0.220199957,1.174690008,-0.068933964
91.773503,249.507049561,91.399536133,2.210197449,-0.267563224,1.103767157,-0.155603886
91.774130,249.507049561,94.230041504,3.125724792,-0.247299567,0.960334599,-0.164270878
91.774756,249.507049561,97.403869629,2.660331726,-0.194809332,0.809455693,-0.148523808
91.775383,249.507049561,100.440368652,2.126274109,-0.220199957,0.739875615,-0.207849979
91.776012,249.507049561,101.111755371,2.637443542,-0.224106207,0.759651005,-0.267420292
91.776637,249.507049561,100.753173828,3.278312683,-0.181503668,0.752815068,-0.336512089
91.777262,249.507049561,101.783142090,4.483757019,-0.148178473,0.789192021,-0.403162479
91.777888,249.507049561,103.934631348,4.514274597,-0.147812262,0.814460576,-0.470179081
91.778514,249.507049561,106.742248535,3.812370300,-0.159042731,0.820686162,-0.533411503
91.779140,249.507049561,109.328613281,2.683219910,-0.178329840,0.815437138,-0.565638065
91.779767,249.507049561,111.457214355,1.500663757,-0.200058356,0.788215458,-0.573938847
91.780393,249.507049561,112.883911133,0.455436707,-0.153793707,0.792243779,-0.617762089
91.781018,249.507049561,114.135131836,1.126823425,-0.059555419,0.804572880,-0.777063847
91.781645,249.507049561,114.844665527,2.370414734,-0.079574950,0.841316044,-0.934778690
91.782272,249.507049561,116.011962891,3.812370300,-0.053329833,0.750251591,-0.973597050
91.782899,249.507049561,117.385253906,3.675041199,-0.110824950,0.701667607,-0.973352909
91.783524,249.507049561,117.400512695,2.713737488,-0.246933356,0.725959599,-0.936243534
91.784149,249.507049561,115.805969238,2.431449890,-0.238266364,0.697883427,-0.871668339
91.784775,249.507049561,113.250122070,1.523551941,-0.257675529,0.751472294,-0.825769901
91.785401,249.507049561,109.160766602,1.431999207,-0.228134528,0.795173466,-0.783777714
91.786026,249.507049561,106.635437012,1.660881042,-0.125839606,0.793220341,-0.758631229
91.786652,247.614959717,105.140075684,1.645622253,-0.084946044,0.826667607,-0.765223026
91.787277,236.582855225,104.476318359,1.554069519,-0.073105223,0.833991826,-0.799402714
91.787902,225.009063721,104.682312012,0.966606140,-0.070541747,0.809821904,-0.837732792
91.800573,123.034584045,57.662353516,-1.169624329,-0.011215576,0.533454716,-0.871546268
91.801316,118.052589417,57.273254395,-1.299324036,0.004165283,0.553474247,-0.823328495
91.801941,112.658607483,57.463989258,-1.184883118,0.024795167,0.572151005,-0.776941776
91.802567,106.616127014,57.807312012,-1.192512512,0.027236573,0.589240849,-0.731775761
91.803192,100.436317444,57.891235352,-1.131477356,0.028091066,0.601569951,-0.688929081
91.803817,94.012367249,57.860717773,-0.925483704,0.024428956,0.607795537,-0.640467167
91.804442,87.382423401,57.868347168,-0.750007629,0.016738527,0.614875615,-0.596277714
91.805068,80.546485901,57.731018066,-0.978889465,0.021865480,0.617561162,-0.560144901
91.805694,73.535072327,57.944641113,-0.780525208,0.020156495,0.623420537,-0.525476933
91.806320,65.913307190,58.303222656,-0.818672180,0.028945558,0.629768193,-0.501184940
91.806945,58.482276917,59.012756348,-1.085700989,0.040664308,0.633186162,-0.474695683
91.807571,50.746070862,60.050354004,-0.963630676,0.052260987,0.636359990,-0.459436893
91.808196,42.842018127,61.141357422,-0.864448547,0.057387941,0.635261357,-0.446863651
