time,gyro x,gyro y,gyro z,accel x,accel y,accel z
29.007062,-21.932220459,-9.732734680,19.492851257,-0.367379040,0.344213992,0.581364632
29.007753,-23.969268799,-11.067878723,19.202934265,-0.360298961,0.343115360,0.585759163
29.008379,-26.486968994,-12.288581848,19.202934265,-0.354561657,0.347998172,0.592473030
29.009010,-28.516387939,-13.577949524,19.050346375,-0.356270641,0.341894656,0.594059944
29.009636,-30.637359619,-14.768135071,18.996940613,-0.349312633,0.341528445,0.605290413
29.010263,-32.430267334,-16.232978821,19.019828796,-0.340767711,0.340185672,0.613713264
29.010889,-34.299468994,-17.331611633,18.905387878,-0.337593883,0.337622195,0.620060921
29.011515,-36.008453369,-18.437873840,18.913017273,-0.333565563,0.337133914,0.627018929
29.012141,-37.755584717,-19.727241516,18.951164246,-0.326729625,0.331274539,0.632878304
29.012768,-39.189910889,-20.535957336,18.867240906,-0.323677868,0.324316531,0.636906624
29.013393,-40.181732178,-21.390449524,18.928276062,-0.315377086,0.321508914,0.644108772
29.014018,-41.265106201,-22.573005676,18.981681824,-0.310860485,0.318213016,0.655583382
29.014643,-42.119598389,-23.274909973,18.768058777,-0.309395641,0.310766727,0.665715218
29.015268,-42.790985107,-24.144660950,18.569694519,-0.305489391,0.311010867,0.673039436
29.015894,-43.546295166,-24.922859192,18.790946960,-0.306343883,0.308813602,0.686711311
29.016520,-43.851470947,-25.617134094,18.539176941,-0.303292125,0.305273563,0.694279671
29.017145,-44.507598877,-26.219856262,18.256889343,-0.303658336,0.304907352,0.706120491
29.017772,-44.667816162,-26.952278137,17.982231140,-0.299874157,0.309790164,0.717839241
29.018398,-44.896697998,-27.432929993,17.791496277,-0.295113415,0.301611453,0.730656624
29.019023,-45.163726807,-28.203498840,17.371879578,-0.290596813,0.299414188,0.738835335
29.019650,-44.919586182,-28.317939758,17.150627136,-0.284005016,0.302343875,0.750554085
29.020275,-44.805145264,-28.874885559,16.868339539,-0.283638805,0.296484500,0.757145882
29.020900,-44.866180420,-29.149543762,16.402946472,-0.282418102,0.293798953,0.769474983
29.021527,-44.637298584,-29.378425598,16.135917664,-0.279366344,0.294653445,0.783879280
29.023257,-43.172454834,-29.889595032,15.456901550,-0.272286266,0.306128055,0.824406624
29.023882,-42.722320557,-29.912483215,14.602409363,-0.284981579,0.282446414,0.838444710
29.024508,-42.485809326,-30.133735657,13.473258972,-0.298165172,0.270361453,0.844426155
29.025133,-42.470550537,-31.140815735,13.168083191,-0.289864391,0.288672000,0.852482796
29.025759,-41.852569580,-31.156074524,12.733207703,-0.273506969,0.309423953,0.874699593
29.043715,-14.981842041,-28.684150696,-4.806770325,-0.142525509,0.316381961,1.110173225
29.044341,-14.241790771,-28.096687317,-5.554450989,-0.137154415,0.308813602,1.121281624
29.044968,-13.158416748,-27.867805481,-6.233467102,-0.128731564,0.313696414,1.131901741
29.045594,-12.128448486,-27.738105774,-6.996406555,-0.118111446,0.310034305,1.136906624
29.046219,-11.319732666,-27.356636047,-7.332099915,-0.113961056,0.311987430,1.147282600
29.046846,-10.480499268,-27.165901184,-8.102668762,-0.106758907,0.308813602,1.155217171
29.047471,-9.732818604,-26.883613586,-8.468879700,-0.106148556,0.303442508,1.159977913
29.048098,-8.565521240,-26.555549622,-9.140266418,-0.098824337,0.301489383,1.168644905
29.048724,-7.459259033,-26.311408997,-9.765876770,-0.093941525,0.297094852,1.173649788
29.049351,-6.345367432,-25.792610168,-10.238899231,-0.087960079,0.293310672,1.179020882
29.049977,-5.307769775,-25.228034973,-11.070503235,-0.081978634,0.286474735,1.181096077
29.050604,-4.262542725,-24.938117981,-11.802925110,-0.074898556,0.288794070,1.179875374
29.051229,-2.873992920,-24.228584290,-12.283576965,-0.067452267,0.283789188,1.182927132
29.051854,-1.752471924,-23.511421204,-12.733711243,-0.063546017,0.282446414,1.194035530
29.052481,-0.875091553,-22.649299622,-13.572944641,-0.062081177,0.281225711,1.197453499
29.053106,0.337982178,-22.130500793,-13.954414368,-0.056954224,0.275000125,1.205265999
29.053731,1.573944092,-21.161567688,-14.381660461,-0.052803833,0.274267703,1.205998421
29.054356,2.718353271,-20.322334290,-15.083564758,-0.052559692,0.270483524,1.210881233
29.067092,9.760284424,-0.928413391,-24.765266418,-0.097115353,0.243750125,1.335515022
29.068076,9.363555908,-0.371467590,-25.024665833,-0.096993282,0.236425906,1.332829475
29.068702,8.974456787,0.681388855,-25.573982239,-0.099190548,0.226660281,1.330876350
29.069327,8.303070068,1.665580750,-25.894416809,-0.096138790,0.217871219,1.327946663
29.069982,7.883453369,2.466667175,-26.405586243,-0.096749142,0.207739383,1.329045296
29.070608,7.196807861,3.443229675,-26.573432922,-0.101509884,0.197729617,1.325627327
29.071233,7.028961182,4.404533386,-26.664985657,-0.098580196,0.192602664,1.320622444
29.071859,6.334686279,5.388725281,-27.107490540,-0.099556759,0.184057742,1.310368538
29.072484,5.785369873,6.426322937,-27.206672668,-0.104439571,0.176977664,1.305241585
29.073110,5.304718018,7.120597839,-27.313484192,-0.105294064,0.173681766,1.300358772
29.073735,4.496002197,8.310783386,-27.565254211,-0.109688595,0.166723758,1.299870491
29.074361,3.786468506,8.814323425,-27.603401184,-0.112618282,0.154760867,1.298405647
29.074986,3.328704834,9.668815613,-27.923835754,-0.119698361,0.149145633,1.294865608
29.075611,2.680206299,10.309684753,-28.053535461,-0.121651486,0.146338016,1.287175179
29.076238,1.795196533,10.866630554,-28.160346985,-0.126412228,0.137915164,1.276677132
29.076863,0.749969482,11.515129089,-27.870429993,-0.131661251,0.131445438,1.269108772
29.077489,0.162506104,11.995780945,-27.809394836,-0.131295040,0.123755008,1.270695686
29.078116,-0.989532471,12.278068542,-27.900947571,-0.135201290,0.115942508,1.260319710
29.078741,-1.691436768,12.690055847,-27.656806946,-0.136421993,0.113745242,1.253849983
29.079368,-2.538299561,12.926567078,-27.595771790,-0.135323361,0.109594852,1.243351936
29.079993,-3.575897217,13.269889832,-27.809394836,-0.138253048,0.104589969,1.234196663
29.080619,-4.697418213,13.514030457,-27.588142395,-0.134835079,0.097143680,1.227116585
29.081245,-6.017303467,13.727653503,-27.237190247,-0.138619259,0.084814578,1.218083382
29.081870,-6.826019287,13.895500183,-27.153266907,-0.138130978,0.080175906,1.209050179
29.082497,-8.008575439,14.017570496,-26.741279602,-0.139595821,0.079077274,1.202336311
29.083122,-9.160614014,14.162528992,-26.596321106,-0.138619259,0.071386844,1.193791389
29.083748,-10.419464111,14.376152039,-26.260627747,-0.141304806,0.063452274,1.182072639
29.084373,-11.762237549,14.261711121,-26.207221985,-0.144234493,0.061010864,1.175114632
29.084999,-12.937164307,14.208305359,-25.680793762,-0.147896603,0.053930786,1.169377327
29.085625,-14.279937744,13.979423523,-25.528205872,-0.149361446,0.056982543,1.165593147
29.086250,-15.508270264,13.750541687,-25.070442200,-0.146553829,0.054663207,1.156804085
29.086876,-17.201995850,13.651359558,-24.505867004,-0.149849728,0.051855590,1.147770882
29.087502,-18.590545654,13.193595886,-24.254096985,-0.155953243,0.046484496,1.140446663
29.088129,-20.146942139,12.339103699,-23.552192688,-0.161446407,0.040625121,1.129216194
29.088756,-21.741485596,12.056816101,-23.224128723,-0.165596798,0.034277465,1.121647835
29.089383,-23.069000244,11.568534851,-22.751106262,-0.166451290,0.034033325,1.110661507
29.090009,-24.274444580,10.958183289,-22.125495911,-0.172921017,0.038549926,1.103825569
29.090636,-26.349639893,10.286796570,-21.896614075,-0.179634884,0.037695434,1.091252327
29.091262,-28.081512451,9.470451355,-21.248115540,-0.185616329,0.035498168,1.086613655
29.091888,-29.553985596,8.768547058,-20.729316711,-0.192574337,0.030615356,1.080388069
29.092515,-31.255340576,8.028495789,-20.141853333,-0.199044064,0.029760864,1.075016975
29.093142,-33.132171631,7.212150574,-19.378913879,-0.205269650,0.034277465,1.067326546
29.093767,-34.696197510,6.258476257,-18.982185364,-0.209786251,0.034155395,1.064885139
29.094392,-36.588287354,5.243766785,-18.249763489,-0.221016720,0.030493286,1.062809944
29.095018,-38.060760498,4.267204285,-17.776741028,-0.233956173,0.026342895,1.060734749
29.095645,-39.868927002,3.054130554,-17.326606750,-0.243721798,0.026464965,1.058659554
29.096270,-41.623687744,1.818168640,-16.708625793,-0.248482540,0.026953246,1.054997444
29.108882,-71.981048584,-19.078742981,-3.792060852,-0.201607540,-0.044213746,1.290471077
29.109609,-72.209930420,-19.116889954,-3.448738098,-0.193795040,-0.045922730,1.310002327
29.110235,-72.560882568,-18.811714172,-2.601875305,-0.185982540,-0.049218629,1.330388069
29.110860,-72.599029541,-18.552314758,-2.098335266,-0.178780392,-0.056909058,1.347722054
29.111485,-72.705841064,-17.972480774,-1.610054016,-0.173531368,-0.057763550,1.370182991
29.112110,-72.858428955,-17.568122864,-0.908149719,-0.170357540,-0.064599484,1.388615608
29.112737,-72.713470459,-17.049324036,-0.541938782,-0.172798946,-0.072778195,1.412907600
29.113373,-72.194671631,-16.263496399,0.167594910,-0.167427853,-0.075463742,1.434514046
29.114046,-71.752166748,-15.828620911,0.823722839,-0.162667111,-0.079247922,1.452580452
29.114850,-71.279144287,-14.928352356,1.144157410,-0.159127071,-0.088281125,1.468937874
29.115700,-70.569610596,-14.302742004,1.823173523,-0.158028439,-0.091577023,1.488591194
29.116520,-68.235015869,-12.540351868,2.570854187,-0.146553829,-0.104882687,1.517521858
29.117372,-66.953277588,-11.701118469,2.601371765,-0.135689571,-0.108056515,1.530461311
29.118170,-65.412139893,-10.755073547,3.165946960,-0.124947384,-0.106225461,1.544499397
29.118906,-61.856842041,-8.389961243,3.768669128,-0.106270626,-0.121240109,1.562932014
29.119533,-59.758758545,-7.314216614,3.776298523,-0.101143673,-0.123559445,1.574650764
29.120159,-57.530975342,-6.017219543,3.989921570,-0.091255978,-0.128320187,1.586247444
29.120786,-55.013275146,-4.727851868,4.180656433,-0.073067501,-0.126855344,1.594059944
29.121411,-52.381134033,-3.064643860,4.234062195,-0.059883911,-0.130517453,1.604191780
29.122037,-49.527740479,-1.889717102,4.150138855,-0.045357544,-0.130395383,1.612248421
29.123796,-43.782806396,1.406181335,3.982292175,-0.012276489,-0.129052609,1.629948616
29.124421,-40.715789795,2.977836609,3.799186707,0.006888550,-0.125390500,1.639470100
29.125046,-37.633514404,4.816520691,3.936515808,0.029349487,-0.124047726,1.647038460
29.125671,-34.345245361,6.578910828,3.669487000,0.045462769,-0.124413937,1.656437874
29.126296,-30.889129639,8.158195496,3.791557312,0.059134644,-0.122338742,1.664372444
29.126922,-27.326202393,9.928215027,3.692375183,0.077933475,-0.119409055,1.670720100
29.127548,-24.083709717,11.850822449,3.371940613,0.092703983,-0.124291867,1.680607796
29.128288,-16.652679443,15.085685730,3.165946960,0.129935429,-0.108300656,1.695256233
29.129100,-12.761688232,17.023551941,2.952323914,0.132498905,-0.104638547,1.685002327
29.129899,-8.740997314,17.794120789,2.952323914,0.136649296,-0.099999875,1.672673225
29.130673,-5.071258545,18.908012390,2.639518738,0.155081913,-0.079369992,1.674748421
29.131535,1.642608643,22.623527527,1.937614441,0.199027225,-0.071557492,1.690007210
29.132382,5.205535889,24.698722839,1.991020203,0.219046757,-0.066430539,1.686223030
29.133221,9.127044678,26.285636902,1.754508972,0.232352421,-0.051415894,1.686223030
29.134056,15.589141846,29.894340515,1.014457703,0.243827030,-0.027490113,1.678898811
29.134893,18.999481201,31.847465515,0.564323425,0.248343632,-0.020043824,1.674015999
29.135696,22.570037842,33.403862000,0.449882507,0.258231312,-0.007104371,1.670109749
29.136444,28.734588623,37.638175964,-0.183357239,0.276419789,0.018408325,1.661564827
29.137069,31.572723389,39.461601257,-0.709785461,0.280936390,0.034887817,1.658513069
29.137696,34.151458740,41.811454773,-0.831855774,0.284476429,0.041967895,1.656193733
29.138321,36.974334717,43.673027039,-1.320137024,0.285819203,0.058325317,1.652165413
29.138947,39.476776123,45.855033875,-1.564277649,0.282523304,0.074804813,1.647892952
29.139573,41.887664795,47.770011902,-2.022041321,0.282401234,0.095556766,1.644963264
29.140198,43.741607666,49.692619324,-2.495063782,0.277762562,0.118017703,1.636540413
29.140824,45.511627197,51.828849792,-2.899421692,0.276053578,0.139135867,1.633366585
29.141449,46.999359131,53.385246277,-3.410591125,0.273856312,0.154760867,1.628483772
29.142075,48.303985596,55.086601257,-3.845466614,0.268729359,0.171484500,1.624821663
29.154718,13.147735596,83.643424988,-13.946784973,0.274100453,0.610815525,1.326359749
29.155466,8.242034912,84.635246277,-14.633430481,0.267264515,0.621679783,1.303410530
29.156092,3.519439697,85.787284851,-15.098823547,0.264945179,0.641455173,1.280827522
29.156718,-1.294708252,86.702812195,-15.808357239,0.258353382,0.657568455,1.259953499
29.157344,-6.551361084,87.625968933,-16.380561829,0.251517445,0.673071384,1.239689827
29.157969,-11.716461182,88.083732605,-16.624702454,0.248221561,0.685278416,1.211003304
29.158594,-16.828155518,88.846672058,-17.265571594,0.240042850,0.696630955,1.190983772
29.159221,-22.252655029,89.083183289,-17.944587708,0.229911014,0.703711033,1.171574593
29.159846,-27.692413330,89.319694519,-18.493904114,0.219901249,0.709570408,1.144352913
29.160472,-33.071136475,89.762199402,-18.951667786,0.212210819,0.717382908,1.118718147
29.161097,-38.365936279,89.754570007,-19.424690247,0.200736210,0.718969822,1.098332405
29.161723,-43.706512451,89.739311218,-20.042671204,0.193411991,0.721899509,1.076970100
29.162349,-48.947906494,89.518058777,-20.736946106,0.188895389,0.720434666,1.051823616
29.162974,-54.113006592,89.243400574,-21.225227356,0.179740116,0.714819431,1.026799202
29.163601,-59.224700928,88.884819031,-22.064460754,0.175589725,0.715185642,1.006779671
29.164228,-64.160919189,88.449943542,-22.644294739,0.169852421,0.708960056,0.980168343
29.164853,-68.860626221,88.091362000,-23.384346008,0.167411014,0.706274509,0.959538460
29.165479,-73.499298096,87.336051941,-23.971809387,0.156058475,0.692724705,0.936100960
29.166105,-77.710723877,86.695182800,-24.444831848,0.151297733,0.679907322,0.914982796
29.166730,-81.800079346,85.863578796,-24.956001282,0.144461796,0.660131931,0.894352913
29.167356,-85.736846924,85.138786316,-25.810493469,0.137992069,0.638525486,0.873112679
29.167981,-89.185333252,83.979118347,-26.352180481,0.130789921,0.621435642,0.855534554
29.168606,-92.038726807,82.491386414,-26.924385071,0.129569218,0.598730564,0.837101936
29.169233,-95.029449463,81.415641785,-27.549995422,0.126761600,0.580786228,0.817814827
29.169858,-97.188568115,80.202568054,-28.038276672,0.117972538,0.553686619,0.799626350
29.170604,-99.393463135,78.730094910,-28.915657043,0.113333866,0.529150486,0.782292366
29.171229,-101.010894775,77.341545105,-29.571784973,0.109549686,0.505102634,0.763493538
29.171855,-102.460479736,75.960624695,-30.212654114,0.102103397,0.475561649,0.746647835
29.172480,-103.223419189,74.205863953,-30.876411438,0.090506718,0.446142703,0.728215218
29.173105,-104.001617432,72.550285339,-31.715644836,0.080619022,0.416479617,0.714177132
29.173730,-104.245758057,70.658195496,-32.203926086,0.070609257,0.388891727,0.695988655
29.174355,-103.742218018,68.682182312,-32.776130676,0.056693237,0.363867313,0.677433968
29.174980,-103.398895264,66.759574890,-33.355964661,0.050589722,0.334570438,0.658879280
29.175607,-102.323150635,64.898002625,-33.798469543,0.038504761,0.304174930,0.645695686
29.176233,-100.919342041,62.448966980,-34.393562317,0.024222534,0.280005008,0.620915413
29.176858,-99.034881592,60.564506531,-34.950508118,0.006034058,0.248266727,0.604069710
29.177485,-97.035980225,57.795036316,-35.820259094,-0.008004028,0.229345828,0.589543343
29.178110,-94.800567627,55.567253113,-36.346687317,-0.017281372,0.212866336,0.580388069
29.178737,-92.015838623,53.255546570,-37.018074036,-0.028511841,0.192602664,0.565495491
29.179362,-89.170074463,50.348747253,-37.506355286,-0.038643677,0.171118289,0.554997444
29.179989,-85.698699951,48.021781921,-38.254035950,-0.047798950,0.150854617,0.545475960
29.180615,-82.959747314,45.496452332,-38.986457825,-0.055855591,0.125830203,0.538151741
29.181240,-79.976654053,42.887199402,-39.764656067,-0.071846798,0.105810672,0.528874397
29.181865,-76.772308350,39.721000671,-40.191902161,-0.079293087,0.094702274,0.521550179
29.182490,-73.308563232,36.783683777,-40.848030090,-0.083199337,0.081274539,0.518986702
29.183116,-69.539642334,34.067619324,-41.366828918,-0.093575314,0.064306766,0.522282600
29.183742,-65.564727783,31.221855164,-41.786445618,-0.102242306,0.044775512,0.519597054
29.196343,9.386444092,-15.172492981,-52.215827942,-0.118477657,-0.119409055,0.679142952
29.197046,12.140655518,-16.751777649,-52.368415833,-0.119942501,-0.121728390,0.692936897
29.197671,14.620208740,-17.934333801,-52.597297668,-0.127266720,-0.128198117,0.696354866
29.198296,17.298126221,-18.888008118,-52.612556458,-0.130074337,-0.133080930,0.707951546
29.198922,19.792938232,-20.062934875,-52.665962219,-0.135323361,-0.142358273,0.716130257
29.199549,22.280120850,-21.291267395,-52.818550110,-0.142037228,-0.150903195,0.723942757
29.200174,24.675750732,-22.168647766,-52.910102844,-0.144722775,-0.157128781,0.732121468
29.200799,26.880645752,-23.206245422,-53.268684387,-0.149483517,-0.159326047,0.737736702
29.201424,28.955841064,-23.862373352,-53.306831360,-0.149239376,-0.162621945,0.743229866
29.202049,30.840301514,-24.899971008,-53.268684387,-0.157662228,-0.170190305,0.747014046
29.202674,33.014678955,-25.716316223,-53.299201965,-0.161446407,-0.178613156,0.753605843
29.203300,34.632110596,-26.418220520,-53.177131653,-0.169747189,-0.184716672,0.763005257
29.203925,36.501312256,-26.967536926,-53.184761047,-0.178292111,-0.188378781,0.770085335
29.204552,37.943267822,-27.707588196,-53.375495911,-0.185982540,-0.187646359,0.773991585
29.205179,39.133453369,-28.371345520,-53.222908020,-0.192574337,-0.192773312,0.780339241
29.205804,40.567779541,-29.096138000,-52.940620422,-0.202217892,-0.196313351,0.784977913
29.206430,41.880035400,-29.798042297,-52.780403137,-0.206124142,-0.199975461,0.793034554
29.207055,43.070220947,-30.324470520,-52.665962219,-0.215523556,-0.210107297,0.797673225
29.207680,43.772125244,-31.087409973,-52.551521301,-0.224556759,-0.216088742,0.803654671
29.208305,44.626617432,-31.598579407,-52.368415833,-0.229439571,-0.221215695,0.810246468
29.208930,45.458221436,-32.292854309,-51.986946106,-0.236397579,-0.225244015,0.812809944
29.209556,46.129608154,-33.040534973,-51.811470032,-0.240670040,-0.229150265,0.815739632
29.210181,46.640777588,-33.559333801,-51.307929993,-0.244942501,-0.229394406,0.820744514
29.210806,47.274017334,-33.933174133,-51.025642395,-0.250191540,-0.237695187,0.824284554
29.211432,47.518157959,-34.421455383,-50.445808411,-0.257637829,-0.246118039,0.825871468
29.212057,47.869110107,-34.902107239,-49.949897766,-0.263863415,-0.250634640,0.830632210
29.212683,47.815704346,-35.489570618,-49.583686829,-0.270699352,-0.257104367,0.837224007
29.213308,48.090362549,-36.061775208,-49.003852844,-0.274605602,-0.268945187,0.842473030
29.213933,48.113250732,-36.252510071,-48.630012512,-0.278145641,-0.275170773,0.846501350
29.214558,48.189544678,-36.939155579,-48.393501282,-0.287545055,-0.284570187,0.847844124
29.215184,48.181915283,-37.236701965,-47.683967590,-0.291085094,-0.293847531,0.852726936
29.215810,48.059844971,-37.747871399,-47.210945129,-0.298531383,-0.304101437,0.856877327
29.216436,47.876739502,-38.289558411,-46.829475403,-0.309517711,-0.312402219,0.865422249
29.217062,47.953033447,-38.609992981,-46.432746887,-0.312935680,-0.323998898,0.867497444
29.217687,47.693634033,-39.029609680,-45.646919250,-0.321968883,-0.335107297,0.865666389
29.218312,47.380828857,-39.502632141,-45.006050110,-0.324532360,-0.346948117,0.872624397
29.218938,47.319793701,-39.792549133,-44.502510071,-0.334542125,-0.353784055,0.878605843
29.219565,46.976470947,-40.341865540,-43.709053040,-0.342232555,-0.368676633,0.879582405
29.220191,46.923065186,-40.509712219,-43.190254211,-0.348702282,-0.377587765,0.888371468
29.220818,46.732330322,-41.135322571,-42.656196594,-0.358345836,-0.382592648,0.891179085
29.221444,46.663665771,-41.242134094,-42.000068665,-0.360298961,-0.388452023,0.896794319
29.222069,46.396636963,-41.829597473,-41.069282532,-0.365547985,-0.395776242,0.902043343
29.223786,45.145416260,-42.478096008,-39.001716614,-0.373116344,-0.402001828,0.909123421
29.224412,44.695281982,-42.691719055,-38.292182922,-0.372261852,-0.405297726,0.916691780
29.225038,43.970489502,-42.920600891,-37.559761047,-0.376778454,-0.400903195,0.924138069
29.225663,43.070220947,-42.943489075,-36.621345520,-0.379097790,-0.400292844,0.929631233
29.238294,-14.905548096,-33.048164368,-15.289558411,-0.347725719,-0.265038937,1.117131233
29.239036,-19.895172119,-32.254707336,-14.442695618,-0.351998180,-0.259423703,1.117375374
29.239662,-24.350738525,-31.301033020,-13.092292786,-0.351021618,-0.247704953,1.114079475
29.240288,-28.844451904,-30.217658997,-11.932624817,-0.356880993,-0.245263547,1.117497444
29.240913,-33.353424072,-29.401313782,-10.544075012,-0.365059704,-0.250878781,1.114079475
29.241538,-37.763214111,-28.569709778,-9.254707336,-0.374214977,-0.257714719,1.113835335
29.242165,-42.340850830,-27.646553040,-8.209480286,-0.378487438,-0.262475461,1.107487679
29.242792,-46.666717529,-26.998054504,-6.737007141,-0.382393688,-0.264062375,1.104191780
29.243419,-50.695037842,-26.196968079,-5.897773743,-0.383614391,-0.265283078,1.106144905
29.244045,-54.479217529,-25.296699524,-4.692329407,-0.381050915,-0.270898312,1.107853889
29.244671,-57.820892334,-24.434577942,-3.196968079,-0.385567516,-0.283349484,1.106144905
29.245296,-61.162567139,-23.664009094,-2.220405579,-0.386544079,-0.288232297,1.101750374
29.245922,-64.206695557,-22.862922668,-1.327766418,-0.381539196,-0.292993039,1.096623421
29.246547,-66.777801514,-21.985542297,-0.412239075,-0.381783336,-0.298608273,1.093937874
29.247173,-69.120025635,-21.123420715,0.663505554,-0.380928844,-0.305322140,1.090397835
29.247891,-71.263885498,-20.650398254,1.365409851,-0.380074352,-0.306786984,1.086491585
29.248720,-74.903106689,-18.903266907,3.577934265,-0.369942516,-0.319726437,1.088444710
29.249497,-76.406097412,-18.445503235,4.310356140,-0.364327282,-0.320703000,1.093815804
29.250326,-77.451324463,-18.086921692,5.241142273,-0.357735485,-0.329369992,1.097844124
29.251119,-79.015350342,-16.973030090,6.835685730,-0.343697399,-0.337060422,1.097477913
29.251911,-79.442596436,-16.698371887,7.621513367,-0.334542125,-0.341210812,1.100285530
29.252672,-79.381561279,-16.446601868,8.308158875,-0.328438610,-0.349877805,1.094792366
29.253497,-79.137420654,-15.454780579,8.804069519,-0.319405407,-0.357568234,1.097966194
29.254316,-77.619171143,-14.607917786,9.910331726,-0.297921032,-0.364892453,1.092717171
29.254953,-76.696014404,-13.967048645,10.246025085,-0.284859508,-0.365014523,1.089055061
29.255578,-75.452423096,-13.272773743,11.054740906,-0.278389782,-0.359643430,1.088932991
29.256204,-74.231719971,-12.769233704,11.657463074,-0.275948375,-0.338769406,1.100529671
29.256830,-72.545623779,-11.609565735,12.931571960,-0.266182750,-0.365014523,1.096135139
29.257456,-71.302032471,-11.159431458,13.229118347,-0.279732555,-0.369286984,1.103215218
29.258081,-69.760894775,-11.037361145,13.213859558,-0.276314586,-0.383447140,1.102726936
29.258708,-67.708587646,-10.442268372,13.290153503,-0.261299938,-0.360619992,1.101994514
29.259333,-65.412139893,-9.343635559,13.824211121,-0.241524532,-0.347558469,1.095890999
29.259959,-63.321685791,-8.351814270,13.900505066,-0.240425900,-0.330102414,1.104557991
29.260585,-61.330413818,-7.466804504,13.999687195,-0.235421017,-0.328515500,1.105046272
29.261211,-59.476470947,-6.040107727,14.030204773,-0.231026486,-0.322900265,1.098210335
29.261838,-57.340240479,-5.017768860,14.381156921,-0.229195431,-0.309106320,1.099064827
29.262463,-55.371856689,-3.926765442,14.228569031,-0.229561642,-0.300927609,1.106022835
29.263090,-53.487396240,-2.538215637,14.411674500,-0.230049923,-0.290429562,1.110905647
29.263717,-51.480865479,-1.035224915,14.465080261,-0.230538204,-0.282861203,1.113469124
29.264342,-49.626922607,0.132072449,14.732109070,-0.221505001,-0.264428586,1.125432014
29.264968,-47.650909424,1.627433777,15.006767273,-0.213814571,-0.251855344,1.134099007
29.265593,-45.926666260,2.932060242,14.754997253,-0.213570431,-0.241845578,1.147892952
29.266218,-44.301605225,4.290092468,14.518486023,-0.220650509,-0.223779172,1.152409554
29.266844,-42.714691162,5.602348328,14.709220886,-0.215523556,-0.204736203,1.160710335
29.267469,-40.990447998,6.968009949,14.739738464,-0.211373165,-0.187768430,1.173405647
29.268095,-39.685821533,8.104789734,14.556632996,-0.216988400,-0.174951047,1.174382210
29.268721,-38.518524170,9.340751648,14.449821472,-0.214058712,-0.156396359,1.179509163
29.324632,-6.551361084,40.209281921,-13.206733704,-0.289009899,0.029150512,0.468693733
29.325425,-6.978607178,39.354789734,-13.466133118,-0.293648571,0.017553832,0.470036507
29.326051,-7.154083252,38.378227234,-13.687385559,-0.303536266,0.007177856,0.470280647
29.326678,-7.360076904,37.279594421,-13.740791321,-0.308907360,-0.005273316,0.473454475
29.327303,-7.711029053,36.852348328,-14.267219543,-0.311226696,-0.015161011,0.472355843
29.327929,-7.398223877,36.043632507,-14.343513489,-0.318672985,-0.027490113,0.475773811
29.328554,-7.413482666,35.318840027,-14.694465637,-0.322457165,-0.039453004,0.481633186
29.329179,-6.940460205,34.586418152,-14.770759583,-0.331734508,-0.056298707,0.486760139
29.329806,-6.414031982,33.449638367,-15.106452942,-0.340279430,-0.068871945,0.485417366
29.330431,-5.941009521,33.037651062,-15.098823547,-0.343331188,-0.079003781,0.488469124
29.331056,-5.269622803,32.160270691,-15.449775696,-0.349922985,-0.093041867,0.487370491
29.331682,-4.590606689,31.504142761,-15.815986633,-0.357613415,-0.106591672,0.493596077
29.332309,-3.553009033,30.924308777,-15.609992981,-0.365670055,-0.125756711,0.495060921
29.332934,-2.355194092,30.123222351,-16.136421204,-0.368721813,-0.142846555,0.497502327
29.333559,-1.012420654,29.596794128,-16.380561829,-0.373482555,-0.155786008,0.495305061
29.334185,0.612640381,29.032218933,-16.525520325,-0.374092907,-0.171411008,0.497990608
29.334812,2.031707764,28.406608582,-16.655220032,-0.375069469,-0.177026242,0.495915413
29.335437,3.664398193,28.147209167,-16.891731262,-0.377632946,-0.191186398,0.499577522
29.336062,5.327606201,27.712333679,-17.189277649,-0.384224743,-0.207177609,0.498967171
29.336689,7.341766357,27.170646667,-17.219795227,-0.383858532,-0.218652219,0.501896858
29.337315,8.966827393,26.888359070,-17.235054016,-0.385811657,-0.236230344,0.503605843
29.337941,11.156463623,26.590812683,-17.341865540,-0.390816540,-0.250268430,0.505681038
29.338567,13.048553467,26.117790222,-17.509712219,-0.392525524,-0.261987180,0.507878304
29.339192,15.375518799,25.911796570,-17.631782532,-0.397164196,-0.280419797,0.511784554
29.339818,17.786407471,25.537956238,-17.418159485,-0.398140758,-0.289330930,0.515690804
29.340445,20.029449463,25.133598328,-17.372383118,-0.396431774,-0.300927609,0.518376350
29.341071,22.524261475,25.026786804,-17.463935852,-0.397042125,-0.313500851,0.521183968
29.341696,24.942779541,24.469841003,-17.402900696,-0.398262829,-0.321679562,0.527165413
29.342322,27.063751221,24.195182800,-17.219795227,-0.402047008,-0.331567258,0.530949593
29.342949,29.421234131,23.905265808,-17.280830383,-0.406441540,-0.347680539,0.528386116
29.343574,31.938934326,23.714530945,-17.227424622,-0.407296032,-0.358911008,0.529240608
29.344199,34.639739990,23.233879089,-17.021430969,-0.407662243,-0.367211789,0.531071663
29.344826,37.042999268,22.882926941,-16.861213684,-0.411324352,-0.374169797,0.536076546
29.345451,39.659881592,22.669303894,-16.556037903,-0.410469860,-0.377099484,0.536564827
29.346077,41.956329346,22.226799011,-16.517890930,-0.413643688,-0.386865109,0.537175179
29.346703,44.748687744,21.822441101,-16.403450012,-0.412911266,-0.387963742,0.533390999
29.347330,46.945953369,21.471488953,-16.014350891,-0.415108532,-0.391625851,0.531193733
29.347955,49.120330811,20.967948914,-15.899909973,-0.417305797,-0.402368039,0.525334358
29.348581,51.653289795,20.472038269,-15.503181458,-0.415596813,-0.409326047,0.521306038
29.349207,54.071807861,20.578849792,-15.381111145,-0.405953258,-0.411767453,0.519597054
29.349834,56.436920166,20.380485535,-15.243782043,-0.396309704,-0.411523312,0.520207405
29.350461,58.618927002,20.044792175,-15.068305969,-0.391304821,-0.404443234,0.522770882
29.351086,60.411834717,19.937980652,-14.793647766,-0.394234508,-0.406030148,0.521183968
29.351711,62.326812744,19.648063660,-14.457954407,-0.396065563,-0.409448117,0.515568733
29.352338,64.203643799,19.190299988,-14.213813782,-0.400093883,-0.410546750,0.513859749
29.352965,66.156768799,18.793571472,-13.687385559,-0.394356579,-0.412255734,0.514348030
29.371586,62.921905518,-0.981819153,1.136528015,-0.125679806,-0.220361203,0.455265999
29.372306,61.350250244,-1.805793762,1.975761414,-0.109566525,-0.208520383,0.457463264
29.372932,59.534454346,-2.591621399,2.372489929,-0.097725704,-0.195825070,0.466130257
29.373558,57.558441162,-3.659736633,2.975212097,-0.088570431,-0.189721555,0.466740608
29.374185,55.330657959,-4.476081848,3.394828796,-0.081734493,-0.187890500,0.469182014
29.374810,53.331756592,-5.376350403,4.150138855,-0.078438595,-0.185815305,0.475895882
29.375484,51.271820068,-6.024848938,4.722343445,-0.074044064,-0.186303586,0.475407600
29.376111,49.272918701,-7.153999329,5.470024109,-0.069283321,-0.183251828,0.476750374
29.376736,47.319793701,-7.863533020,5.592094421,-0.063301876,-0.176293820,0.481877327
29.377361,45.236968994,-8.794319153,6.248222351,-0.054390747,-0.175317258,0.483830452
29.377987,43.047332764,-9.740364075,6.835685730,-0.050484497,-0.167260617,0.486271858
29.378614,40.872955322,-10.571968079,7.278190613,-0.053780396,-0.163720578,0.486638069
29.379239,38.629913330,-11.121284485,7.888542175,-0.050240356,-0.157494992,0.484562874
29.379865,36.470794678,-12.128364563,8.308158875,-0.053414185,-0.157006711,0.489933968
29.380667,34.357452393,-12.853157043,8.506523132,-0.053414185,-0.149926633,0.492985725
29.381292,32.511138916,-13.310920715,9.185539246,-0.056588013,-0.138818234,0.499333382
29.381918,30.146026611,-13.944160461,9.666191101,-0.056710083,-0.134789914,0.503239632
29.382543,27.727508545,-14.569770813,10.207878113,-0.063423946,-0.128930539,0.512394905
29.383168,25.331878662,-15.241157532,10.581718445,-0.070259884,-0.120873898,0.524113655
29.383793,23.126983643,-15.828620911,11.069999695,-0.071358517,-0.115136594,0.536686897
29.384420,20.746612549,-16.690742493,11.367546082,-0.075875118,-0.104028195,0.549870491
29.385045,17.900848389,-17.430793762,11.924491882,-0.081978634,-0.096093625,0.559269905
29.385670,15.367889404,-17.941963196,12.016044617,-0.083687618,-0.091088742,0.570012093
29.386297,12.674713135,-18.559944153,12.557731628,-0.087715939,-0.084496945,0.582219124
29.386923,10.103607178,-19.254219055,12.740837097,-0.084175900,-0.082910031,0.597599983
29.387548,7.440948486,-19.658576965,13.389335632,-0.089424923,-0.081811398,0.610417366
29.388173,4.785919189,-20.062934875,13.702140808,-0.087715939,-0.076684445,0.625432014
29.388799,2.069854736,-20.810615540,14.114128113,-0.092110470,-0.075585812,0.635441780
29.389425,-0.600433350,-21.131050110,14.426933289,-0.096138790,-0.076440305,0.654240608
29.390050,-3.011322021,-21.611701965,14.869438171,-0.098213986,-0.077905148,0.664494514
29.390677,-5.551910400,-22.183906555,15.395866394,-0.103218868,-0.084619015,0.674870491
29.391303,-8.016204834,-22.527229309,15.586601257,-0.105049923,-0.082665890,0.684025764
29.391928,-10.114288330,-22.771369934,15.998588562,-0.105416134,-0.086694211,0.691716194
29.392553,-12.334442139,-23.038398743,16.051994324,-0.103218868,-0.088159055,0.703679085
29.393180,-14.333343506,-23.061286926,16.463981628,-0.109078243,-0.091210812,0.709538460
29.393805,-16.522979736,-23.343574524,17.005668640,-0.117745236,-0.098535031,0.720036507
29.394430,-18.315887451,-23.801338196,17.326103210,-0.123726681,-0.101220578,0.730412483
29.395057,-19.979095459,-23.740303040,17.379508972,-0.126534298,-0.102197140,0.738835335
29.395683,-21.527862549,-23.923408508,17.867790222,-0.134590939,-0.108178586,0.744450569
29.396308,-23.076629639,-24.053108215,18.096672058,-0.136055782,-0.113793820,0.751408577
29.396933,-24.388885498,-24.449836731,18.165336609,-0.145821407,-0.122582883,0.757145882
29.397560,-25.434112549,-24.274360657,18.485771179,-0.151558712,-0.131616086,0.765202522
29.398186,-26.052093506,-24.434577942,18.829093933,-0.154488400,-0.136376828,0.767399788
29.398812,-26.769256592,-24.632942200,18.874870300,-0.156563595,-0.142480344,0.775212288
29.399438,-27.211761475,-24.648200989,19.233451843,-0.157784298,-0.140283078,0.779484749
29.400065,-27.608489990,-24.800788879,19.416557312,-0.159859493,-0.144067258,0.781437874
29.400691,-27.799224854,-24.800788879,19.325004578,-0.159981564,-0.152123898,0.785588264
29.413729,-6.986236572,-31.278144836,19.820915222,-0.134468868,-0.172509640,0.882267952
29.414433,-5.353546143,-31.529914856,19.630180359,-0.125313595,-0.170556515,0.890690804
29.415060,-3.987884521,-31.804573059,19.538627625,-0.116280392,-0.169213742,0.898503304
29.415685,-2.324676514,-32.086860657,19.736991882,-0.106270626,-0.160546750,0.901310921
29.416311,-0.615692139,-32.384407043,19.721733093,-0.097481564,-0.157372922,0.909123421
29.416938,0.490570068,-32.552253723,19.759880066,-0.092842892,-0.156518430,0.919865608
29.417563,1.634979248,-32.941352844,20.004020691,-0.086983517,-0.154199094,0.933781624
29.418189,2.985382080,-33.322822571,19.851432800,-0.078682736,-0.155053586,0.944890022
29.418814,4.434967041,-33.345710754,19.981132507,-0.071358517,-0.151513547,0.951848030
29.419441,5.808258057,-33.605110168,19.958244324,-0.064522579,-0.142480344,0.961491585
29.420067,7.326507568,-33.826362610,20.133720398,-0.050484497,-0.137353390,0.971989632
29.420693,8.234405518,-34.093391418,19.965873718,-0.039864380,-0.131249875,0.982731819
29.421320,9.355926514,-34.116279602,20.194755554,-0.026314575,-0.125268430,0.990910530
29.421947,10.378265381,-34.230720520,20.248161316,-0.017891724,-0.121240109,0.997258186
29.422573,11.057281494,-34.162055969,20.217643738,-0.008370239,-0.112328976,1.009709358
29.423199,11.774444580,-34.177314758,20.499931335,0.000296753,-0.116601437,1.019719124
29.424957,14.429473877,-34.177314758,21.239982605,0.041312378,-0.108788937,1.052678108
29.425583,15.161895752,-33.910285950,20.995841980,0.058158081,-0.102563351,1.065617561
29.426208,15.512847900,-33.910285950,21.491752625,0.069632694,-0.099755734,1.075993538
29.426833,15.901947021,-33.689033508,21.705375671,0.076956913,-0.099755734,1.083317757
29.427460,16.558074951,-33.597480774,21.903739929,0.080619022,-0.102441281,1.096257210
29.428086,17.259979248,-33.254158020,21.949516296,0.089530155,-0.106835812,1.103703499
29.428711,18.129730225,-33.261787415,22.369132996,0.105033085,-0.108178586,1.109074593
29.429336,18.785858154,-33.185493469,22.506462097,0.112235233,-0.103051633,1.118351936
29.429962,19.434356689,-32.910835266,22.674308777,0.122855350,-0.102685422,1.126164436
29.430589,19.968414307,-32.948982239,22.781120300,0.129325077,-0.104394406,1.126042366
29.431214,20.868682861,-32.582771301,23.139701843,0.135794804,-0.110131711,1.131657600
29.431839,21.829986572,-32.437812805,23.177848816,0.144461796,-0.116845578,1.135807991
29.432465,22.943878174,-32.102119446,23.551689148,0.152030155,-0.112817258,1.142643929
29.433090,23.836517334,-31.957160950,23.772941589,0.166800663,-0.115624875,1.147404671
29.433717,25.003814697,-31.507026672,23.589836121,0.168265507,-0.117700070,1.149357796
29.434342,26.041412354,-31.255256653,23.956047058,0.174246952,-0.120751828,1.157048225
29.434969,27.414703369,-30.728828430,24.146781921,0.177664921,-0.123437375,1.156804085
29.435596,28.887176514,-30.408393860,24.268852234,0.181571171,-0.126000851,1.161198616
29.436223,30.481719971,-29.881965637,24.284111023,0.189139530,-0.120629758,1.168766975
29.436848,31.786346436,-29.546272278,24.650321960,0.194144413,-0.120629758,1.176335335
29.437475,32.999420166,-28.882514954,24.627433777,0.197440311,-0.112573117,1.179387093
29.438100,34.456634521,-28.195869446,24.741874695,0.195487186,-0.113183469,1.181828499
29.438725,35.837554932,-27.707588196,24.993644714,0.198050663,-0.111352414,1.191349983
29.439350,37.187957764,-27.074348450,25.077568054,0.194388554,-0.105370969,1.200871468
29.439976,38.622283936,-26.715766907,25.275932312,0.195731327,-0.100244015,1.205388069
29.440602,39.812469482,-25.968086243,25.321708679,0.193289921,-0.092919797,1.211613655
29.441227,41.124725342,-25.464546204,25.138603210,0.193167850,-0.081078976,1.218083382
29.441854,42.078399658,-24.762641907,25.497184753,0.192313358,-0.075341672,1.227849007
29.442480,42.864227295,-24.228584290,25.535331726,0.188895389,-0.064233273,1.231389046
29.443107,43.688201904,-23.496162415,25.428520203,0.193167850,-0.055078004,1.236149788
29.443733,44.634246826,-23.099433899,25.520072937,0.187918827,-0.042260621,1.245427132
29.456481,9.119415283,-5.651008606,26.214347839,0.171073124,0.277197391,1.346989632
29.457226,5.579376221,-4.743110657,26.145683289,0.168021366,0.285620242,1.350407600
29.457853,2.199554443,-4.071723938,26.260124207,0.165335819,0.291601688,1.351750374
29.458478,-1.355743408,-3.140937805,26.115165710,0.156912968,0.292700320,1.350773811
29.459105,-4.766082764,-2.568733215,26.229606628,0.149832889,0.298071414,1.350773811
29.459730,-8.367156982,-2.004158020,26.015983582,0.148612186,0.299902469,1.350407600
29.460356,-11.678314209,-1.386177063,26.008354187,0.143851444,0.296362430,1.340275764
29.460981,-14.669036865,-0.997077942,26.031242371,0.134940311,0.293676883,1.332829475
29.461606,-17.804718018,-0.707160950,25.886283875,0.135794804,0.289282352,1.330265999
29.462232,-20.619964600,-0.569831848,25.710807800,0.131522343,0.285742313,1.326115608
29.462858,-23.366546631,0.002372742,25.588737488,0.127494022,0.278906375,1.320256233
29.463483,-25.777435303,0.154960632,25.672660828,0.123953983,0.275000125,1.310978889
29.464108,-27.875518799,0.200737000,25.565849304,0.123221561,0.269629031,1.304020882
29.464734,-30.210113525,0.551689148,25.390373230,0.120536014,0.258276492,1.297429085
29.465359,-31.972503662,0.551689148,25.298820496,0.118338749,0.244604617,1.289616585
29.465985,-33.124542236,0.841606140,25.024162292,0.116995975,0.238745242,1.279484749
29.466611,-34.345245361,1.047599792,24.879203796,0.123099491,0.236181766,1.278752327
29.467237,-35.375213623,1.177299500,24.780021667,0.119925663,0.232763797,1.274724007
29.467862,-36.519622803,1.070487976,24.635063171,0.120658085,0.226782352,1.274968147
29.468489,-37.458038330,0.940788269,24.528251648,0.119803593,0.222387820,1.272404671
29.469115,-38.037872314,1.070487976,24.085746765,0.118338749,0.210547000,1.268864632
29.469741,-38.350677490,1.116264343,24.062858582,0.124808475,0.202612430,1.268254280
29.470366,-38.404083252,1.085746765,23.971305847,0.130789921,0.198095828,1.273015022
29.470993,-38.526153564,1.604545593,23.589836121,0.140921757,0.197607547,1.279118538
29.471618,-38.426971436,1.879203796,23.406730652,0.144461796,0.198950320,1.289250374
29.472244,-38.495635986,2.520072937,23.200737000,0.141165897,0.196264774,1.295720100
29.472871,-38.007354736,2.916801453,22.887931824,0.134207889,0.194433719,1.298649788
29.473497,-37.763214111,3.008354187,22.536979675,0.123953983,0.190771610,1.301213264
29.474123,-37.557220459,3.252494812,21.995292664,0.114920780,0.188818485,1.310368538
29.474750,-37.244415283,3.710258484,21.674858093,0.108939335,0.186132938,1.315251350
29.475375,-36.885833740,4.244316101,21.568046570,0.111991093,0.179052860,1.324162483
29.476009,-36.382293701,4.702079773,20.965324402,0.115409061,0.178808719,1.333806038
29.476635,-35.970306396,5.373466492,21.056877136,0.114432499,0.188330203,1.345158577
29.477261,-35.634613037,5.693901062,20.705924988,0.108817264,0.194555789,1.355290413
29.477999,-35.039520264,6.411064148,20.370231628,0.102835819,0.205786258,1.361760139
29.478624,-34.703826904,7.051933289,20.042167664,0.096610233,0.222265750,1.368351936
29.479249,-34.566497803,7.975090027,19.569145203,0.088431522,0.226049930,1.379094124
29.479874,-34.818267822,8.738029480,19.019828796,0.082450077,0.231298953,1.388493538
29.480501,-34.787750244,9.447563171,18.333183289,0.078055546,0.236547977,1.398015022
29.481126,-34.803009033,10.187614441,17.722831726,0.072684452,0.238012820,1.404362679
29.481751,-35.054779053,10.904777527,17.478691101,0.063651249,0.243872195,1.409367561
29.482377,-34.970855713,11.629570007,16.998039246,0.054007690,0.249243289,1.414616585
29.483010,-35.390472412,12.285697937,16.380058289,0.040946167,0.253149539,1.419377327
29.483636,-35.756683350,12.903678894,15.884147644,0.028617065,0.252417117,1.421574593
29.484263,-35.993194580,13.437736511,15.456901550,0.023490112,0.249975711,1.428776741
29.484890,-35.924530029,14.200675964,15.022026062,0.023978394,0.248755008,1.430729866
29.485515,-35.825347900,14.780509949,14.442192078,0.030570190,0.243628055,1.435002327
29.486142,-35.352325439,15.764701843,13.976799011,0.037039917,0.244238406,1.437199593
29.498816,-6.162261963,36.287773132,0.541435242,0.177054569,0.053564575,1.385197639
29.499534,-2.729034424,36.798942566,-0.213874817,0.173758671,0.038427856,1.377385139
29.500159,0.902557373,37.561882019,-1.159919739,0.178397343,0.026953246,1.368840218
29.500785,4.557037354,38.507926941,-1.861824036,0.177909061,0.010229614,1.364567757
29.501411,8.516693115,39.247978210,-2.472175598,0.174369022,0.000586059,1.354802132
29.502037,12.667083740,39.919364929,-3.517402649,0.178031132,-0.009789918,1.349675179
29.502663,16.786956787,40.834892273,-4.219306946,0.175589725,-0.017480347,1.341618538
29.503290,21.250152588,41.468132019,-4.524482727,0.177786991,-0.027978394,1.334050179
29.503915,25.743865967,42.322624207,-5.760444641,0.167166874,-0.056786988,1.330510139
29.504541,29.741668701,42.742240906,-6.782783508,0.154105350,-0.077050656,1.311100960
29.505168,34.075164795,42.742240906,-7.499946594,0.156424686,-0.069238156,1.303532600
29.505793,38.828277588,43.344963074,-8.224739075,0.165579960,-0.067651242,1.303410530
29.506418,43.581390381,44.428337097,-8.743537903,0.164969608,-0.086450070,1.299260139
29.507044,47.991180420,45.061576843,-9.521736145,0.156302616,-0.097192258,1.284489632
29.507669,52.240753174,45.359123230,-10.040534973,0.150809452,-0.104028195,1.270939827
29.508295,56.848907471,45.885551453,-10.902656555,0.148612186,-0.108911008,1.263493538
29.508921,60.991668701,46.358573914,-11.558784485,0.144095585,-0.104882687,1.260930061
29.509546,65.332794189,46.976554871,-12.222541809,0.137381718,-0.110742062,1.255070686
29.510171,69.483184814,47.304618835,-12.802375793,0.134574100,-0.119775265,1.247868538
29.510797,73.450469971,47.678459167,-13.389839172,0.129203007,-0.122704953,1.236515999
29.511422,77.410125732,48.212516785,-13.984931946,0.127860233,-0.125024289,1.230534554
29.512047,81.011199951,48.609245300,-14.549507141,0.121512577,-0.116723508,1.226384163
29.512674,84.505462646,48.609245300,-14.930976868,0.115286991,-0.116235226,1.215886116
29.513299,87.435150146,49.189079285,-15.632881165,0.106986210,-0.120873898,1.206364632
29.513925,90.670013428,49.456108093,-16.021980286,0.103690311,-0.122094601,1.198307991
29.514551,93.706512451,49.547660828,-16.647590637,0.094168827,-0.119409055,1.193058968
29.515176,96.475982666,49.631584167,-16.792549133,0.087210819,-0.117333859,1.186345100
29.515801,99.230194092,49.501884460,-17.364753723,0.079398319,-0.113427609,1.175480843
29.516428,101.435089111,49.677360535,-17.647041321,0.075614139,-0.110619992,1.165959358
29.517053,103.617095947,49.860466003,-18.005622864,0.065238163,-0.113549680,1.149968147
29.517678,105.600738525,49.898612976,-18.493904114,0.058646362,-0.111962765,1.143254280
29.518304,107.866668701,49.601066589,-18.684638977,0.050101440,-0.110131711,1.128605843
29.518929,109.560394287,49.791801453,-18.783821106,0.049735229,-0.099023312,1.122136116
29.519556,111.124420166,49.738395691,-19.073738098,0.046073120,-0.096215695,1.112248421
29.520183,112.421417236,49.807060242,-19.417060852,0.041312378,-0.090966672,1.100895882
29.520808,113.344573975,49.868095398,-19.684089661,0.032523315,-0.091088742,1.094059944
29.521435,114.168548584,49.486625671,-19.691719055,0.022269409,-0.090234250,1.086003304
29.522061,115.297698975,49.242485046,-20.065559387,0.013846558,-0.083398312,1.080632210
29.522688,115.961456299,49.379814148,-19.951118469,0.004203003,-0.077416867,1.069645882
29.523315,115.892791748,49.036491394,-20.218147278,-0.000801880,-0.070947140,1.058171272
29.525070,115.930938721,47.998893738,-20.767463684,-0.008248169,-0.046777222,1.025212288
29.525696,115.587615967,48.159111023,-20.813240051,-0.009835083,-0.041772339,1.015934944
29.526322,114.832305908,47.976005554,-20.874275208,-0.009590942,-0.029077027,1.000676155
29.526948,113.779449463,47.617424011,-20.797981262,-0.005074341,-0.023461793,0.991887093
29.527574,112.635040283,47.541130066,-20.843757629,-0.006661255,-0.010766480,0.985905647
29.528199,111.017608643,47.152030945,-21.034492493,-0.010445435,0.004614379,0.976506233
29.528825,108.988189697,47.022331238,-20.889533997,-0.011421997,0.014013793,0.965031624
29.558906,-64.534759521,2.840507507,-5.623115540,-0.114327267,-0.015527222,0.643010139
29.559678,-64.519500732,1.215446472,-5.584968567,-0.113228634,-0.025659058,0.643498421
29.560305,-64.641571045,-0.661384583,-5.539192200,-0.111275509,-0.029565308,0.648381233
29.560931,-64.740753174,-2.034675598,-5.569709778,-0.114937618,-0.029199097,0.650944710
29.561558,-64.588165283,-3.751289368,-5.707038879,-0.118965939,-0.037011597,0.651921272
29.562183,-64.160919189,-4.971992493,-5.378974915,-0.121041134,-0.041406129,0.655949593
29.562810,-63.603973389,-6.589424133,-5.920661926,-0.120308712,-0.043115113,0.656682014
29.563435,-62.940216064,-7.894050598,-5.867256165,-0.118355587,-0.047143433,0.657414436
29.564062,-62.062835693,-9.091865540,-5.821479797,-0.120552853,-0.049096558,0.661442757
29.564688,-61.528778076,-10.350715637,-6.225837708,-0.119820431,-0.054589722,0.670598030
29.565313,-60.323333740,-11.434089661,-6.340278625,-0.119576290,-0.052270386,0.674382210
29.565939,-59.651947021,-12.563240051,-6.553901672,-0.123482540,-0.050805543,0.681584358
29.566564,-58.675384521,-13.638984680,-6.500495911,-0.127877071,-0.051782105,0.688664436
29.567190,-57.767486572,-14.501106262,-6.820930481,-0.136910275,-0.051049683,0.698063850
29.567815,-56.630706787,-15.676033020,-7.026924133,-0.136177853,-0.055688355,0.703434944
29.568440,-55.928802490,-16.767036438,-7.263435364,-0.140816525,-0.055444214,0.716496468
29.569065,-55.165863037,-17.896186829,-7.286323547,-0.143013790,-0.055688355,0.727971077
29.569691,-53.701019287,-18.819343567,-7.339729309,-0.142281368,-0.049706910,0.737858772
29.570316,-52.854156494,-19.750129700,-7.652534485,-0.144844845,-0.048974488,0.749577522
29.570942,-52.182769775,-20.780097961,-7.988227844,-0.147164181,-0.052148316,0.756535530
29.571567,-51.168060303,-21.489631653,-8.323921204,-0.147408321,-0.047387574,0.768742561
29.572192,-50.260162354,-22.382270813,-8.445991516,-0.146309689,-0.046533082,0.780217171
29.572819,-49.626922607,-23.168098450,-8.621467590,-0.145699337,-0.049828980,0.789250374
29.573445,-48.719024658,-24.182807922,-8.926643372,-0.139107540,-0.045434449,0.798771858
29.574072,-48.032379150,-24.671089172,-9.117378235,-0.140328243,-0.051049683,0.805851936
29.574697,-47.338104248,-25.121223450,-9.170783997,-0.136177853,-0.053857300,0.813664436
29.575323,-46.254730225,-25.891792297,-9.460700989,-0.136910275,-0.059228394,0.823430061
29.575950,-45.468902588,-26.311408997,-9.590400696,-0.133492306,-0.058129761,0.833806038
29.576577,-44.644927979,-26.494514465,-9.567512512,-0.131417111,-0.061181519,0.841862679
29.577203,-43.836212158,-26.578437805,-9.887947083,-0.130684689,-0.058251832,0.851750374
29.577829,-42.935943604,-27.249824524,-9.506477356,-0.128121212,-0.037621949,0.866032600
29.578456,-42.165374756,-27.257453918,-9.422554016,-0.141426876,-0.082421750,0.871037483
29.579081,-41.730499268,-27.539741516,-9.628547668,-0.144112423,-0.084130734,0.876042366
29.579706,-41.226959229,-28.073799133,-10.414375305,-0.148384884,-0.091577023,0.881901741
29.580389,-40.578460693,-28.195869446,-10.795845032,-0.132271603,-0.082665890,0.888493538
29.581016,-39.533233643,-27.768623352,-11.070503235,-0.119088009,-0.078515500,0.893620491
29.581643,-38.373565674,-27.287971497,-11.017097473,-0.118233517,-0.086205930,0.898137093
29.582269,-36.733245850,-26.914131165,-11.291755676,-0.125679806,-0.130761594,0.908513069
29.582895,-36.733245850,-26.914131165,-11.291755676,-0.125679806,-0.130761594,0.908513069
29.583522,-35.688018799,-26.814949036,-11.398567200,-0.129341915,-0.136132687,0.909733772
29.584148,-34.337615967,-26.097785950,-11.513008118,-0.133126095,-0.142358273,0.921574593
29.584773,-31.591033936,-25.647651672,-11.215461731,-0.133858517,-0.173119992,0.930241585
29.585399,-29.836273193,-25.006782532,-11.139167786,-0.134957150,-0.193627805,0.938420296
29.586024,-27.959442139,-24.503242493,-11.093391418,-0.134590939,-0.205224484,0.947819710
29.586651,-26.403045654,-24.205696106,-11.146797180,-0.137032345,-0.212914914,0.955388069
29.587277,-24.457550049,-23.694526672,-11.123908997,-0.141548946,-0.221826047,0.957707405
29.599974,40.567779541,-12.311470032,-8.674873352,-0.267403454,-0.501367092,0.949040413
29.600691,44.886016846,-12.418281555,-8.407844543,-0.275704235,-0.510522366,0.949894905
29.601317,48.815155029,-11.907112122,-8.011116028,-0.280831188,-0.520165920,0.947087288
29.601943,53.339385986,-11.792671204,-7.766975403,-0.280709118,-0.524072170,0.949284554
29.602568,57.253265381,-11.739265442,-7.484687805,-0.282540172,-0.532983303,0.944645882
29.603195,61.357879639,-11.769783020,-7.118476868,-0.284371227,-0.538598537,0.942692757
29.603821,65.798187256,-11.662971497,-6.744636536,-0.282173961,-0.538232327,0.940129280
29.604447,69.712066650,-11.533271790,-6.393684387,-0.287300915,-0.542748928,0.934758186
29.605073,73.366546631,-11.563789368,-6.103767395,-0.286202282,-0.538110256,0.928654671
29.605700,77.257537842,-11.701118469,-5.653633118,-0.283028454,-0.542504787,0.920842171
29.606325,80.881500244,-11.785041809,-5.188240051,-0.282173961,-0.542016506,0.916569710
29.606952,84.368133545,-11.716377258,-4.814399719,-0.276192516,-0.543359280,0.910832405
29.607579,87.610626221,-11.296760559,-4.410041809,-0.272042125,-0.540795803,0.904973030
29.608205,90.906524658,-11.502754211,-3.898872375,-0.269966930,-0.538964748,0.897892952
29.608832,94.095611572,-11.266242981,-3.196968079,-0.265206188,-0.533959866,0.893132210
29.609459,96.811676025,-10.709297180,-2.754463196,-0.264351696,-0.524072170,0.889348030
29.610085,99.687957764,-10.816108704,-2.212776184,-0.266304821,-0.518945217,0.884099007
29.610711,102.045440674,-10.503303528,-1.419319153,-0.263375133,-0.513329983,0.880070686
29.611336,104.410552979,-10.045539856,-1.007331848,-0.268013805,-0.502221584,0.875432014
29.611961,106.363677979,-9.854804993,-0.374092102,-0.265816540,-0.491723508,0.873845100
29.612587,108.286285400,-9.641181946,0.289665222,-0.264839977,-0.480981320,0.863957405
29.613212,109.827423096,-9.305488586,0.930534363,-0.264229625,-0.464379758,0.862370491
29.613838,111.025238037,-8.840095520,1.807914734,-0.264351696,-0.449243039,0.862492561
29.614463,112.055206299,-8.786689758,2.670036316,-0.263375133,-0.433129758,0.858098030
29.615088,112.535858154,-8.466255188,3.448234558,-0.267769665,-0.416772336,0.857243538
29.615795,112.650299072,-8.290779114,4.203544617,-0.268868297,-0.397485226,0.856144905
29.616587,111.841583252,-7.817756653,5.981193542,-0.270455211,-0.354272336,0.858952522
29.617341,110.933685303,-7.939826965,6.850944519,-0.270211071,-0.338403195,0.856633186
29.618140,109.774017334,-7.756721497,7.674919128,-0.265816540,-0.319482297,0.854313850
29.618901,108.339691162,-7.535469055,8.849845886,-0.262032360,-0.294946164,0.851750374
29.619678,106.439971924,-7.474433899,9.650932312,-0.259224743,-0.275414914,0.853215218
29.620442,101.534271240,-6.917488098,11.619316101,-0.244454220,-0.223535031,0.847477913
29.621199,98.497772217,-6.742012024,12.626396179,-0.238350704,-0.202294797,0.846867561
29.621950,95.110321045,-6.192695618,13.770805359,-0.237618282,-0.184960812,0.843327522
29.622686,91.608428955,-5.857002258,14.884696960,-0.234810665,-0.166284055,0.841252327
29.623313,87.763214111,-5.643379211,15.838371277,-0.231758907,-0.149194211,0.842839241
29.625082,75.045013428,-4.758369446,19.073234558,-0.226998165,-0.091577023,0.831364632
29.625707,70.368194580,-4.498970032,20.263420105,-0.222359493,-0.071069211,0.828190804
29.626332,65.332794189,-4.445564270,21.461235046,-0.217598751,-0.053979371,0.825749397
29.626959,60.305023193,-4.262458801,22.498832703,-0.215401486,-0.036645386,0.822941780
29.627584,54.926300049,-4.033576965,23.902641296,-0.214669064,-0.022729371,0.816349983
29.628211,49.524688721,-3.995429993,24.757133484,-0.219063595,-0.014062379,0.813420296
29.628837,44.313812256,-4.094612122,25.970207214,-0.224922970,-0.005883668,0.812077522
29.629464,39.270782471,-4.430305481,27.023063660,-0.227364376,0.000463989,0.808171272
29.630089,33.953094482,-4.682075500,27.984367371,-0.227852657,0.009985473,0.804142952
29.630715,28.833770752,-4.888069153,29.075370789,-0.225045040,0.018164184,0.795231819
29.631341,23.928070068,-5.132209778,30.097709656,-0.221016720,0.029882934,0.788762093
29.644870,-32.170867920,-17.484199524,41.946159363,-0.148262814,0.037207153,0.723942757
29.645624,-32.392120361,-18.079292297,42.121635437,-0.148995236,0.034887817,0.729680061
29.646249,-32.254791260,-18.369209290,42.525993347,-0.152779415,0.033789184,0.735539436
29.646875,-32.018280029,-19.155036926,42.541252136,-0.156685665,0.029760864,0.734318733
29.647500,-31.453704834,-19.452583313,42.503105164,-0.159981564,0.026098754,0.740544319
29.648127,-30.896759033,-19.780647278,42.365776062,-0.149239376,0.034277465,0.743474007
29.648754,-30.362701416,-20.223152161,42.587028503,-0.150826290,0.046606567,0.746647835
29.649380,-29.698944092,-20.795356750,42.350517273,-0.149239376,0.051245239,0.751042366
29.650009,-28.981781006,-21.054756165,42.396293640,-0.142891720,0.062597781,0.755681038
29.650634,-28.424835205,-21.153938293,42.350517273,-0.144356564,0.066626102,0.764225960
29.651260,-27.379608154,-21.779548645,42.106376648,-0.145577267,0.077124149,0.771306038
29.651885,-27.150726318,-21.703254700,42.106376648,-0.148751095,0.085913211,0.775700569
29.652512,-26.647186279,-22.359382629,41.892753601,-0.155831173,0.088476688,0.783390999
29.653138,-25.853729248,-22.672187805,41.778312683,-0.159615353,0.088598758,0.788762093
29.653764,-24.800872803,-23.038398743,41.518913269,-0.162911251,0.093847781,0.790349007
29.654390,-24.022674561,-23.351203918,41.572319031,-0.161934689,0.101172000,0.795109749
29.655015,-22.977447510,-23.610603333,41.282402039,-0.159371212,0.116552860,0.798649788
29.655640,-22.115325928,-23.786079407,41.023002625,-0.158638790,0.123144656,0.807560921
29.656267,-21.596527100,-23.923408508,40.771232605,-0.160836056,0.130835086,0.813542366
29.656894,-20.635223389,-24.304878235,40.458427429,-0.161446407,0.138647586,0.815983772
29.657521,-19.864654541,-24.388801575,40.260063171,-0.160469845,0.143774539,0.818669319
29.658146,-19.132232666,-24.770271301,39.825187683,-0.162911251,0.153296024,0.823063850
29.658771,-18.170928955,-24.632942200,39.497123718,-0.168282345,0.155127078,0.824528694
29.659398,-17.522430420,-24.678718567,39.314018250,-0.171456173,0.160254031,0.826359749
29.660024,-16.461944580,-24.991523743,38.970695496,-0.174630001,0.165380985,0.832951546
29.660649,-15.538787842,-24.922859192,38.688407898,-0.177315548,0.170874149,0.833439827
29.661276,-14.295196533,-24.938117981,38.314567566,-0.180855587,0.175512820,0.836491585
29.661901,-13.745880127,-25.105964661,38.078056335,-0.179512814,0.184301883,0.837468147
29.662528,-12.525177002,-25.105964661,37.612663269,-0.183296993,0.189306766,0.841740608
29.663154,-11.571502686,-25.022041321,37.238822937,-0.188179806,0.195654422,0.846257210
29.663779,-10.610198975,-25.090705872,37.177787781,-0.188179806,0.200781375,0.849675179
29.664404,-9.793853760,-25.502693176,36.628471375,-0.192330196,0.196630985,0.857121468
29.665029,-8.657073975,-25.502693176,36.094413757,-0.196236446,0.199682742,0.857243538
29.665654,-7.558441162,-25.556098938,35.522209167,-0.197213009,0.203955203,0.853093147
29.666280,-6.192779541,-25.517951965,35.201774597,-0.196968868,0.206396610,0.853581429
29.666907,-5.185699463,-25.655281067,34.499870300,-0.194893673,0.213354617,0.855290413
29.667532,-3.903961182,-25.510322571,34.255729675,-0.193184689,0.214819461,0.862858772
29.668157,-3.072357178,-25.380622864,33.736930847,-0.197823361,0.218603641,0.862248421
29.668783,-1.683807373,-25.571357727,33.279167175,-0.198311642,0.219702274,0.862980843
29.669409,-0.585174561,-25.830757141,32.813774109,-0.204171017,0.215551883,0.867497444
29.670035,0.856781006,-25.876533508,32.294975281,-0.207466915,0.215063602,0.867619514
29.670660,2.184295654,-25.891792297,31.692253113,-0.207344845,0.217260867,0.871769905
29.671286,3.473663330,-25.960456848,31.211601257,-0.205513790,0.214819461,0.871647835
29.671912,4.755401611,-26.227485657,30.853019714,-0.198555782,0.217260867,0.877018929
29.672537,6.197357178,-26.052009583,30.074821472,-0.197213009,0.216162235,0.882512093
29.673164,7.723236084,-26.120674133,29.723869324,-0.199166134,0.212500125,0.879704475
29.673789,8.837127686,-26.311408997,29.227958679,-0.198921993,0.212011844,0.883000374
29.686440,41.864776611,-23.999702454,21.201835632,-0.144844845,0.138647586,0.931950569
29.687142,43.482208252,-23.938667297,20.805107117,-0.144356564,0.138037235,0.932805061
29.687767,45.046234131,-24.281990051,20.454154968,-0.141304806,0.134863406,0.936223030
29.688393,47.052764893,-23.816596985,20.393119812,-0.139473751,0.131567508,0.929631233
29.689019,48.769378662,-23.656379700,19.988761902,-0.140206173,0.132299930,0.928288460
29.689645,50.585174561,-23.572456360,19.706474304,-0.139595821,0.126806766,0.929875374
29.690270,52.416229248,-23.267280579,19.462333679,-0.142037228,0.129858524,0.927678108
29.690896,54.102325439,-23.190986633,19.279228210,-0.142281368,0.133032352,0.929631233
29.691521,55.643463135,-22.992622375,18.974052429,-0.142769650,0.132544070,0.930485725
29.692148,57.093048096,-22.946846008,18.752799988,-0.142525509,0.137060672,0.923771858
29.692775,58.580780029,-23.084175110,18.653617859,-0.146553829,0.139624149,0.927556038
29.693400,60.144805908,-22.893440247,18.607841492,-0.142891720,0.143530399,0.927922249
29.694027,61.342620850,-22.954475403,18.333183289,-0.147286251,0.145971805,0.930851936
29.694652,62.494659424,-23.366462708,18.226371765,-0.143013790,0.150122195,0.933903694
29.695278,63.539886475,-23.297798157,18.081413269,-0.145333126,0.153784305,0.931462288
29.695904,64.432525635,-23.557197571,17.944084167,-0.145699337,0.155737430,0.929387093
29.696529,65.325164795,-23.969184875,17.730461121,-0.139839962,0.153540164,0.927311897
29.697154,65.981292725,-24.281990051,17.684684753,-0.139962032,0.160254031,0.926823616
29.697780,66.553497314,-24.808418274,17.448173523,-0.133980587,0.160864383,0.923527718
29.698406,67.133331299,-25.258552551,17.295585632,-0.133492306,0.162695438,0.915349007
29.699032,67.690277100,-25.960456848,17.318473816,-0.126534298,0.170507938,0.911320686
29.699658,68.117523193,-26.532661438,17.219291687,-0.119698361,0.174170047,0.909611702
29.700285,68.384552002,-27.043830872,17.303215027,-0.109444454,0.181005985,0.906804085
29.700911,68.346405029,-27.677070618,17.303215027,-0.101021603,0.192846805,0.904362679
29.701536,68.666839600,-28.188240051,17.272697449,-0.087715939,0.203100711,0.898259163
29.702162,68.521881104,-28.829109192,17.425285339,-0.072335079,0.215918094,0.896916389
29.702789,68.224334717,-29.256355286,17.417655945,-0.055733521,0.235693485,0.896916389
29.703415,67.919158936,-29.431831360,17.562614441,-0.045235474,0.247168094,0.902043343
29.704042,66.721343994,-29.752265930,17.646537781,-0.032662231,0.260717899,0.906071663
29.704667,65.805816650,-30.148994446,17.951713562,-0.020088989,0.273291141,0.914250374
29.705292,64.768218994,-30.339729309,18.234001160,-0.009102661,0.289526492,0.919011116
29.705917,63.410186768,-30.423652649,18.707023621,0.003592651,0.311499149,0.926701546
29.706542,61.724090576,-30.553352356,18.623100281,0.014456909,0.328588992,0.937443733
29.707167,59.801483154,-30.576240540,18.943534851,0.020560425,0.341040164,0.947819710
29.707794,57.726287842,-30.637275696,18.966423035,0.029471558,0.360693485,0.959416389
29.708419,55.338287354,-30.889045715,19.386039734,0.031424683,0.375708133,0.970768929
29.709045,52.828216553,-30.774604797,19.805656433,0.039359253,0.393408328,0.978093147
29.709670,49.868011475,-30.911933899,19.584403992,0.038504761,0.405981570,0.985051155
29.710295,47.205352783,-30.744087219,20.118461609,0.045951050,0.416967899,0.994206429
29.710920,44.054412842,-30.866157532,20.248161316,0.052909058,0.429907352,1.004216194
29.711545,41.162872314,-30.576240540,20.362602234,0.059622925,0.442846805,1.011784554
29.712170,37.683868408,-30.515205383,20.553337097,0.058524292,0.455297977,1.018376350
29.712796,34.204864502,-30.515205383,20.751701355,0.059500854,0.469213992,1.028630257
29.713423,30.245208740,-30.179512024,20.812736511,0.059134644,0.482885867,1.032902718
29.714050,26.781463623,-30.118476868,20.896659851,0.056204956,0.485449344,1.043156624
29.714676,23.065948486,-30.156623840,21.087394714,0.055228394,0.491674930,1.053288460
29.715301,19.434356689,-29.897224426,21.133171082,0.058158081,0.499853641,1.061223030
29.729198,-40.418243408,-21.916877747,20.347343445,0.160208866,0.455053836,1.250309944
29.729939,-41.364288330,-21.176826477,20.026908875,0.166678593,0.454809695,1.261296272
29.730566,-42.325592041,-20.230781555,19.782768250,0.172904179,0.448217899,1.268620491
29.731191,-42.790985107,-19.353401184,19.660697937,0.177420780,0.443090945,1.280339241
29.731817,-43.370819092,-18.422615051,19.271598816,0.183768436,0.439795047,1.290349007
29.732442,-43.820953369,-17.499458313,18.966423035,0.187308475,0.435156375,1.297917366
29.733068,-44.171905518,-16.286384583,18.737541199,0.191458866,0.434668094,1.306340218
29.733693,-44.286346436,-15.225898743,18.226371765,0.190970585,0.434546024,1.314152718
29.734320,-44.194793701,-14.279853821,17.959342957,0.187674686,0.434668094,1.319401741
29.734945,-44.011688232,-12.975227356,17.692314148,0.187186405,0.432470828,1.333073616
29.735570,-43.904876709,-12.074958801,17.234550476,0.183402225,0.432592899,1.340153694
29.736195,-43.264007568,-11.052619934,16.608940125,0.179984257,0.432959110,1.346745491
29.736822,-42.951202393,-10.114204407,16.288505554,0.173758671,0.434423953,1.352482796
29.737448,-42.768096924,-9.175788879,15.647636414,0.172293827,0.438330203,1.355778694
29.738074,-42.218780518,-7.955085754,14.884696960,0.168997929,0.436132938,1.362492561
29.738701,-41.608428955,-6.955635071,14.396415710,0.166556522,0.434546024,1.365422249
29.739328,-41.020965576,-6.047737122,13.763175964,0.162528202,0.435766727,1.370305061
29.739953,-40.441131592,-4.979621887,12.977348328,0.156790897,0.427465945,1.371037483
29.740580,-40.052032471,-4.155647278,11.893974304,0.159110233,0.422583133,1.375920296
29.741205,-38.823699951,-2.980720520,12.084709167,0.159110233,0.455908328,1.374089241
29.741832,-37.175750732,-1.729499817,11.794792175,0.163993046,0.432104617,1.363835335
29.742459,-36.183929443,-0.722419739,10.711418152,0.137992069,0.422705203,1.384953499
29.743085,-35.710906982,-0.028144836,9.559379578,0.135062382,0.428076297,1.378727913
29.743710,-34.123992920,0.963676453,9.155021667,0.142020389,0.424536258,1.379460335
29.744337,-32.727813721,2.016532898,8.125053406,0.135916874,0.434790164,1.380681038
29.744963,-31.591033936,2.748954773,7.720695496,0.135550663,0.427832156,1.382634163
29.745588,-30.141448975,3.954399109,7.018791199,0.128592655,0.421484500,1.386418343
29.746215,-29.119110107,4.419792175,5.988822937,0.123587772,0.421362430,1.387028694
29.746840,-27.631378174,5.014884949,5.149589539,0.121512577,0.425512820,1.381535530
29.747466,-26.120758057,5.838859558,4.485832214,0.116629764,0.417578250,1.384099007
29.748091,-24.526214600,6.296623230,3.547416687,0.110282108,0.412939578,1.381291389
29.748716,-23.160552979,6.952751160,2.937065125,0.112479374,0.404272586,1.382390022
29.749343,-21.375274658,7.708061218,1.830802917,0.109549686,0.400854617,1.377507210
29.749969,-19.391632080,8.059013367,1.151786804,0.114310429,0.396460086,1.372624397
29.750596,-17.499542236,8.699882507,0.343070984,0.113211796,0.390356570,1.372380257
29.751221,-15.378570557,9.325492859,-0.343574524,0.121390507,0.376440555,1.371037483
29.751847,-13.326263428,9.996879578,-1.213325500,0.116263554,0.363501102,1.365300179
29.752474,-11.243438721,10.378349304,-1.846565247,0.119315311,0.360083133,1.363224983
29.753101,-8.740997314,10.950553894,-2.708686829,0.117606327,0.346655399,1.362004280
29.753726,-6.284332275,11.484611511,-3.395332336,0.119437382,0.336279422,1.364811897
29.754352,-3.644561768,12.155998230,-4.280342102,0.114432499,0.327124149,1.360417366
29.754977,-1.233673096,12.033927917,-5.188240051,0.114920780,0.314428836,1.356511116
29.755603,1.345062256,12.567985535,-5.882514954,0.112479374,0.301001102,1.348088264
29.756230,4.389190674,12.911308289,-6.546272278,0.115897343,0.289526492,1.345402718
29.756856,7.509613037,13.071525574,-7.446540833,0.116507694,0.277441531,1.340764046
29.757482,10.691070557,13.407218933,-8.178962708,0.119315311,0.265722781,1.330998421
29.758107,13.758087158,13.620841980,-9.041084290,0.122611210,0.254248172,1.329411507
29.758732,17.092132568,13.674247742,-9.788764954,0.123831913,0.245092899,1.323552132
29.771383,84.932708740,0.360954285,-21.888984680,0.233939335,0.141943485,1.140934944
29.772092,87.030792236,-0.958930969,-22.316230774,0.251395375,0.149755985,1.132023811
29.772718,88.770294189,-2.339851379,-22.362007141,0.263602406,0.155249149,1.130436897
29.773344,90.364837646,-3.690254211,-22.506965637,0.284842640,0.166601688,1.126774788
29.773969,91.799163818,-4.842292786,-22.835029602,0.300589710,0.180883914,1.120305061
29.774594,92.974090576,-6.505500793,-22.720588684,0.318045765,0.191504031,1.119816780
29.775220,93.668365479,-8.161079407,-22.918952942,0.337821156,0.205297977,1.116642952
29.775846,94.042205811,-9.244453430,-22.712959290,0.358695179,0.220312625,1.116887093
29.776472,94.019317627,-10.892402649,-22.781623840,0.377738148,0.234961063,1.120060921
29.777097,93.790435791,-12.357246399,-22.545112610,0.394827992,0.249975711,1.120793343
29.777723,93.271636963,-13.585578918,-22.552742004,0.413138539,0.272802860,1.118596077
29.778348,91.905975342,-14.905464172,-22.438301086,0.433402210,0.294287235,1.119938850
29.778974,90.402984619,-15.889656067,-22.316230774,0.448294789,0.318579227,1.121525764
29.779599,88.495635986,-17.270576477,-22.217048645,0.465262562,0.340185672,1.127751350
29.780225,86.046600342,-18.216621399,-21.888984680,0.478202015,0.365088016,1.131535530
29.780850,83.246612549,-18.979560852,-21.896614075,0.491507679,0.394140750,1.134099007
29.781475,79.950714111,-19.689094543,-21.583808899,0.498953968,0.412207156,1.140202522
29.782101,76.280975342,-20.299446106,-21.309150696,0.499076039,0.439550906,1.147526741
29.782726,72.046661377,-20.688545227,-20.988716125,0.500418842,0.472387820,1.148503304
29.783353,67.629241943,-21.031867981,-20.584358215,0.496390492,0.498510867,1.156437874
29.783979,62.746429443,-21.131050110,-20.035041809,0.486869007,0.523901463,1.161320686
29.784604,57.436370850,-21.451484680,-19.615425110,0.473807484,0.559301853,1.169621468
29.785354,51.798248291,-21.092903137,-18.989814758,0.458792835,0.591406345,1.178898811
29.785981,45.816802979,-20.444404602,-18.341316223,0.434378773,0.616552830,1.188176155
29.786607,39.377593994,-19.841682434,-18.356575012,0.403617054,0.635717869,1.199772835
29.787234,32.228851318,-19.742500305,-17.799629211,0.368704945,0.648169041,1.208317757
29.787860,24.477386475,-19.582283020,-18.142951965,0.335135609,0.682837009,1.227849007
29.788486,16.184234619,-19.353401184,-18.203987122,0.305228382,0.716528416,1.236393929
29.789113,7.418060303,-18.682014465,-17.273200989,0.281302601,0.738867283,1.255192757
29.789740,-1.065826416,-17.720710754,-16.952766418,0.232108280,0.752295017,1.265690804
29.790365,-10.388946533,-17.148506165,-16.533149719,0.179129764,0.754004002,1.288640022
29.790991,-19.666290283,-16.606819153,-16.479743958,0.133597538,0.756323338,1.304753304
29.808942,-158.666229248,-3.499519348,-11.062873840,0.098563358,-0.252709836,1.693669319
29.809568,-152.394866943,-2.133857727,-10.902656555,0.142874882,-0.302514523,1.705143929
29.810193,-145.818328857,-0.470649719,-10.948432922,0.176200077,-0.341821164,1.714543343
29.810818,-138.654327393,1.192558289,-10.620368958,0.214530155,-0.378564328,1.726506233
29.811443,-131.375885010,3.168571472,-10.437263489,0.250907093,-0.406762570,1.741154671
29.812070,-123.563385010,4.816520691,-11.093391418,0.287894398,-0.462548703,1.752751350
29.812696,-115.399932861,6.281364441,-11.558784485,0.329398304,-0.480248898,1.749333382
29.813323,-105.985260010,8.303153992,-10.048164368,0.394950062,-0.485009640,1.763005257
29.813948,-95.677947998,11.339653015,-9.720100403,0.418509632,-0.516870022,1.765324593
29.814574,-86.347198486,13.559806824,-10.307563782,0.434867054,-0.551049709,1.791081429
29.815201,-76.558685303,15.764701843,-10.399116516,0.437552601,-0.557885647,1.792424202
29.815827,-66.259002686,17.275321960,-10.345710754,0.488455921,-0.602807522,1.807438850
29.816454,-56.310272217,19.480216980,-11.398567200,0.518851459,-0.620385647,1.826970100
29.817080,-45.873260498,21.540153503,-11.009468079,0.549491107,-0.615014553,1.829777718
29.817706,-35.474395752,23.531425476,-10.795845032,0.578787982,-0.614404202,1.841496468
29.831669,140.619659424,71.810234070,-12.405647278,0.757865131,-0.115014523,1.698674202
29.832434,145.685577393,76.822746277,-12.306465149,0.796927631,-0.065453976,1.674504280
29.833060,147.272491455,79.233634949,-12.253059387,0.799369037,-0.029931519,1.671452522
29.833685,148.104095459,81.171501160,-12.176765442,0.776908100,0.007421996,1.659855843
29.834312,148.950958252,83.315361023,-12.565864563,0.754203022,0.046484496,1.638859749
29.834937,148.676300049,85.230339050,-12.619270325,0.741019428,0.085302860,1.613835335
29.835563,148.172760010,86.962211609,-13.015998840,0.735526264,0.125463992,1.594670296
29.836188,147.241973877,88.915336609,-13.214363098,0.736624897,0.150854617,1.571965218
29.836813,145.334625244,90.639579773,-13.389839172,0.734427631,0.178564578,1.558171272
29.837439,143.526458740,92.463005066,-13.511909485,0.733084857,0.202490360,1.543889046
29.838064,141.153717041,94.202507019,-13.473762512,0.726737201,0.226538211,1.526555061
29.838691,138.765716553,95.774162292,-13.679756165,0.717826068,0.246923953,1.505070686
29.839316,135.607147217,97.399223328,-13.756050110,0.701956928,0.259741336,1.482243538
29.839943,132.128143311,98.772514343,-14.625801086,0.687430561,0.266455203,1.455143929
29.840568,127.626800537,100.069511414,-15.465034485,0.684378803,0.304419070,1.442814827
29.841193,123.659515381,101.366508484,-15.915168762,0.680594623,0.333227664,1.420720100
29.841818,120.287322998,103.266227722,-15.251411438,0.664969623,0.336401492,1.389225960
29.842445,117.479705811,104.944694519,-14.549507141,0.636527240,0.330542117,1.355534554
29.843070,114.191436768,106.127250671,-14.442695618,0.604666889,0.313086063,1.325871468
29.843696,109.812164307,106.943595886,-14.557136536,0.573538959,0.319189578,1.301213264
29.844322,105.120086670,107.584465027,-14.946235657,0.561331928,0.357275516,1.271428108
29.844948,100.771331787,108.667839050,-14.709724426,0.555716693,0.391577274,1.240422249
29.845574,96.422576904,110.086906433,-14.663948059,0.533377826,0.394873172,1.218327522
29.846199,91.555023193,110.941398621,-14.946235657,0.509818256,0.389257938,1.193913460
29.846824,86.695098877,111.078727722,-15.480293274,0.484305531,0.398169070,1.159123421
29.847450,81.461334229,111.460197449,-15.793098450,0.465262562,0.411474735,1.133610725
29.848075,76.189422607,111.895072937,-15.899909973,0.442313343,0.426977664,1.113957405
29.848700,70.627593994,111.986625671,-16.472114563,0.417533070,0.435522586,1.088810921
29.849327,64.600372314,112.169731140,-16.517890930,0.396536976,0.443090945,1.062199593
29.849953,59.305572510,111.773002625,-16.403450012,0.376761585,0.429785281,1.029728889
29.850617,54.102325439,111.826408386,-16.723884583,0.349906117,0.427343875,1.012394905
29.851243,47.975921631,111.277091980,-16.746772766,0.326224476,0.433081180,0.986149788
29.851888,42.627716064,110.887992859,-16.357673645,0.319754750,0.433325320,0.967961311
29.852618,37.119293213,110.956657410,-16.525520325,0.301322132,0.445532352,0.943303108
29.853398,31.359100342,110.430229187,-16.495002747,0.276908070,0.446142703,0.923283577
29.854149,25.507354736,109.789360046,-16.487373352,0.269339710,0.455542117,0.905095100
29.854935,13.506317139,108.988273621,-16.792549133,0.240042850,0.458227664,0.872014046
29.855705,7.204437256,108.095634460,-16.945137024,0.223685429,0.464819461,0.854435921
29.856475,0.811004639,107.111442566,-16.998542786,0.208182499,0.456762820,0.840764046
29.857219,-5.231475830,106.089103699,-16.739143372,0.190726444,0.449194461,0.828923225
29.857993,-17.331695557,103.899467468,-16.647590637,0.150199100,0.425512820,0.800724983
29.858758,-22.992706299,102.228630066,-16.533149719,0.131278202,0.412207156,0.789982796
29.859459,-28.936004639,100.924003601,-16.388191223,0.115653202,0.398047000,0.777775764
29.860084,-34.268951416,99.413383484,-16.075386047,0.094046757,0.383764774,0.764103889
29.860710,-39.601898193,97.895133972,-15.892280579,0.078299686,0.368872195,0.746769905
29.861337,-44.751739502,96.064079285,-15.907539368,0.059134644,0.349096805,0.729557991
29.861963,-49.428558350,94.141471863,-15.625251770,0.035208862,0.325537235,0.711857796
29.874649,-61.254119873,48.273551941,-11.528266907,-0.329415172,-0.192040890,0.462956429
29.875359,-57.920074463,45.580375671,-11.139167786,-0.335884899,-0.208764523,0.463200569
29.875986,-54.982757568,43.230522156,-10.643257141,-0.342964977,-0.219262570,0.464787483
29.876612,-51.580047607,40.659416199,-10.719551086,-0.359200329,-0.241235226,0.466740608
29.877237,-48.230743408,37.882316589,-10.353340149,-0.375557750,-0.262719601,0.461735725
29.877862,-44.515228271,34.784782410,-10.391487122,-0.383736461,-0.270654172,0.460026741
29.878489,-41.066741943,31.786430359,-10.139717102,-0.388619274,-0.269189328,0.465397835
29.879114,-37.229156494,29.123771667,-9.872688293,-0.392525524,-0.277612180,0.470768929
29.879739,-33.307647705,26.552665710,-9.468330383,-0.395211071,-0.288354367,0.476994514
29.880366,-29.462432861,23.577201843,-9.094490051,-0.395943493,-0.298608273,0.476750374
29.880993,-25.647735596,20.670402527,-9.125007629,-0.399483532,-0.298486203,0.481389046
29.881620,-21.825408936,17.611015320,-8.842720032,-0.402047008,-0.293603390,0.490178108
29.882245,-18.186187744,15.017021179,-8.781684875,-0.403023571,-0.290063351,0.492985725
29.882870,-14.714813232,12.194145203,-8.407844543,-0.402901500,-0.291528195,0.499333382
29.883495,-11.029815674,9.508598328,-8.247627258,-0.401314586,-0.293725461,0.500798225
29.884121,-7.314300537,6.716239929,-7.881416321,-0.395333141,-0.289941281,0.510563850
29.884747,-3.743743896,4.389274597,-7.667793274,-0.389473766,-0.286645383,0.517643929
29.885373,-0.424957275,1.718986511,-7.431282043,-0.379708141,-0.280908078,0.524601936
29.886000,2.680206299,-0.699531555,-7.187141418,-0.368233532,-0.276147336,0.529484749
29.886625,8.776092529,-4.971992493,-6.592048645,-0.351754040,-0.261743039,0.546452522
29.887292,11.774444580,-6.993782043,-6.286872864,-0.345162243,-0.252099484,0.557072639
29.887917,14.284515381,-9.038459778,-6.027473450,-0.334297985,-0.235131711,0.569035530
29.888544,16.451263428,-10.633003235,-5.501045227,-0.322823375,-0.224633664,0.576603889
29.889171,18.488311768,-12.235176086,-5.371345520,-0.314156383,-0.211694211,0.582097054
29.889798,20.342254639,-13.761054993,-4.883064270,-0.304512829,-0.200585812,0.594548225
29.890424,22.089385986,-14.867317200,-4.539741516,-0.298897594,-0.188622922,0.601750374
29.891050,23.439788818,-16.171943665,-4.211677551,-0.291695446,-0.175683469,0.612492561
29.891676,24.736785889,-17.430793762,-3.921760559,-0.286446422,-0.159326047,0.619572639
29.892302,25.339508057,-18.552314758,-3.273262024,-0.278755993,-0.136620969,0.635930061
29.892928,26.163482666,-19.452583313,-2.846015930,-0.272408336,-0.119531125,0.642521858
29.893554,26.544952393,-20.352851868,-2.327217102,-0.264962047,-0.106469601,0.652287483
29.894179,26.674652100,-21.314155579,-1.877082825,-0.255440563,-0.092065305,0.667302132
29.894804,26.728057861,-21.993171692,-1.526130676,-0.249337032,-0.073754758,0.682194710
29.895429,26.300811768,-22.389900208,-0.946296692,-0.242989376,-0.054833863,0.690861702
29.896055,25.713348389,-23.168098450,-0.381721497,-0.238472775,-0.036645386,0.703679085
29.896681,25.179290771,-23.824226379,0.091300964,-0.226998165,-0.022119019,0.716862679
29.897308,24.065399170,-24.381172180,0.533805847,-0.219918087,-0.007592652,0.727482796
29.897933,22.730255127,-24.686347961,1.067863464,-0.211006954,0.006689575,0.738591194
29.898560,21.288299561,-25.159370422,1.670585632,-0.205880001,0.023291137,0.746891975
29.899185,19.579315186,-25.556098938,2.006278992,-0.201607540,0.034765746,0.762028694
29.899811,17.771148682,-26.036750793,2.662406921,-0.191963986,0.047338989,0.770939827
29.900437,15.863800049,-26.151191711,3.082023621,-0.180001095,0.060278442,0.778996468
29.901063,13.903045654,-26.517402649,3.547416687,-0.176583126,0.062841922,0.787785530
29.901688,11.881256104,-26.441108704,3.883110046,-0.169136837,0.068457156,0.794987679
29.902314,9.821319580,-26.608955383,4.279838562,-0.165474728,0.075048953,0.802189827
29.902941,7.631683350,-26.708137512,4.585014343,-0.162545040,0.079931766,0.805851936
29.903566,5.808258057,-26.479255676,4.829154968,-0.157784298,0.084814578,0.816716194
29.916271,-7.238006592,-21.207344055,8.315788269,-0.308785290,-0.081323117,0.869206429
29.917017,-6.398773193,-21.260749817,8.361564636,-0.315499157,-0.081078976,0.867741585
29.917642,-5.223846436,-21.100532532,8.300529480,-0.320992321,-0.087548703,0.865544319
29.918267,-4.483795166,-20.955574036,8.498893738,-0.329659313,-0.093286008,0.865300179
29.918893,-3.385162354,-20.993721008,8.437858582,-0.334297985,-0.094506711,0.861760139
29.919519,-2.042388916,-20.734321594,8.620964050,-0.341866344,-0.096826047,0.863713264
29.920146,-1.111602783,-20.345222473,8.590446472,-0.347603649,-0.098535031,0.859684944
29.920772,-0.005340576,-20.192634583,8.765922546,-0.352730602,-0.098290890,0.862614632
29.921397,0.925445557,-20.047676086,8.796440125,-0.353463024,-0.092919797,0.859807014
29.922024,1.657867432,-19.513618469,8.872734070,-0.357857555,-0.090356320,0.857609749
29.922650,2.687835693,-19.452583313,8.979545593,-0.362252086,-0.084130734,0.859318733
29.923277,3.252410889,-19.353401184,9.155021667,-0.367134899,-0.075219601,0.860783577
29.923904,3.870391846,-18.811714172,9.383903503,-0.370186657,-0.070458859,0.862004280
29.924529,4.137420654,-18.743049622,9.444938660,-0.373116344,-0.065820187,0.863102913
29.925156,4.290008545,-18.521797180,9.635673523,-0.373726696,-0.055322144,0.862980843
29.925781,4.473114014,-18.445503235,9.856925964,-0.378731579,-0.046899293,0.862370491
29.926406,4.457855225,-18.331062317,9.902702332,-0.383126110,-0.034814332,0.865666389
29.927031,4.297637939,-18.102180481,10.215507507,-0.387398571,-0.025048707,0.867009163
29.927658,4.022979736,-18.071662903,10.360466003,-0.389229625,-0.011620972,0.864445686
29.928285,3.244781494,-17.827522278,10.596977234,-0.390328258,-0.007104371,0.863957405
29.928911,2.550506592,-17.690193176,10.947929382,-0.392891735,0.008276489,0.859440804
29.929536,1.642608643,-17.789375305,11.161552429,-0.389962047,0.020483520,0.861760139
29.930161,0.543975830,-17.301094055,11.382804871,-0.395455211,0.030005004,0.857853889
29.931890,-3.926849365,-16.873847961,12.054191589,-0.396920055,0.058935668,0.845646858
29.932517,-5.384063721,-16.263496399,12.450920105,-0.399239391,0.066259891,0.846745491
29.933142,-6.925201416,-16.156684875,12.786613464,-0.400460094,0.072485477,0.844059944
29.933768,-8.740997314,-15.943061829,13.038383484,-0.402779430,0.078344852,0.838810921
29.934395,-10.663604736,-15.637886047,13.168083191,-0.405098766,0.088720828,0.839421272
29.935021,-12.555694580,-15.378486633,13.541923523,-0.405709118,0.096289188,0.832829475
29.935646,-14.394378662,-14.768135071,13.801322937,-0.412667125,0.102514774,0.834904671
29.936272,-16.370391846,-14.485847473,14.091239929,-0.415352672,0.106543094,0.832463264
29.936898,-18.399810791,-14.173042297,14.312492371,-0.420967907,0.110327274,0.829167366
29.937524,-20.497894287,-13.593208313,14.640556335,-0.421822399,0.115454227,0.829045296
29.938149,-22.733306885,-13.318550110,14.892326355,-0.425484508,0.119604617,0.828068733
29.938775,-24.655914307,-13.082038879,15.182243347,-0.431465954,0.123266727,0.827336311
29.939401,-26.784515381,-12.990486145,15.403495789,-0.437325329,0.129126102,0.829289436
29.940027,-28.905487061,-12.982856750,15.678153992,-0.439888805,0.130102664,0.827092171
29.940654,-31.110382080,-12.532722473,15.853630066,-0.442574352,0.135962039,0.829167366
29.941281,-32.971954346,-12.502204895,16.166435242,-0.445381969,0.135473758,0.828434944
29.941906,-35.001373291,-12.380134583,16.502128601,-0.448555797,0.137426883,0.830021858
29.942532,-37.107086182,-12.311470032,16.662345886,-0.449654430,0.137915164,0.825627327
29.943157,-39.144134521,-12.204658508,16.601310730,-0.448799938,0.133398563,0.825749397
29.943784,-40.952301025,-12.166511536,16.967521667,-0.450997204,0.132666141,0.825383186
29.944411,-42.340850830,-12.227546692,17.097221375,-0.450142711,0.130957156,0.826237679
29.945037,-44.164276123,-11.846076965,17.478691101,-0.446358532,0.127172977,0.824650764
29.945663,-45.873260498,-11.830818176,17.440544128,-0.445381969,0.125341922,0.826481819
29.946289,-46.811676025,-11.693489075,17.379508972,-0.440621227,0.123388797,0.827946663
29.958949,-38.282012939,-7.550727844,16.395317078,-0.353340954,0.000952270,0.803166389
29.959644,-36.313629150,-7.276069641,15.983329773,-0.346260875,-0.005273316,0.800969124
29.960270,-34.001922607,-7.001411438,15.640007019,-0.340279430,-0.014550660,0.800480843
29.960895,-31.583404541,-7.070075989,15.350090027,-0.330513805,-0.022119019,0.804265022
29.961521,-29.103851318,-6.841194153,15.205131531,-0.323677868,-0.028710816,0.803898811
29.962146,-26.555633545,-6.566535950,14.922843933,-0.317574352,-0.033227418,0.804753304
29.962772,-23.656463623,-6.612312317,14.625297546,-0.311226696,-0.040307496,0.802800179
29.963398,-20.948028564,-5.979072571,14.198051453,-0.300972790,-0.046411011,0.802678108
29.964023,-17.819976807,-6.047737122,13.862358093,-0.290596813,-0.050683472,0.799138069
29.964649,-15.004730225,-5.696784973,13.480888367,-0.282784313,-0.053369019,0.799748421
29.965276,-12.052154541,-5.651008606,13.168083191,-0.277657360,-0.062890500,0.798405647
29.965902,-8.939361572,-5.338203430,12.801872253,-0.267159313,-0.066918820,0.798161507
29.966527,-5.475616455,-4.880439758,12.321220398,-0.261055797,-0.072778195,0.794255257
29.967152,-2.011871338,-4.575263977,11.787162781,-0.248970821,-0.077538937,0.796940804
29.967777,1.139068604,-4.376899719,11.359916687,-0.241402462,-0.078759640,0.796452522
29.968404,4.640960693,-4.018318176,10.818229675,-0.233712032,-0.082787961,0.792790413
29.969029,8.409881592,-3.835212708,10.535942078,-0.224556759,-0.084252805,0.792180061
29.969655,11.682891846,-3.324043274,9.811149597,-0.210640743,-0.086328000,0.790226936
29.970281,15.139007568,-2.988349915,9.544120789,-0.205880001,-0.090966672,0.788273811
29.970906,18.854522705,-2.461921692,9.093986511,-0.194893673,-0.093774289,0.786076546
29.971532,22.325897217,-1.882087708,8.666740417,-0.185372189,-0.092675656,0.785832405
29.972158,25.827789307,-1.607429504,8.163200378,-0.177803829,-0.093041867,0.786320686
29.972784,29.306793213,-1.149665833,7.652030945,-0.168892696,-0.092919797,0.781559944
29.973410,32.640838623,-0.333320618,7.385002136,-0.164009884,-0.092797726,0.783757210
29.974037,35.951995850,-0.165473938,6.812797546,-0.162056759,-0.093163937,0.784977913
29.974664,39.392852783,0.338066101,6.515251160,-0.158394650,-0.095971555,0.778141975
29.975291,42.490386963,1.039970398,6.088005066,-0.161202267,-0.090356320,0.777287483
29.975917,45.496368408,1.505363464,5.439506531,-0.158150509,-0.087426633,0.777775764
29.976544,48.487091064,2.161491394,5.172477722,-0.158882931,-0.088036984,0.769597054
29.977169,51.416778564,2.733695984,4.623161316,-0.157906368,-0.083398312,0.768498421
29.977794,54.178619385,3.572929382,4.424797058,-0.162545040,-0.078515500,0.763493538
29.978421,56.780242920,3.809440613,4.058586121,-0.164254025,-0.078515500,0.759709358
29.979047,59.175872803,4.549491882,3.516899109,-0.166695431,-0.080712765,0.752873421
29.979672,61.449432373,5.297172546,3.181205750,-0.177315548,-0.077416867,0.746281624
29.980297,63.791656494,5.510795593,2.814994812,-0.182686642,-0.079003781,0.739811897
29.980924,65.645599365,5.846488953,2.403007507,-0.186104611,-0.075463742,0.735783577
29.981549,67.621612549,6.533134460,2.151237488,-0.184639767,-0.065576047,0.736027718
29.982174,69.101715088,6.975639343,1.746879578,-0.184883907,-0.063867062,0.738347054
29.982801,70.604705811,7.677543640,1.472221375,-0.188301876,-0.064477414,0.732487679
29.983426,72.000885010,7.944572449,1.281486511,-0.191719845,-0.063134640,0.727116585
29.984053,73.099517822,8.638847351,1.037345886,-0.200875118,-0.060937379,0.721379280
29.984679,74.297332764,8.989799500,0.945793152,-0.210640743,-0.056176636,0.710026741
29.985305,75.106048584,9.417045593,0.816093445,-0.223946407,-0.051415894,0.696721077
29.985930,75.792694092,9.935844421,0.510917664,-0.229561642,-0.048486207,0.686711311
29.986555,76.570892334,10.515678406,0.243888855,-0.236397579,-0.044946168,0.675602913
29.987180,77.219390869,10.981071472,-0.030769348,-0.239449337,-0.041039918,0.666691780
29.987805,77.364349365,11.393058777,0.045524597,-0.245308712,-0.039330933,0.660588264
30.000518,48.677825928,13.010490417,1.517997742,-0.403633922,0.018286254,0.434391975
30.001266,45.725250244,12.499320984,1.945243835,-0.412545055,0.019384887,0.424870491
30.001891,43.093109131,11.766899109,2.364860535,-0.426705211,0.011328246,0.413640022
30.002517,40.361785889,11.072624207,2.624259949,-0.435616344,0.008642700,0.398259163
30.003143,37.439727783,10.653007507,2.792106628,-0.449044079,0.007299926,0.385685921
30.003769,34.784698486,9.630668640,3.371940613,-0.459908336,0.004492309,0.371891975
30.004395,31.992340088,8.753288269,3.562675476,-0.470528454,0.002905395,0.359562874
30.005020,29.268646240,7.929313660,3.974662781,-0.479805797,-0.008080933,0.347844124
30.005645,26.590728760,6.823051453,4.340873718,-0.490425915,-0.015161011,0.331730843
30.006272,23.882293701,5.983818054,4.729972839,-0.504708111,-0.014306519,0.321721077
30.006898,21.692657471,4.808891296,5.195365906,-0.517403424,-0.023705933,0.309758186
30.007524,19.449615479,3.672111511,6.095634460,-0.532540143,-0.037133668,0.303044319
30.008150,16.847991943,2.199638367,6.477104187,-0.551583111,-0.041528199,0.296818733
30.008776,14.231109619,0.444877625,6.889091492,-0.565132916,-0.043847535,0.290837288
30.009403,11.667633057,-1.271736145,7.453666687,-0.578438580,-0.053002808,0.280827522
30.010029,9.195709229,-3.186714172,7.880912781,-0.590523541,-0.058373902,0.275944710
30.010655,7.311248779,-5.132209778,8.277641296,-0.610909283,-0.063867062,0.270207405
30.011282,5.075836182,-6.894599915,8.804069519,-0.620064557,-0.072411984,0.264225960
30.011908,3.092193604,-9.061347961,9.177909851,-0.630928814,-0.079492062,0.258244514
30.012535,1.070404053,-11.342536926,9.872184753,-0.635445416,-0.083032101,0.251774788
30.013162,-0.760650635,-13.356697083,10.390983582,-0.647286236,-0.084130734,0.247258186
30.013787,-2.729034424,-15.531074524,10.818229675,-0.659371197,-0.082177609,0.244572639
30.014413,-5.338287354,-17.957221985,10.993705750,-0.658028424,-0.087548703,0.246647835
30.015039,-7.108306885,-20.200263977,11.405693054,-0.667549908,-0.105615109,0.237004280
30.015666,-8.451080322,-22.016059875,12.130485535,-0.667183697,-0.121972531,0.228337288
30.016292,-9.816741943,-24.121772766,12.893424988,-0.671334088,-0.133569211,0.230900764
30.016917,-10.686492920,-25.907051086,13.869987488,-0.676094830,-0.138085812,0.228825569
30.017543,-11.609649658,-28.081428528,14.381156921,-0.680611432,-0.145410031,0.227482796
30.018168,-12.601470947,-29.988777161,14.754997253,-0.680245221,-0.145410031,0.228459358
30.018793,-13.867950439,-32.178413391,15.632377625,-0.680733502,-0.140649289,0.233586311
30.019419,-15.012359619,-34.146797180,16.196952820,-0.677193463,-0.140527219,0.238591194
30.020045,-16.263580322,-36.130439758,16.463981628,-0.675972760,-0.149560422,0.243107796
30.020671,-16.965484619,-37.953865051,17.280326843,-0.676216900,-0.153100461,0.255558968
30.021298,-17.919158936,-40.410530090,17.814384460,-0.669747174,-0.157983273,0.268742561
30.021923,-18.758392334,-42.218696594,18.089042664,-0.668038189,-0.162133664,0.277043343
30.022550,-19.658660889,-44.576179504,18.630729675,-0.661202252,-0.163720578,0.287907600
30.023176,-20.391082764,-46.849739075,19.378410339,-0.655220807,-0.162621945,0.300236702
30.023802,-21.062469482,-48.818122864,19.820915222,-0.644356549,-0.161157101,0.315861702
30.024429,-22.000885010,-50.855171204,20.225273132,-0.635445416,-0.161767453,0.330632210
30.025055,-22.740936279,-52.983772278,20.805107117,-0.625923932,-0.169579953,0.345158577
30.025682,-23.336029053,-55.104743958,21.217094421,-0.611031353,-0.177880734,0.363469124
30.026309,-23.725128174,-57.065498352,21.743522644,-0.597359478,-0.180688351,0.374699593
30.026934,-24.007415771,-58.988105774,22.124992371,-0.584786236,-0.184350461,0.388371468
30.027560,-24.083709717,-60.628425598,22.613273621,-0.568917096,-0.189111203,0.405217171
30.028186,-24.259185791,-62.383186340,23.292289734,-0.552681744,-0.193017453,0.418156624
30.028811,-24.434661865,-63.634407043,23.696647644,-0.538887799,-0.194848508,0.431584358
30.029438,-24.152374268,-64.946662903,24.123893738,-0.521309674,-0.191674680,0.446476936
30.060671,38.820648193,-44.255744934,28.815971375,0.167044804,0.021093871,1.103947639
30.061418,38.698577881,-43.027412415,28.167472839,0.195609257,0.030493286,1.112004280
30.062045,38.751983643,-41.646492004,28.419242859,0.219168827,0.043432739,1.108342171
30.062670,38.805389404,-40.189277649,28.373466492,0.238211796,0.058203246,1.110783577
30.063297,38.553619385,-38.968574524,28.083549500,0.245291874,0.078344852,1.117985725
30.063922,37.958526611,-37.396919250,27.877555847,0.254935414,0.090429813,1.122014046
30.064548,37.035369873,-35.451423645,27.763114929,0.253836781,0.095556766,1.119450569
30.065174,36.333465576,-33.948432922,27.145133972,0.262625843,0.093115360,1.120549202
30.065799,35.784149170,-32.414924622,27.053581238,0.272391468,0.097143680,1.127018929
30.066425,35.395050049,-30.599128723,26.679740906,0.282889515,0.102270633,1.133610725
30.067050,34.883880615,-28.653633118,26.160942078,0.293143421,0.108496219,1.142277718
30.067676,34.204864502,-26.608955383,26.107536316,0.299124867,0.116674930,1.144719124
30.068301,33.731842041,-24.709236145,26.046501160,0.305960804,0.117285281,1.149479866
30.068926,33.029937744,-22.908699036,25.802360535,0.305472523,0.122900516,1.155217171
30.069551,32.328033447,-20.955574036,25.535331726,0.304984242,0.123144656,1.154240608
30.070176,31.626129150,-19.124519348,25.108085632,0.301810414,0.123388797,1.160710335
30.070803,31.267547607,-17.438423157,24.772392273,0.307303578,0.128881961,1.166935921
30.071430,30.451202393,-15.500556946,24.421440125,0.308036000,0.136938602,1.171940804
30.072055,29.665374756,-13.700019836,24.146781921,0.311698109,0.141088992,1.176823616
30.072680,28.719329834,-12.197029114,23.933158875,0.307303578,0.142065555,1.181584358
30.073306,27.925872803,-10.678779602,23.635612488,0.307547718,0.143042117,1.187321663
30.073932,27.101898193,-8.885871887,23.261772156,0.299491078,0.144873172,1.194401741
30.074559,26.316070557,-7.634651184,22.758232117,0.298514515,0.144629031,1.198307991
30.075186,25.377655029,-6.162178040,22.559867859,0.299246937,0.150854617,1.202824593
30.075811,24.462127686,-5.078804016,22.269950867,0.296073109,0.149145633,1.202458382
30.076438,23.683929443,-3.896247864,21.720634460,0.293631703,0.146582156,1.199528694
30.077065,22.753143311,-2.652656555,21.377311707,0.293021351,0.143408328,1.197087288
30.077690,22.051239014,-1.431953430,21.125541687,0.296073109,0.142553836,1.196599007
30.078316,21.440887451,-0.066291809,20.591484070,0.297049671,0.144751102,1.192814827
30.078942,20.670318604,1.177299500,20.477043152,0.299979359,0.138037235,1.186100960
30.079568,20.243072510,2.398002625,20.011650085,0.303763539,0.141943485,1.177067757
30.080193,19.739532471,3.969657898,19.668327332,0.302176625,0.139624149,1.170475960
30.080818,19.289398193,5.510795593,19.363151550,0.298514515,0.136328250,1.164372444
30.081444,19.251251221,6.945121765,19.065605164,0.300833851,0.131689578,1.156682014
30.082070,18.701934814,8.676994324,18.630729675,0.299124867,0.133764774,1.149968147
30.082696,18.579864502,10.416496277,18.119560242,0.299002796,0.131079227,1.145329475
30.083323,18.572235107,11.858451843,18.058525085,0.294486195,0.132177860,1.146061897
30.083948,18.122100830,13.735282898,17.776237488,0.291678578,0.130468875,1.139348030
30.084574,17.992401123,15.383232117,17.127738953,0.279471546,0.129736453,1.136662483
30.085200,18.015289307,16.802299500,16.868339539,0.268485218,0.130957156,1.132512093
30.085826,17.984771729,18.312919617,16.517387390,0.260916859,0.132666141,1.126652718
30.086452,17.671966553,19.800651550,16.082511902,0.248953983,0.135351688,1.125798225
30.087079,17.580413818,20.983207703,15.609489441,0.237235233,0.139013797,1.120182991
30.087705,17.183685303,22.066581726,15.403495789,0.224539921,0.138769656,1.117497444
30.088332,16.992950439,23.378837585,14.716850281,0.209891483,0.139135867,1.111515999
30.088959,16.802215576,24.599540710,14.312492371,0.200736210,0.137182742,1.109929085
30.089585,16.458892822,25.621879578,13.915763855,0.188651249,0.137060672,1.104435921
30.090210,16.260528564,26.476371765,13.458000183,0.174979374,0.136938602,1.098942757
30.103008,21.326446533,30.741203308,3.799186707,-0.027901489,0.039282348,0.904240608
30.103763,21.845245361,30.764091492,3.677116394,-0.037545044,0.038549926,0.899113655
30.104388,22.493743896,30.580986023,3.410087585,-0.044380981,0.037207153,0.895451546
30.105015,23.119354248,30.275810242,3.257499695,-0.055489380,0.030127075,0.891789436
30.105640,23.790740967,29.993522644,2.746330261,-0.066109493,0.031836059,0.891301155
30.106265,24.431610107,29.528129578,2.593742371,-0.077339962,0.028906371,0.891057014
30.106891,24.675750732,29.024589539,2.639518738,-0.089302853,0.028418090,0.887394905
30.107516,25.194549561,28.765190125,2.029167175,-0.100899532,0.028296020,0.888859749
30.108143,25.072479248,28.109062195,2.113090515,-0.109688595,0.024511840,0.883976936
30.108768,25.484466553,27.773368835,1.815544128,-0.121773556,0.024755981,0.882390022
30.109393,25.736236572,27.369010925,1.785026550,-0.130074337,0.023046996,0.884709358
30.110018,25.621795654,26.758659363,1.823173523,-0.141915157,0.023779418,0.883366585
30.110645,25.514984131,26.178825378,1.708732605,-0.155464962,0.025488403,0.882023811
30.111270,25.255584717,25.835502625,1.601921082,-0.167183712,0.026709106,0.881535530
30.111895,25.148773193,25.354850769,1.579032898,-0.176216915,0.026220825,0.883366585
30.112520,24.507904053,24.782646179,1.579032898,-0.187691525,0.024389770,0.886906624
30.113145,24.080657959,24.057853699,1.617179871,-0.196236446,0.028051879,0.887150764
30.113771,23.783111572,23.615348816,1.662956238,-0.208077267,0.023901489,0.889592171
30.114396,23.065948486,22.806632996,1.609550476,-0.210518673,0.023535278,0.892765999
30.115021,22.509002686,22.257316589,2.097831726,-0.216866329,0.022924926,0.893620491
30.115648,21.456146240,21.784294128,2.052055359,-0.221993282,0.025122192,0.898259163
30.116273,20.670318604,21.059501648,2.341972351,-0.224434689,0.023291137,0.902287483
30.116900,19.556427002,20.945060730,2.494560242,-0.226143673,0.019873168,0.903264046
30.117526,18.663787842,20.426261902,2.685295105,-0.225411251,0.016943481,0.909123421
30.118151,17.794036865,19.861686707,2.891288757,-0.230660275,0.013281371,0.915837288
30.118776,16.672515869,19.289482117,3.089653015,-0.236885861,0.011694457,0.919621468
30.119402,15.703582764,19.114006042,3.425346375,-0.233712032,0.010473754,0.922551155
30.120028,14.711761475,18.755424500,3.875480652,-0.237007931,0.006201293,0.927678108
30.120653,13.254547119,18.404472351,4.264579773,-0.233223751,0.006567504,0.935856819
30.121278,12.285614014,18.213737488,4.577384949,-0.233467892,0.001928832,0.938542366
30.121903,10.927581787,17.733085632,5.187736511,-0.232613400,0.000097778,0.943547249
30.122528,9.783172607,17.565238953,5.340324402,-0.232491329,-0.006371949,0.949772835
30.123155,8.707427979,16.878593445,5.897270203,-0.227242306,-0.008935425,0.955021858
30.123781,7.433319092,16.657341003,6.080375671,-0.223336056,-0.011987183,0.959782600
30.124408,6.212615967,16.283500671,6.591545105,-0.218087032,-0.016259644,0.964421272
30.125033,5.258941650,16.100395203,7.163749695,-0.215645626,-0.019799683,0.971135139
30.125660,4.412078857,15.444267273,7.621513367,-0.204293087,-0.027123902,0.974064827
30.126286,3.244781494,15.383232117,8.094535828,-0.193795040,-0.029687379,0.977971077
30.126911,2.130889893,14.864433289,8.643852234,-0.181710079,-0.036401246,0.982487679
30.127538,1.322174072,14.643180847,9.238945007,-0.169258907,-0.038354371,0.987614632
30.128163,0.551605225,14.345634460,9.574638367,-0.156075314,-0.044579957,0.990056038
30.128789,-0.363922119,13.979423523,10.352836609,-0.141426876,-0.046777222,0.992497444
30.129415,-0.867462158,13.582695007,10.802970886,-0.124581173,-0.051049683,0.994206429
30.130042,-1.485443115,13.208854675,11.413322449,-0.110787228,-0.050073121,0.994206429
30.130667,-2.156829834,12.964714050,12.016044617,-0.092354611,-0.050927613,0.995671272
30.131294,-2.675628662,12.819755554,12.519584656,-0.074166134,-0.053002808,1.003239632
30.131920,-2.912139893,12.453544617,13.229118347,-0.054879028,-0.052514527,1.002873421
30.132546,-3.415679932,12.491691589,13.801322937,-0.036446411,-0.053735230,1.002995491
30.145246,-14.188385010,16.153800964,26.321159363,0.302909046,0.186987430,1.100895882
30.145965,-15.485382080,16.802299500,26.664482117,0.314994007,0.207006961,1.108708382
30.146592,-17.140960693,17.405021667,27.389274597,0.323538929,0.220800906,1.116276741
30.147219,-18.292999268,18.137443542,27.518974304,0.329520375,0.233618289,1.123234749
30.147845,-20.024871826,19.114006042,27.892814636,0.340384632,0.248632938,1.128239632
30.148471,-21.634674072,19.747245789,28.297172546,0.348807484,0.267309695,1.136784554
30.149097,-23.137664795,20.800102234,28.655754089,0.353446156,0.279028445,1.147282600
30.149723,-24.694061279,21.555412292,28.724418640,0.361258656,0.295874149,1.156559944
30.150349,-26.052093506,22.646415710,28.770195007,0.362113148,0.310888797,1.163762093
30.150974,-27.631378174,23.752677917,29.044853210,0.363333851,0.326269656,1.172062874
30.151600,-29.187774658,24.797904968,29.151664734,0.367362171,0.344580203,1.180851936
30.152226,-30.805206299,25.797355652,29.113517761,0.369925648,0.358374149,1.189885139
30.152851,-32.567596436,27.086723328,29.296623230,0.368827015,0.374731570,1.195012093
30.153477,-34.032440186,27.971733093,29.060112000,0.368094593,0.391699344,1.206974983
30.154102,-35.718536377,29.268730164,28.762565613,0.370169789,0.399755985,1.210515022
30.154729,-37.480926514,30.558097839,28.877006531,0.364554554,0.415380985,1.219792366
30.155355,-39.037322998,31.885612488,28.526054382,0.363333851,0.422949344,1.229802132
30.155981,-40.555572510,32.946098328,28.274284363,0.356131703,0.427465945,1.235173225
30.156606,-42.180633545,34.174430847,27.877555847,0.355887562,0.432226688,1.241642952
30.157232,-43.599700928,35.555351257,27.526603699,0.349661976,0.438940555,1.246525764
30.157858,-44.828033447,37.043083191,27.129875183,0.344046742,0.447119266,1.249821663
30.158485,-45.995330811,38.088310242,26.641593933,0.336234242,0.452368289,1.252263069
30.159111,-47.040557861,39.423454285,26.260124207,0.329398304,0.458227664,1.250065804
30.160847,-49.253082275,43.634880066,24.421440125,0.291678578,0.473608524,1.246647835
30.161472,-49.886322021,44.870841980,23.582206726,0.281302601,0.475195438,1.250554085
30.162098,-50.176239014,46.160209656,22.788749695,0.271536976,0.476416141,1.248356819
30.162724,-50.664520264,47.533500671,21.880851746,0.267386585,0.480932742,1.248478889
30.163350,-50.893402100,48.738945007,20.904289246,0.259452015,0.481665164,1.245305061
30.163977,-50.870513916,49.898612976,19.782768250,0.254447132,0.483130008,1.246647835
30.164604,-50.801849365,51.455009460,18.851982117,0.247977421,0.482519656,1.244816780
30.165230,-50.595855713,52.607048035,17.844902039,0.244315311,0.478735477,1.240056038
30.165855,-50.153350830,53.858268738,16.555534363,0.238333866,0.474951297,1.236515999
30.166480,-49.428558350,55.216300964,15.533195496,0.234183475,0.467749149,1.231755257
30.167105,-48.841094971,56.429374695,14.465080261,0.230277225,0.466650516,1.227360725
30.167731,-48.032379150,57.512748718,13.229118347,0.222586796,0.459814578,1.224064827
30.168357,-47.032928467,58.771598816,11.909233093,0.220999882,0.441381961,1.217717171
30.168983,-46.071624756,59.793937683,10.024772644,0.213919804,0.445776492,1.211125374
30.169610,-44.667816162,61.014640808,9.643302917,0.219901249,0.472998172,1.198796272
30.170235,-42.325592041,62.418449402,9.269462585,0.222953007,0.461157352,1.183049202
30.170860,-40.738677979,63.684928894,7.491813660,0.188651249,0.433325320,1.191227913
30.171486,-39.609527588,64.379203796,5.714164734,0.183524296,0.438208133,1.181706429
30.172112,-37.908172607,65.256584167,4.722343445,0.193411991,0.439062625,1.173771858
30.172737,-35.680389404,66.355216980,3.242240906,0.178763554,0.425512820,1.162907600
30.173362,-33.940887451,66.896903992,1.891838074,0.173392460,0.420019656,1.157658577
30.173987,-31.507110596,67.430961609,0.854240417,0.177909061,0.426977664,1.151799202
30.174614,-29.233551025,68.506706238,-0.335945129,0.178763554,0.407446414,1.149235725
30.175239,-27.211761475,69.391716003,-2.174629211,0.157645389,0.382299930,1.141423225
30.175865,-24.945831299,69.101799011,-3.410591125,0.145560429,0.370214969,1.117985725
30.188602,34.281158447,64.974296570,-28.152717590,0.049613159,0.268164188,0.795231819
30.189352,36.798858643,64.035881042,-29.091133118,0.031546753,0.264990360,0.783390999
30.189979,39.278411865,62.998283386,-30.197395325,0.012137573,0.265966922,0.771672249
30.190604,41.475677490,61.655509949,-31.204475403,-0.002755005,0.267920047,0.762516975
30.191231,43.672943115,60.396659851,-32.127632141,-0.020577271,0.271338016,0.755314827
30.191858,45.336151123,59.305656433,-32.921089172,-0.034981567,0.278418094,0.747624397
30.192484,47.182464600,58.130729675,-33.966316223,-0.050850708,0.280493289,0.741642952
30.193109,48.509979248,56.879508972,-34.828437805,-0.063668087,0.281713992,0.736149788
30.193751,49.837493896,55.185783386,-35.972846985,-0.076241329,0.285009891,0.733708382
30.194506,51.035308838,54.163444519,-36.659492493,-0.086251095,0.299170047,0.729435921
30.195133,51.767730713,52.736747742,-37.101997375,-0.097603634,0.302832156,0.730412483
30.195759,52.179718018,51.355827332,-37.895454407,-0.112984493,0.303320438,0.727360725
30.196418,52.385711670,49.898612976,-38.238777161,-0.127144650,0.306250125,0.728093147
30.197045,52.423858643,48.525321960,-38.841499329,-0.135445431,0.313696414,0.727604866
30.197671,52.370452881,47.037590027,-39.444221497,-0.148873165,0.316259891,0.727726936
30.198298,51.744842529,45.496452332,-39.886726379,-0.154244259,0.318701297,0.732609749
30.198924,50.730133057,44.382560730,-40.405525208,-0.160225704,0.321875125,0.732609749
30.199551,49.982452393,42.604911804,-40.695442200,-0.164131954,0.327002078,0.732731819
30.200178,48.715972900,41.262138367,-41.229499817,-0.169258907,0.330786258,0.738713264
30.200805,47.182464600,39.949882507,-41.565193176,-0.175850704,0.337378055,0.735539436
30.201430,45.420074463,38.393486023,-42.045845032,-0.180123165,0.337866336,0.739201546
30.202057,43.695831299,36.951530457,-42.160285950,-0.185128048,0.340918094,0.742985725
30.202683,41.651153564,35.562980652,-42.251838684,-0.188057736,0.345068485,0.746281624
30.203308,39.347076416,34.311759949,-42.831672668,-0.190499142,0.328466922,0.745060921
30.203934,36.684417725,32.976615906,-43.098701477,-0.184029415,0.324316531,0.750432014
30.204559,34.105682373,31.351554871,-43.670906067,-0.185982540,0.335180789,0.748845100
30.205185,31.198883057,30.161369324,-43.403877258,-0.167427853,0.323584110,0.752751350
30.205811,28.665924072,28.925407410,-43.602241516,-0.167305782,0.330420047,0.750065804
30.206437,25.843048096,27.445304871,-43.358100891,-0.163155392,0.320532352,0.752629280
30.207063,22.684478760,26.461112976,-43.686164856,-0.151924923,0.321508914,0.755436897
30.207690,19.709014893,25.499809265,-43.510688782,-0.137032345,0.316137820,0.756657600
30.208317,16.413116455,24.469841003,-43.419136047,-0.127266720,0.304419070,0.757390022
30.208943,13.025665283,23.096549988,-43.564094543,-0.116524532,0.296728641,0.763127327
30.209569,10.095977783,21.936882019,-43.304695129,-0.095528439,0.292822391,0.769352913
30.210195,6.678009033,21.105278015,-43.068183899,-0.081612423,0.282690555,0.773991585
30.210820,3.694915771,20.128715515,-43.121589661,-0.069771603,0.271582156,0.777775764
30.211446,0.406646729,19.052970886,-42.808784485,-0.054024536,0.262304813,0.781437874
30.212071,-2.980804443,18.366325378,-42.534126282,-0.037178833,0.248144656,0.783879280
30.212696,-6.024932861,17.099845886,-42.282356262,-0.024727661,0.235449344,0.789372444
30.213321,-8.977508545,16.031730652,-41.740669250,-0.011788208,0.221533328,0.795475960
30.213948,-11.945343018,15.276420593,-41.694892883,0.003470581,0.206274539,0.799748421
30.214575,-14.501190186,14.498222351,-41.412605286,0.020194214,0.186255008,0.800969124
30.215202,-17.118072510,13.521659851,-40.901435852,0.034720581,0.171606570,0.803166389
30.215828,-19.483184814,12.918937683,-40.550483704,0.045218628,0.155249149,0.807927132
30.216453,-21.825408936,12.133110046,-40.222419739,0.054618042,0.137915164,0.812077522
30.217078,-23.694610596,11.393058777,-39.711250305,0.059134644,0.121923953,0.812077522
30.217705,-25.563812256,10.920036316,-39.489997864,0.066703007,0.108496219,0.816227913
30.230409,-30.294036865,5.648124695,-34.233345032,0.018485229,-0.080346555,0.903264046
30.231121,-29.622650146,5.083549500,-34.225715637,0.018729370,-0.083154172,0.910710335
30.231747,-29.073333740,4.824150085,-34.126533508,0.018485229,-0.085839719,0.915837288
30.232374,-28.752899170,4.541862488,-34.073127747,0.023490112,-0.084130734,0.923649788
30.233008,-28.333282471,4.015434265,-34.172309875,0.025199097,-0.088769406,0.925602913
30.233633,-27.692413330,3.519523621,-34.111274719,0.027640503,-0.089623898,0.930974007
30.234258,-27.394866943,3.374565125,-34.118904114,0.033255737,-0.086938351,0.930729866
30.234884,-26.807403564,2.977836609,-34.103645325,0.040702026,-0.089257687,0.929387093
30.235509,-26.280975342,2.588737488,-34.164680481,0.042044800,-0.087792844,0.931096077
30.236135,-25.899505615,2.581108093,-34.179939270,0.048880737,-0.090234250,0.931706429
30.236760,-25.426483154,2.398002625,-34.240974426,0.056082886,-0.097558469,0.930851936
30.237385,-24.900054932,1.947868347,-34.347785950,0.058768433,-0.097802609,0.929997444
30.238012,-24.510955811,1.978385925,-34.408821106,0.065116093,-0.101708859,0.930851936
30.238637,-23.992156982,1.917350769,-34.401191711,0.066336796,-0.104882687,0.930241585
30.239263,-23.526763916,2.016532898,-34.355415344,0.073538944,-0.108666867,0.934269905
30.239888,-23.000335693,1.993644714,-34.668220520,0.073905155,-0.111352414,0.930851936
30.240515,-22.695159912,2.108085632,-34.523262024,0.076834843,-0.113793820,0.931096077
30.241140,-22.237396240,2.108085632,-34.866584778,0.078910038,-0.119164914,0.927311897
30.241766,-21.855926514,2.085197449,-34.843696594,0.078055546,-0.124047726,0.928776741
30.242392,-21.588897705,2.321708679,-34.775032043,0.079032108,-0.128198117,0.925358772
30.243018,-20.978546143,2.634513855,-34.828437805,0.074271366,-0.139428586,0.924748421
30.243644,-20.619964600,2.489555359,-34.919990540,0.073172733,-0.144067258,0.925480843
30.244270,-20.207977295,2.611625671,-35.003913879,0.065604374,-0.143578976,0.921574593
30.245097,-19.765472412,2.802360535,-34.935249329,0.065848514,-0.152978390,0.923161507
30.245724,-19.506072998,2.817619324,-34.935249329,0.061209839,-0.154443234,0.921696663
30.246349,-19.208526611,2.962577820,-35.064949036,0.053885620,-0.163598508,0.918766975
30.246974,-18.788909912,2.909172058,-34.958137512,0.045828979,-0.168969601,0.916691780
30.247601,-18.354034424,2.756584167,-35.118354797,0.042777222,-0.175805539,0.916325569
30.248226,-18.056488037,3.031242371,-35.148872375,0.036673706,-0.180078000,0.914128304
30.248852,-17.781829834,3.305900574,-35.118354797,0.034598511,-0.188989133,0.912053108
30.249477,-17.644500732,3.244865417,-34.889472961,0.031058472,-0.192040890,0.907414436
30.250103,-17.293548584,3.305900574,-35.019172668,0.023734253,-0.196435422,0.904240608
30.250729,-17.201995850,3.519523621,-34.881843567,0.019950073,-0.202416867,0.902653694
30.251354,-17.057037354,3.580558777,-34.485115051,0.013358276,-0.203759640,0.901432991
30.251979,-17.079925537,3.946769714,-34.477485657,0.009574097,-0.211572140,0.899113655
30.252605,-16.934967041,4.038322449,-34.187568665,0.000174683,-0.217065305,0.899479866
30.253231,-16.896820068,4.168022156,-33.874763489,-0.008370239,-0.230126828,0.894841194
30.253856,-16.942596436,4.206169128,-33.752693176,-0.013375122,-0.236474484,0.894719124
30.254482,-17.064666748,4.007804871,-33.478034973,-0.017525513,-0.235864133,0.894719124
30.255107,-17.118072510,4.236686707,-33.111824036,-0.021553833,-0.240136594,0.890080452
30.255732,-17.461395264,4.213798523,-33.111824036,-0.025215942,-0.246972531,0.889225960
30.256358,-17.667388916,4.518974304,-32.730354309,-0.033150513,-0.251244992,0.883244514
30.256984,-17.911529541,4.152763367,-32.448066711,-0.038887817,-0.257714719,0.879948616
30.257611,-18.201446533,4.312980652,-32.249702454,-0.045113403,-0.264916867,0.870060921
30.258237,-18.781280518,4.267204285,-31.791938782,-0.049263794,-0.272851437,0.872136116
30.258863,-19.101715088,4.480827332,-31.425727844,-0.059151489,-0.283471555,0.863469124
30.259489,-19.231414795,4.557121277,-30.899299622,-0.066231564,-0.291406125,0.861271858
30.273388,-12.670135498,-5.322944641,-14.610542297,-0.256539196,-0.519189358,0.722599983
30.274122,-11.205291748,-5.918037415,-13.679756165,-0.263375133,-0.520654202,0.718693733
30.274749,-9.946441650,-6.474983215,-12.962593079,-0.267891735,-0.524438381,0.714787483
30.275375,-8.733367920,-7.337104797,-12.062324524,-0.271187633,-0.528100491,0.711003304
30.276008,-7.344818115,-8.206855774,-11.024726868,-0.274239391,-0.530053616,0.711003304
30.276635,-6.063079834,-8.763801575,-10.116828918,-0.275460094,-0.534081936,0.707341194
30.277262,-4.666900635,-9.648811340,-9.460700989,-0.272286266,-0.535546780,0.703679085
30.277889,-3.285980225,-10.373603821,-8.438362122,-0.266304821,-0.536767483,0.706974983
30.278514,-1.950836182,-10.808479309,-7.606758118,-0.262642711,-0.541894436,0.712468147
30.279139,-0.386810303,-11.601936340,-6.775154114,-0.263497204,-0.552514553,0.706852913
30.279764,1.444244385,-12.540351868,-5.676521301,-0.263253063,-0.554711819,0.701359749
30.280391,2.970123291,-13.463508606,-4.898323059,-0.274483532,-0.553246975,0.697453499
30.281016,4.900360107,-14.470588684,-4.074348450,-0.272408336,-0.552148342,0.685612679
30.281641,6.777191162,-15.393745422,-3.158821106,-0.275460094,-0.554101467,0.682438850
30.282268,8.562469482,-16.515266418,-2.144111633,-0.275338024,-0.560082912,0.681340218
30.282893,10.431671143,-17.713081360,-1.129402161,-0.275582165,-0.563134670,0.677067757
30.283520,12.300872803,-19.132148743,-0.076545715,-0.275948375,-0.562280178,0.675114632
30.284145,14.124298096,-20.375740051,0.579582214,-0.268746227,-0.554345608,0.671452522
30.284771,16.237640381,-21.321784973,1.586662292,-0.261299938,-0.547021389,0.668522835
30.285397,18.152618408,-22.740852356,2.479301453,-0.257881969,-0.542504787,0.660710335
30.286024,20.441436768,-24.144660950,3.364311218,-0.252755016,-0.540795803,0.658146858
30.286649,22.074127197,-25.228034973,4.295097351,-0.244698361,-0.529443264,0.655827522
30.287274,24.034881592,-26.830207825,5.225883484,-0.239205196,-0.522485256,0.650456429
30.287901,25.736236572,-27.966987610,6.072746277,-0.233589962,-0.511254787,0.649846077
30.288528,27.605438232,-29.141914368,6.721244812,-0.226754025,-0.499169797,0.645085335
30.289153,29.322052002,-30.316841125,7.903800964,-0.217232540,-0.490014523,0.641179085
30.289779,30.840301514,-31.484138489,8.651481628,-0.212227657,-0.483056515,0.640568733
30.290404,32.282257080,-32.437812805,9.414421082,-0.210274532,-0.471703976,0.636540413
30.291031,33.907318115,-33.544075012,10.268913269,-0.202339962,-0.457543820,0.637639046
30.291656,35.097503662,-34.688484192,11.390434265,-0.196480587,-0.445336789,0.642765999
30.309586,21.311187744,-65.366279602,28.999076843,0.002616089,-0.031030152,0.773991585
30.310211,19.403839111,-65.740119934,29.556022644,0.013114136,-0.016869996,0.784611702
30.310838,17.107391357,-66.525947571,29.960380554,0.027518433,-0.001244996,0.795231819
30.311463,14.826202393,-66.937934875,30.517326355,0.035086792,0.012671020,0.808171272
30.312088,12.400054932,-67.883979797,31.181083679,0.042899292,0.019140746,0.822209358
30.312713,9.981536865,-68.189155579,31.562553406,0.051200073,0.030615356,0.834660530
30.313340,7.463836670,-68.715583801,32.020317078,0.058036011,0.040136840,0.847111702
30.313965,4.907989502,-69.013130188,32.539115906,0.066947147,0.052710082,0.858708382
30.314591,2.222442627,-69.531929016,32.775627136,0.074393436,0.063696414,0.870793343
30.315217,-0.516510010,-69.531929016,33.363090515,0.080741093,0.074316531,0.880192757
30.315842,-3.385162354,-69.776069641,33.927665710,0.087088749,0.090551883,0.885075569
30.316467,-6.215667725,-69.921028137,34.347282410,0.094290897,0.103247195,0.897892952
30.317092,-8.748626709,-69.951545715,34.698234558,0.100272343,0.112524539,0.904118538
30.317717,-12.143707275,-69.623481750,35.155998230,0.106742069,0.120337039,0.912663460
30.318342,-15.195465088,-69.554817200,35.423027039,0.110770389,0.133032352,0.921574593
30.318968,-18.277740479,-69.303047180,35.781608582,0.119681522,0.141333133,0.929631233
30.319593,-21.298980713,-69.005500793,36.071525574,0.118338749,0.146948367,0.938298225
30.332324,-71.080780029,-63.207160950,38.596855164,0.072318241,0.216528445,1.003483772
30.333055,-72.370147705,-62.833320618,38.131462097,0.068167850,0.218237430,1.003972054
30.333680,-73.194122314,-62.383186340,38.322196960,0.064261600,0.209936649,1.000309944
30.334305,-74.224090576,-62.093269348,38.192497253,0.060477417,0.206640750,1.004460335
30.334931,-74.620819092,-61.460029602,37.917839050,0.059622925,0.205542117,1.006901741
30.335556,-74.834442139,-61.200630188,37.811027527,0.053641479,0.197729617,1.013005257
30.336182,-75.177764893,-61.101448059,37.719474792,0.039603394,0.200048953,1.015324593
30.336808,-75.429534912,-60.719978333,37.132011414,0.035697144,0.205175906,1.021183968
30.337435,-75.460052490,-60.719978333,37.101493835,0.034110229,0.201513797,1.029118538
30.338061,-75.399017334,-60.704719543,36.720024109,0.021903198,0.198950320,1.030217171
30.338686,-75.093841553,-60.697090149,36.292778015,0.013114136,0.194922000,1.035588264
30.339312,-74.849700928,-60.727607727,36.033378601,0.007132690,0.195654422,1.039616585
30.339937,-74.437713623,-60.552131653,35.911308289,0.001761597,0.194433719,1.048893929
30.340564,-73.865509033,-60.727607727,35.094963074,-0.004830200,0.194067508,1.055729866
30.341189,-73.400115967,-60.971748352,35.102592468,-0.009468872,0.189917117,1.057560921
30.341814,-72.797393799,-60.727607727,34.690605164,-0.012520630,0.188818485,1.064274788
30.342440,-71.920013428,-60.849678040,34.484611511,-0.013619263,0.185522586,1.067448616
30.343067,-70.874786377,-60.552131653,34.103141785,-0.015816528,0.183081180,1.076359749
30.343693,-69.882965088,-60.559761047,33.637748718,-0.019478638,0.179419070,1.083439827
30.344318,-68.647003174,-60.262214661,33.378349304,-0.024239380,0.176855594,1.087956429
30.344944,-67.441558838,-60.056221008,33.080802917,-0.025460083,0.178320438,1.094304085
30.345570,-65.946197510,-59.651863098,32.615409851,-0.025826294,0.176733524,1.104435921
30.346195,-64.885711670,-59.255134583,32.218681335,-0.032296021,0.176977664,1.110295296
30.346822,-63.298797607,-58.835517883,31.776176453,-0.036690552,0.173925906,1.115056038
30.347448,-62.169647217,-58.393013000,31.409965515,-0.038277466,0.180639774,1.122014046
30.348074,-60.628509521,-57.500373840,30.990348816,-0.046089966,0.183569461,1.133732796
30.348700,-59.529876709,-56.729804993,30.730949402,-0.051705200,0.181738406,1.143132210
30.349326,-57.935333252,-56.287300110,30.273185730,-0.058663208,0.182226688,1.151799202
30.349952,-56.661224365,-55.364143372,30.235038757,-0.067574337,0.186132938,1.158635139
30.350579,-55.120086670,-54.463874817,29.678092957,-0.072823361,0.189550906,1.166691780
30.351204,-53.968048096,-53.578865051,29.372917175,-0.083931759,0.184057742,1.179997444
30.351831,-52.213287354,-52.861701965,29.159294128,-0.091622189,0.186255008,1.190373421
30.352457,-50.740814209,-51.831733704,28.602348328,-0.105049923,0.189917117,1.200383186
30.353083,-49.344635010,-50.702583313,28.190361023,-0.116402462,0.189550906,1.208073616
30.353708,-47.719573975,-49.924385071,27.717338562,-0.122628048,0.196142703,1.221257210
30.354333,-46.361541748,-48.947822571,27.404533386,-0.131172970,0.197485477,1.225773811
30.354960,-45.011138916,-47.894966125,27.152763367,-0.143624142,0.200293094,1.233830452
30.355586,-43.431854248,-46.590339661,26.824699402,-0.149239376,0.209082156,1.240300179
30.356212,-42.089080811,-45.445930481,26.763664246,-0.152046993,0.205420047,1.250920296
30.356837,-40.425872803,-43.897163391,25.863395691,-0.177315548,0.177465945,1.262394905
30.357464,-39.220428467,-43.355476379,25.108085632,-0.196968868,0.171850711,1.265080452
30.358090,-37.824249268,-42.523872375,24.947868347,-0.193306759,0.184546024,1.270573616
30.358715,-36.130523682,-41.234504700,24.635063171,-0.188057736,0.191504031,1.284733772
30.359342,-34.246063232,-39.807807922,24.200187683,-0.196480587,0.177710086,1.289006233
30.359969,-32.407379150,-38.533699036,23.627983093,-0.203194454,0.139746219,1.290837288
30.360596,-31.018829346,-37.526618958,22.605644226,-0.212960079,0.148535281,1.286442757
30.361222,-28.577423096,-36.389839172,23.048149109,-0.204659298,0.180883914,1.280217171
30.379863,69.353485107,-16.622077942,9.002433777,-0.414864391,-0.026757691,1.059880257
30.380609,74.243927002,-17.476570129,8.445487976,-0.422188610,-0.013574097,1.045964241
30.381236,76.342010498,-17.880928040,8.064018250,-0.424263805,-0.000634644,1.038151741
30.381862,78.241729736,-18.254768372,8.086906433,-0.417672008,0.007177856,1.031315804
30.382487,79.523468018,-19.048225403,8.002983093,-0.418892711,0.013891723,1.022282600
30.383113,80.591583252,-19.528877258,8.010612488,-0.416817516,0.019140746,1.015568733
30.383738,81.537628174,-20.192634583,8.056388855,-0.413887829,0.029638793,1.008000374
30.384364,82.018280029,-20.963203430,7.835136414,-0.410958141,0.041601684,1.000798225
30.384989,82.453155518,-21.321784973,8.140312195,-0.407051891,0.054907348,0.995671272
30.385616,82.521820068,-22.138130188,8.537040710,-0.404244274,0.065649539,0.988469124
30.386241,82.445526123,-22.832405090,8.750663757,-0.403878063,0.075293094,0.988347054
30.386866,81.873321533,-23.549568176,9.261833191,-0.401070446,0.086401492,0.981755257
30.387491,81.118011475,-24.404060364,9.719596863,-0.396920055,0.100683719,0.979191780
