time,gyro x,gyro y,gyro z,accel x,accel y,accel z
35.119329,-0.265201569,-4.244636536,1.885734558,0.044628907,-0.092133299,1.006970644
35.133666,1.596370697,-1.543830872,1.847587585,0.045483399,-0.094330564,1.002576113
35.149012,1.459041595,0.882316589,1.244865417,0.049389649,-0.106781736,0.995129824
35.187316,0.451961517,2.370048523,-1.478828430,0.028393555,-0.096527830,1.006848574
35.225639,2.672115326,0.165153503,0.687919617,0.013378907,-0.109467283,1.000134706
35.239937,2.946773529,0.447441101,0.985466003,0.018017579,-0.111664549,0.991101503
35.255272,1.802364349,1.393486023,0.626884460,0.030590821,-0.128754392,0.986218691
35.293554,2.656856537,-1.513313293,-0.425971985,0.005566407,-0.078949705,1.031262636
35.331853,5.319515228,-4.465888977,2.404533386,0.009228516,-0.091034666,0.995618105
35.346146,4.526058197,-3.619026184,2.305351257,0.012524415,-0.097382322,0.991711855
35.361495,2.489009857,-0.605415344,1.290641785,0.017895509,-0.078217283,0.989148378
35.399807,3.198543549,1.958061218,1.855216980,0.005566407,-0.060272951,1.011731386
35.438096,3.824153900,8.984733582,1.969657898,0.027294923,-0.066010252,0.966687441
35.452408,1.954952240,13.791252136,1.382194519,0.033764649,-0.065888181,0.994153261
35.467740,1.535335541,15.645195007,1.664482117,0.038769532,-0.081513181,0.995740175
35.506049,4.838863373,15.736747742,0.008903503,0.035473634,-0.029999513,1.044568300
35.544325,2.031246185,10.762382507,0.947319031,0.038769532,-0.063202634,1.002209902
35.558629,3.267208099,7.611442566,-0.258125305,0.004833985,-0.070404783,1.037244081
35.573987,3.175655365,-2.543281555,1.954399109,-0.012499999,-0.053192873,1.042126894
35.612257,4.068294525,-21.258186340,7.035575867,0.020092774,-0.102143064,0.990124941
35.650532,4.678646088,-20.891975403,4.563652039,0.018139649,-0.047333498,1.041272402
35.664848,5.823055267,-19.785713196,4.350028992,0.026318360,-0.071625486,1.028088808
35.680182,5.586544037,-17.885993958,3.815971375,0.016674805,-0.022675294,1.039929628
35.718456,8.844295502,-12.659858704,5.029045105,0.021801759,-0.047455568,1.012097597
35.756730,3.984371185,-5.625556946,5.433403015,0.027416993,-0.081391111,0.984265566
35.784024,4.106441498,-3.405403137,5.044303894,0.076489255,-0.034516115,1.028699160
35.798346,7.188716888,1.271415710,3.136955261,0.084179685,-0.035614748,1.018689394
35.836480,5.823055267,5.131889343,3.419242859,0.085400388,-0.068939939,1.024670839
35.874760,8.638301849,6.329704285,1.847587585,0.080273435,-0.071991697,1.017468691
35.889044,8.951107025,8.114982605,-1.013435364,0.031201173,-0.054047365,0.980115175
35.904382,8.020320892,6.535697937,0.069938660,0.022045899,-0.078217283,0.983166933
35.942664,6.677547455,-7.098030090,4.609428406,0.011059571,-0.106293455,0.961804628
35.980939,3.778377533,-15.871833801,5.883537292,0.012036134,-0.054413576,0.995251894
35.995231,4.518428802,-16.123603821,6.600700378,0.013134766,-0.056122560,1.009167910
36.010588,8.180538177,-13.979743958,7.584892273,0.018750001,-0.058197755,1.021741152
36.048883,3.946224213,0.744987488,7.905326843,0.065869138,-0.067353025,0.956677675
36.087186,2.214351654,18.056083679,-0.395454407,0.056103516,-0.043793458,0.920056581
36.101467,2.687374115,18.704582214,0.947319031,0.039013673,-0.033051271,0.934460878
36.116821,-0.547489166,14.065910339,1.221977234,0.026684571,-0.072724119,0.911755800
36.155127,-0.753482819,5.322624207,6.379447937,0.031445313,-0.061615724,0.926160097
36.193441,0.146785736,-2.901863098,3.686271667,0.040600587,0.009185057,0.963025331
36.207720,-0.501712799,-9.180854797,5.685173035,0.040600587,-0.000580568,0.951550722
36.223046,-0.593265533,-11.614631653,6.493888855,0.047436524,0.026641112,0.975842714
36.261344,-0.707706451,-5.770515442,4.762016296,0.087231442,0.037749510,0.984143496
36.299657,-0.791629791,-5.251716614,2.564750671,0.060742188,0.010649901,0.994153261
36.313942,0.177303314,-4.511665344,3.091178894,0.048779298,0.023589354,1.020886660
36.329270,1.245418549,-0.239204407,2.404533386,0.083325192,0.019927245,1.023572206
36.367560,-0.478824615,13.898063660,-1.265205383,0.082470700,-0.011322755,0.976208925
36.405868,1.123348236,19.642997742,-3.714241028,0.081860349,0.012725096,0.993054628
36.433368,3.007808685,18.681694031,-4.187263489,0.037182618,-0.024994630,1.018201113
36.447703,1.100460052,12.349296570,-3.027595520,0.027783204,0.034453612,1.030652285
36.485887,3.763118744,1.485038757,-1.532234192,0.049877930,0.007720213,1.041882753
36.524201,1.809993744,-6.922554016,1.015983582,-0.008349609,-0.032807130,0.990247011
36.538477,1.924434662,-7.830451965,3.335319519,0.000561524,-0.042206544,0.984875917
36.553816,0.474849701,-7.540534973,4.113517761,0.003491212,-0.047333498,0.990491152
36.592110,0.070491791,-7.128547668,2.259574890,0.024731446,-0.020111818,1.019299746
36.630431,1.390377045,-10.393928528,2.702079773,0.044262696,-0.029389162,1.014539003
36.644722,3.282466888,-9.402107239,2.366386414,0.066113278,-0.020478029,1.035535097
36.660072,4.007259369,-8.501838684,1.931510925,0.071972653,-0.030365724,1.029553652
36.698356,3.183284760,-2.970527649,-0.815071106,0.090893552,-0.019867677,0.990124941
36.749948,5.342403412,-5.434822083,-3.637947083,0.045117188,0.003691893,1.044812441
36.764277,7.471004486,-10.973762512,-1.936592102,0.039868165,0.006377440,1.033581972
36.779626,7.722774506,-12.713264465,-1.043952942,0.042919923,0.007720213,1.027356386
36.817919,6.265560150,-8.082221985,-1.104988098,0.092724606,-0.022064943,1.029675722
36.856246,6.410518646,0.233818054,-4.110969543,0.103588864,0.029082518,1.047742128
36.870521,7.638851166,1.202751160,-4.851020813,0.102612302,0.036162596,1.060437441
36.885850,10.492244720,1.301933289,-4.515327454,0.089428708,0.038726073,1.048474550
36.924150,12.681880951,-6.029914856,-3.935493469,0.070263669,0.056304198,1.004285097
36.962465,14.039913177,-9.005378723,-3.676094055,0.103222653,0.066313967,0.947644472
36.976754,13.132015228,-7.143806458,-4.896797180,0.100415036,0.056182127,0.946667910
36.992103,10.446468353,-4.053901672,-6.125129700,0.080395505,0.050933104,0.962414980
37.030422,12.315670013,-0.185798645,-5.865730286,0.079418942,0.065825686,0.961682558
37.068731,8.668819427,6.032157898,-5.270637512,0.073315427,0.059844237,0.925183535
37.083023,6.387630463,12.578178406,-6.827033997,0.101757810,0.060454588,0.932629824
37.098378,5.014339447,15.958000183,-7.940925598,0.102734372,0.057036620,0.934094667
37.136667,2.847591400,21.435905457,-12.022651672,0.060375977,0.074126467,0.954724550
37.174994,0.184932709,12.013603210,-6.781257629,0.013378907,0.019194823,0.924817324
37.189294,-1.089176178,8.389640808,-5.507148743,0.023876954,0.048247557,0.927747011
37.204626,-3.530582428,2.156425476,-4.851020813,0.074658200,0.074614748,0.952527285
37.242910,-0.120243073,-6.716560364,-8.658088684,0.057690430,0.071685061,0.981580019
37.281226,-0.738224030,-23.241828918,-1.776374817,0.021923829,0.051543456,0.980359316
37.295511,-0.814517975,-27.369331360,-1.036323547,0.059399415,0.063872561,0.982800722
37.310871,-2.912601471,-31.046699524,-2.592720032,0.049023438,0.078643069,0.987073183
37.349175,-1.218875885,-36.700080872,-0.975288391,0.026440430,0.062407713,1.058972597
37.387486,4.518428802,-36.547492981,3.983818054,0.057690430,0.060210448,1.061291933
37.401816,4.869380951,-27.087043762,2.000175476,0.095043942,0.081694826,1.016492128
37.417159,4.106441498,-20.006965637,0.184379578,0.113598630,0.092803225,1.013074160
37.455448,4.899898529,4.285026550,-3.271736145,0.062451173,0.076812014,1.064465761
37.493764,9.744564056,22.839714050,-2.173103333,0.092114255,0.095610842,1.006482363
37.508060,8.813777924,27.623344421,-2.646125793,0.093090817,0.084990725,0.992810488
37.523397,6.807247162,34.642387390,-5.301155090,0.090649411,0.079375491,1.006482363
37.575261,9.828487396,30.598808289,-2.707160950,0.066479489,0.084380373,1.029675722
37.613690,8.783260345,17.155815125,-1.394905090,0.066235349,0.072417483,1.000256777
37.628015,9.172359467,11.265922546,0.375114441,0.088452145,0.084380373,1.003552675
37.643357,8.584896088,8.938957214,-0.624336243,0.094677731,0.094268069,1.003552675
37.681653,8.363643646,-0.475715637,-2.081550598,0.074658200,0.092559084,0.995251894
37.719950,9.202877045,-2.444099426,-0.609077454,0.107128903,0.122710451,0.993664980
37.734233,9.782711029,-0.109504700,-3.973640442,0.105664060,0.129668459,0.982922792
37.763344,9.241024017,1.469779968,-3.248847961,0.067211911,0.090239748,0.935925722
37.801676,4.625240326,-3.374885559,-3.805793762,0.051831055,0.149321780,0.955823183
37.839996,3.717342377,-10.866950989,-3.340400696,0.034008790,0.131499514,0.976330996
37.854300,3.152767181,-13.491462708,-2.592720032,0.014721680,0.135283694,0.994641542
37.869642,5.929866791,-20.090888977,0.413261414,0.018017579,0.146514162,1.014661074
37.907944,9.195247650,-32.625984192,2.198539734,0.039624024,0.129790530,0.933484316
37.946260,5.166927338,-30.756782532,4.823051453,0.046704102,0.138457522,0.924939394
37.960558,5.098262787,-28.139900208,5.326591492,0.054272462,0.139434084,0.933118105
37.975891,4.991451263,-19.190620422,5.364738464,0.083447263,0.152983889,0.933728456
38.014204,4.976192474,3.895927429,0.375114441,0.125317380,0.147246584,0.933972597
38.052477,2.855220795,31.674552917,-4.774726868,0.135937497,0.137969241,0.964856386
38.066772,4.594722748,36.793876648,-7.719673157,0.120312497,0.140288576,0.964490175
38.082131,6.380001068,37.198234558,-7.925666809,0.106518552,0.135283694,0.947644472
38.120449,3.786006927,25.929618835,-6.743110657,0.073681638,0.091704592,0.887707949
38.158734,-1.875003815,0.577140808,0.413261414,0.048046876,0.118682131,0.937756777
38.173036,-1.195987701,-3.939460754,0.298820496,0.055493165,0.126738772,0.952649355
38.188376,-0.173648834,-10.935615540,0.840507507,0.063549802,0.119658694,0.952283144
38.226664,-3.637393951,-25.309394836,3.732048035,0.079785153,0.137969241,1.000745058
38.264952,-0.288089752,-19.457649231,-2.371467590,0.097851560,0.170195803,0.978772402
38.279252,-0.410160065,-18.519233704,-3.592170715,0.076611325,0.165801272,0.972913027
38.294602,0.467220306,-21.456550598,0.184379578,0.055126954,0.151885256,0.970471621
38.332891,3.145137787,-15.284370422,4.403434753,0.083325192,0.189116701,0.950940371
38.371171,-4.148563385,-1.231025696,-1.234687805,0.102124020,0.140166506,0.957532167
38.385460,-1.554569244,2.240348816,-1.425422668,0.118115231,0.180083498,1.028210878
38.400807,4.236141205,5.910087585,-2.081550598,0.126049802,0.180571780,1.043591738
38.439119,1.398006439,22.565055847,-7.162727356,0.108227536,0.116606936,0.991101503
38.477429,12.803951263,19.437004089,-3.332771301,0.131298825,0.177153811,1.002209902
38.506888,9.523311615,19.726921082,-10.405220032,0.120312497,0.104521975,0.926160097
38.521217,4.991451263,17.323661804,-11.274971008,0.087719724,0.115630373,0.927502871
38.559414,15.756526947,-1.192878723,2.030693054,0.028393555,0.191191897,0.922742128
38.597703,-4.293521881,-24.462532043,-3.996528625,-0.055346679,0.118315920,0.824841738
38.612007,-1.211246490,-40.247749329,15.710197449,-0.016040038,0.241606936,0.920544863
38.627366,8.195796967,-39.767097473,18.349967957,0.063427731,0.281401843,0.907361269
38.665672,-2.225955963,-24.042915344,1.420341492,0.006665040,-0.181732908,0.727551699
38.703996,-4.438480377,19.131828308,-1.921333313,0.177075192,0.330962390,0.915662050
38.718289,7.707515717,31.293083191,-9.421028137,0.146191403,0.299590319,0.876843691
38.733617,10.370174408,49.229789734,-16.829170227,0.083935544,0.132964358,0.774792910
38.771934,-28.272708893,44.247795105,-5.919136047,0.058789063,0.172270998,0.910046816
38.810249,7.600704193,35.046745300,-6.560005188,0.012646485,0.265044421,0.924817324
38.824542,11.438289642,26.715446472,-7.315315247,0.048657227,0.068022951,0.758923769
38.839891,-15.791019440,18.872428894,-11.595405579,0.056835938,-0.171356931,0.782361269
38.878231,-7.047733307,-7.654975891,-1.928962708,0.048779298,0.287261218,1.036633730
38.916521,-42.699893951,-39.591621399,-5.095161438,-0.033618163,-0.209320799,0.914563417
38.930839,-42.852481842,-55.460762024,8.988700867,0.011669923,0.265654773,1.144421816
38.946206,-19.521793365,-58.062385559,10.361991882,0.076245114,0.314727038,1.179700136
38.984499,1.726070404,-58.947395325,8.218132019,0.046459962,-0.435883313,0.733166933
39.022846,-13.303836823,-18.816780090,26.925407410,0.341259778,0.373076648,1.295911074
39.037145,19.220272064,3.743339539,13.444267273,0.395947278,0.325225085,1.272961855
39.067813,10.888973236,68.486381531,-20.956672668,0.209057614,-0.534638166,0.807019472
39.106214,-16.988834381,98.309684753,-23.649848938,0.156323239,0.392974108,1.247571230
39.144540,-5.582889557,54.104972839,-18.812812805,-0.038378906,-0.319428235,0.935071230
39.158855,-32.255252838,24.792839050,-9.291328430,-0.021899413,0.193145022,1.120862246
39.174231,-24.869998932,10.670829773,-2.134956360,0.064770505,0.252104968,1.194226503
39.212537,37.469783783,-35.723518372,2.969108582,0.081127927,0.079375491,1.134412050
39.250857,-11.045536041,-74.946235657,-11.725105286,-0.085009769,0.175688967,1.150891542
39.265168,1.398006439,-87.237190247,-1.852668762,-0.087084964,0.194243655,1.220227480
39.280536,32.007137299,-103.403877258,16.015373230,-0.012377929,0.146758303,1.151623964
39.318876,-8.924564362,-85.917304993,2.015434265,0.020947266,0.157866701,1.031628847
39.357209,14.772335052,-39.934944153,10.087333679,0.128979489,0.179351076,1.143079042
39.371510,17.549434662,3.651786804,-8.017219543,0.194897458,0.116729006,1.006726503
39.386862,8.882442474,21.168876648,-13.174690247,0.166210935,0.094756350,0.996594667
39.425174,12.239376068,66.418815613,-12.503303528,0.129467770,0.186919436,1.147351503
39.463490,19.151607513,77.428031921,-19.430793762,0.095776364,0.142852053,0.838391542
39.494562,2.557674408,55.371452332,-10.466255188,-0.044482421,0.165679201,0.916638613
39.508893,13.566890717,33.932853699,0.260673523,0.009594727,0.196440920,0.929333925
39.562791,-0.578006744,-9.745429993,2.183280945,0.021801759,0.163848147,0.805554628
39.601182,3.534236908,-24.874519348,3.518424988,0.057202149,0.191436037,0.868787050
39.615470,1.909175873,-25.500129700,2.595268250,0.065991208,0.181182131,0.841931581
39.630820,-8.329471588,-22.265266418,4.655204773,0.083569333,0.209380373,0.841199160
39.669117,-2.874454498,-1.894783020,1.130424500,0.131176755,0.201079592,1.029919863
39.707430,-4.957279205,21.260429382,-8.291877747,0.156201169,0.204619631,1.008801699
39.721722,-3.454288483,25.822807312,-8.192695618,0.147412106,0.206206545,1.034924746
39.737096,0.650325775,31.888175964,-11.046089172,0.153637692,0.214751467,1.036267519
39.775435,1.985469818,21.832633972,-13.167060852,0.064892575,0.217192873,0.988904238
39.813734,4.838863373,3.186393738,-11.976875305,0.080517575,0.196318850,1.002698183
39.828033,4.419246674,-12.743782043,-12.350715637,0.062573239,0.197783694,0.992444277
39.843383,4.487911224,-22.173713684,-12.457527161,0.048657227,0.197661623,0.984143496
39.881680,6.738582611,-55.666755676,-1.204170227,0.025097657,0.178252444,1.029187441
39.920007,11.590877533,-60.297798157,-3.454841614,0.082470700,0.159941897,0.971692324
39.934312,6.677547455,-56.269477844,-5.438484192,0.052319337,0.152251467,0.961560488
39.949651,4.991451263,-53.500007629,-4.202522278,0.049633790,0.156768069,0.976330996
39.987943,8.996883392,-32.717536926,-0.548042297,0.087719724,0.202300295,0.968274355
40.026236,7.127681732,-5.785774231,-4.622138977,0.056835938,0.174102053,0.899792910
40.040519,4.960933685,-1.124214172,-4.271186829,0.078198239,0.187407717,0.897595644
40.055870,4.060665131,8.099723816,-4.721321106,0.085644528,0.214751467,0.917859316
40.094163,5.311885834,19.566703796,-5.804695129,0.069775388,0.207671389,0.896130800
40.132451,4.159847260,18.277336121,-3.904975891,0.057812501,0.215728030,0.882458925
40.146743,4.327693939,15.599418640,-2.714790344,0.072094724,0.200103030,0.876599550
40.162094,3.160396576,14.493156433,-2.760566711,0.080273435,0.199126467,0.874402285
40.200420,-2.729496002,6.871391296,0.565849304,0.060742188,0.239043459,0.891492128
40.238705,-0.997623444,4.956413269,2.351127625,0.132397458,0.226470217,0.933850527
40.253002,-1.623233795,8.397270203,-0.662483215,0.122631833,0.221953616,0.970105410
40.268351,-0.684818268,10.190177917,-0.082649231,0.122875974,0.226958498,0.978406191
40.306645,3.663936615,13.379264832,-2.669013977,0.120678708,0.224883303,0.967786074
40.344932,1.756587982,9.762931824,-3.393806458,0.091015622,0.240630373,0.967664003
40.359215,3.465572357,6.627250671,-1.402534485,0.077221677,0.243315920,0.967419863
40.390624,5.350032806,-4.130195618,2.351127625,0.091748044,0.227202639,0.928479433
40.429003,-0.135501862,-17.092536926,5.570732117,0.078076169,0.242217287,0.983655214
40.467316,4.449764252,-12.926887512,6.234489441,0.122143552,0.214629397,1.001355410
40.481624,2.244869232,-6.548713684,2.908073425,0.127514645,0.221831545,1.003430605
40.496979,1.779476166,-4.008125305,1.397453308,0.114575192,0.231353030,1.012219667
40.546586,4.449764252,-3.992866516,6.104789734,0.127880856,0.258574694,1.032361269
40.584960,7.074275970,5.665946960,3.999076843,0.169506833,0.227080569,1.031018496
40.599238,6.837764740,8.511711121,2.724967957,0.171459958,0.221709475,1.035290956
40.614558,7.478633881,13.943840027,0.939689636,0.171826169,0.227812991,1.030896425
40.652866,9.942928314,17.544914246,-3.760017395,0.148144528,0.227568850,1.007825136
40.691170,8.783260345,6.825614929,-4.988349915,0.116284177,0.224028811,0.937146425
40.705456,7.432857513,2.392936707,-4.858650208,0.104443356,0.232573733,0.930310488
40.720768,6.860652924,-8.883308411,-2.516426086,0.087475583,0.244536623,0.936291933
40.759069,10.011592865,-21.395515442,1.771293640,0.092846677,0.232573733,0.929455996
40.797394,8.356014252,-17.329048157,-0.235237122,0.111157224,0.217192873,0.896008730
40.811684,8.363643646,-11.698554993,-0.754035950,0.118847653,0.200835451,0.888074160
40.827007,7.471004486,-8.578132629,-2.363838196,0.122875974,0.193999514,0.884778261
40.865301,1.962581635,-3.176521301,-5.736030579,0.107006833,0.248564944,0.863293886
40.903604,4.442134857,-8.662055969,-2.882637024,0.092236325,0.270537585,0.865369081
40.917895,4.327693939,-10.607551575,-3.111518860,0.099682614,0.268828601,0.862927675
40.933204,4.548946381,-15.314888000,-3.828681946,0.076367185,0.275664538,0.840466738
40.971487,4.274288177,-18.046211243,3.259025574,0.058789063,0.273589343,0.783215761
41.009793,-1.501163483,-9.775947571,3.922782898,0.068920895,0.273223132,0.776501894
41.024084,-1.791080475,-6.495307922,5.616508484,0.076611325,0.274321765,0.786145449
41.039391,-2.256473541,2.263237000,5.692802429,0.108715817,0.268584460,0.796277285
41.077681,-5.529483795,20.192314148,3.220878601,0.151684567,0.227324709,0.846081972
41.115974,-5.827030182,31.262565613,-0.189460754,0.150463864,0.233794436,0.891370058
41.130257,-3.339847565,35.092521667,-0.418342590,0.149975583,0.229155764,0.894543886
41.145602,-2.973636627,36.206413269,-1.310981750,0.154003903,0.225493655,0.889416933
41.183918,-7.322391510,31.224418640,-7.597602844,0.125439450,0.228301272,0.903821230
41.222237,-2.843936920,5.894828796,-4.072822571,0.096020505,0.236479983,0.894055605
41.236515,-4.079898834,-7.967781067,-4.004158020,0.104199216,0.234160647,0.876599550
41.251833,-5.773624420,-14.231513977,-5.072273254,0.099316403,0.234893069,0.878552675
41.290143,-4.934391022,-32.008003235,-1.242317200,0.071118161,0.242461428,0.893079042
41.328460,-4.621585846,-35.494636536,1.160942078,0.106030270,0.220977053,0.919568300
41.342754,-4.354557037,-33.182929993,0.886283875,0.114208981,0.215483889,0.919202089
41.358103,-5.651554108,-24.676155090,-0.616706848,0.134594724,0.213896975,0.919568300
41.396436,-2.866825104,-5.320381165,-1.867927551,0.125805661,0.219145998,0.979260683
41.434726,0.116268158,6.680656433,-4.896797180,0.157055661,0.188018069,0.935071230
41.449015,-2.325138092,12.852836609,-6.041206360,0.136425778,0.214995608,0.912366152
41.475954,-0.791629791,13.646293640,-5.423225403,0.109204099,0.219145998,0.874524355
41.514355,-3.980716705,7.832695007,-5.087532043,0.106396481,0.200103030,0.873547792
41.552663,-5.270084381,-5.183052063,-1.837409973,0.086132810,0.200103030,0.858533144
41.566957,-7.864078522,-8.753608704,1.374565125,0.086132810,0.209380373,0.885388613
41.582287,-7.879337311,-9.112190247,2.412162781,0.103833005,0.220732912,0.902234316
41.620589,-4.179080963,-6.068061829,0.886283875,0.093334958,0.207183108,0.902112246
41.658886,-6.307682037,2.026725769,2.686820984,0.123730466,0.217925295,0.912732363
41.673160,-5.605777740,5.261589050,1.489006042,0.127880856,0.212187991,0.908948183
41.688491,-6.116947174,9.450126648,0.069938660,0.128124997,0.190459475,0.918713808
41.738601,-3.500064850,12.341667175,-0.990547180,0.133129880,0.243437991,0.953259706
41.776966,-5.224308014,8.633781433,0.932060242,0.097729489,0.210234866,0.861951113
41.791253,-7.261356354,7.214714050,2.114616394,0.102978513,0.217070803,0.862317324
41.806596,-9.756168365,4.498649597,1.244865417,0.114331052,0.218413576,0.887219667
41.844885,-8.314212799,-2.940010071,1.260124207,0.093579099,0.177275881,0.921277285
41.883184,-12.189945221,-2.657722473,6.173454285,0.104809567,0.194487795,0.895032167
41.897473,-14.066776276,-0.750373840,4.494987488,0.115307614,0.196196780,0.901868105
41.912830,-16.897281647,1.080680847,3.060661316,0.116650388,0.199004397,0.954358339
41.951128,-9.641727448,2.148796082,4.327140808,0.112011716,0.188750491,0.994397402
41.989443,-13.448795319,11.349845886,2.618156433,0.123608395,0.166289553,0.897107363
42.003738,-19.338687897,11.098075867,0.787101746,0.122631833,0.181670412,0.968396425
42.019095,-17.805179596,9.427238464,0.283561707,0.117993161,0.187407717,1.006238222
42.057411,-7.734378815,-4.061531067,1.847587585,0.094433591,0.153594241,0.994397402
42.095703,-13.044437408,-8.082221985,4.556022644,0.103222653,0.152373537,0.954602480
42.110014,-14.333805084,-7.716011047,3.846488953,0.107006833,0.159209475,0.963025331
42.125378,-13.807376862,-7.159065247,3.159843445,0.097363278,0.155913576,0.980603456
42.163669,-11.602481842,-6.731819153,3.678642273,0.093701169,0.126006350,0.997815371
42.201955,-12.937625885,-5.663703918,5.616508484,0.074902341,0.118926272,0.948254824
42.216250,-14.715274811,-4.999946594,6.646476746,0.084057614,0.119780764,0.955212831
42.231604,-16.698917389,-3.107856750,6.608329773,0.089306638,0.124907717,0.986951113
42.269895,-13.021549225,-0.117134094,8.759819031,0.085278317,0.117705569,1.029309511
42.308215,-12.510379791,9.267021179,5.425773621,0.124218747,0.107451662,1.045178652
42.322506,-10.732730865,12.684989929,4.205070496,0.134594724,0.113433108,1.065808535
42.337873,-9.054264069,13.989616394,2.946220398,0.128857419,0.112578616,1.070325136
42.376173,-5.682071686,12.265373230,1.954399109,0.096508786,0.084014162,1.011609316
42.414458,-6.399234772,6.093193054,3.327690125,0.074658200,0.078276858,1.015271425
42.428744,-5.628665924,4.262138367,3.930412292,0.076489255,0.070586428,1.005383730
42.456065,-6.643375397,-2.489875793,4.174552917,0.060131837,0.074248537,0.981824160
42.494463,-6.582340240,-11.370491028,8.431755066,0.053295899,0.075713381,0.971448183
42.532768,-8.871158600,-10.531257629,5.692802429,0.082714841,0.041533690,0.945447206
42.547070,-10.053714752,-9.798835754,5.593620300,0.074291989,0.036528807,0.956311464
42.562399,-10.549625397,-8.280586243,6.547294617,0.071484372,0.047270995,0.981824160
42.600699,-9.458621979,-1.803230286,10.239921570,0.093945310,0.057158690,0.987805605
42.639005,-7.322391510,11.372734070,7.340751648,0.116406247,0.023223143,1.042248964
42.653293,-7.169803619,13.768363953,6.013237000,0.113842770,0.017974120,1.044812441
42.668624,-7.780155182,15.027214050,4.365287781,0.110913083,0.030181151,1.045178652
42.706924,-3.042301178,13.638664246,5.242668152,0.105908200,0.050444823,1.046155214
42.745233,-6.376346588,11.265922546,2.831779480,0.091992185,0.044829588,0.997205019
42.759524,-6.094058990,9.778190613,5.296073914,0.097241208,0.070342287,1.015881777
42.774868,-4.095157623,9.083915710,5.341850281,0.108593747,0.059355956,1.022839785
42.813158,-5.811771393,13.135124207,0.748954773,0.156201169,0.037383299,1.027844667
42.851461,-1.043399811,18.094230652,-2.646125793,0.136181638,0.044707518,1.030774355
42.865759,0.444332123,17.598320007,-2.714790344,0.132275388,0.028472167,1.029187441
42.881099,-0.021060944,14.912773132,-4.202522278,0.123486325,0.014800292,1.011121035
42.919426,-0.326236725,0.348258972,-1.837409973,0.079785153,0.058623534,0.984265566
42.957713,-3.187259674,-9.791206360,-0.960029602,0.073315427,0.033721190,0.970105410
42.972009,-4.545291901,-11.446784973,0.253044128,0.073681638,0.053252440,0.975598574
42.987345,-2.630313873,-13.148139954,0.413261414,0.085156247,0.073394045,0.991467714
43.038938,-4.263004303,-9.440254211,1.023612976,0.068188474,0.042876463,0.971326113
43.077294,-1.028141022,-3.214668274,1.481376648,0.097607419,0.037871581,0.988660097
43.091607,-0.028690338,-1.772712708,1.771293640,0.107250974,0.018584471,0.977429628
43.106947,-3.339847565,2.240348816,-0.715888977,0.115795895,0.014556151,0.956921816
43.145237,-3.454288483,7.725883484,-1.112617493,0.056835938,0.055083495,0.938122988
43.183520,-5.498966217,5.482841492,4.876457214,0.065380856,-0.023895998,0.912976503
43.197825,-11.335453033,4.017997742,4.525505066,0.085156247,-0.017548341,0.955823183
43.213178,-11.388858795,2.751518250,4.899345398,0.094067380,-0.000092287,0.976819277
43.251460,-7.803043365,9.778190613,4.647575378,0.160717770,-0.005951662,1.057629824
43.289740,-4.507144928,22.084403992,-3.302253723,0.120678708,-0.003144044,1.013684511
43.304045,-4.270633698,21.321464539,-3.103889465,0.104321286,-0.001312990,0.999280214
43.319403,-4.354557037,18.086601257,-1.227058411,0.102978513,-0.005585451,0.976208925
43.357702,-6.506046295,8.526969910,-2.493537903,0.092236325,0.013701659,0.994397402
43.396027,-4.026493073,-4.778694153,-0.067390442,0.072949216,0.014678221,0.986462831
43.410323,-3.942569733,-7.624458313,-0.258125305,0.063793942,0.008208495,0.986829042
43.425660,-3.515323639,-13.293098450,1.817070007,0.055371094,-0.013886232,0.989270449
43.477514,-7.101139069,-16.100715637,2.312980652,0.068554685,-0.025849123,1.032605410
43.515924,-1.745304108,-18.175910950,3.396354675,0.020581055,-0.014008302,1.021741152
43.530221,-1.669010162,-19.152473450,5.639396667,0.020825196,-0.002777833,1.019910097
43.545574,-0.349124908,-18.450569153,6.806694031,0.046459962,-0.005097169,0.998303652
43.583880,-2.943119049,-10.447334290,5.769096375,0.041577149,-0.006806154,1.014661074
43.622220,0.131526947,-5.465339661,9.950004578,0.034985352,-0.015473146,1.000989199
43.636496,-1.531681061,0.668693542,8.317314148,0.071606442,-0.017060060,0.973767519
43.651821,-2.851566315,3.537345886,7.462821960,0.075024411,-0.018891115,0.973157167
43.690122,-2.409061432,15.004325867,6.882987976,0.085644528,-0.007782716,0.984631777
43.728470,-4.263004303,19.757438660,3.602348328,0.073681638,-0.017426271,0.975842714
43.742758,-3.202518463,18.078971863,5.715690613,0.075146481,-0.049652833,0.976330996
43.758113,-3.995975494,17.407585144,6.501518250,0.084912106,-0.040009279,0.965466738
43.796434,-4.743656158,23.129631042,7.096611023,0.145458981,0.000273924,0.958997011
43.834771,-3.255924225,25.365043640,0.237785339,0.066723630,-0.005829591,1.027234316
43.849071,-0.372013092,22.946525574,0.817619324,0.058300782,-0.017548341,1.016003847
43.864422,0.307003021,15.256095886,0.115715027,0.049877930,-0.039765138,0.967175722
43.902713,-4.018863678,-13.338874817,-0.418342590,0.003613282,-0.038178224,0.920544863
43.941052,-9.916385651,-43.291877747,7.340751648,0.039013673,-0.027069826,0.957654238
43.955349,-10.595401764,-46.641181946,7.546745300,0.045239259,-0.021210451,0.982800722
43.970682,-7.497867584,-48.128913879,9.202323914,0.067700192,-0.040619630,1.016736269
44.009017,-5.270084381,-39.149116516,9.034477234,0.086010739,-0.037079591,0.994641542
44.047337,-7.520755768,-17.893623352,3.587089539,0.054150391,-0.038544435,0.984753847
44.061640,-5.109867096,-9.783576965,5.105339050,0.031445313,-0.052460451,0.990124941
44.076988,-4.438480377,-5.404304504,7.088981628,0.043408204,-0.067841306,0.987439394
44.115264,-8.260807037,15.645195007,4.494987488,0.120678708,-0.060883302,0.984387636
44.153563,-4.407962799,32.422233582,0.710807800,0.077832028,-0.048676271,0.994397402
44.167867,-4.537662506,32.727409363,0.420890808,0.065136716,-0.065399900,0.980725527
44.183203,-7.482608795,28.737236023,1.519523621,0.052319337,-0.064911619,0.964978456
44.221496,-11.358341217,17.888237000,5.761466980,0.091259763,-0.050629396,1.029309511
44.259835,-5.041202545,7.245231628,5.372367859,0.084423825,-0.044770021,1.057873964
44.289077,-4.606327057,0.409294128,7.981620789,0.102612302,-0.068451658,1.047864199
44.303406,-4.179080963,0.264335632,6.684623718,0.118969724,-0.101776853,1.038464785
44.341618,-6.200870514,9.152580261,2.633415222,0.141430661,-0.065766111,1.077649355
44.393908,2.145687103,24.029899597,-7.551826477,0.131420895,-0.032929201,1.018079042
44.408231,-1.562198639,21.222282410,-12.022651672,0.070385739,-0.065766111,0.982190371
44.423577,-3.530582428,15.965629578,-11.404670715,0.027050782,-0.058197755,0.992322206
44.461879,2.008358002,-18.053840637,2.488456726,-0.034716796,-0.113373533,1.033581972
44.500212,-0.898441315,-29.978584290,3.617607117,0.052075196,-0.106171384,1.020764589
44.514511,-0.860294342,-28.483222961,2.923332214,0.056347657,-0.104706541,1.032849550
44.529874,-0.211795807,-22.379707336,1.893363953,0.065136716,-0.113617674,1.043469667
44.568180,0.932613373,-9.684394836,-0.822700500,0.024731446,-0.082855955,1.048962831
44.606490,3.137508392,-3.626655579,0.626884460,0.022778321,-0.117279783,1.014050722
44.620807,1.108089447,0.882316589,1.664482117,0.023510743,-0.103729978,1.016003847
44.636124,2.191463470,3.995109558,2.396903992,0.033398438,-0.087616697,1.014905214
44.674435,2.015987396,16.461540222,0.420890808,0.070141599,-0.098847166,0.969495058
44.712750,0.596920013,20.917106628,-0.311531067,0.050610352,-0.138153806,0.966931581
44.727050,-2.477725983,21.168876648,-0.067390442,0.025585938,-0.125946775,0.978406191
44.742385,-2.096256256,21.252799988,1.122795105,0.022412110,-0.098603025,0.987439394
44.780674,-1.691898346,19.231010437,0.512443542,0.076489255,-0.132782713,0.967419863
44.818989,-5.865177155,14.455009460,-2.569831848,0.048168946,-0.098725095,0.967297792
44.833298,-5.415042877,11.891532898,-2.394355774,0.037060548,-0.100678220,0.974377871
44.848630,-4.728397369,6.917167664,-0.792182922,0.037304688,-0.126068845,0.976819277
44.886923,-7.215579987,-3.306221008,-1.059211731,0.038159180,-0.148163572,0.965100527
44.925237,-5.476078033,-6.060432434,-1.768745422,0.034741212,-0.113617674,1.018323183
44.939529,-3.957828522,-6.220649719,-1.951850891,0.035595704,-0.121308103,1.010754824
44.954872,-2.615055084,-5.701850891,-1.562751770,0.037060548,-0.131806150,0.977673769
44.993164,-9.260257721,-4.412483215,-4.812873840,0.007763673,-0.122162595,0.987439394
45.031463,-1.882633209,-17.779182434,1.344047546,-0.023486327,-0.135590330,1.053601503
45.045768,-1.829227448,-23.203681946,3.197990417,-0.009204101,-0.156342283,1.001355410
45.061112,-3.835758209,-24.584602356,3.754936218,-0.008959960,-0.160248533,0.980847597
45.099431,-5.666812897,-22.768806458,9.148918152,-0.006274413,-0.102631345,1.056164980
45.137728,-1.730045319,-0.521492004,4.990898132,0.062817380,-0.140961424,1.040417910
45.152026,-2.401432037,6.375480652,4.052482605,0.052807618,-0.135712400,1.027356386
45.167374,-4.140933990,21.596122742,2.435050964,0.065747067,-0.101166502,1.037244081
45.220926,0.993648529,41.730094910,-3.485359192,0.074658200,-0.099823728,1.059705019
45.259316,2.267757416,34.993339539,-2.943672180,0.049389649,-0.065888181,1.055798769
45.273619,5.227962494,26.868034363,-2.989448547,0.037182618,-0.095062986,1.056409121
45.288988,6.799617767,21.733451843,-2.905525208,0.030712891,-0.100189939,1.040417910
45.327275,5.174556732,0.973869324,-1.021064758,-0.012255859,-0.118622556,0.961560488
45.365558,0.718990326,-10.546516418,0.031791687,-0.000903320,-0.127777830,0.952893496
45.379859,0.032344818,-11.820625305,-0.364936829,0.004467774,-0.137787595,0.947400331
45.395196,-2.119144440,-13.285469055,-1.585639954,0.003002930,-0.124359861,0.950207949
45.433483,-2.225955963,-15.398811340,-1.150764465,-0.011035156,-0.139740720,0.965832949
45.471798,-4.468997955,-14.155220032,-1.249946594,-0.009204101,-0.127411619,0.957532167
45.486105,-4.530033112,-13.277839661,-1.234687805,-0.010424804,-0.137787595,0.959119081
45.501458,-5.773624420,-12.224983215,-1.242317200,-0.003833007,-0.149628416,0.964490175
45.539748,-5.933841705,-5.358528137,-0.677742004,-0.007495116,-0.135712400,1.008435488
45.578051,-4.125675201,-3.344367981,1.023612976,0.010571290,-0.142426267,0.995984316
45.592351,-7.154544830,1.019645691,-3.348030090,0.014965821,-0.128754392,1.030286074
45.607670,-3.912052155,2.858329773,-2.211250305,-0.026171874,-0.086762205,1.048108339
45.661497,-1.478275299,1.675773621,-0.013984680,0.007153321,-0.116913572,1.009167910
45.699877,-7.078250885,-5.083869934,1.595817566,0.018750001,-0.173554197,1.012097597
45.714168,-3.004154205,-1.971076965,2.961479187,0.001416016,-0.081635252,1.068005800
45.729500,-0.188907623,0.577140808,2.908073425,0.025830079,-0.111786619,1.053967714
45.767815,-5.308231354,2.721000671,-2.653755188,0.019726563,-0.169403806,1.022229433
45.806121,7.928768158,3.522087097,4.006706238,-0.004443359,-0.111298338,1.028332949
45.820427,2.359310150,11.357475281,-1.539863586,0.029980469,-0.216034666,0.958508730
45.835779,-1.104434967,13.592887878,-3.729499817,-0.021655273,-0.191132322,0.969983339
45.874081,-6.689151764,16.408134460,-4.622138977,-0.040698241,-0.139618650,0.979871035
45.912384,-2.492984772,16.850639343,-0.273384094,-0.034228515,-0.213715330,0.899670839
45.926686,-7.314762115,15.629936218,0.504814148,-0.022387695,-0.188568845,0.905408144
45.942039,-8.756717682,10.800529480,-0.708259583,-0.015551757,-0.130341306,0.966687441
45.980344,-9.496768951,-0.887702942,1.450859070,-0.032641601,-0.160126463,0.947278261
46.018652,-2.317508698,-14.567207336,6.173454285,-0.009692382,-0.104828611,0.966931581
46.032960,-2.439579010,-15.559028625,4.899345398,-0.010058593,-0.153290525,0.948010683
46.048315,-3.576358795,-13.598274231,5.135856628,-0.020434570,-0.173065916,0.941907167
46.086637,-4.003604889,5.688835144,9.797416687,0.006665040,-0.237885252,0.872205019
46.124928,-15.081485748,27.760673523,-3.370918274,0.038403321,-0.152436033,0.986096621
46.139229,-9.100040436,28.081108093,-1.265205383,0.030590821,-0.185150877,0.981335878
46.170327,-10.412296295,22.458244324,-2.218879700,0.034619141,-0.124970213,0.992810488
46.208715,-17.583927155,-3.512214661,-3.424324036,-0.064746097,-0.172577634,1.057019472
46.247048,-0.539859772,-31.367134094,5.036674500,-0.013720702,-0.117768064,1.069714785
46.261354,-4.301151276,-39.515327454,4.861198425,-0.014575195,-0.184418455,1.036511660
46.276699,-5.186161041,-41.209053040,6.318412781,0.003125001,-0.171967283,1.022107363
46.315051,-0.112613678,-42.979072571,5.914054871,-0.045214843,-0.095795408,1.151135683
46.353349,10.011592865,-22.562812805,4.388175964,0.021191407,-0.236176267,0.984143496
46.367656,-2.500614166,0.340629578,-0.769294739,0.028881837,-0.230072752,1.022595644
46.383001,-3.538211823,11.387992859,-3.721870422,0.013623048,-0.175507322,1.083752871
46.421287,12.010494232,26.402641296,-4.828132629,-0.014208984,-0.170868650,1.011853456
46.459608,5.212703705,23.747612000,-0.059761047,-0.027270507,-0.144745603,1.044812441
46.473917,10.583797455,22.320915222,-0.372566223,-0.026171874,-0.098358884,1.052502871
46.489281,16.527095795,15.576530457,-0.975288391,-0.027148437,-0.185150877,0.967786074
46.527603,6.837764740,2.949882507,6.295524597,-0.069018558,-0.199555174,0.959485292
46.565881,11.468807220,-1.559089661,4.670463562,-0.034960937,-0.193085447,0.935193300
46.580171,12.590328217,-4.175971985,5.700431824,-0.034228515,-0.180878416,0.925183535
46.595526,11.011043549,-3.725837708,5.997978210,-0.036791991,-0.198578611,0.896130800
46.633841,6.753841400,5.063224792,5.250297546,-0.002734374,-0.216034666,0.892224550
46.672129,6.997982025,7.764030457,3.648124695,0.001904298,-0.179901853,0.903210878
46.686432,5.060115814,9.221244812,6.104789734,0.015209962,-0.156586424,0.926892519
46.701790,6.296077728,10.876823425,5.090080261,0.041577149,-0.148041502,0.931042910
46.740105,5.678096771,16.774345398,-2.791084290,0.022167969,-0.180756345,0.878064394
46.778429,-4.530033112,12.601066589,-2.447761536,0.029248048,-0.165131345,0.906995058
46.792730,-4.194339752,11.006523132,-2.363838196,0.031079102,-0.139130369,0.931531191
46.808098,-1.333316803,6.703544617,-5.369819641,0.036206055,-0.121063963,0.947644472
46.846409,-4.140933990,-3.542732239,-6.300605774,0.008007813,-0.132172361,0.940320253
46.884695,-6.177982330,-12.820075989,-5.858100891,-0.022998046,-0.090546384,0.998669863
46.899013,-4.377445221,-15.543769836,-5.720771790,-0.025805663,-0.098603025,1.004285097
46.914388,-3.492435455,-19.968818665,-5.636848450,-0.043383788,-0.123261228,0.989636660
46.968679,-8.215030670,-25.538276672,-2.836860657,-0.080615237,-0.139130369,1.000012636
47.007083,-3.240665436,-11.805366516,0.161491394,-0.023974609,-0.100800291,1.016492128
47.021411,-4.026493073,-4.046272278,-1.928962708,-0.013110351,-0.144257322,0.987561464
47.036778,-10.923465729,11.586357117,-5.034126282,-0.007250976,-0.151581541,0.993420839
47.075080,-8.443912506,29.263664246,-8.413948059,0.020947266,-0.107025877,1.049329042
47.124732,-9.901126862,20.260978699,-8.131660461,-0.054492187,-0.158051267,1.078259706
47.139082,-8.390506744,12.364555359,-5.949653625,-0.071093753,-0.155854002,1.076550722
47.154452,-6.673892975,-4.412483215,-1.646675110,-0.082202151,-0.146332517,1.096204042
47.192735,-2.332767487,-19.732307434,2.656303406,-0.071948245,-0.195648924,1.084851503
47.231060,-3.919681549,-18.084358215,3.976188660,-0.063891605,-0.158051267,1.096448183
47.245362,0.757137299,-13.636421204,3.724418640,-0.058764648,-0.111542478,1.098889589
47.260715,2.824703217,-10.332893372,3.838859558,-0.058032226,-0.133637205,1.078259706
47.299040,-1.386722565,3.903556824,1.191459656,-0.048999023,-0.163422361,1.049939394
47.337338,1.169124603,9.038139343,1.908622742,-0.008227538,-0.129120603,1.059338808
47.351630,3.709712982,13.173271179,-0.357307434,-0.020312499,-0.135346189,1.038464785
47.366990,2.595821381,13.951469421,-1.654304504,-0.022143554,-0.162201658,1.021497011
47.405267,0.429073334,2.995658875,-0.204719543,-0.057910156,-0.120087400,1.038464785
47.443546,1.954952240,-9.226631165,2.816520691,-0.031054687,-0.176239744,1.006726503
47.457849,1.192012787,-10.546516418,2.953849792,-0.026782226,-0.176483884,1.001355410
47.473177,1.405635834,-14.490913391,2.663932800,-0.032153320,-0.174530759,1.000378847
47.511460,-1.646121979,-11.309455872,5.524955750,0.009472657,-0.174774900,1.017346621
47.549753,-0.906070709,6.970573425,0.039421082,0.042065430,-0.164276853,1.014783144
47.564044,-0.753482819,10.564018250,-1.188911438,0.035961915,-0.171723142,1.015637636
47.579379,-0.631412506,14.142204285,-1.272834778,0.040966798,-0.169037595,1.010998964
47.617669,-0.364383698,25.151420593,-8.001960754,0.049267579,-0.190766111,1.018201113
47.655966,0.200191498,14.981437683,-6.987251282,-0.011279296,-0.212250486,1.013074160
47.670255,0.734249115,4.376579285,-7.483161926,-0.021533202,-0.217377439,1.012219667
47.685603,0.131526947,-2.169441223,-7.635749817,-0.035937499,-0.231537595,1.009412050
47.723882,-1.195987701,-26.614021301,-2.630867004,-0.064624026,-0.221039549,1.035413027
47.762212,1.291194916,-32.450508118,0.474296570,-0.048876952,-0.210785642,1.045300722
47.776509,0.909725189,-30.184577942,0.443778992,-0.045336913,-0.205170408,1.041638613
47.791870,1.626888275,-21.441291809,0.359855652,-0.039355468,-0.207123533,1.040784121
47.830166,1.130977631,7.336784363,-1.684822083,-0.033984374,-0.228729978,1.018445253
47.868458,-2.714237213,25.120903015,-3.775276184,-0.019213866,-0.196259275,1.015393496
47.882759,-2.218326569,24.716545105,-4.034675598,-0.028979491,-0.198944822,1.017712831
47.898121,-2.004703522,19.505668640,-4.294075012,-0.035693359,-0.212372556,1.012341738
47.936439,-2.904972076,1.889396667,-0.273384094,-0.053881835,-0.216767088,1.014050722
47.974727,-6.246646881,-20.312141418,3.281913757,-0.052172851,-0.176361814,1.046277285
47.989035,-4.263004303,-23.760627747,5.112968445,-0.042651366,-0.175751463,1.069470644
48.004373,-3.347476959,-22.906135559,5.135856628,-0.033862304,-0.175873533,1.077405214
48.054283,-4.560550690,-1.757453918,2.808891296,-0.018847656,-0.203461424,1.071667910
48.092686,-3.049930573,21.229911804,-1.158393860,-0.007006835,-0.192108884,1.094372988
48.106999,-2.920230865,27.058769226,-3.088630676,-0.016284179,-0.198334470,1.092541933
48.122342,-2.660831451,27.241874695,-3.607429504,-0.026416015,-0.192597166,1.094617128
48.160662,-1.073917389,13.844657898,-1.295722961,-0.074389651,-0.242157713,1.077649355
48.198963,-2.904972076,-8.501838684,5.128227234,-0.062182616,-0.222504392,1.073376894
48.213244,-3.019412994,-11.652778625,5.029045105,-0.057299804,-0.225189939,1.078747988
48.228591,-2.821048737,-15.726875305,5.669914246,-0.063403323,-0.214081541,1.088879824
48.278696,-2.248844147,-14.033149719,7.836662292,-0.031909179,-0.207978025,1.094006777
48.317065,-2.294620514,6.093193054,3.648124695,0.007397462,-0.193573728,1.104138613
48.331365,-1.669010162,11.349845886,2.175651550,0.005200196,-0.191010252,1.108655214
48.346706,0.512996674,17.666984558,-0.174201965,-0.002490234,-0.210785642,1.097058535
48.385028,-1.142581940,12.326408386,1.008354187,-0.034960937,-0.213837400,1.070935488
48.423329,-2.843936920,2.209831238,2.518974304,-0.033251952,-0.232392088,1.056897402
48.437627,-4.446109772,-5.122016907,3.075920105,-0.032275390,-0.225434080,1.079602480
48.452988,-3.912052155,-9.127449036,3.526054382,-0.037646484,-0.223236814,1.097790956
48.491261,-0.822147369,-18.328498840,6.753288269,-0.051440429,-0.213227049,1.117078066
48.529543,-0.547489166,-9.333442688,6.860099792,-0.018359374,-0.208954588,1.100598574
48.543852,-0.341495514,-0.445198059,4.845939636,-0.006518554,-0.188324705,1.096448183
48.559186,0.429073334,2.782035828,4.243217468,-0.004077148,-0.189179197,1.086804628
48.597466,-0.944217682,9.335685730,2.786003113,-0.007617187,-0.236054197,1.052502871
48.635753,-1.073917389,7.954765320,2.961479187,-0.026904296,-0.229462400,1.065564394
48.650043,-0.890811920,6.123710632,3.159843445,-0.035449218,-0.227387205,1.061291933
48.665383,-2.088626862,2.118278503,4.494987488,-0.040209960,-0.232636228,1.053235292
48.703671,1.436153412,-5.488227844,5.860649109,-0.055346679,-0.240814939,1.053601503
48.741955,-1.707157135,-9.516548157,6.181083679,-0.066210940,-0.290009290,0.997082949
48.756252,-2.874454498,-12.080024719,8.118949890,-0.058276366,-0.251923352,1.010510683
48.771596,-3.278812408,-11.607002258,8.706413269,-0.054003906,-0.251190931,1.010022402
48.809883,-3.362735748,1.584220886,8.370719910,-0.013842773,-0.262299329,0.984265566
48.848183,-7.162174225,11.555839539,5.578361511,0.004956055,-0.248505369,0.970959902
48.862477,-4.942020416,18.651176453,4.746757507,0.007397462,-0.234955564,0.982068300
48.877832,-4.865726471,21.672416687,4.433952332,0.014721680,-0.273407727,0.946789980
48.916144,-14.196475983,29.042411804,-0.731147766,0.030468751,-0.225678220,0.963879824
48.954472,-11.526187897,21.779228210,-3.325141907,0.015454102,-0.261811048,0.964368105
48.968775,-12.548526764,17.438102722,-2.859748840,0.008251954,-0.241425291,0.973523378
48.996171,-8.100589752,4.834342957,-2.302803040,0.005932618,-0.246308103,0.979993105
49.034571,-9.290775299,-15.894721985,-2.554573059,-0.012499999,-0.261444837,1.021497011
49.072883,-0.608524323,-33.251594543,-0.464118958,-0.018603515,-0.232025877,1.056531191
49.087167,0.116268158,-35.021614075,-0.029243469,-0.015673827,-0.261322767,1.040662050
49.102539,-1.844486237,-33.045600891,0.428520203,-0.001391601,-0.279022962,1.052869081
49.140861,1.977840424,-19.327949524,-5.026496887,-0.007250976,-0.254730970,1.074353456
49.179158,5.258480072,-10.218452454,-5.339302063,-0.024096679,-0.242157713,1.066663027
49.193454,5.945125580,-5.099128723,-5.377449036,-0.022631835,-0.264130384,1.049084902
49.208807,5.517879486,-2.055000305,-4.759468079,-0.023364257,-0.261322767,1.042981386
49.247103,4.693904877,6.352592468,-6.140388489,-0.028613281,-0.258637220,1.024670839
49.285412,8.043209076,1.362968445,-3.088630676,-0.007495116,-0.216645017,1.018689394
49.299697,7.265010834,1.279045105,-2.173103333,0.023754884,-0.211884275,0.998914003
49.328308,6.425777435,3.178764343,-5.171455383,0.040966798,-0.197113767,0.980115175
49.366691,5.250850677,-0.681709290,-5.163825989,0.009960938,-0.195038572,0.998303652
49.405042,6.112972260,-7.822822571,-5.385078430,0.011181641,-0.240692869,0.977063417
49.419346,2.511898041,-12.003730774,-4.355110168,0.012036134,-0.198456541,1.013928652
49.434694,3.229061127,-12.896369934,-4.385627747,0.017407227,-0.195770994,1.040784121
49.473037,7.326045990,-12.461494446,-4.858650208,0.004345704,-0.222382322,1.057507753
49.511340,5.212703705,-14.323066711,-2.401985168,-0.002368163,-0.237885252,1.043591738
49.525644,5.128780365,-12.514900208,-1.967109680,-0.001879882,-0.217621580,1.054822206
49.554618,4.350582123,-8.173774719,-2.310432434,0.012402344,-0.211395994,1.057996035
49.592954,8.989253998,-8.311103821,-2.371467590,0.021435548,-0.208588377,1.045666933
49.631259,6.975093842,-11.416267395,-0.822700500,0.016430665,-0.187348142,1.056164980
49.645562,8.478084564,-12.896369934,-0.479377747,0.025830079,-0.174774900,1.068005800
49.660926,10.164180756,-14.635871887,0.634513855,0.030712891,-0.193207517,1.074963808
49.699245,11.384883881,-15.009712219,-0.906623840,0.048168946,-0.196625486,1.042859316
49.737533,14.963069916,-19.015144348,0.779472351,0.028515626,-0.167572752,1.047131777
49.751854,16.572872162,-19.526313782,1.420341492,0.027294923,-0.169525877,1.039685488
49.767213,17.473140717,-18.679450989,2.831779480,0.045971680,-0.196747556,0.990491152
49.805500,12.315670013,-14.139961243,1.336418152,0.080273435,-0.174774900,0.981702089
49.843830,15.153804779,-0.094245911,0.459037781,0.114575192,-0.148895994,0.999890566
49.858131,15.901485443,10.380912781,-2.958930969,0.132275388,-0.145722166,0.970837831
49.873499,14.360347748,15.553642273,-5.018867493,0.133007810,-0.144989744,0.970227480
49.911831,16.031185150,25.563407898,-8.825935364,0.084912106,-0.104096189,0.988904238
49.963895,19.937435150,12.845207214,-6.102241516,0.061108399,-0.154267088,0.986462831
49.978226,17.160335541,7.306266785,-4.248298645,0.078076169,-0.146576658,0.976575136
49.993598,16.984859467,6.299186707,-3.668464661,0.097485349,-0.121186033,0.979626894
50.031888,14.833370209,13.791252136,-8.612312317,0.146801755,-0.096039549,0.984997988
50.070201,17.015377045,13.539482117,-15.524543762,0.078442380,-0.098114744,0.970105410
50.084492,16.611019135,9.007621765,-15.104927063,0.055493165,-0.092743650,0.966321230
50.099843,16.519466400,-4.412483215,-12.221015930,0.026562501,-0.067475095,0.953503847
50.138136,12.674251556,-30.955146790,-7.795967102,0.020947266,-0.070770994,0.967053652
50.176450,13.788143158,-40.919136047,-5.247749329,0.057812501,-0.066742674,0.963269472
50.190748,14.009395599,-40.209602356,-5.530036926,0.067700192,-0.058441896,0.964246035
50.206098,14.909664154,-36.036323547,-7.933296204,0.075878903,-0.056122560,0.963269472
50.244431,12.071529388,-22.951911926,-10.313667297,0.058911134,-0.059174318,0.910046816
50.282765,13.093868256,-14.490913391,-7.803596497,0.052441407,-0.044770021,0.971448183
50.297071,16.153255463,-9.287666321,-6.643928528,0.057202149,-0.035736818,0.969861269
50.312417,17.709651947,-6.785224915,-6.086982727,0.070507810,-0.026581544,0.951306581
50.350703,15.901485443,9.709526062,-8.383430481,0.079541013,-0.011322755,0.940564394
50.389047,17.129817963,13.180900574,-5.995429993,0.072583005,-0.017670412,0.924939394
50.403353,15.054622650,13.028312683,-4.385627747,0.084057614,-0.015473146,0.913953066
50.418694,14.001766205,13.707328796,-3.821052551,0.096508786,0.000029784,0.921521425
50.457022,12.788692474,19.955802917,-7.422126770,0.121777341,0.036650877,0.933606386
50.495327,12.475887299,17.399955750,-9.909309387,0.080395505,0.044219237,0.944470644
50.509633,12.605587006,14.462638855,-9.001411438,0.075268552,0.037505370,0.949231386
50.524983,12.475887299,8.488822937,-6.834663391,0.085522458,0.050078612,0.931164980
50.563266,7.089534760,-2.711128235,-10.801948547,0.079296872,0.061309081,0.959119081
50.601550,11.369625092,-17.626594543,-7.498420715,0.056225587,0.072417483,0.994275331
50.615854,15.550533295,-25.614570618,-4.500068665,0.081494138,0.078032717,0.960339785
50.631182,15.024105072,-27.766059875,-5.255378723,0.097241208,0.069976076,0.936536074
50.669470,8.737483978,-28.757881165,-8.291877747,0.076000974,0.065215334,1.016858339
50.707783,19.731441498,-28.261970520,-3.340400696,0.076977536,0.044829588,0.973401308
50.722087,14.703670502,-21.494697571,-4.286445618,0.093823239,0.013091307,0.942883730
50.737418,12.811580658,-16.489814758,-4.942573547,0.103588864,0.038115721,0.943982363
50.775710,13.620296478,-0.254463196,-8.154548645,0.086865231,0.075713381,0.950818300
50.827995,14.627376556,10.289360046,-4.851020813,0.104321286,0.066558108,0.901623964
50.842334,10.782161713,16.888786316,-7.429756165,0.102124020,0.056914549,0.894543886
50.873056,9.141841888,15.805412292,-4.095710754,0.068920895,0.071685061,0.910779238
50.911433,8.218685150,13.768363953,-1.188911438,0.115063474,0.088896975,0.901746035
50.949740,5.853572845,15.095878601,-2.707160950,0.113598630,0.086943850,0.915295839
50.964040,6.975093842,15.095878601,-1.257575989,0.114208981,0.088530764,0.917371035
50.979390,6.990352631,15.591789246,-0.555671692,0.128124997,0.092681155,0.908826113
51.017672,2.321163177,17.712760925,-6.254829407,0.122387692,0.090605959,0.919812441
51.055955,2.496639252,12.509513855,-3.569282532,0.119946286,0.118193850,0.920056581
51.070241,2.008358002,9.404350281,-4.889167786,0.123730466,0.098174319,0.932996035
51.085573,1.161495209,7.115531921,-6.231941223,0.119580075,0.088652834,0.939831972
51.123874,-0.211795807,-5.602668762,-3.691352844,0.102124020,0.124785647,0.979260683
51.162155,3.717342377,-13.262580872,-5.507148743,0.110913083,0.128936037,0.972913027
51.176447,3.374019623,-15.551399231,-5.514778137,0.105053708,0.125395998,0.966199160
51.191784,2.023616791,-20.075630188,-5.835212708,0.106274411,0.126982912,0.965832949
51.230109,4.953304291,-24.454902649,-5.774177551,0.072583005,0.152495608,0.974866152
51.268441,4.213253021,-28.567146301,-2.775825500,0.076489255,0.143584475,0.939587831
51.282736,4.251399994,-28.124641418,-2.684272766,0.077832028,0.147612795,0.939954042
51.298063,5.937496185,-24.683784485,-2.394355774,0.094067380,0.147734866,0.927502871
51.336344,3.389278412,-16.283821106,-4.667915344,0.097485349,0.129180178,0.921643496
51.374641,4.884639740,-7.265876770,-3.668464661,0.090161130,0.187407717,0.932141542
51.388934,10.904232025,-3.817390442,-4.278816223,0.084301755,0.164946780,0.901746035
51.404261,11.766353607,-2.466987610,-4.301704407,0.079541013,0.141875491,0.874646425
51.442536,1.848140717,0.432182312,-1.738227844,0.062329102,0.147856936,0.816663027
51.480846,4.739681244,0.485588074,2.869926453,0.103222653,0.178740725,0.845959902
51.495130,5.235591888,2.255607605,2.724967957,0.121166989,0.170928225,0.836438417
51.510466,3.641048431,9.061027527,0.512443542,0.145581052,0.159941897,0.824475527
51.548756,0.108638763,20.268608093,-3.653205872,0.117749020,0.158232912,0.838513613
51.587060,0.551143646,21.977592468,-3.302253723,0.127270505,0.164336428,0.806653261
51.601357,-0.021060944,21.916557312,-4.492439270,0.126416013,0.153960451,0.803845644
51.616700,-1.745304108,19.887138367,-6.155647278,0.108105466,0.127471194,0.802869081
51.655015,-4.537662506,10.647941589,-1.913703918,0.081860349,0.111724123,0.803967714
51.693302,-7.795413971,-0.895332336,0.222526550,0.106640622,0.167998537,0.805798769
51.707612,-7.734378815,-4.946540833,-1.654304504,0.086499020,0.136382326,0.815686464
51.722935,-9.145816803,-6.022285461,-1.104988098,0.066845700,0.123564944,0.816174746
51.761233,-11.739810944,-14.185737610,2.702079773,0.065014645,0.156645998,0.861951113
51.799509,-13.494571686,-15.055488586,5.112968445,0.084912106,0.127715334,0.860730410
51.813824,-15.096744537,-13.468574524,4.556022644,0.093579099,0.137847170,0.868298769
51.844711,-13.158878326,-9.417366028,0.993095398,0.059765626,0.097319826,0.910779238
51.883112,-14.020999908,-10.577033997,8.286796570,0.079663083,0.065825686,0.904187441
51.921444,-19.247135162,-4.267524719,2.724967957,0.109814450,0.081816897,0.948621035
51.935741,-16.798099518,-4.526924133,4.655204773,0.101513669,0.068511233,0.976330996
51.951070,-16.119083405,-3.832649231,5.921684265,0.107739255,0.069976076,0.983655214
51.989383,-11.701663971,5.177665710,5.509696960,0.147412106,0.094878420,0.986340761
52.027679,-12.525638580,8.717704773,4.006706238,0.119702145,0.049590331,0.977917910
52.041974,-12.853702545,8.504081726,5.143486023,0.124829099,0.064238772,0.984265566
52.057317,-11.831363678,7.702995300,4.052482605,0.136303708,0.079131350,1.000989199
52.095633,-4.667362213,-3.962348938,4.594169617,0.073437497,-0.022553224,1.016858339
52.133929,-12.868961334,-4.465888977,8.538566589,0.136303708,0.050566893,1.024060488
52.148221,-12.853702545,-2.413581848,5.914054871,0.129956052,0.075469241,1.051648378
52.179337,0.375667572,-2.940010071,7.027946472,0.110546872,0.073760256,1.089246035
52.217671,0.558773041,9.823966980,5.311332703,0.150097653,0.058257323,0.988660097
52.255972,-1.386722565,19.635368347,0.756584167,0.130444333,0.068511233,0.991345644
52.270258,-0.974735260,19.704032898,0.871025085,0.118115231,0.074248537,0.991345644
52.285601,2.038875580,19.040275574,3.350578308,0.118603513,0.089507326,0.957532167
52.323895,-3.782352448,21.115470886,0.207267761,0.138012692,-0.011078615,0.901257753
52.362234,-6.719669342,17.361808777,-0.616706848,0.124462888,0.085601076,0.968762636
52.376526,-4.568180084,13.615776062,-0.593818665,0.114453122,0.077666506,0.968640566
52.391877,-2.615055084,5.231071472,0.298820496,0.111889645,0.042754393,0.951184511
52.430196,-9.534915924,-6.136726379,1.977287292,0.117260739,0.042021971,0.946545839
52.468495,-9.641727448,-23.531745911,0.443778992,0.106396481,0.044951659,1.007214785
52.482819,-4.369815826,-33.198188782,3.197990417,0.115307614,0.029814940,0.991955996
52.498171,-2.645572662,-36.867927551,3.487907410,0.127148435,0.000273924,0.972913027
52.536469,-10.511478424,-33.060859680,3.991447449,0.135693356,0.032622557,1.017102480
52.574795,-6.254276276,-8.868049622,1.939140320,0.192333981,0.054473143,1.004773378
52.589100,-7.551273346,-0.040840149,-0.860847473,0.190136716,0.048247557,1.012952089
52.604425,-6.681522369,15.263725281,-5.911506653,0.164257810,0.076934084,1.033215761
52.642727,0.612178802,25.944877625,-6.994880676,0.090039060,0.032256346,0.968762636
52.681076,-6.536563873,14.393974304,-4.004158020,0.070874020,-0.017304201,0.943494081
52.695369,-6.284793854,12.089897156,-3.943122864,0.071728513,-0.006439943,0.962170839
52.710710,-4.301151276,7.039237976,-1.936592102,0.052563477,0.008330565,0.940686464
52.765012,-9.580692291,6.154228210,1.382194519,0.109570310,-0.024872560,0.944104433
52.803428,-8.314212799,17.895866394,-1.524604797,0.105297849,0.029814940,0.981946230
52.817723,-8.115848541,20.573783875,-1.730598450,0.104931638,0.011138182,0.979993105
52.833062,-8.863529205,24.800468445,-3.042854309,0.111035153,-0.009979982,0.968396425
52.871383,-14.509281158,23.144889832,-4.866279602,0.084301755,-0.021698732,0.987073183
52.909720,-15.424808502,6.314445496,-2.333320618,0.051831055,-0.070282713,1.006604433
52.924020,-16.241153717,1.271415710,-1.722969055,0.059399415,-0.077606931,1.012463808
52.939369,-20.048221588,-9.493659973,-1.410163879,0.038037110,-0.069916502,1.050427675
52.977664,-12.006839752,-23.478340149,3.846488953,0.027050782,-0.042450685,1.086438417
53.015954,-14.410099030,-20.777534485,4.876457214,0.104443356,-0.066986814,1.037488222
53.030244,-16.225894928,-12.156318665,2.320610046,0.098339841,-0.021454591,1.068982363
53.045582,-14.547428131,-7.479499817,1.900993347,0.106396481,-0.027436037,1.088879824
53.083883,-9.168704987,10.014701843,-2.356208801,0.117749020,-0.030731935,1.083630800
53.122184,-10.389408112,14.485527039,-5.247749329,0.106152341,-0.060028810,1.061291933
53.136472,-10.557254791,13.158012390,-5.430854797,0.092358395,-0.064301267,1.062024355
53.151815,-9.214481354,7.687736511,-3.958381653,0.075756833,-0.050019044,1.077161074
53.190113,-4.079898834,-5.411933899,0.428520203,0.043286134,-0.077484861,1.083264589
53.228425,-1.226505280,-10.515998840,2.969108582,0.055371094,-0.096283689,1.032971621
53.242716,-2.027591705,-10.744880676,3.007255554,0.050244141,-0.097504392,1.013928652
53.258060,-5.071720123,-10.981391907,3.884635925,0.045239259,-0.085419431,1.018445253
53.296356,-2.370914459,-5.266975403,5.250297546,0.074536130,-0.117035642,1.003430605
53.334652,-6.345829010,3.972221375,3.304801941,0.101147458,-0.076996580,1.006726503
53.348941,-4.682621002,10.739494324,2.381645203,0.097241208,-0.084931150,1.032849550
53.364264,-3.080448151,14.218498230,2.984367371,0.100537106,-0.101166502,1.036267519
53.402561,-5.178531647,30.553031921,0.108085632,0.145581052,-0.103607908,0.985486269
53.440873,-6.750186920,40.997673035,-7.528938293,0.112499997,-0.098847166,1.022961855
53.455168,-3.957828522,34.833122253,-6.842292786,0.075634763,-0.107880369,1.008435488
53.481895,-6.803592682,22.633720398,-4.927314758,0.056347657,-0.105316892,0.959607363
53.520261,-10.587772369,-10.897468567,-2.005256653,0.029492188,-0.107025877,0.998303652
53.558566,-9.824832916,-43.154548645,6.234489441,-0.007617187,-0.105316892,1.033826113
53.572875,-9.397586823,-49.746345520,7.905326843,-0.001147460,-0.100800291,1.040295839
53.588242,-8.176883698,-58.749031067,11.086784363,0.009106446,-0.111786619,1.056287050
53.626547,-6.277164459,-56.803535461,14.069877625,0.052075196,-0.155609861,1.064831972
53.664861,-4.598697662,-17.954658508,9.919487000,0.148022458,-0.107392088,1.052991152
53.691955,-3.805240631,8.847404480,3.716789246,0.142163083,-0.117645994,1.050915956
53.706279,-2.615055084,28.866935730,0.001274109,0.115185544,-0.146210447,1.027966738
53.744445,-3.614505768,43.088127136,-4.110969543,0.087597653,-0.124115720,1.035168886
53.782744,-0.730594635,38.151908875,-1.028694153,0.066967770,-0.116059080,1.003918886
53.797044,-0.944217682,31.644035339,-0.929512024,0.081005856,-0.111420408,0.998791933
53.812384,-1.348575592,27.562309265,-1.562751770,0.076367185,-0.122895017,1.000867128
53.850674,-0.616153717,2.652336121,1.878105164,0.032543946,-0.157685056,1.006238222
53.888973,-0.417789459,-20.464729309,7.478080750,0.028271485,-0.115082517,1.013440371
53.903258,1.062313080,-24.622749329,8.668266296,0.053906251,-0.111664549,1.017468691
53.918599,1.443782806,-24.432014465,7.905326843,0.057934571,-0.117523924,1.014172792
53.956897,0.993648529,-13.712715149,5.372367859,0.076367185,-0.102265134,1.026257753
53.995210,0.886837006,3.827262878,1.221977234,0.061352540,-0.142670408,1.027478456
54.009490,0.467220306,7.977653503,0.901542664,0.059277344,-0.144867674,1.027844667
54.024826,-0.684818268,14.447380066,1.191459656,0.063916013,-0.161103025,1.026746035
54.063128,-1.043399811,21.870780945,-0.677742004,0.090405270,-0.111054197,1.046277285
54.101446,-1.623233795,18.712211609,-0.731147766,0.056225587,-0.093720213,1.064099550
54.115736,-0.623783112,15.179801941,-0.235237122,0.052319337,-0.098847166,1.072034121
54.131074,0.192562103,10.815788269,0.626884460,0.043408204,-0.112641111,1.072278261
54.169381,0.642696381,-6.892036438,4.250846863,0.039013673,-0.111542478,1.065930605
54.207667,1.924434662,-12.568305969,5.570732117,0.059521485,-0.129364744,1.043713808
54.221968,0.772396088,-11.996101379,5.608879089,0.056835938,-0.145478025,1.032117128
54.237292,0.085750580,-11.080574036,6.944023132,0.065380856,-0.136933103,1.031995058
54.275602,1.741329193,1.942802429,3.259025574,0.113720700,-0.073212400,1.034680605
54.313888,2.054134369,12.707878113,-0.326789856,0.105541989,-0.109955564,1.000989199
54.328167,1.718441010,13.615776062,-0.631965637,0.098339841,-0.122650877,0.987073183
54.343509,-0.860294342,14.050651550,-2.325691223,0.106396481,-0.142548338,0.987317324
54.381840,0.680843353,8.481193542,-3.531135559,0.081982419,-0.125824705,1.026746035
54.420129,4.136959076,-1.566719055,-3.149665833,0.044384766,-0.162812009,0.991467714
54.434420,2.626338959,-4.267524719,-2.707160950,0.038037110,-0.179047361,0.986584902
54.449758,0.131526947,-9.493659973,-1.417793274,0.036938477,-0.169281736,0.985242128
54.488044,0.177303314,-14.269660950,-0.319160461,0.049511719,-0.142914549,0.996594667
54.526331,4.297176361,-14.147590637,-1.234687805,0.044384766,-0.123871580,0.972790956
54.540630,0.360408783,-14.193367004,0.230155945,0.023388673,-0.143646970,0.967175722
54.555985,0.497737885,-14.307807922,1.443229675,0.028759766,-0.126679197,0.970715761
54.594262,0.841060638,-7.944892883,2.160392761,0.060375977,-0.107147947,0.991589785
54.644330,0.909725189,8.595634460,0.069938660,0.077221677,-0.128632322,0.974744081
54.658658,1.733699799,11.456657410,-0.563301086,0.076611325,-0.130951658,0.973035097
54.674030,1.123348236,12.601066589,-1.036323547,0.091381833,-0.132416502,0.958874941
54.712319,0.299373627,13.501335144,-3.317512512,0.090039060,-0.098969236,0.984143496
54.750637,1.489559174,10.502983093,-3.668464661,0.071240231,-0.139618650,0.967053652
54.764934,0.711360931,8.816886902,-4.294075012,0.060498048,-0.144013181,0.952283144
54.780269,-2.706607819,2.682853699,-2.768196106,0.055615235,-0.133393064,0.951916933
54.830553,-3.110965729,-6.831001282,-0.410713196,0.062451173,-0.132538572,0.975476503
54.868904,-4.957279205,-0.452827454,-2.974189758,0.061474610,-0.133393064,0.970471621
54.883212,-5.407413483,-0.727485657,-2.783454895,0.052685548,-0.139862791,0.972058535
54.898543,-6.567081451,-3.802131653,-1.593269348,0.046826173,-0.132050291,0.982068300
54.936850,-4.194339752,-7.281135559,1.130424500,0.026562501,-0.134735838,0.995129824
54.975146,-5.941471100,-6.007026672,1.031242371,0.035473634,-0.165253416,0.981946230
54.989444,-7.474979401,-4.481147766,1.885734558,0.037548829,-0.161835447,1.002820253
55.004782,-7.131656647,-3.710578918,1.862846375,0.038159180,-0.146088377,1.015637636
55.043082,-5.720218658,-2.726387024,3.045402527,0.031201173,-0.157929197,1.026379824
55.081370,-3.820499420,-3.886054993,5.265556335,0.042675782,-0.168793455,1.025647402
55.095654,-4.835208893,-1.078437805,6.089530945,0.057202149,-0.158661619,1.031872988
55.111003,-4.430850983,1.614738464,5.891166687,0.068554685,-0.138397947,1.043835878
55.149278,-1.592716217,13.188529968,1.900993347,0.092846677,-0.164154783,1.043957949
55.187584,-0.837406158,12.654472351,1.046501160,0.075024411,-0.153900877,1.032117128
55.201888,-0.776371002,11.311698914,1.450859070,0.073681638,-0.143769041,1.038342714
55.217229,0.802913666,8.229423523,1.344047546,0.081127927,-0.144623533,1.040906191
55.255507,1.787105560,2.370048523,0.062309265,0.081982419,-0.144257322,1.037732363
55.293824,3.152767181,-2.291511536,0.253044128,0.067089841,-0.149262205,1.011975527
55.308118,1.344600677,-2.428840637,0.779472351,0.062817380,-0.164398924,1.014661074
55.323447,1.893917084,-1.688789368,0.512443542,0.065258786,-0.151337400,1.017102480
55.361725,0.825801849,1.561332703,-0.868476868,0.062329102,-0.157929197,1.017468691
55.400044,2.847591400,0.615287781,-0.586189270,0.051953126,-0.155243650,1.005017519
55.414340,3.129878998,0.760246277,-0.723518372,0.054516602,-0.160980955,0.989514589
55.429659,2.626338959,1.073051453,-0.700630188,0.055981446,-0.158295408,0.985120058
55.467929,1.283565521,3.148246765,-1.570381165,0.051953126,-0.145111814,0.996960878
55.506243,3.038326263,2.057243347,-1.005805969,0.037182618,-0.154145017,0.981580019
55.520527,2.611080170,1.530815125,-0.723518372,0.042431641,-0.159882322,0.978528261
55.535862,1.626888275,-0.574897766,-0.639595032,0.042431641,-0.150604978,0.975110292
55.587436,2.168575287,-4.534553528,0.161491394,0.037670899,-0.153046384,0.980359316
55.625858,-0.188907623,-4.191230774,0.901542664,0.042675782,-0.173310056,0.964246035
55.640150,-1.051029205,-3.466438293,0.520072937,0.045239259,-0.162445799,0.969006777
55.655478,-0.951847076,-3.496955872,0.314079285,0.046582032,-0.158173338,0.972913027
55.693761,-0.715335846,-0.162910461,0.550590515,0.048657227,-0.147064939,0.979993105
55.732045,-1.531681061,3.575492859,-0.143684387,0.050122071,-0.155731931,0.971081972
55.746319,-1.623233795,3.079582214,-0.166572571,0.052319337,-0.153290525,0.979260683
55.761653,-1.264652252,2.499748230,-0.136054993,0.051464844,-0.153534666,0.981457949
55.799932,-1.401981354,3.529716492,-0.036872864,0.060253907,-0.145722166,0.985242128
55.838237,-3.027042389,4.071403503,-1.150764465,0.067944333,-0.147675291,0.993298769
55.852518,-2.775272369,2.545524597,-1.303352356,0.059765626,-0.144867674,1.009289980
55.867858,-2.447208405,1.927543640,-1.745857239,0.058544923,-0.148041502,1.016858339
55.906149,-0.455936432,0.729728699,-1.730598450,0.047924805,-0.155609861,1.006238222
55.944449,-3.461917877,-2.146553040,-1.242317200,0.051586915,-0.150727049,1.018933535
55.958733,-2.782901764,-2.421211243,-1.486457825,0.050976563,-0.147675291,1.027234316
55.974074,-1.714786530,-2.459358215,-1.616157532,0.039624024,-0.148773924,1.032117128
56.012376,0.497737885,-1.681159973,-1.272834778,0.039013673,-0.161713377,1.024914980
56.050666,-1.112064362,-0.597785950,-1.471199036,0.038037110,-0.146332517,1.044446230
56.064961,-0.303348541,-0.704597473,-1.257575989,0.033520509,-0.147553220,1.057873964
56.080281,2.389827728,-0.895332336,-0.494636536,0.033764649,-0.137909666,1.061780214
56.132141,2.603450775,-0.605415344,-0.494636536,0.029370118,-0.141327634,1.055798769
56.170496,6.105342865,-0.506233215,0.230155945,0.029248048,-0.157685056,1.047497988
56.184820,5.830684662,-0.078987122,0.123344421,0.028759766,-0.168061033,1.034680605
56.200168,3.511348724,1.050163269,0.108085632,0.024609376,-0.181854978,1.031872988
56.238454,2.489009857,2.164054871,0.855766296,0.021679688,-0.160858884,1.062878847
56.276734,2.801815033,5.208183289,1.633964539,0.045727540,-0.135224119,1.071423769
56.291029,4.747310638,8.618522644,0.298820496,0.057080079,-0.110810056,1.075207949
56.306376,5.830684662,9.762931824,-0.754035950,0.056713868,-0.103241697,1.066663027
56.344655,7.959285736,3.911186218,-1.669563293,-0.009326171,-0.135956541,1.031140566
56.382929,9.485164642,-6.274055481,6.142936707,-0.021411132,-0.154999509,0.979871035
56.397223,8.890071869,-6.708930969,6.806694031,0.000683594,-0.160492674,0.958874941
56.412551,4.823604584,-3.748725891,5.967460632,0.013378907,-0.160736814,0.927991152
56.450851,0.780025482,11.571098328,4.411064148,0.040722657,-0.067597166,0.966687441
56.489130,0.963130951,22.114921570,-0.258125305,0.022656251,-0.094818845,0.909680605
56.518416,-2.470096588,17.964530945,0.878654480,0.026562501,-0.078583494,0.916516542
56.532764,-3.744205475,15.851188660,0.817619324,0.030834962,-0.079193845,0.918591738
56.570970,-7.078250885,3.155876160,-0.456489563,0.026196290,-0.095795408,0.944348574
56.609257,-6.841739655,-14.803718567,0.954948425,0.021313477,-0.106781736,0.977551699
56.623542,-6.841739655,-17.992805481,1.466117859,0.022167969,-0.111298338,0.982922792
56.638895,-6.651004791,-19.678901672,1.023612976,0.038403321,-0.116547361,0.991467714
56.677211,-7.215579987,-14.643501282,-0.815071106,0.039746094,-0.102509275,1.035290956
56.715501,-4.903873444,-7.807563782,-4.248298645,0.041455079,-0.112152830,1.036633730
56.729812,-5.521854401,-5.205940247,-5.217231750,0.032421876,-0.093842283,1.055676699
56.745150,-4.308780670,-4.076789856,-5.911506653,0.032666016,-0.081269041,1.067761660
56.783442,0.505367279,-1.528572083,-6.758369446,0.022778321,-0.084320799,1.067395449
56.821723,2.290645599,-3.176521301,-8.169807434,0.026562501,-0.074311033,1.091199160
56.836017,5.258480072,-5.060981750,-8.459724426,0.017041016,-0.097748533,1.081311464
56.851358,5.571285248,-5.251716614,-7.895149231,0.007641602,-0.094574705,1.069470644
56.889647,7.203975677,-3.336738586,-9.977973938,0.018750001,-0.104218259,1.029919863
56.927929,8.325496674,-4.305671692,-10.405220032,0.034375001,-0.066498533,1.019543886
56.942218,9.637752533,-3.695320129,-10.580696106,0.036450196,-0.073578611,1.005505800
56.957572,10.278621674,2.209831238,-12.488044739,0.042675782,-0.087616697,0.965222597
56.995880,3.663936615,15.149284363,-16.203559875,0.045239259,-0.087250486,0.947644472
57.034196,4.388729095,14.500785828,-18.149055481,0.049755860,-0.064545408,0.962537050
57.048486,5.380550385,13.516593933,-18.423713684,0.056713868,-0.091400877,0.949597597
57.063838,4.190364838,13.020683289,-19.148506165,0.057324219,-0.105316892,0.941663027
57.102140,-0.959476471,6.100822449,-23.153938293,0.029125977,-0.109101072,0.949109316
57.140441,-0.814517975,-8.669685364,-18.194831848,-0.014208984,-0.158173338,0.976819277
57.154735,-1.401981354,-9.325813293,-15.844978333,0.027172852,-0.149384275,0.973035097
57.170087,-2.470096588,-6.716560364,-16.470588684,0.046337891,-0.154511228,0.965832949
57.208403,-4.385074615,3.880668640,-22.642768860,0.033642579,-0.111298338,0.992688417
57.246707,0.261226654,-1.337837219,-16.699470520,-0.030810546,-0.098847166,1.021619081
57.261012,0.558773041,-3.336738586,-14.647163391,-0.028857421,-0.120819822,1.010266542
57.276371,-0.738224030,-3.420661926,-11.900581360,0.008984376,-0.108979002,1.010876894
57.314662,-0.425418854,3.674674988,-14.769233704,0.022778321,-0.091156736,1.016858339
57.352957,3.190914154,5.513359070,-12.503303528,-0.023608398,-0.111664549,0.982800722
57.367242,2.122798920,4.986930847,-10.817207336,-0.022753906,-0.103363767,0.968640566
57.382599,0.490108490,5.124259949,-8.650459290,-0.000781249,-0.079682127,0.958386660
57.450049,-1.226505280,3.812004089,-7.597602844,0.030957032,-0.044770021,0.989758730
57.488446,-1.203617096,5.742240906,-7.513679504,0.039868165,-0.077606931,0.957654238
57.502732,-2.721866608,5.643058777,-7.368721008,0.039013673,-0.073578611,0.961560488
57.518074,-3.477176666,5.131889343,-7.185615540,0.040356446,-0.066742674,0.962659121
57.556387,-2.248844147,2.087760925,-7.162727356,0.049267579,-0.052704591,0.997937441
57.594672,-1.440128326,-0.155281067,-8.116401672,0.049511719,-0.070160642,0.992810488
57.608961,-1.485904694,-0.971626282,-8.330024719,0.051586915,-0.060395021,0.994519472
57.624286,-1.707157135,-3.092597961,-8.474983215,0.044995118,-0.055145998,0.999524355
57.662606,0.711360931,-7.128547668,-7.620491028,0.054516602,-0.050873537,1.035779238
57.700893,-0.730594635,-2.894233704,-8.513130188,0.043164063,-0.080902830,1.013928652
57.715178,-1.279911041,-1.520942688,-8.429206848,0.044750977,-0.094452634,1.025647402
57.730505,-1.585086823,-1.124214172,-7.727302551,0.057202149,-0.129730955,1.052991152
57.768841,0.764766693,-0.208686829,-8.795417786,0.083813474,-0.134125486,1.088757753
57.807140,4.144588470,6.200004578,-14.692939758,0.098828122,-0.045380373,1.065930605
57.821442,6.761470795,7.085014343,-17.820991516,0.067211911,-0.066986814,1.043347597
57.836784,6.395259857,6.840873718,-19.163764954,0.046093751,-0.096771970,1.036023378
57.875105,4.678646088,-0.773262024,-15.257514954,0.005444337,-0.211273924,1.029553652
57.913433,-0.486454010,-1.833747864,-16.188301086,0.070874020,-0.165741697,1.020764589
57.927719,-0.524600983,-1.246284485,-18.767036438,0.074902341,-0.128388181,1.037366152
57.943072,3.206172943,-3.184150696,-21.719612122,0.028149415,-0.097260252,1.037976503
57.981374,5.762020111,-17.397712708,-15.509284973,-0.052661132,-0.095795408,0.947156191
58.019678,1.726070404,-26.705574036,-7.475532532,-0.017626952,-0.175873533,0.932385683
58.033976,0.512996674,-24.317573547,-6.811775208,0.000561524,-0.198456541,0.932263613
58.049311,-2.714237213,-12.629341125,-7.216133118,0.045849610,-0.183686033,0.945935488
58.087640,-3.461917877,16.484428406,-13.136543274,0.090649411,-0.121063963,0.975232363
58.125952,-2.561649323,42.546440125,-20.086921692,0.083203122,-0.067597166,0.936536074
58.140247,-4.018863678,46.979118347,-21.879829407,0.075268552,-0.039887208,0.939954042
58.155610,-4.339298248,47.299552917,-22.864021301,0.073071286,-0.033051271,0.949475527
58.193931,-0.387271881,33.299613953,-24.298347473,0.038281251,-0.061737794,0.968030214
58.232257,-1.936038971,5.910087585,-20.811714172,0.034619141,-0.095795408,0.950207949
58.246558,-3.347476959,-0.872444153,-20.079292297,0.040478516,-0.101166502,0.961560488
58.261903,-3.362735748,-13.300727844,-19.362129211,0.052563477,-0.083832517,0.994519472
58.300222,-0.776371002,-23.135017395,-22.970832825,0.070385739,-0.084442869,1.012830019
58.354049,1.085201263,-22.227119446,-28.074897766,0.065380856,-0.105561033,1.034314394
58.368410,0.001827240,-19.450019836,-28.532661438,0.064526364,-0.125214353,1.026623964
58.383782,-0.265201569,-17.199348450,-29.104866028,0.074780270,-0.109345213,1.032849550
58.422099,-0.516971588,-9.905647278,-35.360969543,0.045239259,-0.130097166,1.080579042
58.460430,3.747859955,-11.828254700,-30.180610657,0.032055665,-0.214936033,1.036511660
58.474721,1.558223724,-10.149787903,-29.699958801,0.054028321,-0.184540525,1.027966738
58.490069,-0.227054596,-3.237556458,-31.973518372,0.079663083,-0.106659666,1.033215761
58.528380,4.342952728,6.184745789,-36.345161438,0.031689454,-0.149994627,1.056531191
58.566686,5.411067963,4.048515320,-31.355537415,0.006542969,-0.225067869,0.981091738
58.580980,2.992549896,4.407096863,-29.631294250,0.014233399,-0.208222166,0.970715761
58.596325,0.879207611,8.282829285,-28.494514465,0.047192384,-0.152558103,0.976697206
58.634649,0.886837006,14.416862488,-28.837837219,0.081005856,-0.136078611,1.000012636
58.672938,3.213802338,18.170524597,-30.440010071,0.045361329,-0.113983884,0.969983339
58.687231,4.037776947,13.959098816,-28.669990540,0.026074219,-0.104462400,0.938000917
58.718374,-2.012332916,4.620719910,-24.428047180,0.024731446,-0.080414549,0.929089785
58.756725,-0.402530670,-1.498054504,-21.803535461,0.060009766,-0.033905763,0.960217714
58.795051,0.268856049,1.446891785,-22.596992493,0.080883786,-0.078827634,0.958264589
58.809349,0.024715424,2.621818542,-23.077644348,0.083081052,-0.087738767,0.957654238
58.824699,-0.982364655,4.689384460,-23.993171692,0.073193356,-0.105072752,0.958020449
58.863024,-2.843936920,3.560234070,-23.771919250,0.063549802,-0.079315916,0.976819277
58.901324,-3.431400299,-1.208137512,-22.528327942,0.073315427,-0.056977052,0.979871035
58.915635,-2.607425690,-2.459358215,-24.336494446,0.079418942,-0.037689943,0.993787050
58.931008,-2.142032623,-2.894233704,-24.763740540,0.083569333,-0.040009279,0.993420839
58.969308,-2.485355377,-9.013008118,-28.105415344,0.063305661,-0.019501466,1.016858339
59.007642,-0.570377350,-21.708320618,-24.573005676,0.016552735,-0.049164552,1.039319277
59.021952,-0.341495514,-24.866889954,-23.482002258,0.018994141,-0.056854982,1.041760683
59.037324,-1.798709869,-29.528450012,-22.215522766,0.026318360,-0.060150880,1.064465761
59.075643,-0.539859772,-30.039619446,-20.811714172,0.045483399,-0.071625486,1.105847597
59.113952,3.961483002,-17.618965149,-23.207344055,0.059887696,-0.004608888,1.135876894
59.128255,5.960384369,-14.338325500,-24.656929016,0.045483399,0.014556151,1.134167910
59.143620,9.881893158,-9.875129700,-25.374092102,0.010449219,-0.025604982,1.101941347
59.181921,8.188167572,2.415824890,-19.560493469,0.036083985,-0.132538572,1.058362246
59.236235,6.631771088,29.240776062,-29.257453918,0.058544923,-0.103119627,1.029309511
59.250592,6.029048920,29.469657898,-30.073799133,0.034619141,-0.109101072,1.013318300
59.265969,4.510799408,22.748161316,-28.967536926,-0.006518554,-0.093476072,0.996106386
59.315562,2.862850189,-13.827156067,-14.494575500,-0.016284179,-0.072724119,0.945080996
59.353965,0.131526947,-21.799873352,-10.290779114,0.031689454,-0.113495603,0.946912050
59.368263,-0.249942780,-18.565010071,-9.756721497,0.037548829,-0.125458494,0.943127871
59.383596,-1.295169830,-6.243537903,-10.840095520,0.078930661,-0.082978025,0.935559511
59.421884,-5.514225006,18.223930359,-19.110359192,0.094433591,-0.020111818,0.893933535
59.460218,-6.162723541,26.295829773,-21.750129700,0.073437497,-0.027558107,0.909924746
59.474513,-6.025394440,26.227165222,-21.910346985,0.070629880,-0.031952638,0.907971621
59.489882,-5.895694733,25.815177917,-21.994270325,0.078198239,-0.034027833,0.914197206
59.528213,-6.353458405,23.511100769,-23.825325012,0.098217770,-0.018646974,0.912366152
59.566532,-4.919132233,12.921501160,-24.664558411,0.081249997,-0.062104005,0.977795839
59.580847,-3.515323639,3.964591980,-24.130500793,0.084912106,-0.088959470,0.983289003
59.596196,-4.018863678,-0.712226868,-24.344123840,0.084790036,-0.084564939,0.985730410
59.634473,-2.889713287,-17.695259094,-26.983894348,0.090527341,-0.034882326,1.025891542
59.672794,2.824703217,-29.055427551,-29.005683899,0.074536130,-0.020722169,1.044934511
59.687101,4.426876068,-31.077217102,-29.226936340,0.068920895,-0.045990724,1.032971621
59.702461,4.533687592,-33.655952454,-29.623664856,0.065747067,-0.114960447,1.011487246
59.740756,0.459590912,-29.444526672,-28.677619934,0.084057614,-0.052094240,1.010510683
59.779081,1.893917084,-20.365547180,-32.965339661,0.044018555,-0.091034666,1.005383730
59.793403,2.328792572,-20.327400208,-31.553901672,0.026440430,-0.107880369,1.009778261
59.808768,3.152767181,-20.472358704,-26.816047668,0.010815430,-0.160492674,0.989636660
59.847057,-2.218326569,-11.507820129,-22.970832825,0.065869138,-0.119477049,0.959973574
59.885360,0.635066986,17.773796082,-26.808418274,0.124096677,-0.114105955,0.945813417
59.899660,-1.768192291,35.420585632,-28.418220520,0.143261716,-0.124481931,0.920789003
59.915017,-4.026493073,44.484306335,-30.226387024,0.167431638,-0.122162595,0.918713808
59.953324,-4.751285553,68.562675476,-40.175117493,0.115307614,-0.078827634,0.933362246
59.991671,-5.971988678,43.996025085,-34.742988586,-0.015185546,-0.097138181,0.941663027
60.018845,-6.109317780,7.283378601,-23.398078918,-0.007250976,-0.093231931,0.938611269
60.033163,-6.933292389,-3.191780090,-20.155586243,0.015087891,-0.074433103,0.936902285
60.071324,-7.406314850,-23.745368958,-18.133796692,0.081249997,-0.017060060,0.965710878
60.109653,-4.087528229,-20.754646301,-19.835151672,0.083813474,-0.007782716,0.959973574
60.136932,-4.713138580,-17.077278137,-19.369758606,0.055859376,-0.035126466,0.959485292
60.151280,-5.697330475,-15.581916809,-19.079841614,0.058422852,-0.034027833,0.960828066
60.189451,-5.071720123,-6.914924622,-19.934333801,0.068188474,-0.027313966,0.967541933
60.227755,-6.750186920,2.797294617,-22.291816711,0.068310544,-0.043915529,0.972424746
60.242057,-7.299503326,2.942253113,-22.528327942,0.067089841,-0.038544435,0.981213808
60.257400,-6.834110260,-0.513862610,-22.390998840,0.045727540,-0.039276857,0.995496035
60.295681,-6.429752350,-14.017890930,-17.645515442,0.023754884,-0.057709474,1.018079042
60.334009,-4.255374908,-18.870185852,-14.074958801,0.045849610,-0.062348146,1.015637636
60.348320,-4.346927643,-17.542671204,-13.319648743,0.066723630,-0.095307127,1.020276308
60.363654,-5.094608307,-15.383552551,-13.403572083,0.071606442,-0.101410642,1.019055605
60.401934,-5.819400787,-1.086067200,-14.372505188,0.097241208,-0.052338380,1.062390566
60.440264,-1.432498932,10.632682800,-20.109809875,0.065869138,-0.021088380,1.023205996
60.454564,-2.264102936,8.237052917,-19.659675598,0.014965821,-0.041107912,1.026013613
60.469919,-1.432498932,5.078483582,-17.714179993,0.009716798,-0.074555174,1.031384706
60.508232,-0.738224030,-1.147102356,-11.526741028,0.057812501,-0.182953611,0.992078066
60.546536,-7.856449127,5.833793640,-15.150703430,0.094921872,-0.091522947,1.005627871
60.560846,-5.758365631,6.261039734,-16.516365051,0.086987302,-0.060761232,1.021130800
60.576183,-0.616153717,4.178215027,-15.593208313,0.051708985,-0.079071775,1.010510683
60.614463,-4.346927643,-1.635383606,-11.183418274,0.045239259,-0.115814939,0.939709902
60.652769,-8.054813385,-5.305122375,-9.108222961,0.065258786,-0.128021970,0.979504824
60.667067,-6.925662994,-5.930732727,-9.619392395,0.069653317,-0.131684080,0.986951113
60.682396,-6.269535065,-6.075691223,-9.314216614,0.070019528,-0.129853025,0.985852480
60.720684,-7.993778229,-4.710029602,-9.245552063,0.071728513,-0.132538572,0.966443300
60.758996,-7.543643951,-7.441352844,-8.543647766,0.053906251,-0.107147947,0.959973574
60.773297,-5.582889557,-10.081123352,-6.460823059,0.053784180,-0.077240720,0.947400331
60.788612,-4.446109772,-10.439704895,-5.293525696,0.065869138,-0.079437986,0.942517519
60.826896,-6.193241119,-2.512763977,-7.658638000,0.085034177,-0.135590330,0.937512636
60.865203,-4.140933990,-0.346015930,-6.712593079,0.074780270,-0.082978025,0.966077089
60.879492,-2.744754791,-1.093696594,-6.773628235,0.076977536,-0.084931150,0.962659121
60.894834,-2.431949615,-1.818489075,-5.766548157,0.084545895,-0.117401853,0.959973574
60.933134,-3.805240631,1.599479675,-8.764900208,0.104687497,-0.115814939,0.952405214
60.971445,-2.546390533,4.574943542,-10.298408508,0.101025388,-0.135468259,0.946301699
60.985743,-2.821048737,7.001091003,-10.969795227,0.107983395,-0.143036619,0.947644472
61.013006,-5.659183502,13.753105164,-12.716926575,0.128369138,-0.151825681,0.944836855
61.051426,-3.667911530,20.718742371,-19.407905579,0.123242185,-0.167206541,0.993054628
61.089722,-3.538211823,17.071891785,-19.308723450,0.100659177,-0.176239744,0.983289003
61.104019,-4.613956451,10.388542175,-19.636787415,0.087963864,-0.175141111,0.999280214
61.119392,-4.057010651,6.520439148,-18.934883118,0.085766599,-0.191864744,1.018201113
61.157677,1.398006439,-3.092597961,-15.402473450,0.109326169,-0.233734861,1.002576113
61.195958,-4.896244049,6.238151550,-19.377388000,0.170971677,-0.192597166,0.987317324
61.210247,-2.294620514,11.548210144,-24.649299622,0.159130856,-0.153900877,1.024792910
61.225613,0.047603607,12.250114441,-25.892890930,0.139111325,-0.164643064,1.028577089
61.263921,6.097713470,3.773857117,-22.345222473,0.091625974,-0.230683103,0.970593691
61.302231,3.129878998,0.203300476,-22.497810364,0.126049802,-0.171845213,0.992322206
61.330996,9.424129486,1.057792664,-25.335945129,0.083813474,-0.187226072,0.970227480
61.345331,9.424129486,0.073600769,-24.557746887,0.060620118,-0.218109861,0.934460878
61.383498,-1.119693756,-8.845161438,-19.262947083,0.051586915,-0.228241697,0.907971621
61.421824,0.856319427,-16.131233215,-15.585578918,0.048168946,-0.168915525,0.892956972
61.436118,0.566402435,-17.527412415,-14.319099426,0.049023438,-0.167816892,0.872205019
61.451492,-2.401432037,-17.725776672,-12.404121399,0.059887696,-0.165863767,0.829114199
61.489815,-9.595951080,-6.296943665,-12.838996887,0.097241208,-0.153778806,0.834241152
61.528120,-14.112552643,2.148796082,-14.044441223,0.036694337,-0.126312986,0.837781191
61.542428,-14.402469635,1.378227234,-12.625373840,0.031445313,-0.130951658,0.852551699
61.557820,-15.707096100,-0.162910461,-11.160530090,0.025219727,-0.149262205,0.850598574
61.596124,-17.301639557,-4.999946594,-8.330024719,0.039379884,-0.128388181,0.912854433
61.634444,-16.569217682,-16.619514465,-3.729499817,-0.001025390,-0.188812986,0.930310488
61.648740,-20.925601959,-23.630928040,-0.639595032,-0.000415038,-0.202484861,0.970105410
61.664105,-21.162113190,-26.499580383,1.412712097,0.000561524,-0.181366697,1.005017519
61.702443,-10.725101471,-26.346992493,6.272636414,0.048413087,-0.173554197,1.036145449
61.740746,-11.831363678,3.255058289,4.006706238,0.132153317,-0.160858884,1.029431581
61.755041,-10.870059967,12.158561707,1.305900574,0.128124997,-0.152558103,1.036999941
61.770410,-10.801395416,24.357963562,-0.822700500,0.103100583,-0.189545408,1.055920839
61.808717,-6.727298737,33.841300964,-0.059761047,0.115063474,-0.129242674,1.159314394
61.847063,4.434505463,34.482170105,-3.950752258,0.093701169,-0.191132322,1.111462831
61.861363,4.503170013,32.643486023,-2.806343079,0.089306638,-0.210663572,1.092297792
61.876738,2.687374115,29.744316101,-0.174201965,0.105175778,-0.202729002,1.093640566
61.915067,7.593074799,27.096916199,-3.981269836,0.124584958,-0.150727049,1.106213808
61.953370,6.715694427,10.800529480,-4.629768372,0.053784180,-0.224823728,1.033337831
61.982443,6.936946869,-8.478950500,-0.204719543,0.064648435,-0.121552244,1.115735292
61.996793,13.292232513,-15.703987122,-1.196540833,0.063916013,-0.124604002,1.111218691
62.034996,12.994686127,-21.944831848,-0.670112610,0.059155274,-0.191498533,1.040417910
62.073277,10.454097748,-21.319221497,0.115715027,0.073925778,-0.140229002,1.065442324
62.087593,15.489498138,-19.549201965,-1.616157532,0.068310544,-0.159271970,1.052258730
62.102956,15.970149994,-18.786262512,-1.921333313,0.060009766,-0.197846189,1.031995058
62.141267,6.708065033,-9.959053040,0.466667175,0.082104489,-0.227265134,1.011975527
62.179554,12.193599701,3.186393738,-5.011238098,0.088085935,-0.150482908,1.068127871
62.193852,12.864986420,4.605461121,-5.415596008,0.076733395,-0.177704588,1.052258730
62.209195,10.057369232,4.407096863,-3.958381653,0.069409177,-0.193329588,1.031018496
62.247479,5.700984955,0.744987488,-3.523506165,0.088818356,-0.145844236,1.061414003
62.285753,2.687374115,1.065422058,-4.683174133,0.088452145,-0.146454588,1.082898378
62.300042,1.161495209,-1.246284485,-4.217781067,0.080517575,-0.152924314,1.088269472
62.315376,-1.775821686,-6.869148254,-3.126777649,0.080761716,-0.148285642,1.121716738
62.353655,0.207820892,-14.796089172,-1.669563293,0.077221677,-0.148163572,1.187390566
62.391932,-1.249393463,-12.347053528,-1.089729309,0.093457028,-0.186249509,1.190076113
62.406231,-1.592716217,-8.303474426,-2.012886047,0.093579099,-0.168793455,1.217297792
62.421575,-0.837406158,-6.129096985,-2.180732727,0.094677731,-0.159760252,1.228039980
62.459857,2.939144135,3.819633484,-2.516426086,0.097607419,-0.209320799,1.186780214
62.498137,-3.789981842,14.889884949,-4.591621399,0.112011716,-0.163056150,1.187024355
62.512440,-0.074466705,16.301322937,-6.178535461,0.102368161,-0.122040525,1.212292910
62.527811,1.916805267,15.927482605,-6.361640930,0.099682614,-0.141937986,1.201916933
62.566116,1.268306732,6.634880066,-5.232490540,0.067333981,-0.188324705,1.128674746
62.618120,0.383296967,-3.428291321,-2.287544250,0.065747067,-0.177216306,1.102063417
62.632454,-0.509342194,-3.550361633,-1.318611145,0.062329102,-0.168427244,1.085705996
62.647817,-1.295169830,-2.970527649,-1.074470520,0.063305661,-0.150849119,1.079602480
62.686125,0.642696381,1.492668152,-1.303352356,0.070385739,-0.135346189,1.057507753
62.724442,-2.698978424,3.583122253,-0.357307434,0.073071286,-0.104340330,1.056897402
62.738736,-1.791080475,4.559684753,-0.677742004,0.071362302,-0.097138181,1.061047792
62.754097,0.490108490,5.894828796,-1.150764465,0.067944333,-0.112152830,1.039441347
62.792410,-4.354557037,2.865959167,1.382194519,0.068554685,-0.127533689,1.016736269
62.830703,-1.569828033,5.856681824,0.245414734,0.094311520,-0.100312009,1.010754824
62.845006,-3.103336334,6.848503113,-0.105537415,0.096874997,-0.121063963,1.003918886
62.860346,-5.369266510,8.565116882,-0.670112610,0.093579099,-0.104828611,1.005872011
62.898653,-5.529483795,8.588005066,-1.234687805,0.086743161,-0.108612791,1.028455019
62.950908,-5.079349518,-0.254463196,-0.693000793,0.071972653,-0.093109861,1.046521425
62.965243,-3.347476959,-0.895332336,-1.463569641,0.067944333,-0.088104978,1.053113222
62.980595,-1.211246490,-2.650093079,-0.593818665,0.054394532,-0.140473142,1.013318300
63.018890,-2.767642975,-6.136726379,0.535331726,0.056591798,-0.130829588,0.992932558
63.057197,-2.195438385,-4.458259583,1.656852722,0.060131837,-0.131806150,0.977673769
63.071475,-4.560550690,-0.536750793,0.588737488,0.071606442,-0.152924314,0.976575136
63.086827,-4.560550690,0.394035339,0.230155945,0.076855466,-0.134735838,0.982922792
63.125126,-0.944217682,-2.108406067,-0.189460754,0.061718751,-0.148407713,0.970227480
63.163441,-4.148563385,-7.952522278,1.382194519,0.049633790,-0.186737791,0.961438417
63.177727,-3.294071198,-9.440254211,2.442680359,0.053784180,-0.180023924,0.983411074
63.193080,-1.424869537,-9.165596008,2.610527039,0.069409177,-0.175995603,0.977429628
63.231382,-2.615055084,-0.368904114,-0.517524719,0.083447263,-0.158173338,0.977429628
63.269673,-2.210697174,-5.961250305,0.344596863,0.055371094,-0.133026853,0.995984316
63.283966,0.245967865,-9.165596008,1.283012390,0.048413087,-0.134491697,0.987073183
63.299292,-1.379093170,-11.942695618,2.648674011,0.055004884,-0.181488767,0.965832949
63.337619,-1.272281647,-7.204841614,3.175102234,0.076977536,-0.107147947,0.978528261
63.375911,0.146785736,-4.832099915,3.053031921,0.098461911,-0.114838377,0.965344667
63.390211,0.574031830,-0.552009583,1.748405457,0.099438474,-0.134735838,0.957898378
63.405556,-0.112613678,2.858329773,0.619255066,0.099560544,-0.143891111,0.964490175
63.443856,-1.592716217,6.405998230,-1.654304504,0.093945310,-0.123993650,0.988538027
63.482155,5.693355560,0.897575378,-2.737678528,0.086376950,-0.155121580,0.965832949
63.496440,6.555477142,0.600028992,-3.233589172,0.075390622,-0.174286619,0.948254824
63.511775,3.015438080,0.249076843,-2.813972473,0.081494138,-0.219208494,0.911755800
63.550070,-0.021060944,-1.322578430,-3.203071594,0.094677731,-0.178925291,0.957410097
63.588351,1.932064056,9.030509949,-3.637947083,0.111157224,-0.189423338,0.965832949
63.602637,1.146236420,12.723136902,-3.622688293,0.126782224,-0.172455564,0.973523378
63.617990,1.726070404,19.910026550,-5.629219055,0.147534177,-0.160126463,0.968762636
63.656269,-0.974735260,29.996086121,-11.892951965,0.130200192,-0.159027830,0.982556581
63.694558,-1.043399811,24.190116882,-14.677680969,0.097363278,-0.093354002,1.013318300
63.708866,3.381649017,12.982536316,-13.006843567,0.059521485,-0.130219236,0.993542910
63.724203,2.458492279,6.817985535,-12.571968079,0.053173829,-0.145355955,0.970227480
63.762489,-3.767093658,-29.200386047,-8.749641418,-0.006152343,-0.129853025,0.983533144
63.800810,5.693355560,-60.580085754,5.532585144,0.013256837,-0.117645994,1.021497011
63.815107,4.922786713,-62.113594055,6.081901550,0.059033204,-0.183686033,0.971570253
63.830443,0.436702728,-59.099983215,5.174003601,0.070507810,-0.196503416,0.984631777
63.868743,6.105342865,-35.288642883,0.909172058,0.095410153,-0.124115720,1.071545839
63.922375,7.211605072,-0.780891418,0.428520203,0.069165036,-0.175385252,0.991101503
63.953443,6.753841400,16.507316589,1.656852722,0.100170895,-0.092865720,0.987683535
63.967727,15.420833588,26.837516785,0.359855652,0.125927731,-0.134003416,1.063733339
64.005899,10.705867767,39.410758972,-1.928962708,0.110546872,-0.121430174,0.916394472
64.044225,2.824703217,36.870170593,-4.622138977,0.057934571,-0.092133299,0.987073183
64.058516,6.029048920,31.476188660,-2.096809387,0.028759766,-0.061981935,0.997571230
64.073884,12.536922455,18.750358582,4.647575378,0.048535157,-0.078217283,0.949353456
64.112205,3.663936615,-1.787971497,6.409965515,0.050000001,-0.087494627,0.887585878
64.150480,2.771297455,-29.749702454,12.742362976,0.023022462,-0.108612791,0.917859316
64.164807,4.968563080,-37.684272766,14.863334656,0.047314454,-0.091156736,0.917248964
64.180163,5.060115814,-38.714241028,14.916740417,0.055737305,-0.106903806,0.889416933
64.218454,2.168575287,-28.910469055,14.535270691,0.083081052,-0.130585447,0.872205019
64.256753,-4.064640045,0.096488953,10.583244324,0.143383786,-0.101410642,0.854016542
64.271062,-8.413394928,7.573295593,8.965812683,0.141186520,-0.100800291,0.879285097
64.286399,-7.391056061,19.383598328,5.418144226,0.139111325,-0.060272951,0.939831972
64.324708,-5.781253815,28.599906921,2.526603699,0.120068356,-0.080780759,0.917371035
64.363049,-12.106021881,12.837577820,0.169120789,0.041821290,-0.093109861,0.978162050
64.377358,-9.084781647,3.468681335,2.900444031,0.021313477,-0.094208494,0.994397402
64.392688,-4.926761627,-16.016792297,9.942375183,0.030346680,-0.133637205,0.965222597
64.431011,-11.167606354,-27.964424133,12.521110535,0.084545895,-0.092377439,0.969372988
64.469315,-7.192691803,-24.599861145,11.567436218,0.108959958,-0.065277830,1.061414003
64.483626,-2.058109283,-18.725227356,10.583244324,0.119458005,-0.071503416,1.047620058
64.498991,-1.546939850,-15.024971008,10.094963074,0.117993161,-0.085053220,1.035657167
64.537268,-2.698978424,0.973869324,10.865531921,0.105908200,-0.139984861,1.057629824
64.575548,-0.326236725,11.578727722,11.254631042,0.137890622,-0.128266111,1.070813417
64.589859,0.345149994,14.180351257,10.796867371,0.136425778,-0.129730955,1.074597597
64.605206,1.329341888,17.743278503,9.454093933,0.135327145,-0.160858884,1.081311464
64.643490,4.640499115,19.856620789,9.324394226,0.142041013,-0.128266111,1.068616152
64.681810,1.932064056,20.039726257,7.989250183,0.159008786,-0.157929197,1.050061464
64.696112,0.993648529,20.245719910,7.592521667,0.161450192,-0.166840330,1.057141542
64.711476,0.924983978,21.504570007,7.348381042,0.176342770,-0.117890134,1.091443300
64.749768,6.021419525,22.816825867,2.023063660,0.169262692,-0.131073728,1.071789980
64.788079,4.892269135,13.226676941,2.396903992,0.126904294,-0.175629392,1.079846621
64.802373,5.044857025,2.827812195,4.929862976,0.129223630,-0.156708494,1.110730410
64.817703,6.814876556,-1.704048157,5.456291199,0.139599606,-0.130707517,1.113538027
64.871763,13.017574310,-12.667488098,2.015434265,0.166210935,-0.186981931,1.112561464
64.910165,14.795223236,-9.379219055,-3.088630676,0.130566403,-0.105805174,1.055432558
64.924458,18.304744720,-9.974311829,-2.264656067,0.119091794,-0.174408689,1.051648378
64.939786,15.870967865,-11.996101379,0.703178406,0.100292966,-0.217499509,1.039929628
64.978100,12.491146088,-8.974861145,2.732597351,0.148388669,-0.139130369,1.012219667
65.016426,12.048641205,0.325370789,-2.394355774,0.175976560,-0.096771970,0.979748964
65.030721,14.192501068,5.551506042,-5.232490540,0.178295895,-0.159760252,0.994031191
65.046058,10.835567474,7.657218933,-6.445564270,0.159619138,-0.156830564,1.003064394
65.084360,11.598506927,5.879570007,-6.842292786,0.158032224,-0.100556150,1.021497011
65.122650,8.737483978,-2.489875793,-9.428657532,0.146679685,-0.084809080,0.990735292
65.136943,8.043209076,-5.938362122,-9.489692688,0.135449216,-0.065644041,1.005749941
65.152253,10.141292572,-14.651130676,-8.932746887,0.119824216,-0.042450685,1.022107363
65.190552,11.987606049,-27.178596497,-7.948554993,0.105786130,-0.068207517,0.993176699
65.228861,8.836666107,-33.823799133,-4.591621399,0.091015622,-0.056366701,1.014294863
65.260345,12.163082123,-32.549690247,-3.882087708,0.114086911,-0.052948732,0.998791933
65.274665,11.293331146,-30.009101868,-3.966011047,0.118359372,-0.061493654,0.980359316
65.312869,10.713497162,-13.254951477,-5.690254211,0.127026364,-0.045258302,0.981702089
65.351202,10.484615326,6.009269714,-4.873908997,0.129956052,-0.045990724,0.968884706
65.365489,11.056819916,10.449577332,-5.232490540,0.134716794,-0.054535646,0.952283144
65.380846,7.471004486,17.529655457,-4.767097473,0.153881833,-0.051850099,0.935681581
65.419142,8.500972748,30.125785828,-8.848823547,0.167309567,-0.027069826,0.970105410
65.457460,6.540218353,32.536674500,-11.007942200,0.165722653,-0.012909669,0.983655214
65.471763,7.509151459,30.965019226,-11.213935852,0.155468747,-0.013886232,0.987927675
65.487134,7.928768158,25.777030945,-10.000862122,0.154736325,-0.020966310,0.971326113
65.525445,6.479183197,7.069755554,-11.252082825,0.133862302,-0.020111818,0.978039980
65.563724,7.249752045,-13.834785461,-8.444465637,0.112377927,-0.009003419,0.983655214
65.578030,7.890621185,-24.699043274,-7.368721008,0.127148435,-0.003021974,0.998791933
65.593381,8.958736420,-27.911018372,-7.391609192,0.130932614,0.002837401,0.998547792
65.631672,7.135311127,-32.404731750,-9.863533020,0.123120114,0.012847167,0.986951113
65.669990,9.607234955,-37.249397278,-7.956184387,0.088085935,0.003813963,0.988904238
65.684279,9.279170990,-37.684272766,-5.797065735,0.097485349,0.021758299,0.989636660
65.699644,10.057369232,-36.211799622,-5.026496887,0.107006833,0.034941893,0.983899355
65.737954,8.478084564,-20.403694153,-7.910408020,0.135571286,0.038970213,0.974988222
65.776256,10.774532318,-4.046272278,-8.429206848,0.115795895,0.061553221,0.990369081
65.790544,10.362545013,-0.727485657,-7.857002258,0.120678708,0.061675292,0.993664980
65.805887,10.988155365,4.193473816,-7.040657043,0.125561520,0.084502444,0.991711855
65.844200,13.269344330,7.771659851,-5.537666321,0.136547849,0.076445803,0.978284121
65.893834,10.507503510,12.273002625,-6.903327942,0.127636716,0.086699709,0.947888613
65.908196,11.072078705,10.937858582,-6.033576965,0.123242185,0.070220217,0.955334902
65.923569,10.873714447,7.908988953,-3.058113098,0.120922849,0.036772948,0.936414003
65.961865,7.806697845,8.038688660,-1.372016907,0.174511716,0.081328616,0.930310488
66.000161,6.883541107,12.768913269,-4.889167786,0.169995114,0.077788576,0.928967714
66.014446,6.318965912,13.531852722,-4.881538391,0.174145505,0.087798342,0.922986269
66.029797,6.395259857,13.737846375,-5.041755676,0.174145505,0.091826662,0.922253847
66.068113,4.243770599,9.862113953,-6.415046692,0.159497067,0.103667483,0.937634706
66.106437,7.257381439,-0.696968079,-5.888618469,0.141308591,0.153838381,0.908704042
66.120722,7.333675385,-3.153633118,-6.857551575,0.141430661,0.146758303,0.907117128
66.136053,6.479183197,-8.097480774,-6.987251282,0.088452145,0.120269045,0.904797792
66.174339,6.975093842,-17.054389954,-1.989997864,0.098706052,0.136016116,0.871472597
66.212643,1.512447357,-15.978645325,-3.157295227,0.104443356,0.125395998,0.890881777
66.226942,3.496089935,-15.131782532,-1.982368469,0.103710935,0.127959475,0.898205996
66.242271,7.509151459,-10.706733704,-0.143684387,0.128979489,0.103667483,0.875378847
66.280573,-1.676639557,4.834342957,-5.751289368,0.130688474,0.085723147,0.864880800
66.318879,-0.585636139,3.956962585,-1.677192688,0.111035153,0.107573733,0.896619081
66.333161,2.305904388,2.125907898,0.115715027,0.138134763,0.090972170,0.882947206
66.348478,0.505367279,2.041984558,-0.006355286,0.154248044,0.086577639,0.874036074
66.386757,-3.904422760,4.117179871,-2.508796692,0.154858395,0.104888186,0.939587831
66.425061,1.779476166,1.599479675,-1.448310852,0.157666013,0.066680178,0.927014589
66.439339,1.115718842,0.455070496,-2.226509094,0.142651364,0.048857909,0.916638613
66.454655,-2.012332916,-2.306770325,-1.616157532,0.149853513,0.011260252,0.935437441
66.492931,-2.691349030,-3.825019836,-1.196540833,0.196362302,0.092803225,0.971204042
66.531234,0.001827240,-4.679512024,-3.523506165,0.176098630,0.067534670,0.986218691
66.558338,1.398006439,-7.220100403,-0.349678040,0.166455075,0.093413576,0.987439394
66.572644,3.786006927,-7.227729797,-0.227607727,0.178662106,0.113799319,0.979260683
66.610830,5.624691010,0.752616882,-2.447761536,0.160107419,0.087065920,0.969495058
66.649131,5.159297943,3.171134949,-0.494636536,0.141064450,0.136382326,0.974988222
66.663433,7.333675385,2.446342468,0.283561707,0.145703122,0.138945803,0.971936464
66.678778,8.615413666,0.409294128,-0.929512024,0.151440427,0.088042483,0.964734316
66.717058,4.701534271,-5.869697571,1.878105164,0.134716794,0.094878420,0.970715761
66.755345,9.668270111,-3.344367981,1.519523621,0.188061520,0.145049319,0.890027285
66.769637,6.021419525,1.538444519,-1.944221497,0.153515622,0.092559084,0.887830019
66.784996,4.663387299,2.240348816,-1.272834778,0.141064450,0.082427248,0.901746035
66.823262,6.013790131,1.027275085,5.326591492,0.169262692,0.143218264,0.891247988
66.861544,1.321712494,8.008171082,-0.387825012,0.194531247,0.098540530,0.867078066
66.888833,0.169673920,10.564018250,0.123344421,0.180249020,0.158965334,0.865735292
66.903164,1.031795502,10.686088562,0.741325378,0.185009763,0.169341311,0.855969667
66.941316,-1.127323151,8.420158386,-2.516426086,0.164257810,0.107207522,0.828503847
66.979643,-5.086978912,-1.101325989,1.977287292,0.146191403,0.160552248,0.841809511
66.993929,-3.881534576,-1.849006653,2.396903992,0.158642575,0.167876467,0.836926699
67.009228,-4.148563385,-2.085517883,1.115165710,0.176708981,0.142119631,0.831311464
67.047503,-8.657535553,-0.155281067,-2.249397278,0.136425778,0.109038576,0.858044863
67.085826,-6.162723541,-3.596138000,2.572380066,0.136791989,0.128447756,0.849255800
67.100110,-6.887516022,-3.458808899,1.855216980,0.148754880,0.128203616,0.832288027
67.115423,-10.503849030,-3.016304016,-0.334419250,0.144604489,0.131255373,0.823987246
67.153712,-11.991580963,-7.456611633,0.832878113,0.113232419,0.118560061,0.868787050
67.192052,-8.771976471,-11.843513489,6.432853699,0.161572263,0.132231936,0.850964785
67.206348,-12.044986725,-5.480598450,2.877555847,0.173779294,0.093413576,0.850354433
67.221647,-14.509281158,-3.001045227,2.061210632,0.167431638,0.080962405,0.865613222
67.259937,-16.454776764,1.080680847,4.136405945,0.133618161,0.095854983,0.934216738
67.298244,-14.928897858,2.179313660,4.227958679,0.153759763,0.039092284,0.938733339
67.312523,-16.012271881,2.705741882,3.739677429,0.149975583,0.028960448,0.944348574
67.327869,-18.659671783,3.392387390,4.487358093,0.143627927,0.051543456,0.957898378
67.366169,-12.701114655,2.225090027,5.250297546,0.168164060,0.055693846,0.997937441
67.404465,-15.462955475,-0.498603821,3.457389832,0.169995114,0.012725096,0.966077089
67.418750,-15.577396393,-1.696418762,3.365837097,0.160229489,0.022246581,0.981824160
67.434066,-11.976322174,-6.136726379,4.472099304,0.151562497,-0.018036623,0.983899355
67.472382,-16.149600983,-12.377571106,8.637748718,0.166699216,0.016509276,1.014661074
67.510670,-11.251529694,-9.867500305,5.410514832,0.198071286,0.005889159,1.038220644
67.524961,-12.014469147,-6.441902161,4.716239929,0.182568356,0.032500487,1.061902285
67.540275,-11.037906647,-4.130195618,4.861198425,0.179760739,0.062773928,1.074109316
67.578581,1.832881927,2.911735535,3.983818054,0.170361325,0.001006346,1.060681581
67.616883,-0.585636139,6.962944031,5.883537292,0.163647458,0.045317870,1.052624941
67.631158,2.107540131,8.290458679,5.318962097,0.159252927,0.038726073,1.034070253
67.646475,1.970211029,8.473564148,4.792533875,0.157543942,-0.019989748,0.981457949
67.684766,0.505367279,1.591850281,7.233940125,0.148144528,-0.059540529,0.918225527
67.723059,-4.560550690,-0.010322571,9.026847839,0.127270505,-0.047333498,0.901135683
67.737352,-5.163272858,0.180412292,10.468803406,0.138012692,-0.045502443,0.914563417
67.752669,-6.528934479,3.903556824,10.957084656,0.170239255,-0.044037599,0.909924746
67.790955,-10.969242096,13.226676941,7.973991394,0.192089841,0.042876463,0.968640566
67.829255,-5.300601959,15.858818054,8.080802917,0.186596677,-0.020355958,1.005261660
67.843546,-5.811771393,15.767265320,6.760917664,0.200756833,-0.007294435,0.993787050
67.870912,-7.192691803,15.378166199,5.395256042,0.192456052,-0.003021974,1.005994081
67.922558,-3.309329987,11.197257996,3.228507996,0.200390622,-0.017304201,0.987561464
67.960929,-5.254825592,8.938957214,-0.418342590,0.194531247,-0.028412599,0.942151308
67.975215,-7.146915436,6.222892761,-0.647224426,0.180004880,-0.030731935,0.956677675
67.990536,-6.132205963,-1.025032043,0.573478699,0.162670895,-0.019501466,0.984875917
68.028845,-4.118045807,-9.104560852,1.527153015,0.158032224,0.023955565,1.014172792
68.067145,-2.294620514,-8.211921692,1.038871765,0.165600583,-0.060639162,0.976330996
68.081440,-5.094608307,-5.419563293,-0.387825012,0.156933591,-0.026825685,0.985852480
68.096757,-5.071720123,-4.542182922,-0.418342590,0.146679685,-0.000580568,1.005872011
68.135052,0.352779388,-3.695320129,1.298271179,0.128124997,-0.054169435,1.010754824
68.173345,-3.431400299,1.340080261,1.962028503,0.134838864,-0.037079591,0.953015566
68.187633,-5.079349518,3.247428894,1.313529968,0.145825192,-0.026459474,0.975598574
68.202984,-3.034671783,2.392936707,0.886283875,0.136181638,-0.059662599,1.009534121
68.241269,-1.760562897,4.689384460,3.693901062,0.148876950,-0.038544435,0.978406191
68.279555,-4.133304596,15.217948914,0.237785339,0.174511716,-0.035370607,0.960950136
68.293853,-4.636844635,16.163993835,-0.982917786,0.180371091,-0.044037599,0.969495058
68.309183,-4.888614655,15.057731628,-2.424873352,0.150463864,-0.026093263,0.974011660
68.347468,-4.354557037,8.786369324,-2.035774231,0.123364255,-0.041718263,0.988538027
68.385765,-4.385074615,-0.666450500,-0.372566223,0.119824216,-0.061737794,0.975598574
68.400055,-5.498966217,-3.397773743,0.459037781,0.121899411,-0.058441896,0.976941347
68.415377,-5.361637115,-3.275703430,0.680290222,0.127392575,-0.049896974,0.983533144
68.453665,-4.957279205,3.438163757,-3.134407043,0.144848630,-0.069672361,0.970837831
68.491956,-5.590518951,7.977653503,-3.431953430,0.122387692,-0.055390138,1.004773378
68.506237,-4.392704010,8.679557800,-3.554023743,0.124951169,-0.061615724,1.000745058
68.521563,-3.141483307,9.389091492,-4.080451965,0.121533200,-0.086884275,0.972668886
68.559864,-11.602481842,3.049064636,-4.187263489,0.101147458,-0.094452634,0.975476503
68.598166,-3.622135162,-2.909492493,-1.227058411,0.121166989,-0.070526853,1.018201113
68.612459,-3.019412994,-2.680610657,-1.768745422,0.136547849,-0.079315916,0.991101503
68.627787,-5.636295319,-0.323127747,-5.407966614,0.133251950,-0.102387205,0.945447206
68.666102,-12.083133698,-3.550361633,-3.752388000,0.075268552,-0.148285642,0.988782167
68.704436,-9.130558014,-15.597175598,2.366386414,0.084179685,-0.102875486,1.013440371
68.718727,-8.527835846,-15.528511047,3.846488953,0.114453122,-0.107880369,0.991101503
68.734065,-10.206302643,-12.354682922,4.021965027,0.139721677,-0.113495603,0.994153261
68.772379,-11.533817291,9.022880554,-4.309333801,0.155590817,-0.081879392,1.048352480
68.810677,-5.804141998,12.593437195,-1.921333313,0.130200192,-0.088593259,1.045300722
68.824973,-5.689701080,12.211967468,-1.875556946,0.138256833,-0.075043455,1.030286074
68.840317,-6.376346588,13.638664246,-2.707160950,0.156933591,-0.072357908,1.025891542
68.892218,-3.866275787,12.478996277,-6.369270325,0.127270505,-0.111908689,1.053357363
68.930628,-2.683719635,4.079032898,-6.178535461,0.119702145,-0.101166502,1.023450136
68.944926,-3.461917877,0.714469910,-5.613960266,0.108227536,-0.117401853,1.025891542
68.960260,-2.798160553,-0.246833801,-5.392707825,0.103710935,-0.120575681,1.024060488
68.998547,-3.187259674,-0.071357727,-5.041755676,0.093579099,-0.078217283,1.015393496
69.036860,-2.973636627,-4.961799622,-3.187812805,0.045117188,-0.151337400,1.039929628
69.051143,-3.477176666,-7.113288879,-1.112617493,0.039257813,-0.149140134,1.051038027
69.066481,-2.248844147,-9.295295715,2.404533386,0.064770505,-0.121308103,1.054578066
69.104773,-2.248844147,-1.803230286,0.863395691,0.120678708,-0.107514158,1.017224550
69.143072,-2.752384186,7.497001648,-1.944221497,0.116040036,-0.131073728,0.988782167
69.157359,-4.819950104,10.914970398,-2.531684875,0.113476560,-0.143036619,0.990979433
69.186486,-5.338748932,10.388542175,-3.775276184,0.098583981,-0.141815916,0.992810488
69.224859,-6.750186920,-0.300239563,-2.485908508,0.053662110,-0.133270994,0.970105410
69.277089,-10.038455963,-15.177558899,3.655754089,0.074291989,-0.124970213,1.024182558
69.292669,-10.206302643,-16.344856262,3.877006531,0.075878903,-0.108124509,1.038708925
69.306954,-7.352909088,-17.588447571,4.304252625,0.070507810,-0.079315916,1.080701113
69.345114,-2.119144440,-15.459846497,6.463371277,0.088452145,-0.133637205,1.079358339
69.383435,-0.410160065,-3.092597961,3.571830750,0.090893552,-0.125336424,1.057263613
69.397719,0.703731537,-0.269721985,3.663383484,0.082958981,-0.126068845,1.064587831
69.413047,3.709712982,5.131889343,4.655204773,0.083081052,-0.169159666,1.077771425
69.451340,5.044857025,19.360710144,5.975090027,0.127270505,-0.166840330,1.035168886
69.489662,2.153316498,40.845085144,-1.074470520,0.152294919,-0.128632322,1.036755800
69.503962,2.168575287,42.767692566,-4.866279602,0.122387692,-0.132782713,1.050793886
69.519309,2.763668060,40.837455750,-5.598701477,0.096020505,-0.135590330,1.044080019
69.557634,5.121150970,19.154716492,-1.120246887,0.064282224,-0.116303220,1.027112246
69.595934,3.503719330,-3.664802551,1.244865417,0.037182618,-0.163178220,0.942395449
69.610219,1.008907318,-8.501838684,2.526603699,0.030102540,-0.179657713,0.927380800
69.625559,-4.255374908,-16.932319641,5.265556335,0.035107423,-0.149506345,0.941540956
69.663863,-3.210147858,-25.797676086,8.263908386,0.048291016,-0.125824705,0.983899355
69.702169,-6.292423248,-25.164436340,7.775627136,0.034619141,-0.144867674,0.989026308
69.716464,-6.841739655,-23.890327454,9.179435730,0.037182618,-0.134979978,1.016980410
69.731816,-4.972537994,-19.686531067,10.178886414,0.052563477,-0.128266111,1.036999941
69.770124,-2.714237213,-3.222297668,8.157096863,0.080761716,-0.144745603,1.027600527
69.808440,-4.232486725,11.265922546,6.249748230,0.076367185,-0.138397947,1.015515566
69.822733,-4.888614655,16.789604187,6.455741882,0.080273435,-0.149628416,1.027234316
69.838088,-4.736026764,18.407035828,6.730400085,0.085156247,-0.155365720,1.034924746
69.891677,-1.974185944,16.247917175,5.372367859,0.075268552,-0.140961424,1.028821230
69.930069,-0.326236725,7.237602234,6.562553406,0.081249997,-0.165009275,1.018445253
69.944366,-0.852664948,5.414176941,6.768547058,0.084301755,-0.169281736,1.010632753
69.959700,-1.768192291,3.102470398,6.493888855,0.096020505,-0.152680174,1.013074160
69.998006,-2.317508698,0.714469910,5.311332703,0.091137692,-0.149994627,1.019910097
70.036278,-0.211795807,0.897575378,4.014335632,0.087109372,-0.147919431,1.037488222
70.050565,-0.051578522,2.080131531,3.175102234,0.084423825,-0.153900877,1.032117128
70.065890,-0.204166412,2.797294617,2.702079773,0.080273435,-0.149384275,1.030652285
70.104196,0.268856049,3.033805847,1.946769714,0.057934571,-0.153290525,1.031995058
70.142486,1.405635834,0.249076843,3.091178894,0.049023438,-0.137177244,1.041760683
70.156771,2.229610443,-0.712226868,3.526054382,0.050976563,-0.137909666,1.036267519
70.172113,2.832332611,-0.292610168,3.320060730,0.050488282,-0.152802244,1.038953066
70.210434,2.336421967,-0.834297180,3.983818054,0.033642579,-0.156952634,1.019910097
70.248720,3.351131439,-1.124214172,5.692802429,0.045117188,-0.170258299,1.013074160
70.263020,2.618709564,-0.376533508,5.585990906,0.048535157,-0.165741697,1.018201113
70.278372,2.771297455,0.836540222,5.982719421,0.057690430,-0.159638181,1.031018496
70.316663,5.594173431,1.591850281,5.029045105,0.069165036,-0.118378416,1.037976503
70.354950,6.303707123,3.598381042,4.617057800,0.063427731,-0.143524900,0.995007753
70.369246,4.487911224,3.903556824,4.426322937,0.060375977,-0.153534666,0.997327089
70.384595,4.518428802,3.888298035,4.395805359,0.062695310,-0.147797361,1.001721621
70.422887,6.418148041,3.689933777,4.151664734,0.060620118,-0.128021970,1.011121035
70.461187,5.327144623,6.062675476,3.159843445,0.064038083,-0.128754392,0.972913027
70.475470,4.304805756,5.398918152,3.335319519,0.068188474,-0.123871580,0.971570253
70.506365,4.861751556,1.446891785,2.633415222,0.063549802,-0.102387205,0.999524355
70.544713,7.341304779,-0.078987122,2.358757019,0.042553712,-0.112763181,0.985120058
70.583045,4.236141205,2.164054871,3.197990417,0.062817380,-0.127411619,0.959607363
70.597339,1.733699799,3.781486511,2.129875183,0.069531247,-0.122284666,0.967908144
70.612678,1.077571869,3.987480164,1.962028503,0.073315427,-0.107636228,0.977917910
70.650966,2.946773529,2.415824890,0.954948425,0.066723630,-0.091522947,0.995984316
70.689260,0.497737885,-0.002693176,0.253044128,0.055737305,-0.105927244,0.998059511
70.703517,0.718990326,-0.696968079,-0.021614075,0.054272462,-0.103485838,0.999890566
70.718835,0.940242767,-3.954719543,-0.052131653,0.049511719,-0.095307127,1.007703066
70.757110,-0.143131256,-12.064765930,0.268302917,0.028393555,-0.121796384,1.006848574
70.795425,2.221981049,-21.250556946,3.304801941,0.025341798,-0.102753416,1.027722597
70.809725,3.076473236,-23.287605286,4.037223816,0.028759766,-0.100189939,1.025403261
70.840826,2.778926849,-26.598762512,5.601249695,0.060986329,-0.147675291,0.999036074
70.879233,1.741329193,-24.645637512,4.784904480,0.109570310,-0.093598142,1.052258730
70.917524,7.203975677,-16.917060852,3.365837097,0.124218747,-0.097748533,1.042248964
70.931842,8.073726654,-10.645698547,1.046501160,0.132275388,-0.074555174,1.035168886
70.947169,9.721675873,3.743339539,-1.196540833,0.128002927,-0.096771970,1.024548769
70.985452,8.882442474,28.416801453,-6.010688782,0.112866208,-0.099457517,1.026868105
71.023750,8.294979095,32.254386902,-8.848823547,0.087597653,-0.118256345,0.957532167
71.038044,6.715694427,32.071281433,-8.070625305,0.101391599,-0.047455568,0.991833925
71.053391,10.301509857,29.790092468,-9.009040833,0.107006833,-0.070160642,0.974255800
71.091698,6.479183197,22.122550964,-10.969795227,0.091015622,-0.106903806,0.956189394
71.130048,6.730953217,2.560783386,-8.993782043,0.061840821,-0.071625486,0.968762636
71.144332,7.432857513,-6.037544250,-8.330024719,0.055493165,-0.091034666,0.976330996
71.159650,7.692256927,-10.012458801,-7.551826477,0.045239259,-0.094208494,0.968640566
71.197936,5.868831635,-17.550300598,-5.530036926,0.056469727,-0.082245603,0.955823183
71.236233,5.411067963,-15.429328918,-5.667366028,0.047558594,-0.068939939,0.962414980
71.250521,5.556026459,-14.513801575,-5.865730286,0.038525391,-0.071503416,0.955334902
71.265869,4.930416107,-11.851142883,-3.225959778,0.024853516,-0.082245603,0.940808535
71.304170,-0.455936432,1.019645691,-2.585090637,0.048168946,-0.092133299,0.934705019
71.342456,-0.082096100,20.878959656,-6.735481262,0.073437497,-0.120697752,0.937390566
71.356746,-5.521854401,23.175407410,-7.757820129,0.045971680,-0.075531736,0.905896425
71.372097,-6.170352936,22.687126160,-6.865180969,0.045605469,-0.042084474,0.941052675
71.410429,-6.673892975,3.949333191,-5.430854797,0.001660157,-0.061005373,0.964123964
71.448717,-7.688602448,-18.137763977,1.801811218,0.006665040,-0.086151853,0.971204042
71.463019,-8.268436432,-26.476692200,3.701530457,0.022656251,-0.077484861,1.009900331
71.478377,-7.520755768,-28.712104797,5.074821472,0.022045899,-0.054779787,1.014905214
71.516679,-3.690799713,-29.505561829,2.625785828,0.036816407,-0.069062009,1.013440371
71.555001,-4.415592194,-21.838020325,4.708610535,0.046826173,-0.127167478,0.996716738
71.569297,-6.116947174,-17.939399719,4.411064148,0.052563477,-0.095917478,0.984509706
71.584639,-6.635746002,-8.974861145,2.755485535,0.060131837,-0.049896974,1.000378847
71.622929,-6.025394440,7.306266785,0.512443542,0.054150391,-0.088471189,1.032971621
71.661229,-5.216678619,11.548210144,1.313529968,0.053540040,-0.082978025,1.031384706
71.675517,-5.292972565,11.197257996,1.672111511,0.048535157,-0.089203611,1.031995058
71.690869,-4.713138580,9.534049988,2.335868835,0.056225587,-0.089691892,1.040539980
71.729161,-1.600345612,5.200553894,3.449760437,0.063305661,-0.091889158,1.039807558
71.767450,-1.829227448,3.094841003,4.571281433,0.071484372,-0.075409666,1.026257753
71.798921,-0.501712799,5.299736023,3.823600769,0.087963864,-0.091889158,1.035901308
71.827333,-0.082096100,7.123161316,3.800712585,0.088940427,-0.105683103,1.036633730
71.865648,-0.440677643,9.427238464,3.655754089,0.088452145,-0.114838377,1.029187441
71.903936,1.092830658,10.304618835,1.763664246,0.091381833,-0.109833494,1.037366152
71.918235,2.412715912,8.793998718,2.267204285,0.084667966,-0.120941892,1.033215761
71.933587,2.794185638,7.687736511,2.587638855,0.086376950,-0.120697752,1.026257753
71.971873,2.778926849,5.215812683,2.305351257,0.104077145,-0.113495603,0.989758730
72.010158,0.467220306,6.390739441,0.031791687,0.118359372,-0.110810056,0.984021425
72.024447,0.764766693,6.367851257,-0.906623840,0.114453122,-0.109589353,0.982068300
72.039784,0.856319427,4.925895691,-1.829780579,0.099682614,-0.116547361,0.973035097
72.078067,-0.188907623,-1.902412415,-1.898445129,0.091870114,-0.104218259,0.967664003
72.116341,-1.295169830,-5.083869934,-3.302253723,0.091137692,-0.090790525,0.970227480
72.130638,-1.051029205,-5.503486633,-3.882087708,0.083813474,-0.096649900,0.969250917
72.145987,-1.279911041,-5.976509094,-3.904975891,0.080151364,-0.109711424,0.967175722
72.184263,-2.607425690,-7.654975891,-5.011238098,0.064648435,-0.113007322,0.968152285
72.222537,-3.042301178,-12.377571106,-4.324592590,0.050854493,-0.112885252,0.995251894
72.236849,-2.187808990,-15.551399231,-3.065742493,0.042919923,-0.114350095,0.999524355
72.252199,-1.905521393,-16.993354797,-2.539314270,0.041088868,-0.126312986,0.997449160
72.290495,-4.568180084,-18.030952454,0.237785339,0.051831055,-0.122528806,1.018079042
72.328828,-1.813968658,-12.408088684,0.275932312,0.057446290,-0.121063963,1.015393496
72.343129,-1.447757721,-9.981941223,0.626884460,0.061230469,-0.121430174,1.014050722
72.358474,-1.363834381,-3.893684387,0.245414734,0.071362302,-0.121674314,0.994641542
72.396760,-2.386173248,7.695365906,-0.242866516,0.094189450,-0.117157713,0.998181581
72.435053,-1.592716217,12.929130554,-1.967109680,0.096752927,-0.109833494,0.993420839
72.449359,-1.623233795,13.119865417,-1.707710266,0.089916989,-0.112152830,0.993542910
72.464706,-2.370914459,12.234855652,-0.937141418,0.090405270,-0.118988767,0.994397402
72.503040,-2.416690826,9.297538757,-1.433052063,0.097485349,-0.096405759,1.005017519
72.541329,-2.935489655,3.529716492,-0.784553528,0.093823239,-0.126312986,0.997571230
72.555630,-3.370365143,0.249076843,-0.860847473,0.093090817,-0.114960447,1.011853456
72.570987,-2.882083893,-1.520942688,-0.990547180,0.093945310,-0.109345213,1.013318300
72.609263,-1.524051666,-8.875679016,-0.525154114,0.079541013,-0.126190916,1.017346621
72.647544,-0.669559479,-7.670234680,-0.548042297,0.079296872,-0.130097166,1.012097597
72.661848,-0.227054596,-6.457160950,-0.776924133,0.083325192,-0.121674314,1.010632753
72.677192,0.345149994,-3.626655579,-1.104988098,0.081982419,-0.121918455,1.000134706
72.715471,-0.188907623,3.049064636,-2.180732727,0.079052731,-0.128632322,1.000867128
72.765393,-1.356204987,4.239250183,-1.784004211,0.084179685,-0.116059080,1.016370058
72.779731,-0.494083405,3.079582214,-2.096809387,0.083935544,-0.104340330,1.023572206
72.795085,1.512447357,0.271965027,-1.875556946,0.078564450,-0.111176267,1.017834902
72.833396,0.352779388,-0.178169250,-1.173652649,0.076977536,-0.126923338,0.999036074
72.871679,-0.784000397,1.073051453,-1.066841125,0.078686520,-0.108368650,1.013074160
72.885972,0.390926361,0.546623230,-0.837959290,0.077099606,-0.103363767,1.007703066
72.901274,0.886837006,0.012565613,-0.769294739,0.076855466,-0.102509275,1.010510683
72.939549,0.718990326,-0.941108704,0.253044128,0.078442380,-0.115082517,0.987805605
72.977837,-0.303348541,2.118278503,0.474296570,0.090771481,-0.118378416,0.990369081
72.992105,0.963130951,3.316093445,0.253044128,0.089306638,-0.122895017,0.990247011
73.007423,1.153865814,3.651786804,0.314079285,0.093212888,-0.125946775,0.982922792
73.045708,0.009456635,5.841423035,0.451408386,0.105419919,-0.124604002,0.977917910
73.084006,-0.433048248,10.594535828,-0.837959290,0.120190427,-0.125458494,0.972913027
73.098297,-0.433048248,11.975456238,-1.219429016,0.119702145,-0.130707517,0.969128847
73.113641,-1.607975006,15.088249207,-2.073921204,0.126782224,-0.122162595,0.972790956
73.163764,-2.492984772,15.500236511,-4.393257141,0.107250974,-0.114472166,0.978772402
73.202130,-2.706607819,8.252311707,-4.133857727,0.104443356,-0.102509275,0.990369081
73.216438,-1.920780182,6.039787292,-4.156745911,0.106762692,-0.096161619,0.995007753
73.231794,-1.302799225,1.568962097,-3.996528625,0.101757810,-0.110810056,0.989392519
73.270095,-0.989994049,-2.863716125,-4.149116516,0.096386716,-0.120453611,0.993909121
73.308413,-1.859745026,-2.047370911,-3.882087708,0.099438474,-0.123871580,0.999768496
73.322709,-1.722415924,-0.574897766,-4.614509583,0.097119138,-0.113495603,1.011975527
73.338038,-1.669010162,0.325370789,-4.736579895,0.097607419,-0.113007322,1.019543886
73.376329,1.367488861,1.454521179,-5.720771790,0.080517575,-0.126068845,1.022595644
73.414640,-0.051578522,-4.038642883,-4.042304993,0.057934571,-0.127533689,1.020764589
73.428942,1.985469818,-7.654975891,-2.882637024,0.060620118,-0.110199705,1.031140566
73.444265,3.396907806,-9.112190247,-2.195991516,0.059521485,-0.109467283,1.019055605
