time,gyro x,gyro y,gyro z,accel x,accel y,accel z
12.861280,-4.528968811,9.908897400,-0.172111511,-0.296988398,0.132342041,0.888723373
12.870902,-0.676124573,-3.091590881,-0.194999695,-0.225943476,0.196795166,0.893239975
12.871528,1.139671326,-3.663795471,-0.004264832,-0.224234492,0.199480712,0.896902084
12.872154,2.810508728,-3.656166077,-0.194999695,-0.222403437,0.203142822,0.902273178
12.872779,3.985435486,-3.846900940,-0.080558777,-0.215811640,0.205462158,0.915578842
12.873405,5.053550720,-4.251258850,0.026252747,-0.218741328,0.210467041,0.927419662
12.874036,5.496055603,-4.281776428,-0.042411804,-0.217642695,0.227434814,0.939748764
12.874662,6.480247498,-4.754798889,-0.057670593,-0.218497187,0.244768798,0.950246811
12.875287,6.617576599,-4.731910706,0.171211243,-0.220938593,0.261370361,0.969900131
12.875914,6.159812927,-4.693763733,0.148323059,-0.217886835,0.277117431,0.982839584
12.876539,5.618125916,-4.869239807,-0.065299988,-0.216177851,0.282854736,0.997365952
12.877166,4.679710388,-5.166786194,0.102546692,-0.217520624,0.282488525,1.007619858
12.877791,3.962547302,-5.273597717,0.270393372,-0.213492304,0.278948486,1.011892319
12.878416,3.420860291,-5.433815002,0.049140930,-0.214468867,0.275042236,1.012258530
12.879042,2.833396912,-5.471961975,0.125434875,-0.217154413,0.267107666,1.006521225
12.880721,2.474815369,-6.006019592,-0.065299988,-0.212393671,0.250261962,0.983449936
12.881346,2.741844177,-6.097572327,0.125434875,-0.209097773,0.242815673,0.969289780
12.881973,3.405601501,-5.990760803,0.155952454,-0.203360468,0.239641845,0.956838608
12.882598,3.657371521,-6.013648987,0.056770325,-0.199820429,0.237810791,0.945486069
12.883224,4.313499451,-5.975502014,-0.103446960,-0.197623163,0.243426025,0.941823959
12.883849,4.817039490,-5.609291077,0.056770325,-0.192862421,0.250017822,0.938161850
12.884475,5.183250427,-5.319374084,0.232246399,-0.194937617,0.252215087,0.939626694
12.885100,5.633384705,-4.899757385,-0.034782410,-0.188589960,0.257708251,0.939748764
12.885726,5.709678650,-4.281776428,0.026252747,-0.190298945,0.262591064,0.942190170
12.886351,5.900413513,-4.312294006,-0.004264832,-0.192374140,0.267473876,0.944265366
12.886976,6.098777771,-3.846900940,-0.011894226,-0.194083124,0.271135986,0.946462631
12.887602,5.953819275,-3.663795471,0.018623352,-0.196402460,0.277361572,0.945363998
12.888228,6.075889587,-3.831642151,0.064399719,-0.200430781,0.280535400,0.949026108
12.888854,5.679161072,-3.701942444,-0.034782410,-0.201773554,0.280535400,0.950857162
12.889479,5.503684998,-3.686683655,0.049140930,-0.200308710,0.286883056,0.948293686
12.891130,5.229026794,-3.968971252,-0.126335144,-0.198477656,0.292620361,0.943777084
12.891756,5.091697693,-4.182594299,-0.233146667,-0.198477656,0.291765869,0.936452866
12.892382,4.733116150,-4.289405823,-0.317070007,-0.196768671,0.293596923,0.933767319
12.893009,4.786521912,-4.091041565,-0.103446960,-0.194205195,0.289690673,0.929616928
12.893635,4.771263123,-4.182594299,-0.492546082,-0.192374140,0.289080322,0.928640366
12.894262,4.984886169,-4.586952209,-0.332328796,-0.190909296,0.287859619,0.921682358
12.894887,5.198509216,-4.403846741,-0.301811218,-0.187735468,0.288958251,0.916189194
12.895513,5.419761658,-4.525917053,-0.416252136,-0.189200312,0.283709228,0.913015366
12.896140,5.755455017,-4.464881897,-0.599357605,-0.188834101,0.287859619,0.911550522
12.896766,6.045372009,-4.655616760,-0.500175476,-0.183218867,0.290911376,0.909231186
12.897391,6.327659607,-4.312294006,-0.500175476,-0.180289179,0.293841064,0.908376694
12.898017,6.533653259,-4.236000061,-0.675651550,-0.178336054,0.296648681,0.911062241
12.898644,6.655723572,-4.419105530,-0.545951843,-0.177237421,0.300921142,0.915945053
12.899270,6.846458435,-4.045265198,-0.767204285,-0.178213984,0.303484619,0.918264389
12.899897,6.754905701,-4.106300354,-0.744316101,-0.176138788,0.304094970,0.922048569
12.901496,6.533653259,-3.305213928,-1.133415222,-0.174796015,0.310808837,0.927297592
12.902122,6.243736267,-3.389137268,-0.965568542,-0.170889765,0.314593017,0.932790756
12.902747,6.167442322,-3.198402405,-0.874015808,-0.173819453,0.317034423,0.933523178
12.903372,5.938560486,-2.733009338,-1.064750671,-0.175162226,0.317034423,0.934133530
12.917586,0.498802185,1.836997986,-2.048942566,-0.186392695,0.313738525,0.964651108
12.918216,0.567466736,1.699668884,-2.300712585,-0.192618281,0.304705322,0.972097397
12.918842,0.704795837,1.676780701,-1.965019226,-0.195792109,0.305193603,0.975149155
12.919467,0.765830994,1.562339783,-2.254936218,-0.195425898,0.300066650,0.980764389
12.920093,1.093894958,1.028282166,-2.270195007,-0.199576288,0.296160400,0.985647202
12.920719,1.475364685,0.898582458,-2.163383484,-0.197867304,0.300799072,0.991140366
12.921346,1.849205017,0.578147888,-2.407524109,-0.198111445,0.303728759,0.991506577
12.921973,2.146751404,0.471336365,-2.399894714,-0.196280390,0.313128173,1.000295639
12.922598,1.849205017,0.044090271,-2.445671082,-0.194815546,0.320940673,0.998220444
12.923288,1.536399841,-0.108497620,-2.422782898,-0.190909296,0.328020751,1.001516342
12.923936,1.345664978,-0.016944885,-2.705070496,-0.190665156,0.326922119,1.005056381
12.924642,1.307518005,-0.245826721,-2.552482605,-0.190787226,0.321062744,1.013723373
12.925311,1.215965271,-0.413673401,-2.689811707,-0.187125117,0.325335205,1.010183334
12.925936,1.017601013,-0.390785217,-2.819511414,-0.188345820,0.326433837,1.006521225
12.927751,-0.042884827,0.166160583,-3.025505066,-0.170279413,0.339373291,0.979909897
12.928377,-0.241249084,0.791770935,-3.025505066,-0.172232538,0.330706298,0.976858139
12.929004,-0.019996643,0.791770935,-3.048393250,-0.174429804,0.321428955,0.974660873
12.929630,0.056297302,0.837547302,-3.155204773,-0.181876093,0.317888916,0.972341537
12.930256,0.575096130,1.119834900,-3.208610535,-0.189200312,0.313006103,0.973318100
12.930882,1.025230408,0.959617615,-3.132316589,-0.192374140,0.309588134,0.974416733
12.931507,1.551658630,0.990135193,-3.239128113,-0.188834101,0.321062744,0.970754623
12.932132,1.399070740,1.089317322,-3.628227234,-0.183585078,0.327410400,0.967458725
12.932759,1.353294373,1.188499451,-3.582450867,-0.173941523,0.330828369,0.963918686
12.933384,1.040489197,1.501304626,-3.834220886,-0.175040156,0.335589111,0.957571030
12.934011,1.147300720,1.775962830,-3.750297546,-0.179312617,0.341570556,0.959157944
12.934640,0.559837341,2.294761658,-3.796073914,-0.172964960,0.353777587,0.938405991
12.935265,-0.248878479,2.989036560,-3.933403015,-0.169424921,0.353655517,0.923269272
12.935892,-1.179664612,3.896934509,-3.788444519,-0.162588984,0.348528564,0.907644272
12.936519,-1.378028870,4.514915466,-3.826591492,-0.160879999,0.335833251,0.892385483
12.938327,-0.332801819,5.460960388,-3.719779968,-0.205679804,0.293108642,0.884206772
12.938954,0.491172791,5.148155212,-4.108879089,-0.214468867,0.288225830,0.891408920
12.939581,1.185447693,4.385215759,-4.047843933,-0.216177851,0.284929931,0.902639389
12.940207,1.833946228,3.706199646,-4.024955750,-0.209463984,0.284929931,0.908132553
12.940832,1.940757751,3.401023865,-4.299613953,-0.210074335,0.292864501,0.910696030
12.941458,2.108604431,3.050071716,-4.559013367,-0.204214960,0.307879150,0.917409897
12.942085,2.024681091,2.676231384,-4.291984558,-0.198721796,0.320696533,0.914236069
12.942711,1.772911072,2.920372009,-4.459831238,-0.194571406,0.332293212,0.907278061
12.943338,0.956565857,2.973777771,-4.330131531,-0.193594843,0.333513916,0.902761459
12.943964,0.498802185,2.920372009,-4.421684265,-0.191519648,0.321184814,0.900075912
12.944589,0.193626404,3.057701111,-4.467460632,-0.194571406,0.309832275,0.895071030
12.945215,0.254661560,2.790672302,-4.436943054,-0.214713007,0.276751220,0.907888412
12.945841,1.894981384,1.577598572,-4.276725769,-0.243521601,0.244036376,0.940969467
12.946467,3.603965759,-0.245826721,-4.467460632,-0.252554804,0.244036376,0.949880600
12.947093,4.031211853,-1.230018616,-4.826042175,-0.230460078,0.267229736,0.935598373
12.948707,2.436668396,-1.016395569,-4.635307312,-0.154288203,0.321551025,0.910085678
12.949334,1.589805603,-0.047462463,-4.337760925,-0.143301874,0.329729736,0.896657944
12.949959,1.185447693,0.845176697,-4.360649109,-0.160147578,0.319964111,0.891897202
12.950585,1.338035583,1.539451599,-4.093620300,-0.180289179,0.298113525,0.889211655
12.966268,-0.065773010,2.470237732,-4.070732117,-0.191519648,0.221331298,0.941091537
12.966918,2.223045349,1.913291931,-3.933403015,-0.202505976,0.210344970,0.971975327
12.967544,4.550010681,0.601036072,-3.857109070,-0.212271601,0.218645751,0.983572006
12.968170,5.999595642,0.120384216,-4.078361511,-0.207388788,0.243426025,0.985647202
12.968795,5.671531677,0.417930603,-4.497978210,-0.182852656,0.281389892,0.974294662
12.969421,4.954368591,0.852806091,-4.421684265,-0.153677851,0.307024658,0.980031967
12.970046,4.420310974,1.341087341,-4.139396667,-0.157828242,0.307146728,0.999441147
12.970671,5.312950134,0.974876404,-3.773185730,-0.188589960,0.291155517,1.026174545
12.971297,6.045372009,0.242454529,-3.994438171,-0.215811640,0.282610595,1.031301498
12.971923,6.121665955,-0.566261292,-4.108879089,-0.233145624,0.277971923,1.043874741
12.972549,5.671531677,-1.359718323,-4.696342468,-0.218375117,0.284441650,1.045217514
12.973175,5.335838318,-2.176063538,-4.688713074,-0.187003046,0.306414306,1.041555405
12.973801,4.031211853,-1.786964417,-4.734489441,-0.156363398,0.331438720,1.013601303
12.974427,3.573448181,-1.207130432,-4.429313660,-0.167593867,0.315447509,1.018239975
12.975053,3.771812439,-1.474159241,-4.505607605,-0.176382929,0.317644775,1.009695053
12.976702,3.268272400,-1.161354065,-4.688713074,-0.187247187,0.286272705,0.979177475
12.977327,4.336387634,-1.626747131,-4.673454285,-0.197989374,0.261370361,0.999441147
12.977954,5.358726501,-2.328651428,-4.848930359,-0.185782343,0.256609619,0.981863022
12.978580,6.304771423,-2.259986877,-4.818412781,-0.188589960,0.245989501,0.982839584
12.979205,7.388145447,-2.710121155,-4.749748230,-0.192007929,0.259661376,0.979909897
12.979832,8.578330994,-3.259437561,-4.932853699,-0.196402460,0.259661376,0.994680405
12.980458,10.081321716,-3.976600647,-4.765007019,-0.190054804,0.282976806,1.007009506
12.981085,10.951072693,-4.304664612,-5.016777039,-0.201529413,0.285052001,1.022878647
12.981711,11.355430603,-4.762428284,-5.016777039,-0.197867304,0.284563720,1.034475327
12.982336,11.668235779,-4.869239807,-4.948112488,-0.164175898,0.313860595,1.024953842
12.982962,10.180503845,-3.457801819,-5.497428894,-0.140738398,0.342791259,0.998464584
12.983587,8.944541931,-2.160804749,-5.268547058,-0.127676874,0.356218994,0.989309311
12.984213,8.326560974,-1.046913147,-5.077812195,-0.143546015,0.345843017,0.986623764
12.984838,8.563072205,-0.322120667,-5.192253113,-0.158682734,0.334490478,0.978445053
12.985464,8.311302185,0.616294861,-5.299064636,-0.156363398,0.331194580,0.943044662
12.987083,8.723289490,3.301841736,-5.268547058,-0.182120234,0.271502197,0.965871811
12.987709,11.248619080,2.149803162,-4.986259460,-0.233878046,0.223894775,1.014089584
12.988336,13.957054138,0.585777283,-5.100700378,-0.243521601,0.237688720,1.032155991
12.988963,14.529258728,-0.108497620,-5.436393738,-0.227408320,0.278216064,1.030569077
12.989589,13.430625916,-0.139015198,-5.756828308,-0.196524531,0.323992431,1.030324936
12.990215,12.446434021,-0.009315491,-5.878898621,-0.161002070,0.387224853,1.022268295
12.990840,9.478599548,2.233726501,-6.016227722,-0.025992310,0.528582275,0.887624741
12.991465,-1.606910706,11.183006287,-6.367179871,0.108040892,0.608172119,0.646413803
12.992092,-9.694068909,21.017295837,-5.291435242,0.065560423,0.498797119,0.639822006
12.992717,-8.320777893,25.030357361,-4.650566101,-0.078360476,0.327532470,0.703054428
12.993342,-0.966041565,23.329002380,-4.276725769,-0.248282343,0.150652587,0.758230209
12.993967,6.350547791,19.582969666,-4.490348816,-0.398917109,0.041155517,0.820608139
12.994593,12.225181580,14.768821716,-5.093070984,-0.458365351,0.011370362,0.903615952
12.995219,16.551048279,9.268028259,-5.611869812,-0.397208124,0.064226806,0.986379623
12.995845,19.816429138,4.652244568,-5.878898621,-0.318472773,0.162737548,1.067800522
12.997525,14.750511169,0.662071228,-5.894157410,-0.195670038,0.516741455,1.074392319
12.998152,8.959800720,2.630455017,-6.550285339,-0.171378046,0.530535400,1.046560287
12.998778,4.305870056,4.057151794,-6.412956238,-0.174185663,0.465838134,1.033376694
12.999403,2.207786560,4.148704529,-6.466362000,-0.211905390,0.357317626,1.035329819
13.013463,13.628990173,2.828819275,-8.572074890,-0.281973749,0.279070556,1.099660873
13.014134,13.316184998,2.111656189,-9.190055847,-0.235220820,0.352556884,1.045217514
13.014759,10.935813904,2.935630798,-9.548637390,-0.196768671,0.396258056,1.014333725
13.015385,9.097129822,3.813011169,-9.350273132,-0.184195429,0.365740478,1.027639389
13.016012,9.509117126,3.874046326,-9.380790710,-0.147818476,0.374285400,0.990041733
13.016637,7.739097595,5.872947693,-9.777519226,-0.145621210,0.350359619,0.938161850
13.017262,7.540733337,7.459861755,-9.350273132,-0.197379023,0.280901611,0.973806381
13.017888,11.591941833,5.781394958,-9.243461609,-0.273184687,0.199602783,1.050466537
13.018515,17.733604431,1.875144958,-9.624931335,-0.324942499,0.156756103,1.107595444
13.019142,22.105247498,-1.764076233,-10.067436218,-0.317374140,0.192888916,1.127492905
13.019767,23.821861267,-4.411476135,-10.509941101,-0.299307734,0.212908447,1.187673569
13.020392,26.133567810,-6.768959045,-10.799858093,-0.228995234,0.252459228,1.235525131
13.021019,28.269798279,-8.134620667,-11.105033875,-0.176993281,0.311541259,1.249074936
13.021644,25.187522888,-6.181495667,-11.661979675,-0.039175905,0.482927978,1.068288803
13.022270,15.620262146,1.493675232,-12.096855164,0.050057493,0.571306884,0.937551498
13.023959,13.217002869,14.044029236,-10.670158386,-0.068350710,0.376116455,0.840749741
13.024586,11.538536072,18.354637146,-10.868522644,-0.130118281,0.360735595,0.754812241
13.025213,8.494407654,22.169334412,-10.738822937,-0.127676874,0.346331298,0.714406967
13.025839,8.959800720,24.740440369,-10.838005066,-0.125357538,0.285906494,0.760061264
13.026465,13.171226501,24.442893982,-10.632011414,-0.146719843,0.256853759,0.797658920
13.027091,17.550498962,23.542625427,-10.288688660,-0.184683710,0.256243408,0.826345444
13.027716,19.526512146,23.100120544,-10.723564148,-0.224356562,0.299578369,0.841115952
13.028343,19.694358826,22.558433533,-11.303398132,-0.256094843,0.325579345,0.880178452
13.028969,19.953758240,21.017295837,-11.272880554,-0.263174921,0.322771728,0.936452866
13.029594,20.983726501,18.469078064,-11.700126648,-0.250235468,0.319109619,0.968679428
13.030219,22.044212341,15.844566345,-11.951896667,-0.246329218,0.297381103,0.983938217
13.030845,21.388084412,14.356834412,-12.020561218,-0.233267695,0.374407470,0.960500717
13.031470,18.992454529,13.303977966,-12.272331238,-0.219229609,0.442766845,0.929983139
13.032095,14.918357849,12.937767029,-12.859794617,-0.209708124,0.465471923,0.892385483
13.032720,11.050254822,13.380271912,-12.913200378,-0.178336054,0.468645751,0.833669662
13.034363,7.731468201,12.975914001,-12.928459167,-0.182730585,0.341082275,0.765676498
13.034988,7.243186951,13.014060974,-12.943717957,-0.205313593,0.307390869,0.742361069
13.035613,7.533103943,12.861473083,-12.981864929,-0.197867304,0.279680908,0.728078842
13.036239,9.280235291,12.266380310,-12.974235535,-0.198233515,0.257586181,0.730520248
13.036865,11.149436951,11.457664490,-13.081047058,-0.184927851,0.272967041,0.713186264
13.037491,11.141807556,11.808616638,-12.997123718,-0.164420038,0.290301025,0.687795639
13.038117,11.462242126,11.877281189,-13.210746765,-0.195303828,0.278093994,0.724660873
13.038744,12.995750427,10.969383240,-13.439628601,-0.250479609,0.257830322,0.773977280
13.039369,16.421348572,7.032615662,-13.081047058,-0.348746210,0.188128173,0.889089584
13.039995,17.565757751,2.767784119,-13.332817078,-0.275626093,0.315569580,0.818166733
13.040621,14.712364197,2.279502869,-13.737174988,-0.185171992,0.346209228,0.801076889
13.041246,14.155418396,2.653343201,-13.462516785,-0.166373163,0.305071533,0.835134506
13.041871,14.819175720,1.646263123,-13.332817078,-0.209952265,0.244524658,0.860403061
13.042498,15.208274841,0.646812439,-13.348075867,-0.207510859,0.231585205,0.837697983
13.043124,16.085655212,0.097496033,-13.462516785,-0.202139765,0.220354736,0.840993881
13.044763,20.136863708,-1.420753479,-13.058158875,-0.187979609,0.188738525,0.871633530
13.045389,21.548301697,-1.230018616,-12.989494324,-0.162100703,0.192156494,0.874929428
13.059113,19.328147888,0.715476990,-8.770439148,-0.224234492,0.191057861,0.915822983
13.059775,19.015342712,0.959617615,-8.526298523,-0.215323359,0.194475830,0.915945053
13.060401,18.542320251,1.157981873,-8.350822449,-0.215933710,0.210100830,0.906179428
13.061035,17.764122009,0.982505798,-8.076164246,-0.221426874,0.214007080,0.908864975
13.061660,16.963035583,0.967247009,-7.969352722,-0.224234492,0.216448486,0.906911850
13.062286,16.482383728,0.868064880,-7.854911804,-0.227652460,0.211931884,0.904226303
13.062912,15.933067322,0.456077576,-7.458183289,-0.216788203,0.217425048,0.887746811
13.063538,15.246421814,0.509483337,-7.305595398,-0.208365351,0.213030517,0.875295639
13.064165,15.048057556,0.417930603,-6.924125671,-0.209341913,0.203142822,0.870412827
13.064790,14.918357849,0.250083923,-6.809684753,-0.210806757,0.195696533,0.866872787
13.065417,14.979393005,0.089866638,-6.580802917,-0.211295038,0.203997314,0.853078842
13.066043,15.070945740,-0.436561584,-6.374809265,-0.206168085,0.208880126,0.847829819
13.066669,15.482933044,-0.642555237,-6.313774109,-0.207022578,0.210833251,0.845022202
13.067294,15.467674255,-0.962989807,-6.191703796,-0.207144648,0.208391845,0.848562241
13.069072,16.108543396,-1.642005920,-5.840751648,-0.186514765,0.220965087,0.848196030
13.069698,16.528160095,-1.680152893,-5.665275574,-0.184927851,0.228899658,0.844289780
13.070324,16.268760681,-1.909034729,-5.268547058,-0.194327265,0.234881103,0.846487045
13.070951,16.390830994,-2.183692932,-5.245658875,-0.199698359,0.238299072,0.854543686
13.071577,16.688377380,-2.557533264,-5.161735535,-0.185904413,0.245501220,0.854421616
13.072202,16.680747986,-2.748268127,-4.818412781,-0.181143671,0.253679931,0.857717514
13.072829,16.741783142,-2.992408752,-4.948112488,-0.180655390,0.265642822,0.854299545
13.073454,16.421348572,-3.175514221,-4.681083679,-0.184805781,0.256243408,0.857595444
13.074080,16.284019470,-3.274696350,-4.536125183,-0.178580195,0.253557861,0.867361069
13.074706,16.268760681,-3.740089417,-4.444572449,-0.169180781,0.258074462,0.863332748
13.075332,16.177207947,-3.595130920,-4.360649109,-0.163443476,0.279558837,0.853689194
13.075959,15.719444275,-3.671424866,-4.024955750,-0.166373163,0.285052001,0.856374741
13.076586,15.391380310,-3.915565491,-3.879997253,-0.177237421,0.290667236,0.860647202
13.077212,14.742881775,-4.236000061,-3.857109070,-0.177359492,0.296038330,0.862234116
13.077837,14.361412048,-4.419105530,-3.689262390,-0.171988398,0.292498291,0.858205795
13.079479,13.438255310,-4.792945862,-3.292533875,-0.156363398,0.291887939,0.859548569
13.080105,13.125450134,-5.044715881,-3.101799011,-0.167105585,0.293352783,0.862478256
13.080732,13.094932556,-4.976051331,-3.040763855,-0.171255976,0.287005126,0.871999741
13.081358,12.774497986,-5.204933167,-2.918693542,-0.164053828,0.294695556,0.871389389
13.081984,12.660057068,-5.319374084,-3.010246277,-0.157828242,0.292376220,0.873952866
13.082610,12.888938904,-5.235450745,-2.750846863,-0.159293085,0.284319580,0.882253647
13.083236,12.644798279,-5.342262268,-2.499076843,-0.152823359,0.297136962,0.881887436
13.083863,12.270957947,-4.853981018,-2.491447449,-0.156973749,0.297381103,0.891530991
13.084489,12.270957947,-4.960792542,-2.445671082,-0.166129023,0.304094970,0.897634506
13.085115,11.645347595,-4.983680725,-2.178642273,-0.171255976,0.306536376,0.907278061
13.085741,11.103660583,-4.869239807,-2.300712585,-0.164786249,0.314226806,0.911672592
13.086367,10.203392029,-4.701393127,-2.071830750,-0.160879999,0.318499267,0.913381577
13.086993,9.509117126,-4.899757385,-2.056571960,-0.176871210,0.313128173,0.929128647
13.087619,8.471519470,-4.617469788,-1.987907410,-0.172720820,0.317156494,0.926565170
13.088245,7.899314880,-4.586952209,-1.667472839,-0.177237421,0.307635009,0.939870834
13.089864,5.419761658,-3.549354553,-1.728507996,-0.175162226,0.329973876,0.911184311
13.090491,4.084617615,-3.328102112,-1.240226746,-0.199088007,0.328509033,0.913259506
13.091118,3.062278748,-3.648536682,-1.430961609,-0.216177851,0.320452392,0.916799545
13.091744,1.826316833,-3.999488831,-1.232597351,-0.206534296,0.320208251,0.911550522
13.105393,11.279136658,-0.848548889,-0.553581238,-0.098990358,0.228777587,1.008840561
13.106027,13.102561951,1.295310974,-0.118705750,-0.123526491,0.243670166,1.015066147
13.106653,13.979942322,2.042991638,0.140693665,-0.218985468,0.300066650,1.038991928
13.107278,14.254600525,1.508934021,-0.141593933,-0.245474726,0.324480712,1.056447983
13.107905,13.896018982,0.951988220,-0.149223328,-0.197012812,0.327044189,1.055837631
13.108532,13.186485291,1.196128845,0.072029114,-0.165640742,0.333147705,1.039358139
13.109159,12.156517029,1.844627380,-0.065299988,-0.169791132,0.353655517,1.037649155
13.109785,11.263877869,2.439720154,-0.133964539,-0.195670038,0.367815673,1.035329819
13.110411,9.737998962,2.561790466,-0.362846375,-0.199820429,0.362688720,1.007131577
13.111037,8.250267029,2.737266541,-0.378105164,-0.183829218,0.371477783,0.966848373
13.111663,6.999046326,2.805931091,-0.240776062,-0.217886835,0.334002197,0.966115952
13.112289,6.358177185,2.226097107,-0.523063660,-0.236807734,0.321062744,0.960500717
13.120572,15.566856384,3.401023865,-2.239677429,-0.221915156,0.293352783,0.974050522
13.121197,16.833335876,3.195030212,-2.827140808,-0.144400507,0.284075439,0.973928452
13.121822,16.795188904,4.675132751,-2.705070496,-0.126700312,0.316790283,0.937795639
13.122447,17.138511658,4.972679138,-2.575370789,-0.212881953,0.261614501,0.976980209
13.123073,18.565208435,4.308921814,-3.246757507,-0.186270624,0.303240478,0.968679428
13.123700,18.923789978,4.797203064,-3.216239929,-0.135245234,0.320574462,0.953054428
13.124326,18.649131775,5.552513123,-3.178092957,-0.156729609,0.324846923,0.959768295
13.124952,18.466026306,5.682212830,-3.574821472,-0.171255976,0.331560791,0.957571030
13.125579,18.305809021,5.972129822,-3.818962097,-0.156363398,0.349260986,0.942800522
13.126206,17.397911072,6.201011658,-3.658744812,-0.189200312,0.349260986,0.940237045
13.126833,16.604454041,5.720359802,-3.826591492,-0.206534296,0.325823486,0.945608139
13.127459,16.741783142,5.430442810,-3.941032410,-0.181387812,0.292010009,0.948537827
13.128084,17.214805603,5.483848572,-4.253837585,-0.147208124,0.295061767,0.929250717
13.128711,17.527610779,6.124717712,-4.223320007,-0.158682734,0.301531494,0.905691147
13.129336,17.787010193,6.620628357,-4.566642761,-0.196646601,0.307146728,0.909353256
13.130969,17.283470154,6.407005310,-5.054924011,-0.168936640,0.316057861,0.891653061
13.131595,16.963035583,6.872398376,-4.986259460,-0.207754999,0.285418212,0.913869858
13.132222,17.817527771,5.323631287,-5.360099792,-0.239249140,0.262713134,0.940725327
13.132847,18.420249939,5.644065857,-5.604240417,-0.154898554,0.270769775,0.904836655
13.133474,18.527061462,6.986839294,-5.802604675,-0.136221796,0.300066650,0.873708725
13.134101,19.106895447,7.002098083,-5.878898621,-0.259756953,0.218523681,0.942922592
13.134726,20.617515564,5.796653748,-5.978080750,-0.233878046,0.244646728,0.928396225
13.135352,21.662742615,5.819541931,-6.336662292,-0.160757929,0.247088134,0.906179428
13.135979,22.166282654,7.261497498,-6.275627136,-0.161002070,0.265398681,0.906179428
13.136606,22.860557556,7.528526306,-6.351921082,-0.216910273,0.250384033,0.926321030
13.137232,23.509056091,7.665855408,-6.702873230,-0.193228632,0.298723876,0.911794662
13.137858,22.906333923,7.917625427,-6.947013855,-0.209219843,0.316057861,0.908742905
13.138483,21.685630798,7.642967224,-6.763908386,-0.235953242,0.315325439,0.923269272
13.139110,21.082908630,7.246238708,-7.221672058,-0.223135859,0.309221923,0.928396225
13.139736,20.396263123,7.475120544,-7.648918152,-0.198843867,0.309343994,0.901662827
13.141373,17.947227478,8.611900330,-7.435295105,-0.270865351,0.266863525,0.891897202
13.141999,18.458396912,7.177574158,-8.022758484,-0.282950312,0.266009033,0.903249741
13.142624,19.106895447,6.773216248,-8.488151550,-0.214468867,0.247088134,0.876882553
13.143251,19.686729431,7.765037537,-8.579704285,-0.183585078,0.260393798,0.855886459
13.143877,20.350486755,8.054954529,-8.640739441,-0.231558710,0.234270751,0.872488022
13.144503,15.986473083,10.717613220,-8.945915222,-0.035635866,0.724016845,0.668996811
13.158302,12.988121033,7.749778748,-13.149711609,-0.235342890,0.249285400,0.858205795
13.159008,13.995201111,7.597190857,-13.027641296,-0.239859492,0.242693603,0.860036850
13.159633,14.987022400,7.528526306,-13.058158875,-0.238882929,0.256365478,0.857839584
13.160260,15.650779724,7.498008728,-13.401481628,-0.235342890,0.275286376,0.861379623
13.160887,16.421348572,7.391197205,-13.477775574,-0.239371210,0.273333251,0.867849350
13.161512,16.886741638,7.520896912,-13.737174988,-0.245596796,0.276262939,0.866994858
13.162138,17.481834412,7.177574158,-13.813468933,-0.238394648,0.289324462,0.868581772
13.162765,17.947227478,7.353050232,-14.118644714,-0.247916132,0.289080322,0.865285873
13.163390,18.275291443,7.284385681,-14.065238953,-0.246939570,0.289080322,0.866384506
13.164016,18.664390564,7.124168396,-14.263603210,-0.241080195,0.291155517,0.864675522
13.164642,19.091636658,7.131797791,-14.561149597,-0.249625117,0.293352783,0.860525131
13.165267,19.495994568,7.009727478,-14.530632019,-0.252554804,0.291765869,0.858205795
13.165894,20.266563416,6.857139587,-14.774772644,-0.253287226,0.294695556,0.853933334
13.166520,20.724327087,6.651145935,-15.140983582,-0.253165156,0.294817626,0.851980209
13.168263,21.632225037,6.666404724,-15.301200867,-0.244498163,0.299578369,0.852712631
13.168888,22.120506287,6.376487732,-15.194389343,-0.250601679,0.303972900,0.857961655
13.169575,22.799522400,6.109458923,-15.736076355,-0.251456171,0.321184814,0.857961655
13.170268,23.066551208,5.781394958,-16.010734558,-0.252066523,0.323626220,0.859670639
13.170924,23.432762146,5.727989197,-15.926811218,-0.244376093,0.325701416,0.858449936
13.171640,23.303062439,5.796653748,-16.140434265,-0.241690546,0.319597900,0.859914780
13.172327,24.264366150,5.529624939,-16.285392761,-0.243765742,0.326677978,0.856618881
13.173003,24.477989197,5.377037048,-16.293022156,-0.250357538,0.330706298,0.848562241
13.173629,24.722129822,5.186302185,-16.308280945,-0.245474726,0.334490478,0.854543686
13.174256,25.149375916,5.041343689,-16.605827332,-0.245108515,0.335100830,0.854055405
13.174882,25.446922302,4.896385193,-16.697380066,-0.246573359,0.338762939,0.850759506
13.175507,25.889427185,4.728538513,-16.682121277,-0.248770624,0.339983642,0.848806381
13.176133,26.446372986,4.461509705,-16.865226746,-0.245840937,0.337053955,0.846853256
13.176760,26.782066345,4.476768494,-17.086479187,-0.242178828,0.342547119,0.846364975
13.178401,28.002769470,4.148704529,-17.399284363,-0.240103632,0.342302978,0.855520248
13.179027,28.269798279,4.011375427,-17.208549500,-0.234976679,0.334368408,0.855276108
13.179653,28.857261658,4.194480896,-17.368766785,-0.230826288,0.346697509,0.861867905
13.180278,29.017478943,4.110557556,-17.796012878,-0.222769648,0.344011962,0.873586655
13.180904,28.201133728,4.179222107,-17.506095886,-0.210074335,0.376970947,0.873098373
13.181531,27.331382751,4.057151794,-17.162773132,-0.243643671,0.380999267,0.879690170
13.182156,27.384788513,4.087669373,-17.490837097,-0.249503046,0.363054931,0.891286850
13.182782,27.522117615,4.392845154,-17.498466492,-0.224478632,0.384051025,0.887258530
13.183408,27.438194275,4.171592712,-17.757865906,-0.237051874,0.355852783,0.903127670
13.184037,27.300865173,4.209739685,-17.696830750,-0.215811640,0.363054931,0.900564194
13.184663,27.026206970,4.667503357,-17.353507996,-0.248648554,0.371599853,0.899221420
13.185288,26.339561462,4.499656677,-17.292472839,-0.256583124,0.378191650,0.894338608
13.185915,25.996238708,3.828269958,-17.254325867,-0.239859492,0.371233642,0.884695053
13.186540,26.217491150,4.141075134,-17.620536804,-0.215079218,0.333269775,0.902151108
13.187166,26.614219666,4.804832458,-17.254325867,-0.211050898,0.362444580,0.915090561
13.188802,25.698692322,5.201560974,-17.010185242,-0.247916132,0.395281494,0.917287827
13.189428,25.210411072,5.010826111,-17.101737976,-0.248038203,0.372698486,0.910818100
13.190053,24.806053162,4.972679138,-17.139884949,-0.229239374,0.363543212,0.895925522
13.190679,24.493247986,4.736167908,-16.827079773,-0.229361445,0.359759033,0.881887436
13.191304,24.874717712,4.972679138,-16.697380066,-0.228384882,0.358172119,0.883474350
13.204948,18.435508728,6.796104431,-13.103935242,-0.238516718,0.355486572,0.904348373
13.205608,17.489463806,6.681663513,-12.882682800,-0.238882929,0.356707275,0.903127670
13.206235,16.589195251,6.635887146,-12.409660339,-0.236807734,0.353289306,0.893362045
13.206861,15.841514587,6.559593201,-12.310478210,-0.240469843,0.344011962,0.883962631
13.207487,15.513450623,6.376487732,-12.142631531,-0.231924921,0.332903564,0.878103256
13.208113,15.185386658,6.452781677,-11.570426941,-0.228140742,0.330218017,0.874197006
13.208738,15.063316345,6.834251404,-11.654350281,-0.233633906,0.329851806,0.874319077
13.209363,14.651329041,6.521446228,-11.311027527,-0.240713984,0.332537353,0.873830795
13.209988,14.513999939,6.429893494,-11.021110535,-0.241690546,0.335100830,0.874929428
13.210614,13.735801697,6.300193787,-10.838005066,-0.239127070,0.333880126,0.877004623
13.211240,13.361961365,6.338340759,-10.647270203,-0.238272578,0.328509033,0.869314194
13.211865,12.629539490,6.178123474,-10.281059265,-0.236807734,0.324236572,0.872732162
13.212491,12.202293396,6.025535583,-9.983512878,-0.238760859,0.323504150,0.869558334
13.213116,11.675865173,6.078941345,-9.823295593,-0.239371210,0.325579345,0.864675522
13.213742,11.103660583,5.781394958,-9.487602234,-0.239127070,0.324114501,0.863943100
13.215381,9.959251404,5.689842224,-8.694145203,-0.240958124,0.314104736,0.861867905
13.216007,9.341270447,5.613548279,-8.465263367,-0.239004999,0.311541259,0.858205795
13.216633,8.891136169,5.369407654,-7.877799988,-0.243887812,0.305071533,0.856252670
13.217259,8.746177673,5.262596130,-7.694694519,-0.242300898,0.306902587,0.855642319
13.217884,8.311302185,4.980308533,-7.557365417,-0.240103632,0.303484619,0.849294662
13.218509,7.906944275,4.774314880,-7.153007507,-0.241812617,0.299334228,0.846364975
13.219136,7.761985779,4.652244568,-6.977531433,-0.241324335,0.300066650,0.850637436
13.219762,7.304222107,4.598838806,-6.618949890,-0.242056757,0.296770751,0.852346420
13.220388,6.846458435,4.209739685,-6.351921082,-0.244498163,0.289324462,0.852346420
13.221014,6.594688416,4.026634216,-6.000968933,-0.245230585,0.284319580,0.853933334
13.221640,6.510765076,3.874046326,-5.726310730,-0.244131953,0.279314697,0.851369858
13.222265,6.251365662,3.591758728,-5.566093445,-0.247305781,0.278582275,0.845754623
13.222892,6.205589294,3.278953552,-5.100700378,-0.244376093,0.279925048,0.848928452
13.223517,6.106407166,3.126365662,-4.986259460,-0.244376093,0.275042236,0.848684311
13.224143,6.114036560,2.989036560,-4.536125183,-0.244986445,0.269671142,0.849782944
13.225758,5.991966248,2.073509216,-3.773185730,-0.244009882,0.263567626,0.854421616
13.226384,5.694419861,2.134544373,-3.384086609,-0.246329218,0.258928955,0.855520248
13.227011,5.740196228,1.760704041,-3.223869324,-0.244986445,0.255266845,0.854177475
13.227636,5.595237732,1.547080994,-2.979728699,-0.245963007,0.251848876,0.854055405
13.228262,6.175071716,1.333457947,-2.720329285,-0.248038203,0.251604736,0.856252670
13.228888,5.969078064,0.990135193,-2.354118347,-0.245474726,0.251726806,0.855642319
13.229514,6.068260193,0.784141541,-1.980278015,-0.244864374,0.248552978,0.859304428
13.230139,6.350547791,0.852806091,-1.705619812,-0.249625117,0.243670166,0.860403061
13.230765,6.480247498,0.738365173,-1.553031921,-0.249014765,0.244646728,0.859426498
13.231391,6.480247498,0.158531189,-1.224967957,-0.252798945,0.245257080,0.859182358
13.232018,6.678611755,-0.200050354,-1.118156433,-0.255484492,0.244036376,0.858938217
13.232644,6.793052673,-0.413673401,-0.706169128,-0.257681757,0.241106689,0.857473373
13.233271,7.235557556,-0.444190979,-0.408622742,-0.255972773,0.237078369,0.857473373
13.233898,7.334739685,-0.543373108,0.117805481,-0.255484492,0.235125244,0.857473373
13.234524,7.761985779,-0.871437073,0.232246399,-0.257925898,0.232683837,0.857595444
13.236091,8.273155212,-1.207130432,0.659492493,-0.260001093,0.234392822,0.861867905
13.236716,8.608848572,-1.489418030,1.002815247,-0.267569453,0.231829345,0.859304428
13.237342,8.990318298,-1.779335022,1.384284973,-0.269644648,0.232683837,0.861013412
13.251040,17.817527771,-5.441444397,6.862190247,-0.266959101,0.225359619,0.885305405
13.251712,18.008262634,-5.380409241,7.205513000,-0.268790156,0.227068603,0.893362045
13.252337,18.130332947,-5.471961975,7.495429993,-0.264517695,0.228533447,0.895315170
13.252962,18.351585388,-5.609291077,7.831123352,-0.261465937,0.227556884,0.895437241
13.253589,18.305809021,-5.784767151,8.067634583,-0.261465937,0.230852783,0.897390366
13.254214,18.343955994,-5.822914124,8.342292786,-0.262198359,0.231463134,0.899953842
13.254839,18.626243591,-6.120460510,8.555915833,-0.266104609,0.233050048,0.906789780
13.255466,18.557579041,-6.295936584,9.067085266,-0.268179804,0.240374267,0.910329819
13.256091,18.519432068,-6.150978088,9.364631653,-0.263174921,0.241228759,0.918020248
13.256716,18.488914490,-6.280677795,9.578254700,-0.263052851,0.243670166,0.917898178
13.257341,18.397361755,-6.364601135,9.799507141,-0.261099726,0.252703369,0.924123764
13.257966,18.229515076,-6.280677795,10.219123840,-0.261343867,0.256487548,0.931325912
13.258592,17.993003845,-6.379859924,10.486152649,-0.261710078,0.264544189,0.937673569
13.259217,17.611534119,-6.303565979,10.493782043,-0.260489374,0.270525634,0.942190170
13.259844,17.550498962,-6.433265686,10.852363586,-0.257803828,0.278338134,0.945730209
13.261492,15.727073669,-5.998390198,11.554267883,-0.262930781,0.301897705,0.965383530
13.262118,15.284568787,-6.379859924,11.722114563,-0.253043085,0.296892822,0.963186264
13.262744,15.048057556,-5.891578674,11.935737610,-0.254752070,0.300310791,0.966360092
13.263369,14.559776306,-5.876319885,12.233283997,-0.246329218,0.306170166,0.964284897
13.263995,14.590293884,-5.792396545,12.462165833,-0.241202265,0.312761962,0.973196030
13.264620,14.491111755,-5.189674377,12.523200989,-0.243155390,0.321551025,0.981252670
13.265247,14.224082947,-5.235450745,12.927558899,-0.247061640,0.319353759,0.985403061
13.265872,13.979942322,-4.930274963,12.950447083,-0.240103632,0.331682861,0.991262436
13.266497,13.743431091,-4.716651917,12.774971008,-0.233023554,0.333147705,1.002248764
13.267124,13.422996521,-4.220741272,13.110664368,-0.235953242,0.344256103,1.007009506
13.267751,13.232261658,-4.281776428,13.362434387,-0.237662226,0.351336181,1.011037827
13.268376,12.797386169,-3.755348206,13.400581360,-0.230948359,0.352923095,1.015310287
13.269001,12.599021912,-3.648536682,13.423469543,-0.222525507,0.354998291,1.019704819
13.269626,12.278587341,-3.160255432,13.568428040,-0.219595820,0.358050048,1.028615952
13.270251,12.225181580,-2.961891174,13.690498352,-0.218985468,0.366228759,1.032888412
13.271918,11.027366638,-2.046363831,13.774421692,-0.211661249,0.383318603,1.047658920
13.272543,10.737449646,-1.588600159,13.797309875,-0.203726679,0.390154541,1.049734116
13.273168,10.378868103,-0.879066467,13.835456848,-0.199576288,0.396502197,1.051076889
13.273793,10.211021423,-0.627296448,14.079597473,-0.206778437,0.393694580,1.053884506
13.274418,10.249168396,-0.360267639,13.858345032,-0.208365351,0.391619384,1.052663803
13.275043,10.302574158,-0.016944885,13.934638977,-0.201651484,0.399920166,1.051809311
13.275668,10.195762634,0.410301208,13.843086243,-0.191397578,0.406511962,1.052175522
13.276293,10.195762634,0.822288513,13.782051086,-0.192496210,0.406756103,1.054494858
13.276919,10.294944763,1.371604919,13.682868958,-0.203848749,0.397478759,1.060110092
13.277545,10.455162048,1.508934021,13.804939270,-0.206168085,0.400408447,1.059133530
13.278171,10.600120544,1.699668884,13.667610168,-0.199210078,0.407366455,1.058767319
13.278798,10.920555115,2.172691345,13.598945618,-0.194815546,0.406756103,1.060720444
13.279424,11.111289978,2.653343201,13.637092590,-0.197867304,0.411272705,1.067190170
13.280049,11.279136658,2.874595642,13.431098938,-0.189200312,0.417742431,1.075368881
13.280674,11.302024841,3.233177185,13.530281067,-0.186758906,0.423601806,1.074514389
13.282343,11.233360291,3.866416931,13.141181946,-0.189444453,0.430926025,1.083791733
13.282969,11.324913025,4.286033630,12.980964661,-0.180899531,0.434588134,1.083181381
13.283596,10.951072693,4.949790955,13.194587708,-0.187857538,0.430559814,1.089162827
13.297273,10.668785095,13.998252869,9.585884094,-0.193350703,0.410662353,1.076223373
13.297943,11.187583923,14.509422302,9.151008606,-0.181387812,0.424944580,1.079275131
13.298569,11.263877869,14.723045349,8.899238586,-0.201041132,0.455340087,1.064016342
13.299195,10.996849060,14.524681091,8.624580383,-0.220450312,0.442888916,1.059133530
13.299822,10.317832947,15.005332947,8.258369446,-0.187369257,0.442522705,1.056325912
13.300448,8.929283142,15.760643005,8.449104309,-0.153067499,0.461809814,1.049245834
13.301075,8.036643982,16.348106384,8.502510071,-0.166983515,0.442522705,1.061086655
13.301701,7.945091248,16.935569763,8.296516418,-0.228384882,0.416033447,1.074392319
13.302328,8.372337341,16.737205505,7.998970032,-0.264151484,0.413347900,1.062673569
13.302953,8.532554626,15.783531189,7.464912415,-0.245230585,0.396502197,1.030813217
13.303578,9.638816833,15.920860291,7.350471497,-0.198111445,0.385271728,1.017141342
13.304205,11.164695740,16.271812439,7.594612122,-0.178458124,0.387468994,1.011648178
13.304831,12.087852478,16.912681580,7.060554504,-0.189322382,0.381731689,1.008840561
13.305458,12.919456482,16.973716736,6.907966614,-0.217398554,0.387591064,1.007986069
13.306083,13.033897400,16.966087341,6.709602356,-0.239859492,0.407610595,1.008840561
13.307753,14.254600525,16.714317322,6.061103821,-0.215323359,0.427385986,1.043020248
13.308378,14.208824158,16.897422791,6.061103821,-0.209708124,0.448260009,1.047780991
13.309004,14.460594177,16.790611267,6.404426575,-0.228751093,0.473162353,1.037038803
13.309631,14.315635681,16.782981873,5.954292297,-0.235098749,0.433611572,1.033498764
13.310258,13.430625916,16.683799744,4.664924622,-0.236807734,0.382830322,1.033254623
13.310883,12.278587341,16.775352478,4.344490051,-0.219839960,0.360491455,1.026906967
13.311510,11.714012146,17.095787048,4.336860657,-0.204459101,0.366839111,1.024099350
13.312135,11.858970642,17.835838318,3.947761536,-0.202383906,0.400164306,1.015676498
13.312760,12.225181580,18.034202576,3.573921204,-0.215933710,0.427141845,0.996511459
13.313385,12.614280701,18.392784119,3.345039368,-0.236075312,0.425188720,0.985525131
13.314010,13.262779236,18.598777771,3.169563293,-0.244009882,0.411150634,0.977590561
13.314636,13.537437439,18.110496521,2.795722961,-0.244376093,0.395891845,0.972219467
13.315262,13.705284119,18.095237732,2.513435364,-0.227408320,0.382708251,0.967947006
13.315889,14.262229919,18.392784119,2.337959290,-0.221793085,0.382708251,0.970754623
13.316516,14.582664490,18.804771423,2.231147766,-0.214713007,0.396135986,0.974538803
13.318150,14.796287537,20.117027283,1.536872864,-0.238516718,0.413958251,0.986989975
13.318776,15.109092712,19.987327576,1.063850403,-0.249503046,0.411883056,0.983327866
13.319401,15.414268494,20.017845154,0.712898254,-0.240958124,0.401140869,0.977224350
13.320026,15.475303650,20.338279724,0.674751282,-0.227774531,0.395037353,0.973684311
13.320652,15.383750916,20.559532166,0.392463684,-0.219107538,0.393206298,0.975271225
13.321279,15.200645447,20.956260681,0.453498840,-0.219107538,0.406756103,0.971364975
13.321906,14.750511169,21.284324646,0.041511536,-0.231558710,0.416277587,0.968557358
13.322531,15.292198181,21.185142517,-0.210258484,-0.245230585,0.417376220,0.957937241
13.323157,15.383750916,21.063072205,-0.561210632,-0.246451288,0.407976806,0.946218491
13.323782,15.788108826,21.269065857,-0.942680359,-0.236685663,0.391863525,0.938161850
13.324408,16.291648865,21.352989197,-1.049491882,-0.226797968,0.386370361,0.935232162
13.325036,16.856224060,21.833641052,-1.202079773,-0.214590937,0.389544189,0.926198959
13.325662,16.978294373,22.176963806,-1.430961609,-0.218375117,0.395891845,0.922903061
13.326288,16.909629822,22.596580505,-1.827690125,-0.235342890,0.402971923,0.918996811
13.326913,17.062217712,22.505027771,-2.056571960,-0.243277460,0.406511962,0.913503647
13.328552,18.366844177,22.421104431,-2.689811707,-0.228629023,0.396746337,0.910818100
13.329178,18.847496033,22.199851990,-2.872917175,-0.228384882,0.396746337,0.908254623
13.329805,19.076377869,22.054893494,-2.674552917,-0.234244257,0.399187744,0.908132553
13.343534,28.048545837,18.980247498,-8.205863953,-0.211417109,0.390398681,0.901052475
13.344223,28.361351013,18.812400818,-8.190605164,-0.223502070,0.412249267,0.911306381
13.344848,28.185874939,18.736106873,-8.335563660,-0.224722773,0.425554931,0.916311264
13.345475,27.705223083,18.476707458,-8.236381531,-0.240469843,0.416033447,0.927907944
13.346101,27.750999451,17.942649841,-8.274528503,-0.231192499,0.401751220,0.938161850
13.346727,28.361351013,17.400962830,-8.633110046,-0.213370234,0.382708251,0.951589584
13.347354,28.880149841,17.248374939,-8.823844910,-0.221915156,0.392351806,0.951101303
13.347979,29.116661072,16.966087341,-9.136650085,-0.212027460,0.418108642,0.945363998
13.348604,28.590232849,17.278892517,-9.464714050,-0.204703242,0.439837158,0.941823959
13.349230,27.483970642,17.782432556,-9.167167664,-0.210440546,0.444964111,0.933767319
13.349856,27.094871521,17.858726501,-9.243461609,-0.218619257,0.425432861,0.931570053
13.350481,26.736289978,17.942649841,-9.197685242,-0.213492304,0.414690673,0.922414780
13.351108,26.766807556,18.324119568,-9.487602234,-0.199454218,0.413714111,0.919118881
13.351734,26.255638123,19.163352966,-9.579154968,-0.184683710,0.430926025,0.921682358
13.353503,24.874717712,20.658714294,-9.930107117,-0.190054804,0.462908447,0.922536850
13.354128,23.654014587,21.635276794,-10.014030457,-0.144278437,0.504534423,0.912160873
13.354754,20.312339783,24.870140076,-11.517021179,0.117440306,0.641009033,0.891530991
13.355379,13.735801697,32.804710388,-14.553520203,0.240365118,0.693865478,0.902395248
13.356004,11.271507263,36.741477966,-8.434745789,-0.534903467,0.396624267,0.946218491
13.356629,17.199546814,28.494102478,-5.726310730,-0.765616357,0.206438720,0.962453842
13.357254,23.402244568,16.554100037,-11.463615417,-0.536978662,0.195818603,0.968679428
13.357880,26.736289978,12.022239685,-13.775321960,-0.105093874,0.293230712,0.963796616
13.358505,25.622398376,14.082176208,-11.539909363,0.136361212,0.467180908,0.934011459
13.359131,22.593528748,20.094139099,-10.838005066,0.074593626,0.508562744,0.928884506
13.359756,21.990806580,23.214561462,-9.510490417,-0.408072382,0.547259033,0.913137436
13.360382,24.218589783,13.883811951,-12.157890320,-0.297964960,0.319842041,0.941823959
13.361007,26.019126892,12.922508240,-12.890312195,-0.133292109,0.335100830,0.924123764
13.361634,24.912864685,14.715415955,-11.837455750,0.008187378,0.444597900,0.888113022
13.362260,22.059471130,18.614036560,-11.219474792,-0.107413210,0.500139892,0.868703842
13.370564,8.677513123,30.676109314,-12.173149109,-0.032828249,0.622332275,0.809621811
13.371189,6.091148376,33.201438904,-11.433097839,-0.004630005,0.690691650,0.772756577
13.371815,-5.841224670,42.188865662,-11.356803894,0.140999883,0.832171142,0.418508530
13.372442,-17.811744690,53.220970154,-11.883232117,0.151864141,0.756975830,0.471120834
13.373068,-21.138160706,61.094505310,-12.707206726,0.098519407,0.612932861,0.539113998
13.373695,-17.178504944,61.758262634,-11.242362976,-0.159659296,0.378191650,0.597951889
13.374322,-10.327308655,58.180076599,-11.105033875,-0.391959101,0.282976806,0.659231186
13.374947,-5.146949768,50.840599060,-11.524650574,-0.617178857,0.173479736,0.732351303
13.375572,-0.508277893,41.982872009,-13.348075867,-0.588004053,0.055437744,0.784475327
13.376197,4.138023376,33.392173767,-14.095756531,-0.443350703,0.137224853,0.831960678
13.376822,6.556541443,25.739891052,-11.112663269,-0.350577265,0.323992431,0.834890366
13.377448,7.311851501,21.482688904,-12.348625183,-0.262808710,0.358416259,0.832937241
13.378075,8.235008240,18.980247498,-14.362785339,-0.123892702,0.395159423,0.833181381
13.378700,8.166343689,20.147544861,-14.782402039,-0.175772578,0.417742431,0.801931381
13.379326,5.755455017,20.055992126,-12.470695496,-0.246085078,0.487932861,0.737478256
13.380972,5.900413513,16.432029724,-12.829277039,-0.326041132,0.185564697,0.696218491
13.381597,10.851890564,12.800437927,-12.211296082,-0.297964960,0.131365478,0.702077866
13.382224,15.803367615,9.924156189,-12.241813660,-0.329337031,0.099383056,0.700368881
13.382849,18.496543884,7.574302673,-11.402580261,-0.312979609,0.197161376,0.693899155
13.396556,12.919456482,6.193382263,-5.291435242,-0.224844843,0.390032470,0.883230209
13.397224,10.745079041,7.314903259,-4.818412781,-0.236319453,0.400896728,0.888845444
13.397850,8.257896423,8.657676697,-4.681083679,-0.237784296,0.417376220,0.890676498
13.398477,5.808860779,9.603721619,-4.551383972,-0.250235468,0.414812744,0.892385483
13.399103,3.352195740,10.229331970,-4.070732117,-0.270377070,0.403460205,0.891653061
13.399728,1.360923767,10.259849548,-3.986808777,-0.297720820,0.379534423,0.892263412
13.400355,-0.126808167,9.359580994,-3.506156921,-0.312369257,0.358660400,0.885427475
13.400980,-1.484840393,8.833152771,-3.529045105,-0.301016718,0.340716064,0.865163803
13.401607,-2.507179260,8.070213318,-3.300163269,-0.303702265,0.322893798,0.846242905
13.402234,-2.987831116,7.261497498,-2.964469910,-0.296378046,0.322771728,0.826711655
13.402861,-3.682106018,6.750328064,-2.689811707,-0.283804804,0.329729736,0.793996811
13.403488,-4.124610901,6.506187439,-2.293083191,-0.289420038,0.324114501,0.763113022
13.404114,-3.964393616,5.682212830,-2.140495300,-0.309439570,0.313982666,0.745168686
13.404739,-3.567665100,4.995567322,-1.591178894,-0.300894648,0.307024658,0.717702866
13.405365,-3.277748108,4.476768494,-1.423332214,-0.293082148,0.290789306,0.698293686
13.406983,-1.858680725,3.568870544,-0.805351257,-0.291006953,0.279436767,0.670827866
13.407609,-0.637977600,2.706748962,-0.408622742,-0.303946406,0.272844970,0.666067123
13.408235,0.704795837,2.065879822,-0.019523621,-0.307608515,0.267595947,0.662527084
13.408862,1.833946228,0.768882751,0.072029114,-0.307974726,0.278826416,0.655813217
13.409489,2.947837830,0.074607849,0.407722473,-0.297232538,0.284197509,0.651906967
13.410114,3.268272400,-0.551002502,0.850227356,-0.287466913,0.288958251,0.649465561
13.410740,3.932029724,-1.329200745,1.063850403,-0.281241328,0.295061767,0.655569077
13.411366,4.412681580,-2.023475647,1.536872864,-0.293204218,0.296038330,0.662771225
13.411992,4.900962830,-3.091590881,1.925971985,-0.305167109,0.298357666,0.670705795
13.412618,5.602867126,-4.236000061,2.070930481,-0.299429804,0.300432861,0.679494858
13.413244,5.641014099,-5.296485901,2.467658997,-0.300772578,0.298357666,0.690114975
13.413870,5.908042908,-6.562965393,2.719429016,-0.279044062,0.309099853,0.698049545
13.414495,5.801231384,-7.249610901,3.108528137,-0.271109492,0.319964111,0.697927475
13.415122,5.145103455,-7.715003967,3.322151184,-0.268668085,0.327288330,0.698293686
13.415749,4.847557068,-8.134620667,3.795173645,-0.266348749,0.334612548,0.707937241
13.417372,3.161460876,-9.431617737,4.825141907,-0.265250117,0.326555908,0.724050522
13.417997,2.757102966,-10.103004456,5.038764954,-0.266714960,0.323504150,0.735280991
13.418622,2.436668396,-10.637062073,5.382087708,-0.257071406,0.324846923,0.743459702
13.419247,2.039939880,-10.858314514,5.580451965,-0.259268671,0.324480712,0.750783920
13.419873,1.376182556,-11.453407288,5.900886536,-0.258292109,0.319597900,0.760671616
13.420499,1.269371033,-11.567848206,6.473091125,-0.253653437,0.321428955,0.773244858
13.421124,0.384361267,-12.185829163,6.877449036,-0.259146601,0.324358642,0.787405014
13.421751,0.254661560,-12.758033752,7.159736633,-0.257071406,0.325213134,0.798147202
13.422376,-0.355690002,-12.895362854,7.358100891,-0.250723749,0.321062744,0.810476303
13.423003,-1.332252502,-12.902992249,7.510688782,-0.245840937,0.328875244,0.816946030
13.423628,-1.950233459,-13.070838928,7.983711243,-0.237906367,0.329729736,0.826101303
13.424253,-2.995460510,-12.941139221,8.426216125,-0.235709101,0.328142822,0.833303452
13.424878,-4.200904846,-12.620704651,8.716133118,-0.239004999,0.323748291,0.836843491
13.425505,-4.727333069,-12.353675842,8.952644348,-0.243155390,0.320086181,0.843801498
13.426130,-5.352943420,-12.407081604,9.425666809,-0.247305781,0.312029541,0.851125717
13.427761,-6.474464417,-12.719886780,10.287788391,-0.256216913,0.287493408,0.880178452
13.428388,-6.367652893,-12.803810120,10.455635071,-0.255240351,0.282732666,0.888479233
13.429013,-6.398170471,-13.238685608,10.737922668,-0.250967890,0.284563720,0.892141342
13.442740,-4.551856995,-14.383094788,16.864326477,-0.217520624,0.295672119,0.856496811
13.443427,-4.658668518,-14.482276917,17.039802551,-0.215079218,0.297259033,0.850515366
13.444054,-5.024879456,-14.444129944,17.169502258,-0.212393671,0.297381103,0.846975327
13.444680,-5.269020081,-14.421241760,17.581489563,-0.214468867,0.296892822,0.845022202
13.445305,-5.124061584,-14.512794495,17.718818665,-0.217154413,0.300432861,0.842092514
13.445931,-5.146949768,-14.764564514,17.871406555,-0.218863398,0.300066650,0.841360092
13.446558,-5.040138245,-15.123146057,18.252876282,-0.220572382,0.301165283,0.839773178
13.447184,-5.391090393,-15.123146057,18.374946594,-0.217886835,0.304827392,0.835988998
13.447809,-5.482643127,-15.657203674,18.779304504,-0.218497187,0.310686767,0.833669662
13.448434,-5.192726135,-15.916603088,18.649604797,-0.217154413,0.312517822,0.837820053
13.449061,-5.482643127,-16.259925842,19.023445129,-0.217032343,0.315569580,0.829153061
13.449688,-5.490272522,-16.481178284,19.259956360,-0.215079218,0.321184814,0.827444077
13.450314,-5.330055237,-16.610877991,19.259956360,-0.212149531,0.324968994,0.828542709
13.450940,-5.383460999,-16.900794983,19.488838196,-0.213126093,0.326922119,0.827322006
13.452699,-5.513160706,-17.175453186,19.877937317,-0.216421992,0.340349853,0.827932358
13.453326,-5.383460999,-17.389076233,20.061042786,-0.215689570,0.342669189,0.831228256
13.453953,-5.642860413,-17.740028381,19.984748840,-0.218985468,0.351946533,0.834524155
13.454578,-5.558937073,-17.801063538,20.396736145,-0.219107538,0.352434814,0.838308334
13.455204,-5.452125549,-17.991798401,20.640876770,-0.221304804,0.353045166,0.843679428
13.455829,-5.619972229,-18.350379944,20.610359192,-0.216910273,0.356707275,0.846364975
13.456455,-5.368202209,-18.495338440,20.617988586,-0.218497187,0.357805908,0.849050522
13.457080,-5.307167053,-18.594520569,20.831611633,-0.218863398,0.360979736,0.852590561
13.457707,-5.375831604,-18.823402405,20.946052551,-0.220694453,0.365496337,0.857107162
13.458334,-5.276649475,-18.838661194,20.885017395,-0.220694453,0.369036376,0.863576889
13.458961,-5.253761292,-18.831031799,20.991828918,-0.221060663,0.372576416,0.868215561
13.459588,-5.131690979,-18.663185120,21.014717102,-0.219595820,0.376482666,0.871511459
13.460214,-5.093544006,-18.838661194,21.029975891,-0.221548945,0.384295166,0.878469467
13.460839,-5.413978577,-18.899696350,21.419075012,-0.220572382,0.383806884,0.882253647
13.461466,-5.314796448,-18.792884827,21.441963196,-0.223746210,0.388933837,0.889333725
13.463105,-5.703895569,-18.678443909,21.297004700,-0.226187617,0.398699462,0.900320053
13.463732,-5.719154358,-18.480079651,21.564033508,-0.228629023,0.398089111,0.906301498
13.464359,-5.879371643,-18.487709045,21.403816223,-0.230948359,0.402239501,0.910085678
13.464984,-5.909889221,-18.457191467,21.403816223,-0.230826288,0.401995361,0.913503647
13.465609,-6.115882874,-18.327491760,21.457221985,-0.230948359,0.408098876,0.920583725
13.466235,-6.184547424,-18.174903870,21.380928040,-0.235709101,0.409807861,0.923147202
13.466860,-6.237953186,-17.900245667,21.579292297,-0.233878046,0.412493408,0.927541733
13.467485,-6.680458069,-17.709510803,21.670845032,-0.235342890,0.413958251,0.932180405
13.468110,-6.581275940,-17.770545959,21.335151672,-0.239249140,0.417010009,0.933645248
13.468736,-6.817787170,-17.587440491,21.304634094,-0.241934687,0.418352783,0.938528061
13.469361,-7.283180237,-17.350929260,21.365669250,-0.239981562,0.420427978,0.938772202
13.469988,-7.351844788,-16.923683167,21.289375305,-0.244376093,0.420061767,0.942190170
13.470613,-7.382362366,-16.893165588,21.228340149,-0.247061640,0.422136962,0.944021225
13.471239,-7.771461487,-16.687171936,21.220710754,-0.250113398,0.422014892,0.942800522
13.471866,-7.893531799,-16.320960999,21.098640442,-0.248770624,0.421648681,0.947072983
13.473513,-8.282630920,-15.649574280,20.930793762,-0.254752070,0.423357666,0.949880600
13.474140,-8.702247620,-15.420692444,20.999458313,-0.253897578,0.422747314,0.946340561
13.474766,-8.694618225,-15.222328186,20.808723450,-0.255484492,0.424822509,0.946584702
13.488427,-9.945838928,-11.895912170,18.977668762,-0.221671015,0.415056884,0.920461655
13.489083,-9.968727112,-11.888282776,18.886116028,-0.218985468,0.414934814,0.918630600
13.489709,-10.014503479,-11.567848206,18.779304504,-0.219351679,0.413714111,0.918264389
13.490334,-9.953468323,-11.628883362,18.428352356,-0.213858515,0.412249267,0.918020248
13.490961,-9.930580139,-11.506813049,18.489387512,-0.215811640,0.410174072,0.920339584
13.491586,-9.999244690,-11.224525452,18.428352356,-0.213858515,0.412493408,0.919118881
13.492211,-10.121315002,-10.904090881,18.298652649,-0.209952265,0.410418212,0.915456772
13.492838,-9.953468323,-10.667579651,18.161323547,-0.209463984,0.410662353,0.922170639
13.493463,-10.113685608,-10.782020569,18.062141418,-0.204337031,0.405413330,0.922658920
13.494089,-9.968727112,-10.743873596,18.001106262,-0.205313593,0.406023681,0.921072006
13.494716,-9.846656799,-10.598915100,17.734077454,-0.206412226,0.406023681,0.921560287
13.495343,-9.968727112,-10.499732971,17.802742004,-0.201895624,0.401385009,0.926076889
13.495970,-9.793251038,-10.186927795,17.451789856,-0.201529413,0.401018798,0.924245834
13.496596,-9.480445862,-10.194557190,17.383125305,-0.199332148,0.400042236,0.923147202
13.497221,-9.701698303,-9.828346252,17.390754700,-0.198233515,0.400408447,0.928518295
13.498849,-9.564369202,-9.446876526,16.948249817,-0.197623163,0.392351806,0.932546616
13.499475,-9.449928284,-9.187477112,16.757514954,-0.198721796,0.393328369,0.933645248
13.500100,-9.312599182,-9.027259827,16.635444641,-0.195670038,0.388201416,0.938405991
13.500725,-9.076087952,-8.798377991,16.490486145,-0.193106562,0.391009033,0.941091537
13.501352,-8.992164612,-8.676307678,16.398933411,-0.193838984,0.387102783,0.945119858
13.501978,-8.854835510,-8.416908264,16.154792786,-0.195059687,0.384661376,0.949758530
13.502603,-8.717506409,-8.157508850,15.903022766,-0.197012812,0.384905517,0.948049545
13.503229,-8.625953674,-7.844703674,15.948799133,-0.194327265,0.382830322,0.952322006
13.503855,-8.320777893,-7.722633362,15.658882141,-0.194327265,0.380510986,0.954519272
13.504481,-8.175819397,-7.890480042,15.712287903,-0.195425898,0.380877197,0.958913803
13.505108,-8.381813049,-7.325904846,15.414741516,-0.194449335,0.380022705,0.963674545
13.505734,-7.977455139,-7.058876038,15.445259094,-0.193228632,0.379168212,0.965505600
13.506359,-7.573097229,-7.325904846,15.025642395,-0.192129999,0.375628173,0.971120834
13.506985,-7.611244202,-6.791847229,14.972236633,-0.192374140,0.376970947,0.969289780
13.507610,-7.389991760,-6.616371155,14.850166321,-0.192129999,0.374285400,0.968679428
13.509240,-6.947486877,-6.150978088,14.575508118,-0.192007929,0.374285400,0.974782944
13.509865,-6.764381409,-5.899208069,14.415290833,-0.191031367,0.372332275,0.977102280
13.510490,-6.443946838,-5.555885315,14.232185364,-0.190665156,0.372576416,0.980642319
13.511115,-6.215065002,-5.235450745,14.049079895,-0.192007929,0.368181884,0.979543686
13.511740,-5.993812561,-5.067604065,14.041450500,-0.189810663,0.371233642,0.978078842
13.512366,-5.925148010,-4.892127991,13.705757141,-0.190543085,0.366961181,0.977834702
13.512991,-5.383460999,-4.686134338,13.728645325,-0.189566523,0.366228759,0.977224350
13.513616,-5.093544006,-4.464881897,13.492134094,-0.192129999,0.367449462,0.975271225
13.514243,-4.567115784,-4.228370667,13.247993469,-0.191397578,0.364763916,0.979055405
13.514869,-4.384010315,-3.991859436,13.171699524,-0.188345820,0.367327392,0.976369858
13.515494,-4.078834534,-3.701942444,13.049629211,-0.189078242,0.367205322,0.976613998
13.516121,-3.727882385,-3.640907288,12.828376770,-0.188712031,0.365984619,0.982351303
13.516748,-3.231971741,-3.198402405,12.820747375,-0.188223749,0.365374267,0.980276108
13.517373,-2.896278381,-3.175514221,12.500312805,-0.186758906,0.367327392,0.982107162
13.517998,-2.537696838,-3.099220276,12.202766418,-0.185782343,0.365984619,0.981252670
13.519637,-1.316993713,-2.336280823,11.668708801,-0.182364374,0.370379150,0.981130600
13.520263,-0.981300354,-2.107398987,11.699226379,-0.184439570,0.371233642,0.978322983
13.533942,5.259544373,2.142173767,6.297615051,-0.192496210,0.430681884,0.958059311
13.534609,5.602867126,2.233726501,6.106880188,-0.188101679,0.433489501,0.957204819
13.535235,5.892784119,2.699119568,5.473640442,-0.187003046,0.439593017,0.958669662
13.535861,6.129295349,2.859336853,5.397346497,-0.190054804,0.440325439,0.957571030
13.536487,6.213218689,3.057701111,5.160835266,-0.192984492,0.441057861,0.956716537
13.537113,6.495506287,3.309471130,4.695442200,-0.190543085,0.442278564,0.958059311
13.537739,6.617576599,3.675682068,4.367378235,-0.193594843,0.442766845,0.956594467
13.538366,6.762535095,3.767234802,4.176643372,-0.195303828,0.446795166,0.956716537
13.538992,6.983787537,3.935081482,3.924873352,-0.196158320,0.448382080,0.953176498
13.539618,7.334739685,3.805381775,3.551033020,-0.194449335,0.445086181,0.953786850
13.540244,7.388145447,4.163963318,3.131416321,-0.193594843,0.449236572,0.949636459
13.540871,7.800132751,4.362327576,2.986457825,-0.197012812,0.449114501,0.952444077
13.541498,7.784873962,4.575950623,2.521064758,-0.193472773,0.449968994,0.947072983
13.542124,8.097679138,4.591209412,2.353218079,-0.192862421,0.452166259,0.947927475
13.543910,8.952171326,5.285484314,1.361396790,-0.187491328,0.454973876,0.946584702
13.544537,8.723289490,5.468589783,1.079109192,-0.189322382,0.453264892,0.946218491
13.545162,9.142906189,5.468589783,0.758674622,-0.189078242,0.455828369,0.946828842
13.545788,9.394676208,5.895835876,0.461128235,-0.183829218,0.457781494,0.947561264
13.546414,9.516746521,5.933982849,0.186470032,-0.186270624,0.460955322,0.949392319
13.547041,9.753257751,6.017906189,-0.164482117,-0.183951288,0.460467041,0.946828842
13.547666,9.921104431,6.361228943,-0.423881531,-0.183340937,0.461199462,0.949026108
13.548293,9.974510193,6.544334412,-0.835868835,-0.183340937,0.462298095,0.945363998
13.548918,10.119468689,6.635887146,-1.026603699,-0.180045038,0.464983642,0.950246811
13.549543,10.165245056,6.849510193,-1.148674011,-0.181876093,0.464129150,0.951955795
13.550169,10.218650818,7.162315369,-1.659843445,-0.184195429,0.466204345,0.951101303
13.550794,10.134727478,7.292015076,-1.873466492,-0.184927851,0.468157470,0.952688217
13.551419,10.241539001,7.704002380,-2.254936218,-0.183951288,0.470843017,0.952810287
13.552046,10.333091736,7.879478455,-2.575370789,-0.181754023,0.469988525,0.954641342
13.552673,9.974510193,8.115989685,-2.613517761,-0.180411249,0.470720947,0.955617905
13.554308,10.050804138,8.337242126,-3.345939636,-0.181387812,0.470965087,0.954030991
13.554935,9.867698669,8.779747009,-3.529045105,-0.179678828,0.471575439,0.957082748
13.555562,9.890586853,9.016258240,-3.864738464,-0.180655390,0.467669189,0.956472397
13.556188,9.844810486,9.191734314,-3.902885437,-0.182364374,0.471209228,0.957326889
13.556814,9.966880798,9.481651306,-4.261466980,-0.185171992,0.468279541,0.956594467
13.557439,9.783775330,9.863121033,-4.559013367,-0.183096796,0.470843017,0.959035873
13.558064,9.844810486,9.863121033,-4.841300964,-0.181509882,0.470110595,0.957693100
13.558690,9.783775330,10.168296814,-4.971000671,-0.183463007,0.467791259,0.959280014
13.559317,9.829551697,10.458213806,-5.299064636,-0.184561640,0.466204345,0.955251694
13.559943,9.814292908,10.542137146,-5.405876160,-0.186758906,0.464495361,0.955495834
13.560569,9.982139587,10.572654724,-5.566093445,-0.185538203,0.463762939,0.955129623
13.561195,9.860069275,10.854942322,-5.688163757,-0.184195429,0.461687744,0.957448959
13.561821,9.676963806,11.175376892,-5.909416199,-0.189444453,0.462053955,0.954030991
13.562447,9.928733826,11.442405701,-6.046745300,-0.186392695,0.463396728,0.951955795
13.563073,9.974510193,11.366111755,-6.359550476,-0.190909296,0.456682861,0.953176498
13.564706,10.142356873,11.839134216,-6.832572937,-0.190787226,0.455828369,0.952199936
13.565332,10.195762634,12.037498474,-7.008049011,-0.190298945,0.454851806,0.953176498
13.565959,10.348350525,12.335044861,-6.977531433,-0.193228632,0.453142822,0.955373764
13.566586,10.333091736,12.342674255,-7.267448425,-0.190909296,0.453386962,0.954397202
13.567211,10.317832947,12.480003357,-7.198783875,-0.193228632,0.452044189,0.956838608
13.580864,8.570701599,16.126853943,-8.999320984,-0.201651484,0.438494384,0.946096420
13.581517,8.303672791,16.081077576,-9.022209167,-0.207266718,0.439715087,0.942068100
13.582143,8.288414001,16.477806091,-9.029838562,-0.205679804,0.441057861,0.938650131
13.582768,8.120567322,16.500694275,-8.984062195,-0.203604609,0.435076416,0.938405991
13.583395,7.929832458,16.432029724,-9.197685242,-0.204947382,0.432879150,0.937795639
13.584020,8.120567322,16.706687927,-8.831474304,-0.205801874,0.433367431,0.933523178
13.584645,8.242637634,16.782981873,-8.884880066,-0.206534296,0.432024658,0.933034897
13.585270,7.983238220,16.927940369,-8.923027039,-0.210806757,0.430559814,0.934988022
13.585896,8.051902771,17.149192810,-9.243461609,-0.212271601,0.427385986,0.929494858
13.586521,8.128196716,17.034751892,-8.854362488,-0.212637812,0.428362548,0.927419662
13.587146,8.013755798,16.996604919,-8.938285828,-0.211905390,0.424822509,0.926198959
13.587772,7.861167908,17.172080994,-8.961174011,-0.212881953,0.422381103,0.927419662
13.588398,7.800132751,17.339927673,-8.991691589,-0.215567499,0.420550048,0.927419662
13.589024,7.739097595,17.332298279,-9.151908875,-0.213004023,0.424578369,0.923147202
13.589650,7.693321228,17.477256775,-8.907768250,-0.215567499,0.419451416,0.920949936
13.591300,7.723838806,17.599327087,-8.945915222,-0.219351679,0.418230712,0.919118881
13.591925,7.609397888,17.652732849,-9.060356140,-0.220450312,0.414812744,0.917654037
13.592550,7.357627869,17.599327087,-8.968803406,-0.223502070,0.415667236,0.918996811
13.593176,7.418663025,17.660362244,-8.907768250,-0.224722773,0.412127197,0.915334702
13.593802,7.357627869,17.736656189,-8.976432800,-0.224844843,0.413225830,0.913991928
13.594428,7.220298767,17.820579529,-8.846733093,-0.227774531,0.411028564,0.910818100
13.595054,7.227928162,17.584068298,-8.839103699,-0.229483515,0.407366455,0.908498764
13.595679,6.854087830,18.072349548,-8.701774597,-0.228140742,0.407488525,0.908620834
13.596306,6.922752380,17.973167419,-8.785697937,-0.230338007,0.406634033,0.902517319
13.596932,5.702049255,19.041282654,-8.938285828,-0.183463007,0.446428955,0.850759506
13.597559,3.420860291,20.887596130,-8.907768250,-0.150992304,0.451555908,0.836477280
13.598185,3.001243591,22.802574158,-8.427116394,-0.152213007,0.463030517,0.831228256
13.598810,2.459556580,24.015647888,-8.434745789,-0.202383906,0.451189697,0.830862045
13.599436,1.917869568,24.770957947,-8.091423035,-0.264151484,0.431536376,0.843679428
13.600061,2.055198669,23.885948181,-8.030387878,-0.286002070,0.400042236,0.867361069
13.601689,2.818138123,21.711570740,-8.472892761,-0.254752070,0.348284423,0.902761459
13.602315,3.222496033,20.956260681,-8.289787292,-0.239981562,0.370745361,0.889089584
13.602940,2.474815369,20.818931580,-8.167716980,-0.233145624,0.393450439,0.854421616
13.603566,1.582176208,21.215660095,-8.343193054,-0.224966913,0.417864501,0.833669662
13.604192,0.910789490,22.108299255,-8.182975769,-0.220450312,0.441302001,0.816823959
13.604819,0.323326111,22.352439880,-7.847282410,-0.229483515,0.437151611,0.805471420
13.605444,-0.088661194,22.520286560,-7.618400574,-0.244009882,0.419329345,0.817800522
13.606069,0.102073669,22.062522888,-7.481071472,-0.264517695,0.400408447,0.832082748
13.606695,-0.088661194,21.864158630,-7.496330261,-0.280753046,0.381487548,0.843069077
13.607320,-0.782936096,21.024925232,-7.496330261,-0.272818476,0.389300048,0.838918686
13.607946,-2.369850159,21.230918884,-7.542106628,-0.250845820,0.389055908,0.810964584
13.608571,-3.514259338,22.009117126,-7.412406921,-0.235342890,0.386370361,0.791189194
13.609197,-3.888099670,22.443992615,-7.160636902,-0.196768671,0.409197509,0.746633530
13.609822,-5.391090393,24.221641541,-7.191154480,-0.209586054,0.388079345,0.681692123
13.610447,-6.779640198,26.312095642,-7.023307800,-0.205191523,0.388811767,0.636648178
13.612084,3.214866638,22.115928650,-4.734489441,-0.419058710,0.247332275,0.770681381
13.612710,2.894432068,19.682151794,-5.863639832,-0.234488398,0.498919189,0.751882553
13.619864,5.740196228,7.681114197,-3.757926941,-0.349234492,0.331560791,0.746267319
13.633670,-7.580726624,13.303977966,2.734687805,-0.367178828,0.287859619,0.688650131
13.634636,-7.489173889,12.121421814,2.925422668,-0.372427851,0.251726806,0.711599350
13.635314,-6.962745667,10.046226501,3.116157532,-0.367056757,0.239397705,0.729299545
13.635998,-6.573646545,7.963401794,3.489997864,-0.366080195,0.234881103,0.743459702
13.636668,-5.177467346,5.422813416,3.718879700,-0.373160273,0.248308837,0.749319077
13.637295,-4.178016663,2.920372009,3.741767883,-0.381461054,0.260393798,0.748586655
13.637922,-3.865211487,0.868064880,4.001167297,-0.378043085,0.282976806,0.738698959
13.638547,-3.743141174,-0.764625549,4.062202454,-0.360587031,0.300921142,0.723928452
13.639173,-4.567115784,-3.114479065,4.603889465,-0.315787226,0.262468994,0.670461655
13.639798,-4.567115784,-3.114479065,4.603889465,-0.315787226,0.262468994,0.670461655
13.640423,-2.606361389,-4.884498596,5.244758606,-0.330557734,0.231463134,0.651662827
13.641049,-0.836341858,-6.593482971,5.610969543,-0.349356562,0.237688720,0.638357162
13.641674,0.216514587,-7.646339417,5.809333801,-0.345938593,0.251604736,0.625295639
13.642299,0.781089783,-8.584754944,6.091621399,-0.328726679,0.254778564,0.626150131
13.643890,1.765281677,-9.736793518,6.839302063,-0.291129023,0.257464111,0.634206772
13.644515,2.596885681,-10.385292053,7.182624817,-0.302847773,0.252825439,0.644094467
13.645141,3.985435486,-11.270301819,7.495429993,-0.324820429,0.241228759,0.654226303
13.645766,5.129844666,-12.346046448,7.594612122,-0.336539179,0.236345947,0.663015366
13.646392,6.121665955,-13.734596252,7.724311829,-0.333609492,0.235247314,0.676565170
13.647019,7.304222107,-15.008705139,8.082893372,-0.324088007,0.233660400,0.682912827
13.647646,8.166343689,-16.290443420,8.250740051,-0.311636835,0.240008056,0.689992905
13.648272,8.936912537,-17.328041077,8.777168274,-0.306143671,0.255633056,0.702077866
13.648897,9.570152283,-18.129127502,8.975532532,-0.304678828,0.274431884,0.711111069
13.649524,9.615928650,-18.907325745,9.250190735,-0.300650507,0.283709228,0.719289780
13.650150,9.577781677,-19.601600647,9.219673157,-0.289542109,0.297503173,0.731863022
13.650776,9.196311951,-19.738929749,9.509590149,-0.284537226,0.303606689,0.739309311
13.651401,8.891136169,-19.944923401,9.814765930,-0.278921992,0.311907470,0.748464584
13.652026,8.303672791,-20.295875549,10.249641418,-0.278433710,0.312395751,0.754323959
13.652653,7.983238220,-20.379798889,10.318305969,-0.283438593,0.313738525,0.763479233
13.654304,6.831199646,-21.219032288,10.844734192,-0.282706171,0.307268798,0.785573959
13.654931,6.892234802,-21.470802307,11.027839661,-0.277945429,0.306902587,0.789113998
13.655556,6.297142029,-21.623390198,11.294868469,-0.272330195,0.308123291,0.790578842
13.656183,6.320030212,-21.943824768,11.287239075,-0.272574335,0.313982666,0.798025131
13.656809,6.121665955,-22.027748108,11.531379700,-0.274039179,0.312517822,0.807790756
13.657434,6.304771423,-22.027748108,11.806037903,-0.272452265,0.317644775,0.810964584
13.658059,5.984336853,-22.012489319,11.882331848,-0.269766718,0.318133056,0.815237045
13.658684,5.946189880,-21.989601135,11.996772766,-0.267691523,0.319597900,0.818044662
13.659309,5.892784119,-21.775978088,12.347724915,-0.267447382,0.319842041,0.823415756
13.659936,5.793601990,-21.959083557,12.202766418,-0.269400507,0.325213134,0.826101303
13.660561,5.702049255,-21.890419006,12.507942200,-0.265005976,0.330584228,0.834890366
13.661188,5.404502869,-21.966712952,12.584236145,-0.266348749,0.333758056,0.838186264
13.661814,5.389244080,-21.898048401,12.652900696,-0.262930781,0.344744384,0.843801498
13.662440,5.076438904,-21.829383850,12.698677063,-0.263663203,0.351702392,0.845632553
13.663066,4.847557068,-21.821754456,12.759712219,-0.261954218,0.354998291,0.848684311
13.664696,3.970176697,-21.905677795,12.950447083,-0.262686640,0.359026611,0.853811264
13.665322,3.787071228,-21.775978088,13.133552551,-0.256583124,0.363543212,0.853445053
13.665975,3.237754822,-21.745460510,13.148811340,-0.260489374,0.367083251,0.852712631
13.666630,3.047019958,-21.997230530,13.530281067,-0.257193476,0.365008056,0.852346420
13.680556,-2.285926819,-18.419044495,13.148811340,-0.208487421,0.474505126,0.902517319
13.681212,-2.751319885,-18.495338440,13.125923157,-0.205557734,0.486712158,0.908498764
13.681838,-3.315895081,-18.480079651,12.767341614,-0.210440546,0.500872314,0.906423569
13.682543,-3.766029358,-18.159645081,12.668159485,-0.202750117,0.510271728,0.908864975
13.683203,-4.811256409,-17.625587463,12.675788879,-0.199698359,0.513323486,0.907888412
13.683869,-5.398719788,-17.389076233,12.462165833,-0.194571406,0.509051025,0.907644272
13.684547,-6.054847717,-16.931312561,12.393501282,-0.197501093,0.502825439,0.904714584
13.685238,-6.428688049,-16.534584045,12.134101868,-0.201529413,0.499285400,0.904104233
13.685864,-6.596534729,-16.443031311,12.065437317,-0.210074335,0.494402587,0.904714584
13.686491,-6.703346252,-15.878456116,12.027290344,-0.208487421,0.492205322,0.902517319
13.687117,-7.039039612,-15.878456116,11.859443665,-0.208243281,0.494158447,0.900442123
13.687743,-7.168739319,-15.458839417,11.699226379,-0.203482538,0.490374267,0.900930405
13.688369,-6.810157776,-15.443580627,11.615303040,-0.203116328,0.490740478,0.899465561
13.688994,-6.749122620,-14.970558167,11.378791809,-0.206778437,0.488787353,0.899587631
13.690632,-6.245582581,-14.070289612,10.951545715,-0.208853632,0.481096923,0.899343491
13.691259,-6.039588928,-13.925331116,10.814216614,-0.209830195,0.474871337,0.899343491
13.691886,-5.589454651,-13.665931702,10.676887512,-0.209219843,0.474260986,0.899587631
13.692512,-5.825965881,-13.261573792,10.562446594,-0.215689570,0.472185791,0.900808334
13.693137,-5.040138245,-13.299720764,10.707405090,-0.213126093,0.473040283,0.905569077
13.693762,-4.948585510,-13.192909241,10.501411438,-0.217032343,0.468401611,0.907888412
13.694387,-4.353492737,-13.292091370,10.165718079,-0.226065546,0.464129150,0.912527084
13.695013,-3.727882385,-13.185279846,10.074165344,-0.227164179,0.461931884,0.921560287
13.695639,-3.209083557,-13.482826233,10.066535950,-0.227042109,0.467425048,0.925710678
13.696266,-3.323524475,-13.742225647,9.921577454,-0.220206171,0.477190673,0.928152084
13.696893,-3.514259338,-13.482826233,9.860542297,-0.213248163,0.484759033,0.933645248
13.697519,-3.621070862,-13.582008362,9.517219543,-0.213492304,0.487932861,0.935720444
13.698145,-3.895729065,-13.253944397,9.616401672,-0.213248163,0.490618408,0.944509506
13.698772,-4.040687561,-13.131874084,9.486701965,-0.218741328,0.488543212,0.945241928
13.699399,-4.239051819,-13.376014709,9.303596497,-0.226553828,0.481951416,0.953542709
13.701024,-4.895179749,-13.780372620,9.089973450,-0.212637812,0.498797119,0.971242905
13.701649,-6.047218323,-13.231056213,9.295967102,-0.185171992,0.515764892,0.960988998
13.702274,-7.443397522,-12.201087952,8.868721008,-0.170523554,0.505388916,0.953420639
13.702901,-8.198707581,-10.812538147,8.693244934,-0.169546992,0.493181884,0.947195053
13.703526,-8.389442444,-10.011451721,8.548286438,-0.184561640,0.477190673,0.942800522
13.704153,-8.275001526,-9.683387756,8.670356750,-0.207022578,0.458147705,0.937795639
13.704778,-7.817237854,-9.706275940,8.693244934,-0.219473749,0.437517822,0.935598373
13.705403,-6.810157776,-9.782569885,8.388069153,-0.223990351,0.428362548,0.935354233
13.706036,-5.940406799,-10.072486877,8.548286438,-0.219717890,0.423601806,0.939626694
13.706662,-5.307167053,-10.179298401,8.288887024,-0.204337031,0.432024658,0.943655014
13.707287,-4.513710022,-10.186927795,8.441474915,-0.200308710,0.439593017,0.946462631
13.707913,-4.109352112,-10.057228088,8.418586731,-0.198721796,0.445330322,0.952199936
13.708540,-4.307716370,-9.599464417,8.204963684,-0.202628046,0.457781494,0.956594467
13.709165,-4.078834534,-9.301918030,8.311775208,-0.199088007,0.460833251,0.962942123
13.709822,-4.651039124,-8.966224670,8.136299133,-0.198477656,0.462664306,0.970022202
13.711441,-5.452125549,-8.439796448,8.044746399,-0.199942499,0.462053955,0.977956772
13.712066,-5.742042542,-8.439796448,8.159187317,-0.197989374,0.460222900,0.980276108
13.712691,-6.665199280,-7.829444885,8.174446106,-0.201163203,0.458269775,0.979055405
13.713317,-7.153480530,-7.737892151,8.060005188,-0.201041132,0.456560791,0.974782944
13.727000,-9.800880432,-7.318275452,7.693794250,-0.205313593,0.405047119,0.904714584
13.727663,-9.671180725,-7.661598206,7.625129700,-0.208731562,0.397112548,0.902517319
13.728288,-9.571998596,-7.592933655,7.533576965,-0.204337031,0.395525634,0.900075912
13.728913,-9.114234924,-7.676856995,7.724311829,-0.203116328,0.391741455,0.896291733
13.729540,-8.778541565,-7.501380920,7.869270325,-0.200552851,0.390886962,0.893850327
13.730166,-8.336036682,-7.432716370,7.655647278,-0.202994257,0.391985595,0.895315170
13.730791,-8.175819397,-7.356422424,7.716682434,-0.204703242,0.395891845,0.897512436
13.731417,-8.122413635,-7.241981506,7.709053040,-0.205313593,0.400042236,0.898733139
13.732044,-7.931678772,-7.463233948,7.464912415,-0.206778437,0.400530517,0.897878647
13.732670,-8.091896057,-7.241981506,7.762458801,-0.205069453,0.399798095,0.903371811
13.733296,-8.152931213,-7.303016663,7.579353333,-0.209341913,0.402117431,0.901662827
13.733923,-8.145301819,-7.158058167,7.648017883,-0.211295038,0.401629150,0.903127670
13.734549,-8.313148499,-7.066505432,7.632759094,-0.211783320,0.396990478,0.903738022
13.735174,-8.519142151,-7.325904846,7.564094543,-0.212149531,0.394671142,0.897756577
13.735799,-8.496253967,-7.219093323,7.648017883,-0.216788203,0.390520751,0.892629623
13.737425,-7.969825745,-7.646339417,7.556465149,-0.216910273,0.374041259,0.881521225
13.738050,-7.809608459,-7.463233948,7.617500305,-0.216788203,0.369280517,0.877859116
13.738676,-7.336585999,-7.478492737,7.533576965,-0.221060663,0.366717041,0.874563217
13.739303,-6.955116272,-7.470863342,7.632759094,-0.221793085,0.365252197,0.873586655
13.739930,-6.695716858,-7.547157288,7.609870911,-0.222403437,0.362932861,0.873342514
13.740556,-6.169288635,-7.562416077,7.663276672,-0.224844843,0.362078369,0.875905991
13.741181,-5.803077698,-7.745521545,7.716682434,-0.226187617,0.362810791,0.877737045
13.741808,-5.780189514,-7.409828186,7.709053040,-0.225821406,0.362566650,0.875295639
13.742435,-5.619972229,-7.463233948,7.571723938,-0.224966913,0.361590087,0.880544662
13.743061,-5.490272522,-7.425086975,7.701423645,-0.223990351,0.362932861,0.884817123
13.743688,-5.490272522,-7.577674866,7.716682434,-0.223746210,0.362200439,0.883352280
13.744315,-5.444496155,-7.272499084,7.594612122,-0.227652460,0.363421142,0.887624741
13.744940,-5.642860413,-7.325904846,7.564094543,-0.227286249,0.364519775,0.884328842
13.745565,-5.780189514,-7.516639709,7.503059387,-0.227042109,0.361834228,0.886281967
13.746190,-5.803077698,-7.348793030,7.442024231,-0.228506953,0.364153564,0.886892319
13.747809,-6.085365295,-7.196205139,7.785346985,-0.226431757,0.356218994,0.886526108
13.748435,-6.268470764,-7.119911194,7.869270325,-0.223502070,0.356829345,0.882253647
13.749062,-6.108253479,-7.280128479,7.617500305,-0.223624140,0.346331298,0.877004623
13.749687,-5.848854065,-6.883399963,7.586982727,-0.223013788,0.343035400,0.876760483
13.750312,-5.658119202,-7.058876038,7.709053040,-0.224234492,0.340593994,0.872365952
13.750937,-5.276649475,-7.158058167,7.670906067,-0.222403437,0.335467041,0.869802475
13.751562,-5.261390686,-7.074134827,7.655647278,-0.221304804,0.334002197,0.867483139
13.752187,-4.925697327,-6.990211487,7.792976379,-0.220206171,0.333880126,0.866384506
13.752812,-4.445045471,-6.982582092,7.503059387,-0.222403437,0.335589111,0.867971420
13.753437,-4.139869690,-7.112281799,7.640388489,-0.223624140,0.336687744,0.867483139
13.754062,-4.078834534,-7.066505432,7.663276672,-0.218497187,0.343767822,0.866140366
13.754687,-3.842323303,-6.860511780,7.571723938,-0.220328242,0.342425048,0.867971420
13.755314,-3.735511780,-7.020729065,7.701423645,-0.220694453,0.344988525,0.869192123
13.755941,-3.796546936,-7.158058167,7.510688782,-0.222891718,0.345354736,0.867361069
13.756568,-3.659217834,-6.929176331,7.426765442,-0.221426874,0.348894775,0.871755600
13.758187,-3.712623596,-7.066505432,7.403877258,-0.221915156,0.353289306,0.861379623
13.758813,-3.956764221,-6.921546936,7.312324524,-0.221915156,0.354021728,0.860647202
13.759439,-3.849952698,-7.287757874,7.419136047,-0.219595820,0.357073486,0.861013412
13.773391,-1.019447327,-9.507911682,5.252388000,-0.231924921,0.402117431,0.820119858
13.774022,-0.950782776,-9.790199280,5.282905579,-0.231802851,0.404925048,0.819509506
13.774648,-0.935523987,-9.874122620,5.160835266,-0.233023554,0.407610595,0.819997787
13.775275,-1.179664612,-10.087745667,4.909065247,-0.232291132,0.410662353,0.819631577
13.775900,-0.996559143,-10.064857483,4.893806458,-0.230948359,0.411272705,0.816946030
13.776525,-1.233070374,-10.644691467,4.687812805,-0.235098749,0.410906494,0.817922592
13.777150,-0.973670959,-10.720985413,4.474189758,-0.236441523,0.403216064,0.811208725
13.777777,-0.760047913,-10.667579651,4.405525208,-0.233755976,0.404680908,0.812185287
13.778402,-0.409095764,-11.033790588,4.359748840,-0.228262812,0.403460205,0.808156967
13.779027,-0.401466370,-11.186378479,4.146125793,-0.230704218,0.402849853,0.807546616
13.779654,0.292808533,-11.361854553,3.924873352,-0.232046992,0.405291259,0.809377670
13.780279,0.521690369,-11.644142151,3.757026672,-0.232413203,0.406634033,0.814138412
13.780905,0.720054626,-12.002723694,3.711250305,-0.234976679,0.412127197,0.815237045
13.781531,0.933677673,-11.964576721,3.779914856,-0.230338007,0.415178955,0.818777084
13.782158,1.078636169,-12.071388245,3.551033020,-0.231314570,0.422747314,0.826589584
13.783788,0.788719177,-12.223976135,3.451850891,-0.230826288,0.424944580,0.832082748
13.784414,0.903160095,-12.277381897,3.032234192,-0.227774531,0.419329345,0.831960678
13.785039,1.017601013,-12.552040100,3.047492981,-0.225333124,0.412493408,0.830251694
13.785665,1.238853455,-12.590187073,3.001716614,-0.227286249,0.411516845,0.828664780
13.786290,1.254112244,-12.796180725,3.024604797,-0.228995234,0.407854736,0.830862045
13.786916,1.910240173,-12.758033752,2.696540833,-0.226187617,0.406145751,0.829885483
13.787542,1.986534119,-12.796180725,2.780464172,-0.225821406,0.404436767,0.831594467
13.788167,2.207786560,-13.170021057,2.543952942,-0.224966913,0.406634033,0.834402084
13.788792,2.612144470,-12.994544983,2.391365051,-0.224234492,0.410296142,0.839406967
13.789418,2.772361755,-13.154762268,2.551582336,-0.222159296,0.412981689,0.847829819
13.790044,2.619773865,-13.314979553,2.246406555,-0.221548945,0.421282470,0.855031967
13.790669,2.772361755,-13.559120178,2.246406555,-0.223013788,0.422503173,0.859182358
13.791295,2.215415955,-13.376014709,2.162483215,-0.222159296,0.421160400,0.862844467
13.791920,2.200157166,-13.513343811,2.322700500,-0.216910273,0.424334228,0.866750717
13.792547,1.772911072,-13.498085022,1.941230774,-0.219962031,0.423601806,0.867849350
13.794175,0.895530701,-13.513343811,1.758125305,-0.219839960,0.413469970,0.869436264
13.794802,0.788719177,-13.276832581,1.765754700,-0.220938593,0.412127197,0.867849350
13.795427,0.948936462,-13.383644104,1.506355286,-0.219717890,0.406023681,0.867605209
13.796052,1.177818298,-13.551490784,1.613166809,-0.218619257,0.403093994,0.864553452
13.796678,1.292259216,-13.414161682,1.513984680,-0.220694453,0.399065673,0.866872787
13.797305,1.315147400,-13.170021057,1.391914368,-0.218130976,0.399065673,0.863576889
13.797931,1.490623474,-13.505714417,1.445320129,-0.220450312,0.395891845,0.863576889
13.798556,1.803428650,-13.368385315,1.506355286,-0.223135859,0.395037353,0.864797592
13.799183,2.123863220,-13.299720764,1.300361633,-0.217642695,0.392840087,0.867238998
13.799809,2.245933533,-13.627784729,1.307991028,-0.222403437,0.391619384,0.868459702
13.800436,2.383262634,-13.543861389,1.285102844,-0.222891718,0.392962158,0.868947983
13.801062,2.512962341,-13.482826233,1.140144348,-0.218741328,0.393572509,0.872488022
13.801689,2.520591736,-13.520973206,1.124885559,-0.219351679,0.395891845,0.877126694
13.802315,2.757102966,-13.612525940,1.140144348,-0.221426874,0.395281494,0.882009506
13.802942,2.627403259,-13.513343811,1.140144348,-0.218863398,0.399065673,0.878713608
13.804569,2.657920837,-13.574378967,1.094367981,-0.217642695,0.394671142,0.883840561
13.805196,2.779991150,-13.170021057,0.903633118,-0.215933710,0.390764892,0.885793686
13.805821,2.734214783,-13.490455627,1.071479797,-0.211783320,0.386980712,0.882986069
13.820695,3.298789978,-12.674110413,1.010444641,-0.193838984,0.353777587,0.917043686
13.821369,3.436119080,-12.574928284,0.819709778,-0.187003046,0.344256103,0.914236069
13.821994,3.321678162,-12.361305237,0.865486145,-0.185416132,0.343767822,0.908376694
13.822619,3.489524841,-12.452857971,1.132514954,-0.186026484,0.336199462,0.905569077
13.823246,3.748924255,-12.269752502,0.880744934,-0.188956171,0.333147705,0.906667709
13.823872,4.008323669,-12.048500061,1.086738586,-0.190298945,0.353533447,0.910329819
13.824498,3.245384216,-12.330787659,1.018074036,-0.185904413,0.377093017,0.923391342
13.825124,2.787620544,-12.330787659,0.918891907,-0.183951288,0.352312744,0.934255600
13.825750,2.619773865,-11.888282776,1.201179504,-0.171255976,0.356707275,0.926198959
13.826375,2.276451111,-11.461036682,1.231697083,-0.173819453,0.350115478,0.929494858
13.827001,2.253562927,-11.552589417,1.132514954,-0.184195429,0.357805908,0.929006577
13.827626,2.062828064,-11.483924866,1.262214661,-0.189200312,0.349993408,0.926809311
13.828253,1.994163513,-11.491554260,1.071479797,-0.183585078,0.348406494,0.924367905
13.828878,1.772911072,-11.224525452,1.292732239,-0.178458124,0.348528564,0.925710678
13.829504,1.833946228,-11.216896057,1.239326477,-0.182364374,0.336321533,0.925466537
13.831140,2.329856873,-10.797279358,1.491096497,-0.179800898,0.334490478,0.929983139
13.831766,2.749473572,-10.751502991,1.239326477,-0.180533320,0.340960205,0.930837631
13.832391,2.848655701,-10.835426331,1.544502258,-0.181387812,0.346209228,0.930715561
13.833017,2.978355408,-10.614173889,1.384284973,-0.181754023,0.347674072,0.930471420
13.833642,2.947837830,-10.316627502,1.513984680,-0.176382929,0.351824462,0.934499741
13.834267,2.993614197,-10.080116272,1.460578918,-0.177847773,0.350481689,0.938039780
13.834894,2.863914490,-9.935157776,1.513984680,-0.184683710,0.352923095,0.939504623
13.835520,2.863914490,-9.935157776,1.536872864,-0.185660273,0.351214111,0.943777084
13.836146,2.810508728,-9.744422913,1.536872864,-0.182486445,0.352801025,0.944997787
13.836772,2.383262634,-9.721534729,1.575019836,-0.183340937,0.358416259,0.944021225
13.837398,2.085716248,-9.423988342,1.597908020,-0.184439570,0.359636962,0.945974350
13.838025,1.780540466,-9.172218323,1.536872864,-0.174429804,0.314104736,0.930959702
13.838651,3.924400330,-8.271949768,1.353767395,-0.181509882,0.137713134,0.860403061
13.839278,9.760887146,-8.073585510,1.163032532,-0.217398554,0.043718994,0.792654037
13.839903,16.413719177,-9.782569885,2.048042297,-0.232901484,0.046648681,0.752859116
13.841574,28.712303162,-11.293190002,2.589729309,-0.200919062,0.243670166,0.871267319
13.842201,28.826744080,-11.476295471,2.864387512,-0.190176874,0.322649658,0.935110092
13.842827,27.194053650,-10.896461487,3.245857239,-0.196158320,0.385882080,0.990896225
13.843452,24.127037048,-10.270851135,3.299263000,-0.201529413,0.418108642,1.028982162
13.844077,20.182640076,-10.049598694,3.512886047,-0.206168085,0.425554931,1.044485092
13.844703,16.322166443,-9.568946838,3.566291809,-0.202872187,0.409929931,1.042409897
13.845329,12.759239197,-9.126441956,3.749397278,-0.191641718,0.381853759,1.025075912
13.845956,10.081321716,-8.973854065,3.871467590,-0.196890742,0.339617431,0.997610092
13.846581,8.311302185,-8.386390686,4.252937317,-0.204214960,0.316668212,0.965139389
13.847206,7.319480896,-8.271949768,4.306343079,-0.211783320,0.294451416,0.935598373
13.847831,6.861717224,-8.210914612,4.512336731,-0.208487421,0.275164306,0.913869858
13.848456,7.288963318,-8.317726135,4.779365540,-0.198111445,0.255144775,0.907033920
13.849082,7.815391541,-8.035438538,5.214241028,-0.201285273,0.263323486,0.897024155
13.849708,8.517295837,-7.577674866,5.313423157,-0.202750117,0.274920166,0.894948959
13.850333,8.685142517,-7.425086975,5.488899231,-0.202750117,0.279802978,0.900197983
13.851958,8.296043396,-6.646888733,6.145027161,-0.200674921,0.309588134,0.928030014
13.852584,7.288963318,-6.356971741,6.389167786,-0.205435663,0.326922119,0.932180405
13.853210,6.625205994,-6.143348694,6.434944153,-0.207510859,0.334490478,0.939870834
13.873521,-2.148597717,-3.053443909,11.020210266,-0.202383906,0.381243408,0.905813217
13.874207,-2.552955627,-2.755897522,10.882881165,-0.203848749,0.380022705,0.907644272
13.874834,-2.507179260,-2.832191467,11.165168762,-0.203970820,0.386736572,0.908498764
13.875459,-2.705543518,-2.641456604,10.959175110,-0.204214960,0.383318603,0.904958725
13.876084,-3.094642639,-2.671974182,11.020210266,-0.205801874,0.382952392,0.904592514
13.876709,-3.148048401,-2.786415100,11.050727844,-0.210440546,0.385393798,0.907766342
13.877334,-3.247230530,-2.427833557,10.928657532,-0.207266718,0.385393798,0.904958725
13.877961,-3.506629944,-2.557533264,11.012580872,-0.205679804,0.387957275,0.905324936
13.878588,-3.613441467,-2.580421448,11.157539368,-0.206290156,0.382219970,0.909475327
13.879213,-3.819435120,-2.305763245,11.104133606,-0.206900507,0.385271728,0.908254623
13.879839,-3.857582092,-2.321022034,11.195686340,-0.207999140,0.385882080,0.908620834
13.880465,-4.033058167,-2.259986877,11.157539368,-0.207388788,0.387346923,0.907888412
13.881090,-3.972023010,-2.259986877,11.050727844,-0.205069453,0.390398681,0.907644272
13.881715,-4.139869690,-2.176063538,11.271980286,-0.206778437,0.386492431,0.909109116
13.883473,-4.521339417,-2.092140198,11.111763000,-0.208487421,0.393206298,0.909231186
13.884098,-4.590003967,-2.107398987,10.989692688,-0.204214960,0.394671142,0.908864975
13.884724,-4.963844299,-1.870887756,11.172798157,-0.205923945,0.394549072,0.911062241
13.885350,-4.963844299,-2.137916565,10.982063293,-0.202994257,0.398699462,0.914846420
13.885975,-5.085914612,-2.069252014,11.073616028,-0.201651484,0.398211181,0.914113998
13.886602,-5.253761292,-1.687782288,10.798957825,-0.202017695,0.398089111,0.914846420
13.887228,-5.307167053,-1.809852600,10.791328430,-0.205557734,0.396258056,0.919240952
13.887853,-5.475013733,-1.786964417,10.875251770,-0.203848749,0.396013916,0.918996811
13.888479,-5.574195862,-1.718299866,10.715034485,-0.200674921,0.396258056,0.919118881
13.889105,-5.581825256,-1.565711975,10.791328430,-0.198599726,0.395281494,0.918874741
13.889731,-5.642860413,-1.680152893,10.699775696,-0.200064570,0.395281494,0.921682358
13.890357,-5.612342834,-1.596229553,10.592964172,-0.199210078,0.399431884,0.923879623
13.890983,-5.795448303,-1.573341370,10.440376282,-0.199942499,0.396258056,0.922536850
13.891609,-5.513160706,-1.611488342,10.470893860,-0.197501093,0.400408447,0.927907944
13.892236,-5.681007385,-1.367347717,10.135200500,-0.195181757,0.400530517,0.926198959
13.893867,-5.673377991,-1.428382874,9.921577454,-0.193594843,0.400408447,0.929738998
13.894492,-5.597084045,-1.222389221,9.807136536,-0.193716913,0.399065673,0.932546616
13.895118,-5.841224670,-1.283424377,9.936836243,-0.192374140,0.400408447,0.931692123
13.895744,-5.444496155,-1.405494690,9.768989563,-0.191519648,0.396624267,0.933156967
13.896369,-5.482643127,-1.374977112,9.631660461,-0.188345820,0.393938720,0.933889389
13.896995,-5.215614319,-1.359718323,9.479072571,-0.187613398,0.396258056,0.933889389
13.897622,-4.956214905,-1.230018616,9.250190735,-0.186880976,0.394060791,0.936819077
13.898248,-4.841773987,-1.291053772,9.105232239,-0.182608515,0.394060791,0.937673569
13.898873,-4.490821838,-0.901954651,9.112861633,-0.181021601,0.395769775,0.934255600
13.899499,-4.361122131,-1.069801331,9.089973450,-0.180289179,0.396135986,0.938405991
13.900124,-4.239051819,-1.001136780,8.876350403,-0.177481562,0.397722900,0.938528061
13.900751,-3.933876038,-0.917213440,8.815315247,-0.175772578,0.398211181,0.945852280
13.901376,-3.781288147,-0.894325256,8.761909485,-0.176871210,0.401995361,0.945730209
13.902003,-3.659217834,-0.978248596,8.319404602,-0.176749140,0.401385009,0.950857162
13.902630,-3.682106018,-0.772254944,8.342292786,-0.174185663,0.406389892,0.950124741
13.904242,-3.407447815,-0.665443420,7.953193665,-0.171866328,0.402971923,0.956594467
13.904868,-3.308265686,-0.619667053,7.678535461,-0.169424921,0.404802978,0.958181381
13.905494,-3.308265686,-0.619667053,7.678535461,-0.169424921,0.404802978,0.958181381
13.906120,-3.071754456,-0.428932190,7.442024231,-0.167715937,0.406878173,0.956472397
13.919833,-0.699012756,1.783592224,2.788093567,-0.160757929,0.433123291,0.984304428
13.920488,-0.401466370,1.783592224,2.627876282,-0.157828242,0.435686767,0.981740952
13.921113,-0.279396057,1.829368591,2.604988098,-0.157950312,0.438006103,0.984914780
13.921739,0.254661560,1.981956482,2.131965637,-0.158560663,0.436419189,0.990285873
13.922365,0.727684021,1.959068298,1.887825012,-0.156607538,0.438982666,0.987600327
13.922990,0.964195251,2.409202576,1.605537415,-0.159659296,0.437884033,0.991628647
13.923615,1.032859802,2.416831970,1.399543762,-0.157462031,0.439593017,0.993947983
13.924241,1.681358337,2.508384705,1.155403137,-0.156851679,0.440447509,0.996633530
13.924867,1.856834412,2.722007751,0.903633118,-0.156973749,0.438616455,0.998464584
13.925492,2.184898376,2.828819275,0.720527649,-0.157095820,0.439348876,1.000417709
13.926119,2.573997498,2.981407166,0.430610657,-0.154776484,0.439593017,1.007375717
13.926744,3.085166931,3.195030212,0.316169739,-0.159781367,0.438250244,1.011037827
13.927371,3.542930603,3.072959900,-0.111076355,-0.160391718,0.432879150,1.019094467
13.927997,4.321128845,3.172142029,-0.515434265,-0.172720820,0.417010009,1.032155991
13.928624,5.877525330,2.737266541,-0.683280945,-0.188345820,0.386004150,1.057912827
13.930257,7.128746033,3.584129333,-1.148674011,-0.107413210,0.462786376,1.017995834
13.930883,6.861717224,4.972679138,-1.133415222,-0.121207155,0.458635986,1.029592514
13.931509,7.555992126,5.193931580,-1.491996765,-0.178213984,0.416521728,1.076589584
13.932135,8.372337341,4.591209412,-1.827690125,-0.175650507,0.458758056,1.077444077
13.932761,7.113487244,5.590660095,-2.209159851,-0.123526491,0.512713134,1.031179428
13.933386,5.297691345,6.612998962,-2.537223816,-0.122427858,0.495012939,1.041799545
13.934011,5.084068298,7.070762634,-2.613517761,-0.166373163,0.469744384,1.057790756
13.934636,5.045921326,6.902915955,-2.872917175,-0.181143671,0.444719970,1.059255600
13.935261,5.244285583,6.551963806,-3.414604187,-0.177237421,0.436785400,1.051443100
13.935887,5.549461365,6.605369568,-3.406974792,-0.166006953,0.427508056,1.035207748
13.936513,6.068260193,6.597740173,-3.551933289,-0.156119257,0.419451416,1.025808334
13.937138,7.098228455,6.681663513,-3.864738464,-0.167960078,0.392229736,1.031667709
13.937764,8.845359802,6.368858337,-4.154655457,-0.174673945,0.380999267,1.049978256
13.938390,10.371238708,6.292564392,-4.215690613,-0.158804804,0.401507080,1.033620834
13.939015,11.027366638,6.620628357,-4.497978210,-0.156119257,0.416155517,1.035573959
13.940690,16.039878845,4.286033630,-5.154106140,-0.243033320,0.244646728,1.180715561
13.941316,19.709617615,1.997215271,-5.764457703,-0.166373163,0.443255126,1.109548569
13.941943,15.070945740,4.331809998,-5.436393738,-0.085074343,0.558245361,1.014577866
13.942569,11.126548767,7.597190857,-5.779716492,-0.120230593,0.457293212,1.086599350
13.943194,15.872032166,5.560142517,-6.222221375,-0.277701288,0.180559814,1.301198959
13.943819,33.785850525,-6.189125061,-6.519767761,-0.553946435,-0.191266358,1.617116928
13.944444,47.335655212,-17.579811096,-6.695243835,-0.453116328,0.106341064,1.436697006
13.945070,43.322593689,-17.831581116,-8.129570007,-0.183951288,0.358172119,1.225027084
13.945697,33.206016541,-11.384742737,-8.167716980,0.085946165,0.713152587,1.131032944
13.946322,22.608787537,-2.259986877,-7.359001160,0.257454962,0.855120361,1.099660873
13.946949,17.046958923,5.422813416,-5.939933777,0.208870977,0.870012939,1.118337631
13.947576,12.461692810,12.823326111,-5.703422546,0.091195188,0.849260986,1.075979233
13.948203,5.084068298,20.208580017,-6.519767761,-0.042227663,0.736590087,1.052053452
13.948828,-1.942604065,25.030357361,-7.351371765,-0.112051882,0.618914306,1.062917709
13.949453,-6.161659241,26.731712341,-7.763359070,-0.135245234,0.484148681,1.082815170
13.951117,1.803428650,21.360618591,-8.015129089,-0.258170038,0.254046142,1.087820053
13.951743,6.381065369,18.339378357,-8.419487000,-0.271719843,0.277849853,1.074514389
13.952369,9.295494080,16.065818787,-8.877250671,-0.221426874,0.332049072,1.053518295
13.952994,10.958702087,14.967185974,-9.067985535,-0.144156367,0.394304931,1.037893295
13.966676,13.575584412,20.582420349,-12.989494324,-0.117300905,0.511492431,1.068288803
13.967359,12.751609802,21.620018005,-12.852165222,-0.116446413,0.534807861,1.070486069
13.967984,11.126548767,23.336631775,-12.684318542,-0.084341921,0.548235595,1.055227280
13.968611,9.326011658,24.915916443,-13.203117371,-0.081900515,0.568743408,1.047170639
13.969237,7.166893005,27.517539978,-13.515922546,-0.082999147,0.575945556,1.024099350
13.969862,5.648643494,29.585105896,-13.561698914,-0.145499140,0.534075439,1.043508530
13.970488,4.931480408,30.012351990,-13.531181335,-0.173575312,0.503679931,1.047048569
13.971114,10.188133240,26.754600525,-13.798210144,-0.417105585,0.182512939,1.234304428
13.971739,22.059471130,17.568809509,-13.668510437,-0.469839960,0.172991455,1.261892319
13.972364,26.896507263,11.572105408,-15.263053894,-0.321036249,0.234759033,1.196584702
13.972991,26.377708435,11.724693298,-15.835258484,-0.112418093,0.381853759,1.129079819
13.973616,23.615867615,15.287620544,-15.964958191,0.036263548,0.514300048,1.090139389
13.974243,21.670372009,20.269615173,-15.179130554,0.049080931,0.634173095,1.072805405
13.974868,19.831687927,25.053245544,-14.706108093,-0.009024536,0.718401611,1.060598373
13.975493,16.879112244,28.990013123,-15.156242371,-0.122061647,0.722796142,1.064626694
13.977171,8.044273376,35.299522400,-15.621635437,-0.128165156,0.619402587,1.104543686
13.977796,4.992515564,36.581260681,-15.873405457,-0.121207155,0.550310791,1.129690170
13.978423,3.802330017,36.947471619,-15.812370300,-0.159659296,0.494524658,1.141530991
13.979049,4.038841248,36.024314880,-15.629264832,-0.232535273,0.449968994,1.140310287
13.979674,5.633384705,34.170372009,-16.094657898,-0.270987421,0.427385986,1.121877670
13.980299,6.861717224,32.606346130,-16.987297058,-0.247427851,0.431292236,1.093069077
13.980926,7.990867615,31.378013611,-17.261955261,-0.193594843,0.437517822,1.062551498
13.981553,8.990318298,31.645042419,-17.101737976,-0.147574335,0.445208251,1.032888412
13.982180,9.867698669,32.522422791,-17.391654968,-0.133658320,0.457903564,1.001638412
13.982807,10.333091736,33.872825623,-17.345878601,-0.140738398,0.482073486,0.979055405
13.983434,9.882957458,35.017234802,-17.597648621,-0.147940546,0.496111572,0.968313217
13.984061,9.852439880,36.443931580,-17.651054382,-0.162222773,0.501604736,0.967947006
13.984687,9.593040466,37.359458923,-17.590019226,-0.174918085,0.494524658,0.965383530
13.985313,9.585411072,37.512046814,-17.910453796,-0.197012812,0.478899658,0.974172592
13.985938,9.989768982,37.428123474,-17.773124695,-0.205557734,0.462298095,0.982595444
13.987581,11.317283630,35.864097595,-18.452140808,-0.213858515,0.459368408,0.988454819
13.988208,11.332542419,35.444480896,-18.269035339,-0.208487421,0.464983642,0.984304428
13.988833,11.515647888,35.078269958,-18.574211121,-0.201651484,0.464617431,0.972219467
13.989460,11.263877869,34.948570251,-18.642875671,-0.196768671,0.468401611,0.954275131
13.990085,11.141807556,34.933311462,-18.574211121,-0.189444453,0.467547119,0.943655014
13.990710,11.126548767,35.154563904,-18.795463562,-0.185538203,0.468645751,0.926565170
13.991336,11.332542419,35.528404236,-19.062492371,-0.187125117,0.471941650,0.917654037
13.991963,10.935813904,36.031944275,-19.031974792,-0.188956171,0.471453369,0.907888412
13.992588,10.699302673,36.169273376,-19.070121765,-0.183463007,0.476092041,0.905202866
13.993214,10.561973572,36.672813416,-19.215080261,-0.187613398,0.475237548,0.902151108
13.993839,10.111839294,36.634666443,-19.192192078,-0.194327265,0.475847900,0.901540756
13.994465,9.959251404,36.779624939,-19.222709656,-0.197989374,0.472796142,0.903860092
13.995092,9.615928650,36.955101013,-19.512626648,-0.198721796,0.477312744,0.905935287
13.995718,9.303123474,36.871177673,-19.428703308,-0.205557734,0.475481689,0.908864975
13.996344,8.700401306,36.474449158,-19.192192078,-0.202750117,0.475603759,0.907155991
13.997977,7.662803650,36.283714294,-19.375297546,-0.200919062,0.475359619,0.899587631
13.998602,6.983787537,36.169273376,-19.779655457,-0.202628046,0.475237548,0.896657944
14.012340,4.969627380,34.513694763,-19.718620300,-0.240347773,0.403948486,0.888479233
14.013023,4.984886169,34.185630798,-19.802543640,-0.242667109,0.399187744,0.889577866
14.013649,5.145103455,33.865196228,-19.451591492,-0.239859492,0.397234619,0.887136459
14.014274,5.038291931,33.941490173,-19.703361511,-0.243155390,0.397234619,0.886159897
14.014900,5.236656189,33.560020447,-19.627067566,-0.240347773,0.394060791,0.881277084
14.015526,5.084068298,33.460838318,-19.527885437,-0.239249140,0.391375244,0.878225327
14.016152,5.488426208,33.201438904,-19.398185730,-0.241568476,0.388323486,0.872976303
14.016778,5.564720154,33.033592224,-19.573661804,-0.242667109,0.387468994,0.868703842
14.017403,5.740196228,32.942039490,-19.245597839,-0.241324335,0.383684814,0.862234116
14.018035,5.656272888,33.086997986,-19.512626648,-0.241324335,0.384661376,0.857351303
14.018660,5.572349548,32.911521912,-19.581291199,-0.234976679,0.382708251,0.855520248
14.019286,5.702049255,32.781822205,-19.100639343,-0.240103632,0.379656494,0.854299545
14.019911,6.022483826,32.484275818,-18.940422058,-0.242056757,0.378802001,0.850027084
14.020536,5.763084412,32.591087341,-19.100639343,-0.240103632,0.377581298,0.850515366
14.022309,5.885154724,32.148582458,-18.719169617,-0.243765742,0.378802001,0.843313217
14.022934,5.770713806,31.950218201,-18.795463562,-0.247305781,0.374773681,0.840749741
14.023561,5.724937439,31.431419373,-18.894645691,-0.244864374,0.375139892,0.837820053
14.024186,5.785972595,31.324607849,-18.749687195,-0.247427851,0.380388916,0.833181381
14.024811,5.663902283,30.988914490,-18.719169617,-0.245718867,0.384661376,0.829763412
14.025436,5.267173767,30.348045349,-18.589469910,-0.247916132,0.379656494,0.823781967
14.026062,5.213768005,30.157310486,-18.200370789,-0.249258906,0.373064697,0.821584702
14.026688,5.015403748,29.844505310,-18.360588074,-0.247549921,0.371966064,0.819875717
14.027314,4.786521912,29.813987732,-18.452140808,-0.241934687,0.374895751,0.819875717
14.027939,4.511863708,29.356224060,-18.276664734,-0.245108515,0.377947509,0.813161850
14.028565,4.023582458,29.112083435,-18.223258972,-0.242789179,0.386614501,0.814260483
14.029190,3.779441833,28.890830994,-17.979118347,-0.250723749,0.381731689,0.798635483
14.029815,3.558189392,28.402549744,-18.055412292,-0.256583124,0.377459228,0.788869858
14.030441,3.474266052,28.021080017,-18.070671082,-0.255484492,0.365618408,0.778371811
14.031067,3.687889099,27.487022400,-17.666313171,-0.251822382,0.358904541,0.770315170
14.032705,4.359275818,26.983482361,-17.811271667,-0.246695429,0.350237548,0.753225327
14.033330,4.588157654,26.716453552,-17.628166199,-0.245474726,0.354265869,0.748098373
14.033955,4.870445251,26.289207458,-17.239067078,-0.251456171,0.355852783,0.747488022
14.034581,5.587608337,26.113731384,-17.246696472,-0.250845820,0.355974853,0.745412827
14.035207,5.999595642,25.755149841,-17.025444031,-0.254752070,0.353411376,0.746267319
14.035832,5.854637146,25.404197693,-16.949150085,-0.256216913,0.351580322,0.748708725
14.036457,6.152183533,25.007469177,-16.888114929,-0.256338984,0.354387939,0.747488022
14.037082,6.144554138,24.625999451,-16.682121277,-0.253653437,0.356341064,0.753713608
14.037708,6.327659607,24.214012146,-16.697380066,-0.257681757,0.358050048,0.754812241
14.038334,6.274253845,23.428184509,-16.697380066,-0.259634882,0.361101806,0.755544662
14.038961,6.289512634,23.184043884,-16.369316101,-0.262320429,0.365740478,0.756399155
14.039586,5.946189880,22.276145935,-16.331169128,-0.260977656,0.362444580,0.755910873
14.040212,5.946189880,22.276145935,-16.331169128,-0.260977656,0.362444580,0.755910873
14.040837,5.572349548,21.414024353,-15.758964539,-0.256216913,0.360735595,0.752126694
14.041463,5.229026794,21.307212830,-15.903923035,-0.260855585,0.361468017,0.756277084
14.043102,5.213768005,20.590049744,-15.667411804,-0.270010859,0.359026611,0.745412827
14.043728,5.435020447,20.071250916,-15.575859070,-0.271963984,0.354510009,0.748220444
14.044353,5.366355896,19.399864197,-15.247795105,-0.269644648,0.351458251,0.743703842
14.044978,5.740196228,19.010765076,-15.369865417,-0.267813593,0.356096923,0.746389389
14.058632,4.550010681,12.808067322,-12.760612488,-0.288077265,0.358172119,0.778860092
14.059289,4.832298279,12.548667908,-12.279960632,-0.295279413,0.356951416,0.778371811
14.059915,4.595787048,12.212974548,-12.203666687,-0.296744257,0.356951416,0.775197983
14.060540,4.763633728,11.739952087,-12.295219421,-0.293570429,0.350725830,0.774587631
14.061165,4.954368591,11.442405701,-12.203666687,-0.291373163,0.350969970,0.772512436
14.061791,4.939109802,11.045677185,-11.929008484,-0.294913203,0.349383056,0.767141342
14.062417,4.847557068,10.847312927,-11.951896667,-0.289053828,0.352678955,0.767385483
14.063043,4.939109802,10.740501404,-11.623832703,-0.288565546,0.350359619,0.767751694
14.063668,5.084068298,10.595542908,-11.524650574,-0.290152460,0.349383056,0.769094467
14.064294,5.000144958,10.290367126,-11.265251160,-0.294424921,0.354387939,0.765066147
14.064920,5.030662537,9.924156189,-11.326286316,-0.297354609,0.356341064,0.764333725
14.065546,4.862815857,9.718162537,-11.013481140,-0.298453242,0.356707275,0.765798569
14.066173,5.122215271,9.191734314,-10.815116882,-0.292593867,0.353655517,0.765188217
14.066798,5.198509216,8.917076111,-10.868522644,-0.292105585,0.347063720,0.767507553
14.067424,5.358726501,8.703453064,-10.708305359,-0.293326288,0.352923095,0.767019272
14.069068,5.267173767,7.848960876,-10.464164734,-0.294058710,0.348040283,0.764455795
14.069694,5.114585876,7.368309021,-10.311576843,-0.297354609,0.354021728,0.759695053
14.070319,5.389244080,6.910545349,-10.120841980,-0.297964960,0.354632080,0.758718491
14.070946,5.251914978,6.605369568,-10.044548035,-0.299185663,0.353167236,0.757619858
14.071572,5.572349548,6.056053162,-9.724113464,-0.292105585,0.351336181,0.757131577
14.072199,5.389244080,5.941612244,-9.670707703,-0.287344843,0.356218994,0.758230209
14.072825,5.419761658,5.636436462,-9.586784363,-0.289786249,0.355730712,0.758230209
14.073450,5.496055603,5.438072205,-9.335014343,-0.288565546,0.357439697,0.752370834
14.074075,5.366355896,5.369407654,-9.266349792,-0.291373163,0.361590087,0.752492905
14.074702,5.396873474,5.125267029,-9.129020691,-0.291006953,0.363421142,0.753591537
14.075329,5.343467712,4.690391541,-8.961174011,-0.292715937,0.364519775,0.760061264
14.075956,4.900962830,4.514915466,-8.900138855,-0.290152460,0.363787353,0.754934311
14.076583,4.870445251,4.011375427,-8.816215515,-0.293936640,0.362200439,0.753957748
14.077208,4.916221619,3.545982361,-8.541557312,-0.291129023,0.356463134,0.751882553
14.077833,4.832298279,3.378135681,-8.533927917,-0.294913203,0.358538330,0.755666733
14.079461,5.038291931,2.622825623,-8.335563660,-0.293936640,0.361956298,0.750539780
14.080088,4.939109802,2.470237732,-7.992240906,-0.286734492,0.363909423,0.754079819
14.080714,5.099327087,2.264244080,-8.106681824,-0.289908320,0.362322509,0.751028061
14.081340,5.206138611,1.943809509,-8.022758484,-0.284781367,0.360247314,0.753347397
14.081965,4.931480408,1.661521912,-7.893058777,-0.288199335,0.364397705,0.752859116
14.082590,4.862815857,1.730186462,-7.648918152,-0.287588984,0.361468017,0.755910873
14.083217,5.045921326,1.417381287,-7.534477234,-0.288443476,0.366594970,0.756521225
14.083843,5.038291931,1.165611267,-7.267448425,-0.289297968,0.368792236,0.757375717
14.084470,4.748374939,0.990135193,-7.442924500,-0.288565546,0.370012939,0.761159897
14.085095,4.740745544,0.776512146,-7.244560242,-0.294424921,0.370989501,0.759817123
14.085721,4.687339783,0.532371521,-7.030937195,-0.294424921,0.371355712,0.765798569
14.086347,4.656822205,0.158531189,-6.878349304,-0.293936640,0.370623291,0.766897202
14.086973,4.565269470,-0.291603088,-6.596061707,-0.295889765,0.369768798,0.768484116
14.087598,4.542381287,-0.467079163,-6.802055359,-0.291129023,0.370257080,0.769948959
14.088223,4.191429138,-0.596778870,-6.496879578,-0.293570429,0.369036376,0.768606186
14.089830,4.176170349,-1.161354065,-6.229850769,-0.294424921,0.366106689,0.770559311
14.090455,4.359275818,-1.016395569,-5.825492859,-0.297720820,0.364275634,0.777395248
14.091080,4.237205505,-1.527565002,-5.939933777,-0.298331171,0.362200439,0.776540756
14.104788,4.687339783,-4.739540100,-3.239128113,-0.300040156,0.382586181,0.799245834
14.105456,4.580528259,-4.464881897,-3.185722351,-0.303213984,0.380633056,0.801931381
14.106081,4.557640076,-4.770057678,-2.987358093,-0.303946406,0.386614501,0.799367905
14.106708,4.603416443,-4.892127991,-2.949211121,-0.306143671,0.384905517,0.804494858
14.107333,4.496604919,-5.021827698,-2.735588074,-0.303091913,0.391253173,0.804250717
14.107958,4.405052185,-5.059974670,-2.788993835,-0.304922968,0.390154541,0.805227280
14.108584,4.557640076,-5.281227112,-2.842399597,-0.302603632,0.390154541,0.807180405
14.109210,4.099876404,-5.555885315,-2.552482605,-0.304312617,0.391131103,0.806570053
14.109836,4.275352478,-5.449073792,-2.483818054,-0.300040156,0.392718017,0.806570053
14.110463,4.229576111,-5.632179260,-2.392265320,-0.298697382,0.393938720,0.805105209
14.111088,3.886253357,-5.548255920,-2.239677429,-0.302359492,0.395159423,0.803030014
14.111713,3.611595154,-5.609291077,-2.460929871,-0.300528437,0.394549072,0.801321030
14.112339,3.710777283,-5.716102600,-2.216789246,-0.301504999,0.391741455,0.802297592
14.112965,3.359825134,-5.853431702,-2.079460144,-0.298941523,0.395769775,0.800588608
14.113590,3.344566345,-5.761878967,-1.942131042,-0.299796015,0.392107666,0.800100327
14.115216,3.024131775,-6.173866272,-1.827690125,-0.297964960,0.399309814,0.796804428
14.122354,1.559288025,-7.165687561,-1.347038269,-0.286734492,0.394793212,0.798513412
14.122980,1.414329529,-7.280128479,-0.843498230,-0.290274531,0.392718017,0.796682358
14.123605,1.254112244,-7.364051819,-0.912162781,-0.288687617,0.393328369,0.796194077
14.125217,1.048118591,-7.676856995,-0.683280945,-0.287222773,0.389666259,0.797536850
14.125844,0.735313416,-7.829444885,-0.774833679,-0.285513788,0.390276611,0.799245834
14.126470,0.643760681,-7.859962463,-0.828239441,-0.286490351,0.387957275,0.798757553
14.127095,0.674278259,-7.982032776,-0.622245789,-0.283682734,0.387102783,0.800832748
14.127720,0.704795837,-8.058326721,-0.561210632,-0.282462031,0.387591064,0.799367905
14.128345,0.559837341,-8.264320374,-0.492546082,-0.286856562,0.390032470,0.803518295
14.128970,0.475914001,-8.302467346,-0.423881531,-0.285391718,0.387835205,0.801687241
14.129596,0.445396423,-8.287208557,-0.462028503,-0.283926874,0.386980712,0.806325912
14.130223,0.178367615,-8.653419495,-0.408622742,-0.280753046,0.388201416,0.805105209
14.130850,0.277549744,-8.706825256,-0.057670593,-0.276602656,0.384661376,0.808645248
14.131476,0.285179138,-8.668678284,-0.088188171,-0.279532343,0.385027587,0.810842514
14.132101,0.147850037,-8.905189514,0.010993958,-0.275626093,0.383928955,0.811208725
14.132726,0.048667908,-8.889930725,-0.118705750,-0.274649531,0.385882080,0.814260483
14.133351,-0.256507874,-8.958595276,0.064399719,-0.272696406,0.385149658,0.820363998
14.133977,-0.035255432,-8.950965881,0.010993958,-0.275381953,0.387346923,0.823293686
14.135609,-0.248878479,-9.149330139,0.094917297,-0.267569453,0.385393798,0.826833725
14.136236,-0.447242737,-9.210365295,0.041511536,-0.266959101,0.386980712,0.827688217
14.136862,-0.439613342,-9.294288635,0.216987610,-0.267081171,0.384539306,0.835744858
14.137488,-0.653236389,-9.408729553,0.239875793,-0.266714960,0.387224853,0.834035873
14.138113,-0.676124573,-9.256141663,0.461128235,-0.264395624,0.387591064,0.836355209
14.138740,-0.760047913,-9.256141663,0.522163391,-0.263052851,0.387102783,0.841482162
14.139366,-0.996559143,-9.294288635,0.316169739,-0.260611445,0.381609619,0.839895248
14.139991,-0.927894592,-9.324806213,0.453498840,-0.259024531,0.385760009,0.842214584
14.140617,-1.126258850,-9.233253479,0.476387024,-0.259024531,0.385027587,0.844778061
14.141242,-1.042335510,-9.362953186,0.506904602,-0.255240351,0.387102783,0.846120834
14.141867,-1.248329163,-9.340065002,0.613716125,-0.259634882,0.387591064,0.847585678
14.142492,-1.141517639,-9.340065002,0.407722473,-0.255484492,0.386736572,0.846853256
14.143118,-1.347511292,-9.332435608,0.361946106,-0.251822382,0.387346923,0.850149155
14.143743,-1.431434631,-9.225624084,0.476387024,-0.250479609,0.387224853,0.848562241
14.157420,-0.653236389,-9.767311096,-0.118705750,-0.233878046,0.403338134,0.846609116
14.158045,-0.653236389,-9.767311096,-0.118705750,-0.233878046,0.403338134,0.846609116
14.158670,-0.554054260,-9.797828674,-0.164482117,-0.233511835,0.403582275,0.843069077
14.159296,-0.241249084,-9.698646545,-0.400993347,-0.235342890,0.404436767,0.843435287
14.159921,-0.454872131,-9.919898987,-0.233146667,-0.230948359,0.405169189,0.841360092
14.160546,-0.309913635,-9.683387756,-0.431510925,-0.233145624,0.404925048,0.841482162
14.161171,-0.134437561,-9.874122620,-0.530693054,-0.232535273,0.408220947,0.844289780
14.161797,0.041038513,-9.958045959,-0.370475769,-0.231680781,0.406267822,0.843801498
14.162422,0.147850037,-10.057228088,-0.614616394,-0.233267695,0.409319580,0.840505600
14.163049,0.475914001,-10.164039612,-0.820610046,-0.233145624,0.409075439,0.837331772
14.163674,0.308067322,-10.125892639,-0.729057312,-0.233633906,0.410662353,0.842702866
14.164300,0.498802185,-10.141151428,-0.957939148,-0.233633906,0.411516845,0.843679428
14.164925,0.559837341,-10.362403870,-1.087638855,-0.228629023,0.412493408,0.843923569
14.165552,0.620872498,-10.469215393,-0.965568542,-0.230704218,0.414568603,0.844045639
14.166178,0.681907654,-10.392921448,-1.194450378,-0.231924921,0.412981689,0.842824936
14.167790,0.353843689,-10.293739319,-1.430961609,-0.230215937,0.419573486,0.844533920
14.168417,0.582725525,-10.514991760,-1.476737976,-0.233267695,0.418474853,0.847829819
14.169044,0.506431580,-10.492103577,-1.522514343,-0.230948359,0.415178955,0.849050522
14.169669,0.391990662,-10.484474182,-1.713249207,-0.232779413,0.415301025,0.849660873
14.170295,0.437767029,-10.537879944,-1.797172546,-0.230093867,0.419573486,0.850027084
14.170962,0.262290955,-10.499732971,-1.903984070,-0.233389765,0.420183837,0.851980209
14.171588,0.140220642,-10.598915100,-1.919242859,-0.231802851,0.418474853,0.850515366
14.172235,0.262290955,-10.499732971,-1.865837097,-0.232901484,0.419085205,0.858083725
14.172883,0.193626404,-10.385292053,-2.064201355,-0.230948359,0.420183837,0.857839584
14.173558,0.208885193,-10.316627502,-2.277824402,-0.233267695,0.418841064,0.860036850
14.174184,0.033409119,-10.507362366,-2.369377136,-0.231680781,0.419451416,0.859304428
14.174809,0.025779724,-10.278480530,-2.254936218,-0.232046992,0.419329345,0.858938217
14.175436,0.132591248,-10.087745667,-2.651664734,-0.229971796,0.419939697,0.863454819
14.176063,0.140220642,-10.255592346,-2.415153503,-0.233145624,0.418108642,0.863088608
14.177785,0.109703064,-10.080116272,-2.842399597,-0.233633906,0.413469970,0.862966537
14.178411,0.109703064,-10.179298401,-3.002616882,-0.233145624,0.412859619,0.866872787
14.179036,0.231773376,-9.980934143,-3.040763855,-0.233878046,0.415178955,0.867116928
14.179663,0.338584900,-10.080116272,-3.155204773,-0.233389765,0.408709228,0.866628647
14.180289,0.300437927,-9.851234436,-3.193351746,-0.235098749,0.410052001,0.865774155
14.180914,0.338584900,-9.828346252,-3.269645691,-0.236807734,0.411516845,0.866628647
14.181539,0.636131287,-9.698646545,-3.254386902,-0.236685663,0.407366455,0.869558334
14.182165,0.720054626,-9.523170471,-3.490898132,-0.234366328,0.405779541,0.869436264
14.182791,1.063377380,-9.431617737,-3.391716003,-0.236441523,0.404070556,0.874563217
14.183418,1.025230408,-9.523170471,-3.582450867,-0.236807734,0.403460205,0.874197006
14.184045,1.345664978,-9.439247131,-3.803703308,-0.237418085,0.399431884,0.877981186
14.184672,1.582176208,-9.546058655,-3.788444519,-0.239493281,0.400652587,0.876760483
14.185297,1.864463806,-9.233253479,-3.895256042,-0.241812617,0.399187744,0.879690170
14.185923,2.299339294,-9.156959534,-4.131767273,-0.243399531,0.401385009,0.882741928
14.186549,2.322227478,-9.362953186,-3.971549988,-0.242178828,0.400408447,0.880178452
14.188164,3.390342712,-9.530799866,-4.520866394,-0.244376093,0.396746337,0.882375717
14.188791,3.390342712,-9.210365295,-4.421684265,-0.245963007,0.400164306,0.883840561
14.189418,3.680259705,-9.324806213,-4.604789734,-0.247671992,0.398821533,0.882131577
14.190044,4.008323669,-9.134071350,-4.765007019,-0.246329218,0.398577392,0.883108139
14.203737,7.044822693,-7.272499084,-6.916496277,-0.239249140,0.404436767,0.880666733
14.204405,6.999046326,-7.257240295,-6.824943542,-0.245108515,0.406267822,0.880178452
14.205037,6.922752380,-7.241981506,-7.053825378,-0.241934687,0.405169189,0.884695053
14.205662,7.334739685,-7.127540588,-7.122489929,-0.240225703,0.407366455,0.880422592
14.206288,7.502586365,-6.929176331,-7.244560242,-0.242178828,0.405413330,0.881765366
14.206914,7.861167908,-6.761329651,-7.137748718,-0.241446406,0.402239501,0.880178452
14.207540,7.929832458,-7.005470276,-7.229301453,-0.239859492,0.400774658,0.882131577
14.208166,7.945091248,-6.730812073,-7.442924500,-0.240347773,0.400408447,0.879079819
14.208791,8.166343689,-6.746070862,-7.595512390,-0.240347773,0.401140869,0.881155014
14.209416,8.708030701,-6.768959045,-7.885429382,-0.241324335,0.402727783,0.877004623
14.210043,8.868247986,-6.562965393,-7.603141785,-0.239615351,0.401629150,0.879446030
14.210670,9.165794373,-6.608741760,-8.068534851,-0.241812617,0.401873291,0.880300522
14.211295,9.509117126,-6.532447815,-7.793876648,-0.239859492,0.403948486,0.879812241
14.211921,9.547264099,-6.562965393,-8.099052429,-0.241324335,0.402605712,0.880056381
14.212547,9.791404724,-6.326454163,-8.022758484,-0.240347773,0.401140869,0.878835678
14.214169,10.409385681,-6.242530823,-8.419487000,-0.241568476,0.407122314,0.881399155
14.214795,10.371238708,-6.082313538,-8.419487000,-0.239249140,0.405901611,0.884572983
14.215420,10.714561462,-6.173866272,-8.594963074,-0.241934687,0.407854736,0.887258530
14.216045,11.050254822,-5.792396545,-8.533927917,-0.239615351,0.407854736,0.887746811
14.216672,11.248619080,-5.777137756,-8.671257019,-0.239859492,0.408831298,0.887868881
14.217298,11.500389099,-5.830543518,-8.869621277,-0.242911249,0.408953369,0.886770248
14.217923,11.469871521,-5.555885315,-8.900138855,-0.240958124,0.410052001,0.890676498
14.218550,11.286766052,-5.517738342,-9.006950378,-0.240103632,0.409929931,0.889699936
14.219176,11.477500916,-5.357521057,-8.915397644,-0.240836054,0.412737548,0.889699936
14.219801,11.736900330,-5.189674377,-9.052726746,-0.240958124,0.412981689,0.892629623
14.220427,11.836082458,-5.014198303,-9.273979187,-0.242545038,0.412371337,0.893972397
14.221053,12.072593689,-4.884498596,-9.342643738,-0.242911249,0.409807861,0.894094467
14.221678,11.828453064,-4.701393127,-9.495231628,-0.242422968,0.411394775,0.892141342
14.222312,11.973411560,-4.625099182,-9.441825867,-0.246451288,0.410052001,0.894704819
14.222937,12.171775818,-4.586952209,-9.647819519,-0.246329218,0.414934814,0.892263412
14.224582,12.255699158,-4.121559143,-9.754631042,-0.245230585,0.413958251,0.893362045
14.225208,12.393028259,-4.205482483,-9.991142273,-0.247305781,0.414080322,0.894094467
14.225835,12.362510681,-4.083412170,-10.128471375,-0.246939570,0.413103759,0.895681381
14.226460,12.476951599,-3.854530334,-9.983512878,-0.248282343,0.416643798,0.893362045
14.227085,12.484580994,-3.663795471,-10.319206238,-0.247183710,0.412981689,0.892629623
14.227712,12.698204041,-3.694313049,-10.197135925,-0.247794062,0.412859619,0.897268295
14.228339,12.888938904,-3.640907288,-10.532829285,-0.247916132,0.413958251,0.894948959
14.228964,13.003379822,-3.221290588,-10.448905945,-0.251456171,0.415667236,0.892263412
14.229590,13.064414978,-3.282325745,-10.464164734,-0.250601679,0.413469970,0.894826889
14.230217,12.957603455,-3.114479065,-10.456535339,-0.250967890,0.414446533,0.892507553
14.230843,13.125450134,-2.916114807,-10.685417175,-0.251578242,0.412493408,0.891775131
14.231469,13.361961365,-2.916114807,-10.929557800,-0.253287226,0.412127197,0.893362045
14.232095,13.392478943,-2.893226624,-10.937187195,-0.252798945,0.411272705,0.891530991
14.232721,13.453514099,-2.610939026,-11.036369324,-0.254019648,0.413958251,0.887136459
14.233348,13.812095642,-2.465980530,-11.211845398,-0.256094843,0.413469970,0.887624741
14.234987,13.941795349,-2.176063538,-11.356803894,-0.254874140,0.413836181,0.886892319
14.235613,14.170677185,-2.084510803,-11.364433289,-0.253653437,0.414690673,0.886526108
14.236240,14.010459900,-1.886146545,-11.372062683,-0.256461054,0.415911376,0.882741928
14.249911,16.154319763,-0.993507385,-12.890312195,-0.260489374,0.413469970,0.859792709
14.250555,16.139060974,-1.153724670,-12.615653992,-0.262564570,0.413592041,0.858938217
14.251181,16.177207947,-1.008766174,-12.844535828,-0.264395624,0.413469970,0.853445053
14.251808,15.910179138,-0.825660706,-12.821647644,-0.260367304,0.412859619,0.856863022
14.252433,16.200096130,-0.802772522,-12.951347351,-0.261099726,0.412249267,0.855520248
14.253059,16.200096130,-0.932472229,-12.989494324,-0.262442499,0.415056884,0.855764389
14.253684,16.276390076,-0.787513733,-12.814018250,-0.260733515,0.413592041,0.851247787
14.254311,16.322166443,-0.970619202,-12.958976746,-0.261221796,0.417010009,0.851980209
14.254937,16.329795837,-0.924842834,-13.149711609,-0.262320429,0.413714111,0.853567123
14.255562,16.421348572,-0.734107971,-12.943717957,-0.263419062,0.412249267,0.855520248
14.256188,16.505271912,-0.818031311,-13.042900085,-0.263785273,0.411272705,0.851125717
14.256814,16.345054626,-0.871437073,-13.172599792,-0.265128046,0.408098876,0.850271225
