time,gyro x,gyro y,gyro z,accel x,accel y,accel z
5.969260,-1.635658264,0.600395203,-0.299324036,-0.017569825,-0.001005493,0.940669537
5.978924,-6.381141663,10.236320496,0.517021179,-0.040885255,-0.004301392,0.972896099
5.979551,-5.351173401,9.099540710,0.280509949,-0.062735841,-0.021391235,0.998042583
5.980177,-4.687416077,7.955131531,0.066886902,-0.061881348,-0.034941040,1.021968365
5.980802,-4.519569397,6.619987488,-0.085700989,-0.043814942,-0.042631470,1.041377544
5.981428,-4.504310608,6.009635925,0.021110535,-0.026358888,-0.034330688,1.043696880
5.982055,-4.977333069,5.979118347,0.211845398,-0.007437988,-0.026029907,1.048945904
5.982681,-5.030738831,5.612907410,0.196586609,0.001106934,-0.006376587,1.049922466
5.983308,-5.305397034,5.200920105,0.311027527,0.005989746,0.008271851,1.044307232
5.983933,-5.992042542,5.498466492,-0.116218567,0.006844238,0.014131226,1.030391216
5.984558,-6.060707092,5.559501648,0.013481140,-0.009024902,0.008882202,1.041621685
5.985183,-5.557167053,4.903373718,0.227104187,-0.025504395,0.001557983,1.054683208
5.985808,-5.015480042,4.201469421,0.219474792,-0.033316895,-0.009916626,1.068233013
5.986435,-4.984962463,3.491935730,0.021110535,-0.027945802,-0.025907837,1.058101177
5.987060,-5.084144592,3.690299988,-0.139106750,-0.006461426,-0.024442993,1.066401958
5.988734,-5.457984924,5.116996765,0.135551453,0.028206542,-0.022856079,1.054927349
5.989360,-4.809486389,5.178031921,0.135551453,0.014046387,-0.017484985,1.043574810
5.989986,-4.450904846,5.010185242,0.005851746,0.000496582,-0.006132446,1.034907818
5.990611,-4.283058167,4.712638855,-0.169624329,-0.020987794,0.001313843,1.038081646
5.991238,-3.932106018,4.674491882,0.166069031,-0.034293458,0.005220093,1.035884380
5.991864,-3.359901428,4.018363953,0.021110535,-0.039786622,-0.001005493,1.037837505
5.992489,-3.062355042,3.316459656,-0.039924622,-0.021964356,-0.012846313,1.021968365
5.993116,-3.192054749,3.568229675,-0.116218567,-0.010611816,-0.023100220,1.025264263
5.993743,-2.444374084,2.858695984,0.074516296,-0.017203614,-0.045194946,1.048091412
5.994368,-1.689064026,2.233085632,0.120292664,-0.001456543,-0.041532837,1.020259380
5.994995,-2.207862854,2.469596863,-0.604499817,0.000130371,-0.032377563,0.996821880
5.995621,-3.275978088,2.881584167,-0.390876770,0.019905761,-0.009550415,0.959224224
5.996248,-4.176246643,4.254875183,0.074516296,0.017586425,-0.010038696,0.937007427
5.996874,-3.779518127,4.735527039,0.387321472,-0.007437988,-0.018583618,0.936885357
5.997499,-2.223121643,4.231987000,0.272880554,-0.039542481,-0.036283813,0.953608990
5.999140,2.026451111,0.630912781,-0.001777649,-0.079215333,-0.073393188,0.999873638
5.999766,4.002464294,-1.009407043,0.043998718,-0.075553223,-0.076689087,1.019771099
6.000392,4.574668884,-2.161445618,-0.123847961,-0.044547364,-0.057890259,1.011226177
6.001018,3.834617615,-1.764717102,-0.169624329,0.011727051,-0.022734009,0.993892193
6.001643,1.850975037,0.218925476,0.013481140,0.068733886,0.010957398,0.957149029
6.002268,0.279319763,2.217826843,0.509391785,0.090950683,0.010835327,0.943477154
6.002895,0.027549744,4.003105164,0.555168152,0.076058105,0.013398804,0.937129498
6.003521,0.218284607,5.048332214,0.295768738,0.041023925,0.014253296,0.915889263
6.004147,0.462425232,5.353507996,0.074516296,-0.008658691,-0.007109009,0.922236919
6.004773,1.973045349,4.666862488,0.166069031,-0.061515138,-0.035673462,0.947139263
6.005400,4.605186462,3.148612976,0.471244812,-0.108268067,-0.067777954,0.993037701
6.006025,7.244956970,0.562248230,0.341545105,-0.130118653,-0.087553345,1.035640240
6.006650,9.762657166,-2.008857727,0.066886902,-0.106192872,-0.085966431,1.064204693
6.007276,9.648216248,-3.389778137,-0.345100403,-0.032340333,-0.064604126,1.050776958
6.007902,8.091819763,-2.626838684,-0.024665833,0.039192870,-0.033720337,1.042476177
6.009611,5.993736267,-0.574531555,0.341545105,0.055672362,0.107759155,1.012568951
6.010237,0.119102478,2.919731140,-0.520576477,0.116951659,0.152681023,0.895747662
6.010862,-5.938636780,8.138237000,-0.192512512,0.115608886,0.127046257,0.873164654
6.011489,-6.548988342,10.823783875,1.279960632,0.056160644,0.074311890,0.904536724
6.012114,-4.008399963,10.434684753,1.684318542,-0.037833497,-0.000273071,0.933467388
6.026410,7.916343689,-1.696052551,0.501762390,-0.124991700,-0.000028931,1.060176373
6.027109,7.855308533,-3.138008118,0.700126648,-0.106070802,-0.021147095,1.066035748
6.027782,7.237327576,-3.374519348,0.669609070,-0.043082520,-0.037260376,1.055171490
6.028407,6.939781189,-3.328742981,0.860343933,-0.011710449,-0.067655884,1.083858013
6.029173,10.922325134,-6.723823547,0.967155457,0.002327637,-0.049467407,1.146235943
6.029919,10.937583923,-7.807197571,0.188957214,0.012947754,-0.032133423,1.122554302
6.030545,9.045494080,-6.678047180,-0.177253723,0.039559081,-0.015409790,1.056514263
6.031171,6.565940857,-3.687324524,0.333915710,0.075203612,0.042939819,0.969356060
6.031797,2.140892029,0.699577332,0.631462097,0.125252441,0.130098015,0.846675396
6.032422,-1.795875549,5.300102234,1.302848816,0.128426269,0.151460320,0.813472271
6.033047,-1.750099182,7.108268738,1.951347351,0.064827636,0.094697632,0.883052349
6.033673,1.568687439,6.169853210,1.760612488,-0.014884277,0.021089233,0.937861919
6.034299,5.329978943,2.812919617,1.035820007,-0.114615723,-0.061064087,1.026851177
6.034926,9.541404724,-1.940193176,1.012931824,-0.214103028,-0.121610962,1.167109966
6.036577,15.560997009,-13.903083801,0.745903015,-0.172354981,0.013520874,1.297725201
6.037203,8.885276794,-14.193000793,-0.390876770,-0.028067872,0.080537476,1.284175396
6.037829,0.828636169,-10.462226868,-0.108589172,0.143318847,0.133149773,1.209712505
6.038454,-6.632911682,-5.007209778,0.585685730,0.252938002,0.174409539,1.091670513
6.039080,-11.553871155,-0.048103333,0.791679382,0.213387206,0.179414421,1.067134380
6.039705,-9.654151917,-0.551643372,0.974784851,0.071053222,0.153169304,1.142695904
6.040332,-5.686866760,-4.259529114,0.280509949,-0.055533692,0.152070671,1.148311138
6.040957,-5.900489807,-6.128730774,-1.695503235,-0.120108888,0.066987671,1.100947857
6.041582,-4.801856995,-6.632270813,-2.618659973,-0.150016114,-0.111479126,1.100825787
6.042209,0.599754333,-8.486213684,-1.924385071,-0.124747559,-0.166044563,1.066768169
6.042835,3.727806091,-9.455146790,-1.268257141,-0.016837403,-0.144682258,0.965327740
6.043461,6.581199646,-9.455146790,-1.245368958,0.060311034,-0.238188118,0.969722271
6.044088,11.479270935,-9.554328918,-0.993598938,0.094490722,-0.237089485,0.987422466
6.044713,17.002952576,-10.065498352,-0.848640442,0.046639159,-0.256132454,1.025020123
6.045339,20.085227966,-9.836616516,-1.329292297,0.028206542,-0.094145142,0.937373638
6.047044,-0.292884827,3.057060242,0.051628113,0.143807128,0.424409539,0.602168560
6.047671,-8.883583069,9.610710144,0.684867859,0.159920409,0.406587273,0.591304302
6.048298,-16.642677307,15.317497253,0.494132996,0.139900878,0.285493523,0.569331646
6.048925,-19.969093323,17.774162292,0.578056335,0.067146972,0.077729858,0.657710552
6.049552,-16.863929749,16.126213074,0.211845398,-0.089225098,-0.143217415,0.829463482
6.050177,-8.914100647,8.901176453,0.219474792,-0.245841309,-0.204008430,0.945674419
6.050803,-4.702674866,1.065788269,-0.200141907,-0.345694810,-0.270292610,0.997798443
6.051429,-0.796424866,-5.709114075,-1.062263489,-0.380973130,-0.342436165,1.058467388
6.052055,3.620994568,-10.446968079,-1.047004700,-0.283072740,-0.299467415,1.022212505
6.052682,4.017723083,-11.835517883,-0.619758606,-0.038810059,-0.066801392,0.864375591
6.053308,-2.200233459,-6.952705383,0.173698425,0.211189941,0.116304077,0.733394146
6.053934,-6.106483459,-0.666084290,1.417289734,0.323006362,0.119355835,0.752437115
6.054561,-3.443824768,3.446159363,1.585136414,0.282112807,0.049897827,0.807734966
6.055187,2.468955994,4.590568542,0.005851746,0.136849120,0.008515991,0.867671490
6.055812,8.168113708,2.599296570,-0.474800110,-0.077872559,-0.043730102,0.991084576
6.057468,5.520713806,-2.047004700,-0.223030090,0.015145020,0.263520867,1.084102154
6.058095,-8.425819397,6.131706238,0.768791199,0.190437987,0.160249382,1.145015240
6.058722,-10.066139221,10.930595398,2.447257996,0.218636230,-0.055326782,1.299434185
6.059348,-7.014381409,9.938774109,1.615653992,0.185921386,-0.013944946,1.265742779
6.075149,-6.098854065,10.289726257,0.303398132,-0.129752442,-0.098295532,0.997676373
6.076107,0.637901306,2.904472351,0.227104187,-0.192374513,-0.152006477,1.065303326
6.076734,3.109825134,-0.467720032,1.135002136,-0.161368653,-0.110136352,1.128047466
6.077428,3.346336365,-2.863349915,0.936637878,-0.086295411,-0.036405884,1.138545513
6.078164,0.729454041,-2.893867493,0.257621765,0.042000487,0.089570679,1.115718365
6.078937,-4.664527893,-0.162544250,0.394950867,0.126595214,0.139863640,1.089717388
6.079563,-8.242713928,2.835807800,1.081596375,0.112557128,0.157441765,1.093623638
6.080304,-7.777320862,0.691947937,0.043998718,-0.078482911,0.038057007,1.098384380
6.081026,-6.434547424,-2.146186829,-0.306953430,-0.147330567,-0.017729126,1.126216412
6.081738,-4.321205139,-5.075874329,0.173698425,-0.171378419,-0.092314087,1.148189068
6.082478,-3.008949280,-7.799568176,0.562797546,-0.093253419,0.074556030,1.084712505
6.083242,-15.284645081,-2.466621399,0.761161804,0.223763183,0.325410515,0.814570904
6.083869,-29.696571350,10.892448425,0.723014832,0.430428237,0.218232781,0.776973248
6.085492,-5.877601624,8.267936707,0.501762390,-0.341666490,-0.372343391,1.267451763
6.086119,3.979576111,-5.342903137,-1.687873840,-0.489005357,-0.247831672,1.150142193
6.086744,-0.743019104,-7.967414856,-2.160896301,-0.312491685,-0.122099243,0.964595318
6.087369,-7.105934143,-1.192512512,-0.474800110,0.045296386,0.011201538,0.831172466
6.087996,-11.530982971,7.688102722,1.112113953,0.321053237,0.093110718,0.779658794
6.088622,-12.156593323,11.823234558,1.974235535,0.349861830,0.034394898,0.829707623
6.089247,-7.998573303,10.671195984,1.684318542,0.117928222,-0.109403931,0.981563091
6.089873,-4.046546936,7.543144226,0.692497253,0.125130370,0.327241570,0.802730083
6.090499,-30.932533264,25.373039246,-2.519477844,0.206673339,0.375947624,0.585689068
6.091124,-29.551612854,29.393730164,-1.344551086,-0.224112794,0.000703491,1.067866802
6.091750,-21.586524963,11.434135437,0.059257507,-0.734488785,-0.048979126,1.071650982
6.092377,-24.279701233,-6.761970520,0.967155457,-0.736319840,-0.058866821,0.941157818
6.093003,-24.066078186,-13.849678040,0.532279968,-0.302848130,-0.103056274,0.870601177
6.093628,-21.205055237,-13.666572571,-0.886787415,0.082527831,-0.265165657,0.844478130
6.094255,-16.482460022,-9.760322571,0.028739929,0.240242675,-0.403471321,0.842769146
6.095906,-3.657447815,-8.409919739,2.294670105,-0.241080567,-0.186308235,0.699702740
6.096533,0.401390076,-12.026252747,1.752983093,-0.132560059,-0.141020149,0.713252544
6.097160,4.002464294,-13.346138000,1.836906433,0.007698731,-0.070951782,0.715083599
6.097786,6.253135681,-12.705268860,2.584587097,0.046395019,-0.044218384,0.761714458
6.098411,8.274925232,-12.018623352,3.255973816,0.016609862,-0.082426392,0.857539654
6.099041,10.746849060,-11.705818176,3.164421082,-0.036856934,-0.121366821,0.946650982
6.099668,11.128318787,-11.972846985,3.141532898,-0.047354981,-0.121733032,1.007441998
6.100295,9.938133240,-12.560310364,3.667961121,-0.024527833,-0.109892212,1.070430279
6.100922,8.908164978,-12.636604309,4.507194519,-0.008902832,-0.082304321,1.120112896
6.101547,7.931602478,-12.010993958,4.728446960,-0.010245605,-0.014433227,1.142207623
6.102172,5.459678650,-11.423530579,4.560600281,-0.024649903,0.038179077,1.145259380
6.102799,2.232444763,-10.973396301,4.827629089,-0.032950684,0.052217163,1.151240826
6.103425,-0.369178772,-11.248054504,5.155693054,-0.020011231,0.028535523,1.156489849
6.104052,-2.154457092,-10.866584778,5.148063660,-0.002311035,-0.011137329,1.140864849
6.104678,-3.649818420,-9.897651672,5.216728210,0.019783691,-0.036527954,1.120112896
6.106396,-5.580055237,-9.050788879,6.109367371,0.014046387,-0.077177368,1.070918560
6.107022,-5.862342834,-8.745613098,6.521354675,-0.011710449,-0.101591431,1.053828716
6.107647,-5.244361877,-8.676948547,6.895195007,-0.012564941,-0.126127571,1.052974224
6.108272,-4.328834534,-8.776130676,6.918083191,0.008553223,-0.104399048,1.055293560
6.108899,-3.657447815,-8.127632141,7.108818054,0.021980956,-0.063993774,1.051875591
6.109526,-4.138099670,-8.066596985,7.352958679,0.008431152,-0.039457642,1.046748638
6.123703,3.193748474,-11.370124817,10.954032898,-0.027213380,0.001191773,0.946650982
6.124416,2.858055115,-11.614265442,10.946403503,-0.029654786,0.007539429,0.942500591
6.125043,2.362144470,-12.148323059,10.999809265,-0.025016114,0.006318726,0.946895123
6.125668,2.179039001,-12.430610657,10.976921082,-0.011954590,-0.002470337,0.954219341
6.126295,1.767051697,-12.331428528,11.091362000,0.000252442,-0.008207642,0.962764263
6.126921,1.767051697,-12.094917297,11.144767761,0.000252442,-0.009062134,0.980342388
6.127547,2.095115662,-12.247505188,11.015068054,-0.009757324,-0.013944946,0.999263287
6.128174,2.163780212,-11.942329407,11.160026550,-0.006339355,-0.009794556,1.011714458
6.128799,1.782310486,-11.751594543,11.076103210,-0.001822754,0.002168335,1.016963482
6.129425,1.171958923,-11.705818176,10.938774109,-0.009024902,0.011323608,1.019038677
6.130052,0.332725525,-11.866035461,11.259208679,-0.012076660,0.016938843,1.019404888
6.130808,-0.987159729,-12.049140930,11.015068054,-0.004142090,0.027681030,1.014400005
6.131433,-1.612770081,-12.163581848,10.954032898,0.005135254,0.018769898,1.013789654
6.132060,-2.345191956,-11.805000305,10.946403503,0.015877441,0.008149780,1.015864849
6.133826,-2.398597717,-11.469306946,10.793815613,0.017098144,-0.001982056,1.031978130
6.134451,-2.360450745,-11.377754211,10.839591980,0.012825684,-0.001127563,1.036250591
6.135077,-2.596961975,-11.187019348,10.816703796,0.019417480,0.004487671,1.045161724
6.135702,-2.360450745,-10.538520813,10.885368347,0.025276855,0.009980835,1.047481060
6.136328,-2.345191956,-10.584297180,10.793815613,0.026009277,0.005464233,1.058711529
6.136954,-2.223121643,-9.897651672,10.664115906,0.029183105,0.005342163,1.070308208
6.137580,-2.223121643,-9.798469543,10.549674988,0.025032714,0.006318726,1.076167583
6.138206,-2.513038635,-9.371223450,10.793815613,0.023323730,0.011323608,1.078975201
6.138833,-3.283607483,-9.394111633,10.473381042,0.013680176,0.016572632,1.076045513
6.139458,-3.611671448,-9.005012512,10.473381042,0.015633300,0.020600952,1.073726177
6.140083,-3.977882385,-8.837165833,10.313163757,0.018318847,0.025972046,1.067134380
6.140710,-4.191505432,-8.699836731,10.198722839,0.015755370,0.030610718,1.055171490
6.141337,-4.519569397,-8.562507629,10.107170105,0.020638183,0.022676148,1.052363873
6.141963,-4.588233948,-8.348884583,10.236869812,0.022591308,0.011933960,1.051387310
6.142590,-4.305946350,-8.341255188,10.175834656,0.027474120,0.004609741,1.048457623
6.144315,-3.352272034,-7.265510559,10.000358582,0.019661620,-0.000761353,1.050654888
6.144942,-2.970802307,-7.288398743,9.878288269,0.020394042,-0.000883423,1.046016216
6.145568,-2.963172913,-6.975593567,9.901176453,0.018318847,0.004609741,1.047847271
6.146195,-2.497779846,-6.632270813,9.557853699,0.019783691,0.014253296,1.041255474
6.146821,-2.619850159,-6.662788391,9.649406433,0.015389160,0.020234741,1.033931255
6.147446,-2.795326233,-6.769599915,9.504447937,0.010994629,0.018647827,1.028926373
6.148073,-2.894508362,-6.792488098,9.222160339,0.009041504,0.013765015,1.023799419
6.148698,-2.848731995,-6.716194153,9.283195496,0.009041504,0.007051148,1.020991802
6.149325,-2.749549866,-6.807746887,9.107719421,0.010262207,0.002656616,1.018306255
6.149951,-2.360450745,-6.807746887,9.290824890,0.009773926,0.000703491,1.017329693
6.150577,-2.101051331,-6.693305969,9.168754578,0.009163574,0.002168335,1.016475201
6.151203,-1.689064026,-6.380500793,9.092460632,0.009407715,0.002290405,1.016108990
6.151828,-1.475440979,-6.540718079,8.970390320,0.011238770,-0.003080688,1.013911724
6.152455,-1.307594299,-6.403388977,8.909355164,0.008919434,-0.001249634,1.017207623
6.153082,-1.277076721,-6.349983215,9.008537292,0.006966309,-0.000273071,1.012324810
6.154779,-1.086341858,-6.189765930,8.581291199,0.006233887,0.010469116,1.016231060
6.155404,-1.193153381,-6.151618958,8.680473328,0.001839356,0.013642944,1.013179302
6.156030,-1.513587952,-6.235542297,8.489738464,0.001229004,0.012300171,1.001826763
6.156656,-1.864540100,-6.418647766,8.291374207,0.001229004,0.007051148,0.995112896
6.170483,-1.696693420,-6.998481750,7.612358093,-0.001334473,-0.000151001,0.990718365
6.171205,-1.643287659,-6.792488098,7.513175964,0.001961426,-0.002226196,0.987422466
6.171831,-1.566993713,-6.891670227,7.467399597,0.001473145,-0.005277954,0.989253521
6.172458,-1.673805237,-7.105293274,7.429252625,0.000862793,-0.006132446,0.983027935
6.173083,-1.528846741,-7.303657532,7.269035339,-0.001090332,-0.001249634,0.981196880
6.173709,-1.460182190,-7.112922668,7.322441101,-0.001944824,-0.000517212,0.980342388
6.174336,-1.292335510,-7.555427551,7.078300476,-0.002188965,-0.001615845,0.980098248
6.174962,-1.093971252,-7.517280579,7.223258972,-0.001334473,-0.008573852,0.978145123
6.175587,-1.223670959,-7.654609680,7.215629578,-0.000602051,-0.004789673,0.981929302
6.176212,-0.712501526,-7.685127258,6.872306824,0.004646973,-0.008817993,0.980098248
6.176838,-0.567543030,-7.761421204,6.940971375,0.001229004,-0.009062134,0.984858990
6.177465,-0.636207581,-7.830085754,7.208000183,-0.001578613,-0.009184204,0.992671490
6.178090,-0.620948792,-7.807197571,6.979118347,-0.003653808,-0.007353149,0.993037701
6.178715,-0.628578186,-7.761421204,6.803642273,0.004891113,-0.002592407,0.994990826
6.180452,-0.887977600,-8.135261536,6.750236511,-0.001456543,-0.009062134,0.994624615
6.181077,-0.743019104,-8.120002747,6.796012878,-0.001700683,-0.011259399,0.989619732
6.181704,-0.727760315,-8.211555481,6.826530457,0.002205567,-0.012724243,0.993525982
6.182331,-0.750648499,-8.165779114,6.673942566,0.000130371,-0.008207642,0.991939068
6.182957,-0.643836975,-8.432807922,6.750236511,0.002083496,-0.002348267,0.993525982
6.183583,-0.453102112,-8.272590637,6.475578308,0.001717285,0.004121460,0.995845318
6.184208,-0.567543030,-8.074226379,6.658683777,-0.000113769,0.003022827,0.998408794
6.184833,-0.697242737,-8.531990051,6.528984070,0.003792481,0.008515991,1.003169537
6.185458,-1.307594299,-8.364143372,6.612907410,0.007454590,-0.002714477,1.004756451
6.186083,-1.345741272,-8.493843079,6.612907410,0.004646973,-0.005888306,1.005733013
6.186709,-1.559364319,-8.570137024,6.406913757,0.002327637,-0.013334595,1.011348248
6.187336,-1.505958557,-8.364143372,6.368766785,0.004402832,-0.011137329,1.010249615
6.187962,-1.811134338,-8.409919739,6.513725281,0.009651856,-0.009062134,1.010982037
6.188589,-1.780616760,-8.425178528,6.612907410,0.009163574,-0.008451782,1.008296490
6.189214,-2.040016174,-8.310737610,6.498466492,0.005379395,-0.004911743,1.007686138
6.190916,-2.848731995,-8.470954895,6.406913757,0.002449707,-0.015776001,1.007197857
6.191542,-3.008949280,-8.219184875,6.437431335,0.007210449,-0.016142212,1.004756451
6.192168,-2.810585022,-8.486213684,6.551872253,0.009895996,-0.017851196,1.004268169
6.192793,-2.780067444,-8.295478821,6.437431335,0.007332520,-0.022245727,1.005366802
6.193419,-2.963172913,-8.211555481,6.315361023,0.005501465,-0.020170532,1.003169537
6.194044,-3.192054749,-8.127632141,6.643424988,0.004036621,-0.019560181,1.001948833
6.194669,-3.260719299,-8.470954895,6.796012878,0.003060059,-0.018339477,1.000117779
6.195295,-3.298866272,-8.402290344,6.498466492,0.001717285,-0.018705688,0.999019146
6.195921,-3.573524475,-8.196296692,6.521354675,0.004646973,-0.020536743,0.997676373
6.196547,-3.680335999,-8.181037903,6.803642273,0.006722168,-0.019438110,0.998408794
6.197172,-3.459083557,-8.425178528,6.559501648,0.004402832,-0.018461548,0.999629498
6.197797,-3.367530823,-8.120002747,6.635795593,0.002937988,-0.015287720,0.993770123
6.198422,-3.764259338,-8.562507629,6.574760437,-0.000235840,-0.019193970,0.996089458
6.199047,-3.985511780,-8.333625793,6.605278015,-0.001334473,-0.019071899,0.990840435
6.199672,-4.168617249,-8.531990051,6.841789246,0.000740723,-0.027494751,0.989619732
6.201344,-3.558265686,-8.829536438,7.002006531,0.000252442,-0.035063110,0.982173443
6.201969,-3.207313538,-8.669319153,6.902824402,0.000130371,-0.037260376,0.980708599
6.202595,-3.008949280,-8.783760071,6.857048035,-0.002433105,-0.036650024,0.976680279
6.203221,-2.650367737,-8.844795227,6.963859558,0.002449707,-0.037504517,0.975093365
6.203847,-2.284156799,-9.241523743,6.574760437,0.003182129,-0.039579712,0.980098248
6.217591,-0.254737854,-9.218635559,7.551322937,0.013802246,-0.021391235,1.013423443
6.218282,-0.140296936,-9.157600403,7.696281433,0.008431152,-0.022123657,1.022334576
6.218908,-0.102149963,-9.256782532,7.635246277,0.008919434,-0.023832642,1.023677349
6.219533,-0.102149963,-9.211006165,7.635246277,0.014900879,-0.028349243,1.029170513
6.220160,-0.025856018,-9.043159485,7.658134460,0.022347167,-0.019926392,1.029048443
6.228557,0.653160095,-7.303657532,7.536064148,0.016854003,-0.012113892,1.041377544
6.229182,0.637901306,-7.051887512,7.269035339,0.019539550,-0.013944946,1.045039654
6.229807,0.821006775,-7.273139954,7.169853210,0.024056152,-0.012113892,1.045772076
6.230432,0.897300720,-7.051887512,7.314811707,0.027474120,-0.015776001,1.043696880
6.231057,1.164329529,-6.853523254,7.276664734,0.023934081,-0.015287720,1.045894146
6.231683,1.362693787,-6.617012024,7.223258972,0.021980956,-0.018949829,1.047969341
6.232310,1.232994080,-6.784858704,7.185112000,0.024788573,-0.011503540,1.046504498
6.232937,1.324546814,-6.624641418,7.391105652,0.024544433,-0.006376587,1.046016216
6.233563,1.522911072,-6.517829895,7.246147156,0.025520995,-0.014189087,1.043818951
6.234188,1.591575623,-6.182136536,7.124076843,0.027840331,-0.014555298,1.046748638
6.234814,1.934898376,-6.052436829,7.223258972,0.030037597,-0.012846313,1.048701763
6.235440,1.957786560,-5.922737122,7.192741394,0.031624511,-0.011137329,1.050899029
6.236066,2.217185974,-5.503120422,7.124076843,0.028694823,-0.011747681,1.055049419
6.236691,2.079856873,-5.449714661,7.070671082,0.031502441,-0.011991821,1.056880474
6.237316,2.247703552,-5.335273743,7.185112000,0.033211425,-0.014921509,1.060542583
6.239006,3.308189392,-4.702033997,6.994377136,0.029061034,-0.005033813,1.073726177
6.239632,3.018272400,-4.358711243,6.979118347,0.034676269,0.003389038,1.075313091
6.240257,3.086936951,-3.862800598,6.872306824,0.037361816,-0.000151001,1.079463482
6.240883,3.086936951,-3.809394836,6.734977722,0.037483886,0.000337280,1.081904888
6.241508,3.353965759,-3.374519348,6.651054382,0.039437011,0.003022827,1.084712505
6.242133,3.216636658,-3.229560852,6.635795593,0.037972167,0.005342163,1.090327740
6.242758,3.575218201,-2.932014465,6.483207703,0.041268066,0.006440796,1.090571880
6.243384,3.384483337,-2.428474426,6.361137390,0.039192870,0.010224976,1.097285748
6.244011,3.636253357,-2.252998352,6.269584656,0.043465331,0.011201538,1.099360943
6.244636,3.636253357,-1.825752258,6.338249207,0.043099120,0.012788452,1.102534771
6.245262,3.743064880,-1.619758606,6.208549500,0.038826659,0.015229858,1.102534771
6.245888,3.750694275,-1.383247375,6.002555847,0.046883300,0.016328491,1.103145123
6.246514,3.758323669,-1.039924622,5.827079773,0.047249511,0.018281616,1.106441021
6.247140,3.857505798,-0.597419739,5.743156433,0.046517089,0.019136108,1.108760357
6.247767,3.834617615,-0.284614563,5.689750671,0.047615722,0.019502319,1.109858990
6.249450,3.979576111,0.745353699,5.354057312,0.050179198,0.022187866,1.116939068
6.250076,3.659141541,1.584587097,5.254875183,0.052498534,0.022554077,1.119014263
6.250702,3.941429138,1.798210144,5.132804871,0.050911620,0.022432007,1.118648052
6.251328,3.826988220,2.042350769,5.186210632,0.047859862,0.023652710,1.118281841
6.251953,3.727806091,2.706108093,5.109916687,0.048836425,0.025605835,1.119746685
6.252579,4.010093689,3.003654480,4.697929382,0.053475097,0.026338257,1.121211529
6.253204,3.453147888,3.362236023,4.667411804,0.052864745,0.031953491,1.119868755
6.253831,3.430259705,3.858146667,4.308830261,0.049935058,0.036836304,1.120601177
6.254457,3.292930603,4.170951843,4.392753601,0.050789550,0.036836304,1.117915630
6.255083,3.155601501,4.514274597,4.491935730,0.049446777,0.040132202,1.119868755
6.255709,2.873313904,5.155143738,3.965507507,0.049935058,0.040620483,1.116084576
6.256334,2.804649353,5.574760437,4.018913269,0.052010253,0.039888062,1.118892193
6.256959,2.850425720,5.780754089,3.934989929,0.049812987,0.036958374,1.121699810
6.257586,2.476585388,6.223258972,3.629814148,0.051033691,0.039277710,1.119868755
6.258212,2.346885681,6.780204773,3.622184753,0.048226073,0.041352905,1.115352154
6.272084,4.208457947,14.447746277,-0.451911926,0.042366698,0.010591187,1.120723248
6.272823,4.132164001,14.707145691,-0.558723450,0.046517089,0.001191773,1.121333599
6.273448,4.422080994,15.325126648,-0.612129211,0.052010253,-0.003691040,1.123775005
6.274073,4.673851013,15.798149109,-0.779975891,0.045296386,-0.008207642,1.127070904
6.274699,4.353416443,16.049919128,-0.482429504,0.045418456,-0.010404907,1.125239849
6.275324,4.391563416,16.599235535,-0.474800110,0.044930175,-0.013212524,1.129268169
6.275949,4.605186462,17.049369812,-0.505317688,0.047615722,-0.016020142,1.127925396
6.276575,4.582298279,17.522392273,-0.596870422,0.045296386,-0.016142212,1.132686138
6.277201,4.452598572,17.964897156,-0.642646790,0.043465331,-0.015409790,1.134273052
6.277828,4.979026794,18.376884460,-0.520576477,0.044075683,-0.003691040,1.137568951
6.278455,5.635154724,18.758354187,-0.795234680,0.053841308,0.001802124,1.143306255
6.279080,5.642784119,19.330558777,-0.978340149,0.056770995,0.005464233,1.138179302
6.279707,5.551231384,20.131645203,-0.596870422,0.051277831,0.005586304,1.141963482
6.280332,5.246055603,20.223197937,-0.787605286,0.047981933,0.004487671,1.145869732
6.282051,5.719078064,21.398124695,-1.054634094,0.060066894,0.001680054,1.155147076
6.282677,6.054771423,22.260246277,-1.092781067,0.056526855,0.008271851,1.155025005
6.283302,6.222618103,22.855339050,-1.359809875,0.055184081,0.018769898,1.150386333
6.283927,6.184471130,23.290214539,-1.001228333,0.060188964,0.012422241,1.149531841
6.284554,6.886375427,23.793754578,-1.420845032,0.059822753,-0.000639282,1.154170513
6.285180,7.428062439,24.312553406,-1.710762024,0.054939941,0.015718140,1.152583599
6.285806,7.328880310,24.663505554,-1.726020813,0.062630370,0.017305054,1.151607037
6.286432,7.443321228,25.197563171,-1.687873840,0.052864745,0.002412476,1.159907818
6.287059,7.717979431,25.296745300,-1.817573547,0.044075683,0.005464233,1.162349224
6.287686,8.122337341,25.907096863,-1.779426575,0.051155761,0.012910523,1.163325787
6.288311,8.915794373,26.418266296,-1.932014465,0.058602050,0.030610718,1.159785748
6.288937,9.251487732,26.906547546,-2.351631165,0.067513183,0.030366577,1.152949810
6.289562,10.037315369,27.371940613,-2.458442688,0.060921386,0.012056030,1.153804302
6.290187,10.105979919,27.799186707,-2.427925110,0.047615722,0.020845093,1.145381451
6.290812,10.479820251,27.745780945,-2.534736633,0.048470214,0.016938843,1.133906841
6.292538,13.890159607,28.897819519,-3.366340637,0.047981933,0.013520874,1.118159771
6.293165,14.965904236,28.897819519,-3.129829407,0.035652831,0.009614624,1.122432232
6.293790,16.079795837,28.592643738,-3.435005188,0.026985839,0.014497437,1.113154888
6.294417,17.323387146,28.531608582,-3.747810364,0.026741698,0.045137085,1.105952740
6.295043,14.531028748,30.538139343,-3.717292786,0.137581542,0.219453484,1.046138287
6.295670,12.020957947,32.712516785,-3.755439758,0.070442870,0.090058960,1.114131451
6.296297,13.272178650,31.972465515,-4.754890442,-0.036734864,0.011933960,1.156611919
6.296922,15.011680603,29.325065613,-5.349983215,-0.077628419,-0.000395142,1.133174419
6.297547,16.415489197,26.631889343,-5.594123840,-0.081534669,-0.017607056,1.135737896
6.298174,18.032920837,24.594841003,-5.609382629,-0.072135255,-0.007841431,1.127070904
6.298799,20.192039490,22.847709656,-5.990852356,-0.042105958,-0.020414673,1.113765240
6.299424,22.183311462,21.817741394,-6.616462708,0.004646973,-0.024320923,1.094111919
6.300049,23.564231873,21.092948914,-6.906379700,0.026375487,-0.022245727,1.071773052
6.300676,24.624717712,21.131095886,-6.883491516,0.038948730,-0.012602173,1.053828716
6.301303,26.127708435,21.489677429,-7.203926086,0.019539550,-0.011259399,1.073970318
6.303014,30.354393005,19.475517273,-7.898200989,-0.016959473,0.070405640,1.067378521
6.303641,30.499351501,19.116935730,-8.066047668,-0.004264160,0.081880249,1.075068951
6.304268,32.231224060,18.132743835,-8.279670715,-0.040885255,0.079072632,1.169307232
6.304895,36.839378357,13.921318054,-8.416999817,-0.058463380,0.043306030,1.205073833
6.305521,36.656272888,12.555656433,-10.324348450,0.078865722,0.100923218,1.078731060
6.319310,-4.572975159,-23.806037903,-10.911811829,0.027962402,-0.583647072,-1.056156635
6.320020,19.482505798,-24.187507629,-11.148323059,-0.012442871,-0.489164680,-0.826420307
6.320647,41.363609314,-26.133003235,-12.971748352,-0.069571778,-0.313017219,-0.496586323
6.321274,57.171714783,-27.681770325,-11.964668274,-0.041861817,-0.174223274,-0.119511127
6.321899,66.800010681,-27.895393372,-9.996284485,0.020760253,-0.103178345,0.308833599
6.322526,71.843040466,-24.691047668,-9.851325989,0.158455566,-0.265531868,0.779658794
6.323152,76.329124451,-14.246406555,-10.385383606,0.431771010,-0.632108986,1.341548443
6.323777,78.923118591,2.629814148,-9.195198059,0.548714340,-0.775663674,1.834956646
6.324403,74.292076111,15.203056335,-8.096565247,0.435433120,-0.550566018,2.161616802
6.325028,62.596214294,17.003593445,-9.744514465,0.252327651,-0.134672493,2.358394146
6.325654,48.855674744,11.029777527,-10.942329407,0.028694823,0.380952507,2.483882427
6.326280,34.840476990,1.798210144,-9.706367493,-0.224967286,0.709199607,2.554683208
6.326905,22.999656677,-6.868782043,-9.157051086,-0.394645005,0.871553123,2.579585552
6.327531,11.670005798,-12.545051575,-10.339607239,-0.400016099,0.904512107,2.561152935
6.329296,-32.313453674,-5.236091614,-12.399543762,0.414925307,0.261445671,2.318110943
6.329922,-46.733009338,2.095756531,-11.773933411,0.616829574,-0.009306274,2.168208599
6.330549,-57.238685608,9.358940125,-11.514533997,0.591927230,-0.164091438,1.974483013
6.331175,-62.571632385,14.363822937,-11.239875793,0.377327651,-0.184110969,1.740474224
6.331800,-62.823402405,16.400871277,-11.018623352,0.049935058,-0.147856086,1.482051373
6.332427,-58.749305725,15.256462097,-11.010993958,-0.250479966,-0.140043586,1.230952740
6.333052,-51.539527893,11.968193054,-10.606636047,-0.408316880,-0.216825813,0.993770123
6.333678,-42.628395081,7.871208191,-10.133613586,-0.396476060,-0.341825813,0.768062115
6.334303,-33.198463440,2.973136902,-10.064949036,-0.280265123,-0.428495735,0.552730083
6.334930,-23.806678772,-1.657905579,-10.202278137,-0.121939942,-0.447172493,0.354121685
6.335556,-14.597999573,-5.937995911,-9.782661438,-0.001822754,-0.417387336,0.183101177
6.336183,-5.190956116,-8.036079407,-8.981575012,0.041145995,-0.384794563,0.052485943
6.336809,3.056419373,-7.830085754,-8.409370422,0.002937988,-0.376005501,-0.032597065
6.337434,9.373558044,-5.312385559,-7.623542786,-0.069327638,-0.353056282,-0.072514057
6.338059,13.432395935,-2.588691711,-6.601203918,-0.143912598,-0.288725227,-0.077763081
6.339716,17.643821716,-3.046455383,-5.227912903,-0.224845216,-0.095487915,0.013667583
6.340341,19.589317322,-6.754341125,-4.716743469,-0.239737794,-0.039823852,0.098018169
6.340968,21.382225037,-11.011543274,-4.526008606,-0.238395020,-0.040922485,0.207026958
6.341594,22.915733337,-14.490547180,-4.419197083,-0.205558106,-0.073637329,0.324824810
6.342219,24.014366150,-16.092720032,-3.892768860,-0.148429200,-0.111479126,0.455562115
6.342844,24.777305603,-15.924873352,-2.855171204,-0.012687012,-0.120390259,0.716304302
6.343471,24.777305603,-15.924873352,-2.855171204,-0.012687012,-0.120390259,0.716304302
6.344097,25.944602966,-15.612068176,-2.710212708,0.049568847,-0.044706665,0.964839458
6.344723,26.951683044,-15.009346008,-2.565254211,0.033089355,-0.006986938,1.080806255
6.345349,26.905906677,-13.575019836,-2.412666321,-0.023673341,0.055513062,1.182857037
6.345976,24.876487732,-12.186470032,-2.664436340,-0.080680177,0.138398796,1.248897076
6.346601,19.230735779,-12.377204895,-3.190864563,-0.103507325,0.204072624,1.289058208
6.347228,11.967552185,-14.200630188,-3.236640930,-0.069571778,0.207612664,1.317256451
6.347853,4.887474060,-15.680732727,-2.725471497,-0.017081544,0.169282585,1.341182232
6.348479,-1.330482483,-16.214790344,-2.519477844,0.007088379,0.143891960,1.333613873
6.350172,-12.980567932,-16.451301575,-3.229011536,-0.020499513,0.151338249,1.249263287
6.350799,-17.520057678,-15.917243958,-3.023017883,-0.019278809,0.110200562,1.196650982
6.351426,-20.945655823,-14.681282043,-2.626289368,0.003182129,0.037568726,1.149653912
6.365276,-0.201332092,11.319694519,0.799308777,0.135018066,-0.014067017,1.574946880
6.365976,-0.918495178,12.776908875,0.593315125,0.119759277,0.005586304,1.536372662
6.366601,-0.872718811,13.501701355,0.417839050,0.112923339,0.024873413,1.498775005
6.367227,-0.346290588,14.051017761,0.249992371,0.116219237,0.035371460,1.456294537
6.367853,0.553977966,14.890251160,0.196586609,0.123177245,0.029023804,1.419185162
6.368478,1.286399841,16.248283386,0.196586609,0.135750487,0.027558960,1.385249615
6.369103,1.431358337,18.086967468,-0.070442200,0.146248534,0.028901733,1.350337505
6.369728,1.347434998,20.284233093,-0.062812805,0.156502441,0.034028687,1.325801373
6.370355,0.843894958,22.962150574,0.082145691,0.158211425,0.045503296,1.297969341
6.370982,0.248802185,25.083122253,-0.154365540,0.148201659,0.052705444,1.275874615
6.371608,-0.315773010,27.356681824,0.066886902,0.120369628,0.061616577,1.255977154
6.372233,-1.628028870,29.058036804,-0.306953430,0.060555175,0.090547241,1.226802349
6.372902,-3.504859924,30.004081726,-0.406135559,-0.126578614,0.180146843,1.161372662
6.373644,-6.922828674,29.607353210,-1.138557434,-0.381461412,0.335420281,1.026607037
6.375555,-36.181556702,6.452140808,-3.320564270,-0.424430162,0.164277703,0.385615826
6.376255,-44.016944885,-0.841560364,-2.832283020,-0.306754380,-0.063627563,0.149165630
6.376958,-46.229469299,-3.977241516,-2.626289368,-0.248282716,-0.158720344,-0.121098042
6.377626,-45.947181702,-5.602302551,-3.045906067,-0.259391099,-0.117582642,-0.422977924
6.378326,-43.582069397,-8.577766418,-2.748359680,-0.249869630,-0.132841438,-0.675785542
6.379015,-22.410499573,-10.363044739,0.051628113,-0.115592286,-0.432768196,-0.831547260
6.379670,-5.900489807,-10.530891418,0.478874207,-0.102652833,-0.493070930,-0.776493549
6.380329,10.197532654,-11.980476379,0.967155457,-0.103019044,-0.501005471,-0.602543354
6.380956,25.318992615,-13.407173157,0.845085144,-0.103019044,-0.492826790,-0.369633198
6.381581,39.219749451,-13.735237122,1.852165222,-0.041007325,-0.445463508,-0.038944721
6.382208,50.877464294,-12.690010071,3.217826843,0.035530761,-0.430815071,0.317500591
6.382833,60.208213806,-10.065498352,3.484855652,0.111702636,-0.396025032,0.699214458
6.383460,65.831077576,-6.311836243,3.507743835,0.138680175,-0.300199836,1.039180279
6.384085,66.258323669,-4.290046692,3.027091980,0.127205566,-0.129545540,1.324336529
6.385745,55.470359802,-4.076423645,3.774772644,0.080330566,0.151216179,1.789424419
6.386370,46.772850037,-3.336372375,3.652702332,0.022591308,0.308198601,1.951411724
6.386995,36.480796814,-3.015937805,3.156791687,-0.025138184,0.481782585,2.050532818
6.387621,24.083030701,-3.710212708,2.325187683,-0.021598145,0.592500389,2.116206646
6.388246,11.387718201,-4.381599426,2.050529480,0.031014159,0.592378318,2.160151958
6.388872,-0.483619690,-3.885688782,2.027641296,0.094124511,0.511201560,2.183345318
6.389498,-11.500465393,-2.115669250,1.737724304,0.147103027,0.397431999,2.174678326
6.390125,-22.029029846,0.035820007,0.967155457,0.183602050,0.279267937,2.126094341
6.390750,-31.367408752,2.080497742,0.646720886,0.193978027,0.173066765,2.047603130
6.391377,-38.096534729,3.896293640,0.417839050,0.164925292,0.089204468,1.938594341
6.392002,-41.491615295,4.773674011,0.562797546,0.099617675,0.023774780,1.797847271
6.392627,-41.735755920,4.552421570,0.143180847,0.013924317,-0.027250610,1.630366802
6.393252,-40.209877014,3.331718445,-0.482429504,-0.044059083,-0.076200806,1.449580669
6.393877,-36.608802795,1.554069519,-0.490058899,-0.064200684,-0.115873657,1.257808208
6.394503,-31.886207581,-0.017585754,-0.436653137,-0.054557130,-0.144926399,1.065547466
6.396169,-15.139686584,-0.795783997,-0.757087708,0.062386230,-0.146269172,0.562861919
6.396794,-9.844886780,0.371513367,-0.581611633,0.064827636,-0.113798462,0.439692974
6.397421,-5.404579163,1.836357117,-0.596870422,0.034554198,-0.086210571,0.344478130
6.398047,-1.719581604,3.079948425,-0.612129211,-0.020133302,-0.067533813,0.277461529
6.398672,1.042259216,4.018363953,-0.421394348,-0.079215333,-0.054838501,0.245479107
6.399299,2.995384216,3.491935730,-0.276435852,-0.131705567,-0.039945923,0.245723248
6.412996,-10.150062561,-12.079658508,0.791679382,0.070564941,0.010591187,1.062739849
6.413700,-10.600196838,-11.682929993,0.814567566,0.076668456,0.000825562,1.056514263
6.414326,-9.829627991,-11.309089661,0.837455750,0.080696777,-0.024809204,1.057490826
6.414952,-7.945167542,-10.065498352,0.959526062,0.088387206,-0.057401977,1.072627544
6.415577,-5.549537659,-8.188667297,1.005302429,0.095101073,-0.089750610,1.093257427
6.416204,-2.650367737,-6.121101379,1.203666687,0.097786620,-0.099394165,1.125850201
6.416830,-0.086891174,-4.610481262,1.089225769,0.097908691,-0.093412720,1.155391216
6.417456,1.782310486,-3.900947571,1.340995789,0.097298339,-0.071317993,1.186641216
6.418082,3.277671814,-3.542366028,1.196037292,0.084358886,-0.051664673,1.224238873
6.418708,4.109275818,-3.473701477,1.371513367,0.069466308,-0.035307251,1.264644146
6.419334,4.956138611,-2.932014465,1.272331238,0.056648925,-0.020170532,1.305415630
6.419960,5.192649841,-2.344551086,1.218925476,0.048958495,0.004487671,1.339717388
6.420586,4.933250427,-1.589241028,1.096855164,0.059456542,0.020478882,1.373286724
6.421213,4.490745544,-0.971260071,0.898490906,0.077156737,0.030610718,1.402583599
6.422982,3.651512146,1.576957703,0.745903015,0.108650878,0.023286499,1.445918560
6.423609,2.873313904,2.416191101,0.257621765,0.103035644,0.021699585,1.450191021
6.424234,2.293479919,3.408012390,0.356803894,0.092903808,0.026094116,1.442500591
6.424860,1.644981384,4.231987000,0.082145691,0.082649902,0.031098999,1.431758404
6.425485,1.118553162,5.033073425,-0.017036438,0.073738769,0.030854858,1.413447857
6.426111,0.859153748,5.918083191,-0.017036438,0.075569823,0.022798218,1.384150982
6.426738,0.607383728,6.421623230,-0.100959778,0.079231933,0.022065796,1.355342388
6.427363,0.592124939,6.688652039,-0.398506165,0.080940917,0.024263062,1.320796490
6.427989,0.721824646,7.154045105,-0.627388000,0.082894042,0.033052124,1.283687115
6.428616,0.935447693,7.619438171,-0.612129211,0.080940917,0.035371460,1.246821880
6.429241,1.492393494,8.458671570,-0.818122864,0.079354003,0.043061890,1.210078716
6.429867,1.530540466,9.831962585,-0.841011047,0.080086425,0.048188843,1.180537701
6.430493,1.370323181,11.365470886,-0.985969543,0.085457519,0.043183960,1.152827740
6.431119,0.912559509,12.799797058,-1.184333801,0.090340331,0.042573608,1.128657818
6.431745,0.363243103,14.340934753,-1.161445618,0.089729980,0.044648804,1.109614849
6.433441,-1.208412170,16.614494324,-1.489509583,0.028694823,0.062226929,1.048945904
6.434066,-1.803504944,16.675529480,-1.870979309,0.002205567,0.063935913,1.021358013
6.434692,-2.703773499,16.439018250,-2.092231750,-0.022330567,0.066255249,0.998897076
6.435317,-3.443824768,15.943107605,-2.138008118,-0.037955567,0.064912476,0.967036724
6.435942,-4.641639709,15.615043640,-2.221931458,-0.046622559,0.076020874,0.933589458
6.436568,-5.519020081,14.623222351,-2.290596008,-0.050528809,0.078950562,0.894282818
6.437193,-6.373512268,13.829765320,-2.473701477,-0.060416505,0.080903687,0.859248638
6.437818,-7.075416565,13.570365906,-2.778877258,-0.112662598,0.097139038,0.804927349
6.438443,-8.486854553,12.670097351,-2.900947571,-0.216178223,0.127778679,0.730098248
6.439069,-10.951148987,11.212882996,-3.389228821,-0.274039537,0.139253289,0.632197857
6.439695,-15.101539612,7.772026062,-3.679145813,-0.277213365,0.110810913,0.520869732
6.440322,-20.152198792,3.102836609,-3.709663391,-0.238883302,0.011567749,0.420650005
6.440948,-22.990333557,-1.245918274,-3.122200012,-0.187003419,-0.114408813,0.334712505
6.441574,-22.173988342,-3.405036926,-2.603401184,-0.158683106,-0.186186165,0.241939068
6.442200,-19.175636292,-4.770698547,-2.702583313,-0.165396973,-0.180082649,0.145991802
6.443835,-10.760414124,-8.341255188,-1.710762024,-0.132437989,-0.193144172,0.060298443
6.444461,-3.085243225,-8.623542786,-1.031745911,-0.064566895,-0.256986946,0.105098248
6.445086,5.452049255,-8.158149719,-0.665534973,-0.016349122,-0.265776008,0.189082623
6.445713,13.264549255,-7.372322083,-0.306953430,0.017830566,-0.242704719,0.306514263
6.460773,-1.155006409,4.468498230,-0.322212219,-0.064811036,-0.029569946,0.731441021
6.461471,-0.331031799,3.629264832,-0.291694641,-0.075797364,-0.016996704,0.678706646
6.462098,-0.086891174,2.378044128,-0.429023743,-0.098380372,0.006684937,0.629878521
6.462724,-0.361549377,1.157341003,-0.337471008,-0.121451661,0.029390015,0.583858013
6.463351,-0.964271545,0.020561218,-0.474800110,-0.130851075,0.040986694,0.545527935
6.463977,-1.650917053,-1.245918274,-0.474800110,-0.126822755,0.033418335,0.519526958
6.464603,-1.879798889,-2.283515930,-0.322212219,-0.113639161,0.015718140,0.502681255
6.465230,-1.597511292,-3.595771790,-0.078071594,-0.101554200,-0.004667602,0.497310162
6.465855,-0.681983948,-4.213752747,-0.009407043,-0.089835450,-0.028227173,0.499629498
6.466481,0.866783142,-5.381050110,-0.177253723,-0.074210450,-0.060819946,0.522944927
6.467106,3.460777283,-5.922737122,0.227104187,-0.047110841,-0.099027954,0.561641216
6.467731,6.886375427,-5.983772278,0.471244812,-0.026480958,-0.131620735,0.619868755
6.468357,10.182273865,-5.876960754,0.661979675,-0.010855957,-0.136991829,0.688716412
6.468983,13.409507751,-5.724372864,0.761161804,-0.000602051,-0.120512329,0.766475201
6.470744,19.001853943,-4.877510071,0.799308777,0.035164550,-0.017240845,1.037105083
6.477926,-16.085731506,-4.435005188,0.112663269,0.007454590,0.030732788,1.179683208
6.478552,-16.764747620,-4.587593079,-0.184883118,0.025643066,-0.009550415,1.123286724
6.479178,-15.887367249,-4.602851868,-0.070442200,0.040779784,-0.042387329,1.073726177
6.480895,-7.601844788,-2.558174133,0.333915710,0.065926269,-0.112455688,0.963496685
6.481520,-3.787147522,-1.215400696,0.135551453,0.074715331,-0.119169556,0.952266216
6.482145,-0.079261780,-0.276985168,0.326286316,0.076180175,-0.110014282,0.952022076
6.482770,2.880943298,0.943717957,0.333915710,0.068001464,-0.092314087,0.966304302
6.483395,5.543601990,1.683769226,0.433097839,0.055794433,-0.063993774,0.990230083
6.484020,7.290733337,2.439079285,0.341545105,0.042000487,-0.031523071,1.022822857
6.484647,8.671653748,2.683219910,0.440727234,0.024544433,-0.001737915,1.061397076
6.485273,8.740318298,3.285942078,0.402580261,0.013558106,0.024140991,1.095820904
6.485898,8.679283142,3.133354187,0.272880554,0.005135254,0.045259155,1.126948833
6.486525,7.771385193,3.354606628,0.181327820,0.003548340,0.053682007,1.160029888
6.487151,6.321800232,3.072319031,0.127922058,0.007210449,0.060395874,1.185176373
6.487777,5.131614685,3.133354187,0.105033875,0.007942871,0.053926148,1.201411724
6.488403,3.552330017,2.744255066,-0.085700989,0.005135254,0.053926148,1.204829693
6.489029,1.988304138,2.843437195,-0.131477356,0.003060059,0.052461304,1.204097271
6.489656,0.531089783,2.317008972,-0.154365540,0.000252442,0.043428101,1.192744732
6.491326,-2.055274963,1.866874695,-0.573982239,0.002083496,0.019746460,1.113765240
6.491953,-2.070533752,1.676139832,-0.459541321,0.006722168,0.015107788,1.078364849
6.492578,-1.795875549,1.485404968,-0.429023743,0.014534668,0.005708374,1.046626568
6.493203,-1.536476135,1.554069519,-0.627388000,0.025520995,0.001924194,1.016108990
6.493828,-0.933753967,2.164421082,-0.474800110,0.037361816,-0.004911743,0.988521099
6.494454,-0.552284241,3.041801453,-0.429023743,0.043221191,-0.000883423,0.972285748
6.495080,0.126731873,4.148063660,-0.314582825,0.044197753,0.006684937,0.955440044
6.495706,0.531089783,5.086479187,-0.490058899,0.038460448,0.021699585,0.947139263
6.496331,0.828636169,5.956230164,-0.375617981,0.016487792,0.037324585,0.944331646
6.496956,0.714195251,6.665763855,-0.306953430,-0.023307130,0.053437866,0.935298443
6.497582,-0.186073303,6.940422058,-0.711311340,-0.059439942,0.063081421,0.926875591
6.498208,-1.734840393,6.276664734,-0.772346497,-0.083731934,0.058198608,0.902583599
6.498834,-4.077064514,5.017814636,-0.886787415,-0.096915528,0.044770874,0.884639263
6.499461,-6.419288635,3.324089050,-0.673164368,-0.097159669,0.022065796,0.860713482
6.500088,-8.113014221,1.721916199,-0.688423157,-0.099723145,0.006684937,0.824214458
6.501727,-9.165870667,-1.467170715,-0.619758606,-0.102896973,0.005342163,0.741572857
6.515477,-7.769691467,-0.391426086,-0.467170715,0.012215332,0.024873413,1.155879498
6.516154,-7.952796936,-0.254096985,-0.245918274,0.005989746,0.007905640,1.107173443
6.516780,-7.777320862,-0.284614563,-0.429023743,0.003304199,-0.011991821,1.057124615
6.517406,-6.861793518,-0.170173645,-0.635017395,-0.004020019,-0.030302368,1.006953716
6.518032,-5.999671936,-0.032844543,-0.436653137,-0.006827637,-0.037504517,0.959590435
6.518657,-4.542457581,-0.223579407,-0.329841614,-0.005484863,-0.046049438,0.921260357
6.519282,-3.337013245,-0.185432434,-0.535835266,-0.003287598,-0.053984009,0.884517193
6.519908,-2.238380432,0.203666687,-0.238288879,-0.002188965,-0.051786743,0.854365826
6.520535,-1.200782776,0.531730652,-0.291694641,-0.003653808,-0.049223267,0.829951763
6.521161,-0.422584534,0.531730652,-0.085700989,-0.011832519,-0.041654907,0.816890240
6.521787,0.134361267,0.798759460,-0.001777649,-0.023185059,-0.034330688,0.810908794
6.522412,0.347984314,0.936088562,-0.001777649,-0.031852052,-0.026518188,0.808589458
6.523041,0.683677673,0.974235535,0.120292664,-0.040763184,-0.021757446,0.811397076
6.523668,1.286399841,0.531730652,0.028739929,-0.046012208,-0.013090454,0.816279888
6.524294,1.210105896,0.051078796,0.303398132,-0.049674317,-0.009794556,0.825679302
6.525935,2.011192322,-2.077522278,0.341545105,-0.047477052,-0.007475220,0.871699810
6.526562,2.552879333,-2.764167786,0.433097839,-0.036979005,-0.006620727,0.885371685
6.527189,2.850425720,-2.993049622,0.539909363,-0.022330567,-0.008329712,0.905513287
6.527814,3.064048767,-3.260078430,0.410209656,-0.012564941,-0.004667602,0.927241802
6.528439,3.704917908,-3.405036926,0.394950867,-0.001334473,-0.001737915,0.953242779
6.529066,3.819358826,-3.168525696,0.433097839,0.014290527,0.003144898,0.980708599
6.529691,4.353416443,-2.603950500,0.379692078,0.025520995,-0.002226196,1.008052349
6.530316,4.353416443,-1.833381653,0.547538757,0.033943847,-0.001249634,1.040156841
6.530942,4.277122498,-1.284065247,0.562797546,0.032234862,0.000093140,1.070430279
6.531568,4.071128845,-0.597419739,0.440727234,0.029427245,0.006807007,1.101069927
6.532194,3.498924255,-0.215950012,0.387321472,0.026375487,0.012422241,1.125606060
6.532819,2.972496033,0.028190613,0.311027527,0.019051269,0.018647827,1.148311138
6.533445,2.179039001,0.363883972,0.288139343,0.009407715,0.024018921,1.164424419
6.534070,1.149070740,0.318107605,0.326286316,-0.000113769,0.030244507,1.173579693
6.534695,0.065696716,0.226554871,0.249992371,-0.005973144,0.034516968,1.176143169
6.536331,-3.062355042,-0.582160950,0.188957214,0.004158692,0.018037476,1.148555279
6.536957,-3.558265686,-0.635566711,0.219474792,0.017708495,0.010224976,1.128657818
6.537584,-3.909217834,-0.627937317,0.059257507,0.018929198,0.005342163,1.108638287
6.538211,-4.038917542,-0.322761536,0.211845398,0.021248534,-0.003202759,1.087886333
6.538838,-4.008399963,-0.025215149,0.173698425,0.024056152,-0.008940063,1.063838482
6.539465,-3.649818420,0.485954285,0.249992371,0.021980956,-0.014433227,1.046382427
6.540140,-3.184425354,0.592765808,0.257621765,0.017830566,-0.017118774,1.023921490
6.540801,-2.726661682,1.134452820,0.043998718,0.013313965,-0.020658813,1.002315044
6.541428,-1.879798889,1.233634949,0.318656921,0.012581543,-0.022611938,0.990474224
6.542066,-1.307594299,1.142082214,0.326286316,0.005745606,-0.019804321,0.975215435
6.542692,-0.559913635,1.210746765,0.188957214,-0.001578613,-0.020170532,0.970210552
6.543317,0.058067322,1.210746765,0.349174500,-0.005606933,-0.014311157,0.960444927
6.543944,0.561607361,1.325187683,0.181327820,-0.005729004,-0.012113892,0.954829693
6.544569,0.866783142,1.004753113,0.211845398,-0.011466308,-0.006742798,0.951777935
6.546329,0.973594666,0.592765808,0.242362976,-0.017081544,0.007539429,0.945918560
6.546956,0.706565857,0.470695496,0.097404480,-0.017081544,0.009126343,0.942988873
6.547583,0.729454041,0.234184265,0.082145691,-0.016227052,0.008271851,0.942012310
6.548208,0.523460388,0.058708191,-0.070442200,-0.013297363,0.007783569,0.946040630
6.548875,0.630271912,-0.063362122,0.028739929,-0.015128418,0.001680054,0.950679302
6.549538,1.095664978,-0.086250305,0.112663269,-0.010489746,0.002534546,0.954829693
6.563620,-2.230751038,0.386772156,-0.161994934,-0.000602051,-0.026274048,0.952632427
6.564311,-1.895057678,0.600395203,-0.139106750,-0.007437988,-0.033476196,0.946528912
6.564937,-1.429664612,0.554618835,-0.139106750,-0.009391113,-0.032621704,0.938960552
6.565562,-0.743019104,0.409660339,-0.200141907,-0.012076660,-0.032499634,0.939692974
6.566187,-0.147926331,0.386772156,-0.177253723,-0.013053223,-0.034818970,0.937373638
6.566812,0.500572205,0.157890320,-0.039924622,-0.017569825,-0.034330688,0.940059185
6.567437,1.049888611,0.043449402,0.036369324,-0.015860841,-0.029081665,0.942134380
6.568064,1.294029236,-0.070991516,0.036369324,-0.017936036,-0.029081665,0.949580669
6.568689,1.583946228,-0.078620911,-0.108589172,-0.014762207,-0.025419556,0.956416607
6.569315,1.965415955,-0.360908508,0.257621765,-0.012931152,-0.022734009,0.964595318
6.569941,2.110374451,-0.589790344,0.089775085,-0.010123535,-0.014189087,0.972041607
6.570567,2.392662048,-0.620307922,0.249992371,-0.011100098,-0.011259399,0.982417583
6.571193,2.148521423,-0.673713684,0.265251160,-0.010001465,-0.007841431,0.992427349
6.571819,2.385032654,-0.910224915,0.303398132,-0.006583496,-0.003568970,0.998042583
6.573594,2.079856873,-1.070442200,0.326286316,-0.007315918,0.004487671,1.014277935
6.574219,2.056968689,-1.123847961,0.196586609,-0.005240723,0.004121460,1.023799419
6.574845,1.797569275,-0.971260071,-0.001777649,-0.002066894,0.008515991,1.028071880
6.575472,1.530540466,-1.261177063,0.372062683,0.000618652,0.012788452,1.028926373
6.576099,1.370323181,-1.169624329,0.028739929,0.006111817,0.008271851,1.033320904
6.576726,0.996482849,-0.841560364,0.120292664,0.007942871,0.011689819,1.032222271
6.577352,0.866783142,-0.978889465,-0.161994934,0.007454590,0.007051148,1.036006451
6.577978,0.088584900,-0.238838196,0.120292664,0.008064942,0.004853882,1.035518169
6.578603,0.088584900,-0.238838196,0.120292664,0.008064942,0.004853882,1.035518169
6.579228,-0.796424866,-0.078620911,-0.055183411,0.005745606,-0.001249634,1.035518169
6.579853,-0.613319397,-0.048103333,-0.192512512,0.003182129,-0.003446899,1.030757427
6.580478,-0.926124573,-0.032844543,0.028739929,-0.000235840,-0.002226196,1.023677349
6.581104,-1.155006409,0.043449402,-0.039924622,-0.001944824,-0.005766235,1.022334576
6.581729,-1.399147034,-0.002326965,-0.169624329,-0.003043457,-0.011625610,1.017451763
6.582355,-1.200782776,-0.139656067,0.036369324,-0.004142090,-0.010160767,1.008296490
6.584031,-1.116859436,-0.620307922,-0.253547668,-0.008170410,-0.007475220,0.996333599
6.584657,-1.017677307,-0.597419739,0.043998718,-0.003653808,-0.008329712,0.990474224
6.585284,-0.819313049,-0.948371887,-0.116218567,-0.000235840,-0.008817993,0.984614849
6.585910,-0.712501526,-0.795783997,-0.017036438,-0.000724121,-0.009916626,0.980098248
6.586536,-0.369178772,-0.780525208,-0.070442200,0.001595215,-0.012235962,0.977900982
6.587163,-0.186073303,-0.658454895,0.051628113,0.001229004,-0.011503540,0.974727154
6.587788,0.042808533,-0.681343079,0.089775085,0.003548340,-0.010404907,0.974238873
6.588413,0.134361267,-0.360908508,0.036369324,0.000496582,-0.013700806,0.975093365
6.589042,0.599754333,-0.399055481,0.181327820,0.001351074,-0.010404907,0.980708599
6.589668,0.775230408,-0.612678528,0.280509949,0.000252442,-0.014067017,0.982417583
6.590295,1.019371033,-0.238838196,0.135551453,-0.002555176,-0.014677368,0.989619732
6.590922,1.179588318,-0.322761536,0.112663269,0.000618652,-0.013944946,0.994990826
6.591549,1.294029236,-0.353279114,0.234733582,0.004769043,-0.010771118,1.004024029
6.592174,1.515281677,-0.452461243,0.188957214,0.003670410,-0.010282837,1.009883404
6.592799,1.515281677,-0.231208801,0.150810242,0.005867676,-0.009062134,1.017451763
6.594470,1.904380798,-0.322761536,0.059257507,0.007576660,-0.004057251,1.036128521
6.595168,1.339805603,-0.208320618,0.211845398,0.008675293,0.001557983,1.042598248
6.595865,1.133811951,-0.124397278,0.150810242,0.013436035,0.004121460,1.049312115
6.596548,1.362693787,0.005302429,0.257621765,0.010750488,0.003877319,1.048701763
6.610664,0.172508240,0.157890320,0.105033875,-0.005240723,-0.012724243,0.959102154
6.611290,0.500572205,0.119743347,-0.146736145,-0.001090332,-0.009794556,0.961177349
6.611915,0.592124939,0.127372742,0.143180847,-0.001822754,-0.006620727,0.965571880
6.612541,0.721824646,0.310478210,0.288139343,-0.003409668,-0.002592407,0.966426373
6.613166,0.813377380,-0.063362122,0.120292664,-0.003287598,-0.003813110,0.973872662
6.613792,0.965965271,0.119743347,-0.009407043,-0.003409668,-0.002470337,0.978267193
6.614419,0.981224060,0.028190613,0.211845398,-0.003531738,-0.000761353,0.981563091
6.615044,1.110923767,-0.017585754,0.135551453,-0.002066894,-0.002592407,0.985957623
6.615670,0.859153748,0.142631531,0.112663269,-0.000235840,0.000215210,0.992305279
6.616296,0.828636169,0.012931824,0.234733582,-0.002188965,-0.001859985,0.997188091
6.616921,0.821006775,-0.040473938,0.043998718,-0.003287598,0.001069702,1.002559185
6.617547,0.782859802,-0.154914856,0.204216003,-0.000235840,0.000093140,1.007075787
6.618172,0.798118591,-0.124397278,-0.032295227,-0.001212402,0.003511108,1.006831646
6.618799,0.439537048,-0.208320618,0.097404480,-0.001212402,-0.000395142,1.013789654
6.619424,0.485313416,-0.070991516,0.074516296,-0.003043457,0.004975952,1.017573833
6.621099,-0.094520569,-0.063362122,0.188957214,-0.003775879,0.002534546,1.018306255
6.621724,-0.002967834,-0.261726379,0.089775085,-0.002188965,0.003266968,1.018672466
6.622350,0.042808533,-0.315132141,-0.146736145,-0.001212402,-0.001249634,1.014522076
6.622976,-0.559913635,-0.070991516,0.043998718,-0.002555176,-0.000639282,1.013423443
6.623601,-0.399696350,-0.208320618,-0.009407043,-0.001822754,0.003389038,1.013423443
6.624227,-0.292884827,-0.414314270,-0.070442200,-0.003409668,0.000215210,1.011348248
6.624852,-0.514137268,-0.093879700,0.150810242,-0.007315918,0.001313843,1.010005474
6.625478,-0.544654846,-0.284614563,-0.100959778,-0.003897949,-0.000028931,1.006099224
6.626104,-0.514137268,-0.338020325,-0.161994934,-0.004264160,-0.000883423,1.002070904
6.626731,-0.605690002,-0.345649719,0.173698425,-0.006095215,-0.003446899,1.000972271
6.627357,-0.186073303,-0.193061829,-0.032295227,-0.005729004,-0.003324829,0.995845318
6.627984,-0.651466370,-0.460090637,-0.047554016,-0.006217285,-0.003813110,0.994624615
6.628609,-0.338661194,-0.353279114,0.043998718,-0.005729004,-0.006986938,0.991328716
6.629235,-0.338661194,-0.299873352,0.051628113,-0.006583496,-0.001615845,0.989375591
6.629860,-0.155555725,-0.589790344,-0.268806458,-0.007315918,-0.003935181,0.989497662
6.631453,0.164878845,-0.521125793,-0.039924622,-0.006583496,-0.008695923,0.988887310
6.632078,0.309837341,-0.620307922,-0.223030090,-0.006949707,-0.006132446,0.988032818
6.632703,0.347984314,-0.933113098,-0.024665833,-0.008658691,-0.005155884,0.987910748
6.633329,0.416648865,-0.734748840,0.265251160,-0.004386230,-0.007231079,0.988887310
6.633955,0.401390076,-0.986518860,0.181327820,-0.004630371,-0.006864868,0.991328716
6.634581,0.836265564,-0.826301575,0.211845398,-0.004508301,-0.005400024,0.994014263
6.635208,0.752342224,-0.803413391,0.028739929,-0.003531738,-0.005888306,0.994624615
6.635833,1.034629822,-0.780525208,0.074516296,-0.004752441,-0.004423462,0.998408794
6.636459,0.889671326,-0.704231262,0.188957214,-0.001212402,-0.004789673,1.004268169
6.637086,1.225364685,-0.711860657,-0.047554016,0.000740723,-0.004789673,1.008784771
6.637711,1.004112244,-0.696601868,0.211845398,0.000008301,-0.004911743,1.012324810
6.638337,1.095664978,-0.658454895,0.265251160,-0.000113769,-0.003446899,1.014522076
6.638963,1.232994080,-0.490608215,0.089775085,0.001106934,0.003633179,1.019893169
6.639589,0.813377380,-0.368537903,0.196586609,0.002937988,0.004731812,1.024043560
6.640215,1.049888611,-0.383796692,0.120292664,0.000984863,0.004121460,1.026362896
6.641862,0.584495544,-0.368537903,0.166069031,-0.001700683,0.009004273,1.027217388
6.642528,0.241172791,-0.269355774,0.051628113,0.000008301,0.010224976,1.029536724
6.643154,0.286949158,-0.231208801,0.227104187,0.000496582,0.010224976,1.031123638
6.643780,0.141990662,-0.330390930,0.173698425,0.000740723,0.008027710,1.031001568
6.657569,0.264060974,0.386772156,0.066886902,-0.005240723,-0.001737915,1.005488873
6.658262,0.203025818,0.539360046,-0.146736145,-0.002921387,-0.000273071,1.006587505
6.658889,0.256431580,0.516471863,-0.070442200,-0.003165527,-0.001127563,1.006343365
6.659515,0.195396423,0.302848816,0.097404480,-0.005240723,0.000947632,1.004512310
6.660141,0.119102478,0.402030945,-0.055183411,-0.005240723,0.004243530,1.004512310
6.660767,-0.018226624,0.279960632,0.120292664,-0.005362793,0.005098023,1.005488873
6.661394,0.401390076,0.081596375,0.013481140,-0.006461426,0.005952515,1.000606060
6.662019,0.080955505,0.119743347,0.028739929,-0.006949707,0.001924194,1.001216412
6.662645,0.309837341,0.188407898,-0.314582825,-0.003409668,0.006196655,0.999995708
6.663271,-0.170814514,0.157890320,0.021110535,-0.006705566,0.004609741,0.999141216
6.663898,-0.125038147,0.203666687,0.028739929,-0.005851074,0.002046265,0.997066021
6.664524,-0.048744202,0.318107605,0.051628113,-0.006949707,-0.000517212,0.994502544
6.665151,-0.010597229,0.104484558,-0.001777649,-0.005973144,-0.003324829,0.994746685
6.665777,-0.132667542,0.310478210,-0.215400696,-0.006461426,-0.002226196,0.995234966
6.667538,0.080955505,0.180778503,-0.047554016,-0.010978027,-0.004911743,0.988154888
6.668163,0.073326111,0.104484558,-0.161994934,-0.011954590,-0.000273071,0.984736919
6.668789,0.111473083,0.142631531,-0.062812805,-0.010001465,-0.003935181,0.987544537
6.669415,0.042808533,-0.086250305,-0.001777649,-0.009757324,-0.002714477,0.986445904
6.670041,0.264060974,-0.276985168,-0.009407043,-0.011588379,-0.000761353,0.983638287
6.670667,0.386131287,-0.124397278,0.249992371,-0.010489746,-0.003080688,0.982905865
6.671294,0.409019470,-0.185432434,-0.001777649,-0.010001465,-0.002592407,0.980830669
6.671920,0.370872498,-0.170173645,-0.017036438,-0.010245605,-0.001859985,0.982417583
6.672547,0.431907654,-0.353279114,0.089775085,-0.008780762,-0.000395142,0.983760357
6.673174,0.218284607,-0.421943665,0.082145691,-0.007682129,0.001069702,0.986445904
6.673801,0.416648865,-0.200691223,0.028739929,-0.008292480,-0.001249634,0.984858990
6.674426,0.584495544,-0.467720032,0.028739929,-0.010733887,-0.001493774,0.983394146
6.675051,0.271690369,-0.399055481,-0.047554016,-0.011222168,-0.000028931,0.986445904
6.675678,0.447166443,-0.338020325,0.089775085,-0.013663574,-0.002592407,0.991206646
6.676305,0.248802185,-0.696601868,-0.085700989,-0.009269043,-0.006132446,0.993525982
6.677917,0.477684021,-0.475349426,-0.100959778,-0.007315918,-0.006498657,1.004634380
6.678543,0.721824646,-0.521125793,-0.154365540,-0.007560058,-0.003813110,1.007441998
6.679168,0.653160095,-0.460090637,0.021110535,-0.002066894,-0.002226196,1.006343365
6.679793,0.615013123,-0.513496399,0.173698425,-0.004386230,-0.002348267,1.008906841
6.680418,0.546348572,-0.437202454,-0.139106750,-0.005484863,-0.000028931,1.012691021
6.681044,0.645530701,-0.521125793,0.005851746,-0.006461426,-0.001737915,1.015742779
6.681670,0.721824646,-0.635566711,-0.001777649,-0.008658691,-0.003324829,1.018794537
6.682295,0.538719177,-0.444831848,0.188957214,-0.006827637,-0.001371704,1.018306255
6.682922,0.622642517,-0.536384583,-0.154365540,-0.002799316,-0.000761353,1.017573833
6.683547,0.508201599,-0.338020325,0.043998718,-0.006461426,-0.000395142,1.018916607
6.684173,0.569236755,-0.704231262,-0.047554016,-0.003653808,0.000825562,1.017940044
6.684798,0.401390076,-0.620307922,0.036369324,-0.007193848,0.002168335,1.013545513
6.685425,0.172508240,-0.635566711,-0.001777649,-0.004386230,-0.000028931,1.014277935
6.686052,0.347984314,-0.513496399,-0.093330383,-0.006217285,-0.000517212,1.015498638
6.686677,0.157249451,-0.620307922,-0.070442200,-0.005118652,0.002168335,1.011592388
6.688338,0.325096130,-0.299873352,0.051628113,-0.005484863,0.000703491,1.010737896
6.688964,0.347984314,-0.444831848,-0.062812805,-0.004142090,0.000337280,1.008906841
6.689591,0.416648865,-0.620307922,0.021110535,-0.002921387,0.000459351,1.008052349
6.690217,0.500572205,-0.475349426,0.021110535,-0.004874512,0.000825562,1.005855083
6.690842,0.416648865,-0.421943665,-0.070442200,-0.002677246,-0.004057251,1.003535748
6.704592,-0.224220276,0.676689148,0.089775085,0.004158692,-0.001737915,1.007319927
6.705255,-0.514137268,0.531730652,-0.047554016,0.003060059,0.000581421,1.008052349
6.705882,-0.186073303,0.661430359,0.089775085,0.001839356,0.001069702,1.005488873
6.706508,-0.269996643,0.653800964,0.036369324,-0.005118652,-0.001249634,1.010005474
6.707134,-0.323402405,0.653800964,-0.055183411,0.001229004,-0.000517212,1.008906841
6.707759,-0.262367249,0.745353699,0.051628113,-0.005851074,-0.002592407,1.006587505
6.708384,-0.155555725,0.646171570,0.219474792,-0.005606933,-0.001859985,1.004146099
6.709009,-0.109779358,0.653800964,0.013481140,-0.004996582,-0.001371704,1.006587505
6.709634,-0.109779358,0.592765808,0.043998718,-0.003165527,-0.000639282,1.005122662
6.710261,-0.109779358,0.653800964,0.196586609,-0.003897949,-0.003202759,1.003657818
6.710887,-0.254737854,0.417289734,0.005851746,-0.006461426,0.000459351,1.000850201
6.711513,-0.094520569,0.546989441,-0.070442200,-0.004386230,0.000825562,0.998164654
6.712139,-0.453102112,0.531730652,0.105033875,-0.002066894,0.000947632,0.996333599
6.712765,-0.353919983,0.363883972,-0.154365540,-0.003653808,-0.000151001,0.997432232
6.713391,-0.292884827,0.600395203,0.036369324,-0.000602051,-0.000395142,0.994380474
6.714990,-0.132667542,0.630912781,0.326286316,-0.002066894,-0.000395142,0.991816998
6.715616,-0.102149963,0.463066101,-0.070442200,-0.003531738,-0.000883423,0.992915630
6.716242,-0.117408752,0.485954285,0.143180847,-0.004874512,-0.004179321,0.989985943
6.716869,-0.109779358,0.562248230,0.066886902,-0.001822754,-0.002348267,0.992427349
6.717494,0.187767029,0.554618835,0.097404480,-0.003409668,0.001313843,0.992915630
6.718119,0.180137634,0.402030945,-0.047554016,-0.007193848,-0.001005493,0.990718365
6.718744,0.286949158,0.241813660,-0.024665833,-0.007804199,-0.001127563,0.993159771
6.719370,0.210655212,0.394401550,0.105033875,-0.003897949,-0.003568970,0.995357037
6.719995,0.164878845,0.318107605,-0.047554016,-0.002799316,-0.001493774,0.994990826
6.720622,0.286949158,0.203666687,0.066886902,-0.005973144,-0.000883423,0.996943951
6.721248,-0.033485413,0.310478210,0.013481140,-0.004630371,-0.000151001,0.996211529
6.729545,0.111473083,-0.322761536,0.043998718,-0.004142090,-0.004545532,0.995845318
6.730170,0.096214294,-0.177803040,0.105033875,-0.006217285,-0.003813110,0.996455669
6.730796,0.157249451,-0.475349426,0.074516296,-0.007437988,-0.004301392,0.995479107
6.731423,-0.025856018,-0.200691223,0.074516296,-0.004142090,-0.003568970,0.999385357
6.732049,0.256431580,-0.345649719,0.036369324,-0.003165527,-0.004301392,1.003169537
6.732674,0.317466736,-0.299873352,0.051628113,-0.002433105,-0.003446899,1.001338482
6.733300,0.439537048,-0.254096985,0.143180847,-0.001578613,-0.003080688,1.006221294
6.733925,0.378501892,-0.406684875,0.066886902,-0.004996582,-0.001982056,1.008052349
6.734551,0.088584900,-0.437202454,0.105033875,-0.001212402,-0.004179321,1.008662701
6.735176,0.569236755,-0.338020325,0.021110535,-0.004264160,-0.001493774,1.014155865
6.735801,0.538719177,-0.544013977,0.028739929,-0.002555176,-0.000883423,1.016353130
6.736428,0.279319763,-0.582160950,0.013481140,-0.002799316,-0.001859985,1.014400005
6.737054,0.477684021,-0.566902161,0.158439636,-0.002555176,-0.001615845,1.016841412
6.737679,0.515830994,-0.406684875,0.120292664,-0.000968262,-0.001005493,1.018062115
6.738304,0.782859802,-0.620307922,0.036369324,-0.000113769,-0.001859985,1.022456646
6.739940,0.607383728,-0.162544250,0.188957214,0.003426270,-0.000761353,1.024409771
6.740567,0.470054626,-0.322761536,0.196586609,0.004891113,-0.002470337,1.023433208
6.741192,0.157249451,-0.338020325,0.127922058,0.001351074,-0.000639282,1.022700787
6.741819,0.157249451,-0.299873352,0.219474792,0.003304199,-0.003691040,1.022212505
6.742444,0.149620056,-0.025215149,0.181327820,0.001106934,-0.003080688,1.023555279
6.743069,0.302207947,-0.040473938,0.410209656,-0.002799316,-0.006132446,1.020869732
6.743694,-0.010597229,0.043449402,0.295768738,-0.005240723,-0.006986938,1.020991802
6.744319,0.080955505,0.165519714,0.394950867,-0.004630371,-0.005522095,1.020259380
6.758168,0.294578552,0.318107605,0.585685730,-0.001822754,0.005464233,1.019893169
6.758854,0.271690369,0.386772156,0.387321472,-0.001334473,0.007539429,1.020625591
6.759481,0.172508240,0.539360046,0.806938171,-0.000357910,0.007295288,1.019893169
6.760106,0.203025818,0.485954285,0.555168152,0.000252442,0.004731812,1.024898052
6.760731,-0.033485413,0.661430359,0.578056335,-0.000479980,0.005342163,1.023433208
6.761356,-0.125038147,0.653800964,0.570426941,0.002571777,0.006440796,1.025142193
6.761983,-0.147926331,0.485954285,0.394950867,0.002815918,0.004121460,1.025874615
6.762609,-0.269996643,0.608024597,0.463615417,0.002327637,0.003266968,1.024043560
6.763235,-0.369178772,0.806388855,0.585685730,-0.000235840,0.006196655,1.024043560
6.763861,-0.331031799,0.463066101,0.501762390,-0.000235840,0.004243530,1.022212505
6.764486,-0.567543030,0.524101257,0.486503601,-0.000479980,0.003633179,1.018062115
6.765112,-0.369178772,0.463066101,0.562797546,-0.005240723,0.004487671,1.015254498
6.765737,-0.567543030,0.661430359,0.417839050,-0.003897949,0.003999390,1.009517193
6.766362,-0.475990295,0.531730652,0.570426941,-0.004264160,0.002656616,1.003169537
6.768126,-0.666725159,0.501213074,0.547538757,-0.001822754,0.002534546,0.996211529
6.768751,-0.712501526,0.562248230,0.303398132,-0.002555176,0.000093140,0.993770123
6.769376,-0.559913635,0.623283386,0.494132996,-0.004752441,0.003144898,0.988521099
6.770001,-0.598060608,0.363883972,0.318656921,-0.007071777,-0.002836548,0.982783794
6.770627,-0.804054260,0.470695496,0.517021179,-0.009391113,-0.001982056,0.977412701
6.771252,-0.407325745,0.264701843,0.433097839,-0.008780762,-0.002470337,0.972041607
6.771878,-0.567543030,0.173149109,0.379692078,-0.008780762,-0.002470337,0.969600201
6.772505,-0.239479065,-0.017585754,0.562797546,-0.007682129,-0.001982056,0.968379498
6.773131,-0.201332092,-0.055732727,0.509391785,-0.007926269,-0.004789673,0.965205669
6.773758,-0.147926331,-0.154914856,0.547538757,-0.007682129,-0.006742798,0.963618755
6.774383,0.058067322,-0.063362122,0.600944519,-0.005484863,-0.007841431,0.965449810
6.775009,0.210655212,-0.238838196,0.692497253,-0.005362793,-0.007475220,0.965693951
6.775635,0.355613708,-0.116767883,0.425468445,-0.005973144,-0.003080688,0.963618755
6.776260,0.477684021,-0.299873352,0.646720886,-0.002799316,0.006929077,0.966792583
6.776886,0.653160095,-0.444831848,0.677238464,-0.011832519,0.018891968,0.968135357
6.778472,0.752342224,-0.833930969,0.425468445,-0.005973144,-0.007231079,0.976680279
6.779098,0.508201599,-0.528755188,0.562797546,-0.003409668,-0.016020142,0.986323833
6.779724,0.309837341,-0.238838196,0.257621765,-0.000602051,0.001313843,0.988887310
6.780350,0.637901306,-0.658454895,0.272880554,-0.008414551,0.039399780,0.984370708
6.780977,0.508201599,-1.505317688,0.127922058,-0.016471192,0.053071655,0.978511333
6.781602,0.843894958,-2.077522278,-0.009407043,-0.015250488,0.045991577,0.976802349
6.782228,0.973594666,-2.123298645,0.036369324,-0.011222168,0.022432007,0.991084576
6.782853,0.950706482,-2.222480774,-0.245918274,-0.010001465,0.001557983,0.992305279
6.783479,0.584495544,-1.200141907,-0.017036438,0.001229004,-0.012968384,1.000361919
6.784104,-0.079261780,-0.772895813,0.059257507,0.012337402,-0.007963501,1.004512310
6.784731,-0.872718811,-0.772895813,0.021110535,0.013313965,-0.003324829,0.999751568
6.785357,-1.048194885,-1.001777649,-0.085700989,0.017220214,-0.018949829,1.008784771
6.785982,-0.598060608,-0.963630676,0.120292664,0.007454590,-0.031523071,1.012813091
6.786608,-0.262367249,-1.024665833,0.143180847,-0.023917481,-0.013700806,1.007441998
6.787234,-0.308143616,-1.429023743,0.318656921,-0.028800294,-0.019438110,1.009883404
6.788901,-0.331031799,-1.276435852,0.402580261,-0.008902832,-0.064970337,1.020747662
6.789528,-0.147926331,-1.253547668,0.707756042,0.003182129,-0.048246704,1.017451763
6.790155,0.286949158,-1.673164368,0.723014832,-0.005729004,-0.007109009,1.012691021
6.790781,0.615013123,-2.451362610,0.951896667,-0.023551270,-0.003446899,1.000728130
6.791406,0.798118591,-2.771797180,1.180778503,-0.017936036,-0.059843384,1.009150982
6.805184,0.454795837,-4.190864563,-1.146186829,0.026253417,0.184785515,0.922114849
6.805842,1.240623474,-4.625740051,-1.619209290,-0.002555176,0.156709343,0.913081646
6.806469,1.095664978,-4.389228821,-2.092231750,-0.011710449,0.102754273,0.919673443
6.807095,0.401390076,-3.420295715,-2.557624817,-0.014640137,0.045869507,0.930049419
6.807721,-0.064002991,-2.008857727,-2.466072083,-0.016104981,0.017793335,0.934688091
6.808346,-1.170265198,-1.306953430,-2.847541809,-0.030997559,0.028657593,0.924312115
6.808972,-2.154457092,-2.314033508,-3.129829407,-0.046256348,0.046235718,0.905147076
6.809598,-3.115760803,-4.526557922,-3.328193665,-0.063224122,0.038667358,0.885493755
6.810224,-3.520118713,-6.746711731,-3.183235168,-0.082022950,0.010957398,0.867915630
6.810849,-3.733741760,-8.051338196,-3.328193665,-0.099112794,-0.021635376,0.858150005
6.811476,-3.657447815,-8.470954895,-3.290046692,-0.103873536,-0.030180298,0.841548443
6.812102,-4.389869690,-8.737983704,-3.450263977,-0.088614747,-0.027006470,0.816768169
6.812729,-5.045997620,-9.241523743,-3.053535461,-0.052481934,-0.046659790,0.802485943
6.813355,-4.466163635,-9.386482239,-2.984870911,-0.019522950,-0.078276001,0.793696880
6.813980,-3.512489319,-9.401741028,-2.755989075,-0.004874512,-0.106352173,0.788936138
6.815638,0.279319763,-9.699287415,-1.977790833,-0.045523927,-0.106230102,0.810908794
6.816263,1.492393494,-9.706916809,-2.061714172,-0.056510255,-0.106962524,0.826411724
6.816889,2.552879333,-9.760322571,-1.657356262,-0.063712403,-0.102445923,0.847896099
6.817514,4.155052185,-10.569038391,-1.611579895,-0.062369630,-0.096952759,0.865108013
6.818140,5.162132263,-12.033882141,-1.344551086,-0.060416505,-0.090360962,0.882930279
6.818766,6.077659607,-12.934150696,-1.062263489,-0.057730958,-0.080595337,0.898677349
6.819392,6.565940857,-14.147224426,-0.749458313,-0.055533692,-0.062773071,0.916377544
6.820017,6.649864197,-15.215339661,-0.528205872,-0.049063966,-0.050077759,0.931514263
6.820643,6.367576599,-15.383186340,-0.253547668,-0.033072755,-0.043852173,0.949336529
6.821270,6.131065369,-15.787544250,0.433097839,-0.011954590,-0.033598267,0.969966412
6.821895,5.909812927,-15.528144836,0.852714539,0.007088379,-0.024565063,0.981196880
6.822520,5.658042908,-15.139045715,0.997673035,0.018074706,-0.018095337,0.999019146
6.823147,5.429161072,-15.055122375,1.409660339,0.025643066,-0.019193970,1.016597271
6.823772,4.895103455,-14.955940247,1.562248230,0.025887206,-0.029936157,1.038814068
6.824398,4.391563416,-14.246406555,1.859794617,0.031746581,-0.051908813,1.064448833
6.826104,2.545249939,-12.239875793,3.111015320,0.029671386,-0.097196899,1.121699810
6.826730,0.660789490,-10.828437805,3.584037781,0.027352050,-0.111601196,1.141719341
6.827357,-1.330482483,-10.271492004,4.072319031,0.024544433,-0.121733032,1.162715435
6.827982,-2.909767151,-9.882392883,4.751335144,0.031746581,-0.152616829,1.186030865
6.828607,-4.237281799,-8.882942200,5.323539734,0.036507323,-0.185087532,1.206050396
6.829233,-5.381690979,-7.654609680,6.002555847,0.038216308,-0.204252571,1.220210552
6.829859,-6.480323792,-6.853523254,6.452690125,0.026009277,-0.208402961,1.229243755
6.830485,-7.411109924,-6.159248352,6.925712585,0.009529785,-0.190092415,1.220820904
6.831110,-8.319007874,-6.273689270,7.681022644,-0.011466308,-0.176908821,1.208858013
6.831736,-8.723365784,-6.777229309,8.115898132,-0.029654786,-0.178984016,1.190791607
6.832361,-9.318458557,-6.983222961,8.733879089,-0.043082520,-0.192533821,1.166255474
6.832987,-9.814369202,-7.349433899,9.542594910,-0.045035645,-0.212431282,1.139766216
6.833612,-10.531532288,-7.769050598,10.099540710,-0.045157716,-0.234159797,1.106563091
6.834237,-10.569679260,-7.608833313,10.763298035,-0.036368653,-0.250883430,1.071284771
6.834862,-10.439979553,-7.799568176,11.610160828,-0.038443848,-0.254301399,1.029292583
6.836568,-6.716835022,-10.271492004,13.326774597,-0.087516114,-0.260038704,0.880733013
6.837194,-3.932106018,-11.637153625,13.960014343,-0.099234864,-0.266508430,0.832271099
6.837820,-0.964271545,-12.789192200,14.410148621,-0.101065919,-0.258940071,0.788936138
6.851590,10.662925720,-20.891609192,5.598197937,0.105721191,0.433320671,1.087886333
6.852298,7.000816345,-19.792976379,4.812370300,0.092537597,0.431733757,1.119258404
6.852923,3.308189392,-18.892707825,4.133354187,0.096443847,0.401338249,1.153316021
6.853550,-0.636207581,-17.908515930,3.774772644,0.101570800,0.369599968,1.189204693
6.854175,-4.870521545,-16.794624329,3.004203796,0.110481933,0.348481804,1.218501568
6.854802,-9.036170959,-15.169563293,2.493034363,0.120003417,0.337983757,1.245112896
6.855427,-12.751686096,-14.131965637,2.027641296,0.130989745,0.327363640,1.272822857
6.856052,-16.703712463,-12.644233704,1.608024597,0.138802245,0.296235710,1.293574810
6.856678,-20.251380920,-10.683479309,1.348625183,0.136238769,0.265473992,1.314448833
6.857304,-23.844825745,-8.821907043,1.043449402,0.132942870,0.229951531,1.327266216
6.857929,-26.927101135,-6.960334778,0.539909363,0.130745605,0.196626335,1.342158794
6.858555,-29.872047424,-5.236091614,0.509391785,0.134407714,0.157807976,1.356074810
6.859181,-32.122718811,-3.755989075,0.120292664,0.135506347,0.115571655,1.360835552
6.859808,-33.534156799,-2.169075012,-0.108589172,0.126229003,0.059663452,1.368281841
6.861566,-35.815345764,2.034721375,-0.467170715,0.064827636,-0.106962524,1.355342388
6.862193,-35.815345764,2.347526550,-0.429023743,0.052986816,-0.146391243,1.336787701
6.862820,-35.060035706,2.400932312,-0.436653137,0.043465331,-0.184721321,1.314570904
6.863447,-33.770668030,2.423820496,-0.215400696,0.047371581,-0.227568001,1.293330669
6.864073,-31.306373596,2.233085632,0.158439636,0.043465331,-0.266142219,1.259273052
6.864698,-27.751075745,2.286491394,0.379692078,0.029671386,-0.292875618,1.227290630
6.865323,-23.936378479,2.187309265,0.723014832,0.022347167,-0.324125618,1.196284771
6.865948,-19.549476624,2.454338074,1.310478210,0.024300292,-0.359526008,1.169795513
6.866575,-14.834510803,2.896842957,1.539360046,0.025154784,-0.380644172,1.147578716
6.867200,-10.081398010,2.889213562,2.226005554,0.023812011,-0.387724251,1.120723248
6.867826,-6.045448303,2.278862000,3.065238953,0.004524902,-0.363920540,1.092280865
6.868451,-1.605140686,1.149711609,3.576408386,-0.016349122,-0.327909797,1.065425396
6.869078,2.850425720,-0.040473938,4.163871765,-0.032950684,-0.293974251,1.042964458
6.869705,7.305992126,-1.497688293,5.064140320,-0.043082520,-0.260404915,1.021724224
6.870331,11.036766052,-2.748908997,5.437980652,-0.046256348,-0.232084602,1.011958599
6.872041,19.635093689,-4.053535461,6.994377136,0.006233887,-0.187651008,0.999995708
6.872666,21.023643494,-3.740730286,7.352958679,0.024422362,-0.164457649,1.001094341
6.873293,21.893394470,-3.649177551,7.742057800,0.032356933,-0.136381477,1.004146099
6.873918,22.221458435,-3.183784485,8.237968445,0.030770019,-0.101957642,1.005488873
6.874543,22.122276306,-2.619209290,8.474479675,0.025643066,-0.063993774,1.011836529
6.875169,21.771324158,-2.230110168,8.924613953,0.011971192,-0.030424438,1.016475201
6.875795,20.756614685,-1.795234680,8.947502136,0.000740723,-0.007231079,1.015620708
6.876422,19.368064880,-1.444282532,9.206901550,-0.007560058,0.009858765,1.018306255
6.877048,17.453086853,-1.230659485,9.451042175,-0.004264160,0.022554077,1.021113873
6.877674,15.400779724,-1.200141907,9.649406433,0.001961426,0.042085327,1.017207623
6.878301,13.096702576,-1.009407043,9.573112488,0.008553223,0.062593140,1.013301373
6.878927,10.601890564,-0.612678528,9.832511902,0.019051269,0.082612671,1.008418560
6.879552,8.198631287,-0.513496399,9.878288269,0.017830566,0.099824585,0.998897076
6.880178,5.558860779,0.020561218,9.985099792,0.014290527,0.108491577,0.989497662
6.880805,2.575767517,0.798759460,10.076652527,0.010628418,0.112641968,0.979854107
6.882472,-7.510292053,3.003654480,11.007438660,0.021980956,0.088838257,0.964839458
6.883098,-10.417091370,3.675041199,10.969291687,0.024178222,0.078828491,0.957759380
6.883725,-12.972938538,4.079399109,11.419425964,0.020760253,0.063569702,0.954463482
6.884351,-15.284645081,4.537162781,11.404167175,0.009529785,0.043428101,0.946162701
6.884976,-16.635047913,5.063591003,11.823783875,0.000496582,0.016938843,0.950923443
6.899081,13.958824158,-3.687324524,16.637931824,-0.007437988,-0.010771118,1.046626568
6.899801,15.072715759,-3.656806946,16.477714539,-0.015494629,0.006929077,1.063350201
6.900427,15.156639099,-2.474250793,16.042839050,-0.007315918,0.039521851,1.093623638
6.901053,14.340293884,-1.871528625,16.111503601,0.007698731,0.050752319,1.108882427
6.901679,12.967002869,-1.024665833,15.997062683,0.008431152,0.067842163,1.125606060
6.902305,11.464012146,-0.513496399,15.600334167,-0.007193848,0.090547241,1.135493755
6.902932,9.625328064,0.592765808,15.371452332,-0.030753419,0.113130249,1.145991802
6.903557,7.222068787,1.363334656,15.325675964,-0.057975098,0.115205444,1.157100201
6.904182,4.460227966,2.767143250,15.134941101,-0.079093263,0.105195679,1.174312115
6.904807,1.400840759,4.468498230,15.134941101,-0.096183106,0.085054077,1.188960552
6.905433,-1.422035217,6.139335632,14.921318054,-0.099479005,0.059297241,1.206294537
6.906059,-3.863441467,8.275566101,14.783988953,-0.104605958,0.036470093,1.222163677
6.906684,-6.320106506,9.343681335,14.722953796,-0.116812989,0.015473999,1.228633404
6.907309,-8.456336975,9.831962585,14.555107117,-0.135855958,-0.008695923,1.231685162
6.909070,-12.004005432,10.503349304,14.982353210,-0.183829591,-0.036161743,1.220698833
6.909695,-13.354408264,10.671195984,14.883171082,-0.200064942,-0.047270142,1.213252544
6.910320,-14.361488342,11.090812683,15.142570496,-0.197623536,-0.081938110,1.205562115
6.910945,-14.681922913,12.204704285,15.401969910,-0.202262208,-0.112455688,1.195796490
6.911571,-15.139686584,12.975273132,15.478263855,-0.207022950,-0.131376594,1.172603130
6.912197,-15.360939026,13.433036804,15.409599304,-0.208609864,-0.148344368,1.157832623
6.912823,-15.437232971,13.944206238,15.638481140,-0.230826661,-0.149809211,1.139766216
6.913450,-14.987098694,14.005241394,16.012321472,-0.268790513,-0.125883430,1.116450787
6.914077,-14.231788635,14.043388367,16.248832703,-0.278434068,-0.131864876,1.097896099
6.914703,-12.759315491,14.470634460,16.340385437,-0.262686998,-0.145292610,1.095698833
6.915330,-10.050880432,14.829216003,16.294609070,-0.249747559,-0.152738899,1.095210552
6.915956,-6.999122620,15.370903015,16.218315125,-0.235221192,-0.170805305,1.100581646
6.916581,-3.672706604,15.996513367,15.600334167,-0.206168458,-0.209745735,1.114863873
6.917208,-0.743019104,17.247734070,16.134391785,-0.197867677,-0.207792610,1.118159771
6.917833,0.683677673,16.866264343,16.424308777,-0.236441895,-0.143949836,1.102412701
6.919488,3.735435486,12.464103699,16.546379089,-0.248404786,-0.084989868,1.091182232
6.920114,4.490745544,13.021049500,16.721855164,-0.213004395,-0.124906860,1.099849224
6.920741,5.062950134,14.913139343,16.622673035,-0.160758302,-0.174345344,1.123164654
6.921367,6.291282654,17.316398621,16.538749695,-0.122306153,-0.188139290,1.140132427
6.921993,7.313621521,18.880424500,16.798149109,-0.113150880,-0.162260383,1.143184185
6.922618,8.755577087,19.078788757,16.737113953,-0.133536622,-0.111234985,1.141353130
6.923244,10.891807556,18.041191101,16.492973328,-0.171256348,-0.052275024,1.133296490
6.923869,12.432945251,16.576347351,16.546379089,-0.192618653,-0.001737915,1.130977154
6.924495,13.417137146,14.852104187,16.653190613,-0.171866700,0.047456421,1.125483990
6.925122,12.761009216,13.295707703,16.676078796,-0.100455567,0.061006226,1.129268169
6.925748,12.509239197,13.257560730,16.599784851,0.006111817,0.026094116,1.152339458
6.926374,12.303245544,15.241203308,16.500602722,0.093270019,0.003755249,1.171260357
6.927001,12.150657654,17.545280457,16.447196960,0.152962402,-0.001249634,1.175532818
6.927626,11.731040955,20.024833679,16.309867859,0.161385253,0.028657593,1.174434185
6.928252,10.632408142,21.688041687,15.699516296,0.121224120,0.084809937,1.162959576
6.929952,3.666770935,22.893486023,15.989433289,0.017342284,0.169648796,1.142695904
6.930577,1.080406189,23.297843933,15.897880554,0.018685058,0.242280632,1.123408794
6.931204,-1.505958557,22.084770203,15.096794128,0.094246581,0.243989617,1.115230083
6.931829,-2.726661682,22.359428406,14.814506531,0.182137206,0.176240593,1.124873638
6.945672,-6.297218323,0.112113953,4.545341492,-0.096671388,0.448945671,0.319453716
6.946364,-7.739173889,-4.511299133,4.331718445,-0.059928223,0.375459343,0.199458599
6.946989,-6.838905334,-6.639900208,3.347526550,0.018440917,0.302217156,0.079463482
6.947614,-5.091773987,-8.333625793,2.203117371,0.095833495,0.248506218,-0.039066792
6.948239,-3.710853577,-9.783210754,1.371513367,0.148323730,0.211640984,-0.127079487
6.948865,-1.361000061,-10.759773254,0.936637878,0.156746581,0.152314812,-0.169559956
6.949492,2.522361755,-10.630073547,0.738273621,0.138191894,0.100434937,-0.153080463
6.950118,7.397544861,-8.913459778,0.738273621,0.083870605,0.108613648,-0.099003315
6.950743,11.418235779,-8.707466125,0.700126648,0.076302245,0.117646851,-0.003300190
6.951369,15.248191833,-9.325447083,0.669609070,0.131111816,0.091890015,0.147700787
6.951994,19.711387634,-9.767951965,0.547538757,0.216438964,0.027436890,0.346919537
6.952620,24.624717712,-8.676948547,0.394950867,0.288094252,-0.027128540,0.562739849
6.953246,28.462303162,-7.257881165,0.082145691,0.304329604,-0.017973267,0.769160748
6.953871,29.423606873,-6.861152649,-0.535835266,0.283211440,-0.002226196,0.969966412
6.955637,22.610557556,-2.062263489,-1.008857727,0.156746581,0.206391960,1.443355083
6.956263,15.622032166,-2.680244446,-1.413215637,0.115608886,0.286103874,1.527949810
6.956889,6.344688416,-4.137458801,-1.680244446,0.105354980,0.319551140,1.593867779
6.957515,-3.886329651,-5.770149231,-1.680244446,0.094368652,0.319429070,1.631709576
6.958140,-14.338600159,-6.395759583,-2.130378723,0.074104980,0.300508171,1.640620708
6.958766,-23.882972717,-6.571235657,-2.481330872,0.052742675,0.256806999,1.625850201
6.959393,-31.695472717,-6.510200500,-2.824653625,0.028084472,0.181001335,1.588008404
6.960020,-37.188636780,-5.541267395,-2.687324524,0.005867676,0.092256226,1.536372662
6.960645,-39.736854553,-4.045906067,-2.473701477,-0.013541504,0.015962280,1.459590435
6.961270,-40.194618225,-3.702583313,-2.900947571,-0.017936036,-0.023954712,1.363521099
6.961897,-38.882362366,-5.098762512,-3.236640930,0.021126464,-0.076322876,1.266963482
6.962523,-35.212623596,-6.975593567,-3.114570618,0.070320800,-0.143705696,1.172847271
6.963149,-29.383766174,-8.165779114,-3.122200012,0.095833495,-0.212553352,1.094233990
6.963775,-22.250282288,-7.830085754,-3.351081848,0.097054198,-0.272611946,1.023433208
6.964400,-14.910804749,-5.480232239,-3.175605774,0.077400878,-0.273100227,0.964351177
6.966089,0.950706482,-0.864448547,-2.298225403,0.093880370,-0.194609016,0.873286724
6.966716,5.627525330,0.402030945,-2.115119934,0.114998534,-0.207060188,0.898433208
6.967341,10.205162048,1.042900085,-1.863349915,0.109749511,-0.202421516,0.934077740
6.967967,13.356101990,2.133903503,-2.092231750,0.078377441,-0.171049446,0.984126568
6.968593,15.293968201,2.835807800,-1.680244446,0.023934081,-0.125273079,1.025752544
6.969219,16.079795837,2.782402039,-1.397956848,-0.037345216,-0.063993774,1.063472271
6.969845,16.301048279,1.981315613,-1.520027161,-0.076773927,-0.009672485,1.092158794
6.970471,15.408409119,0.356254578,-1.199592590,-0.085318848,0.021455444,1.111934185
6.971098,14.569175720,-1.718940735,-1.420845032,-0.074210450,0.027558960,1.128047466
6.971723,13.752830505,-4.061164856,-1.413215637,-0.050162598,0.018403687,1.131099224
6.980107,2.156150818,-2.115669250,-1.130928040,0.155647948,-0.017118774,0.820430279
6.980732,1.538169861,-1.680793762,-1.306404114,0.143318847,-0.033842407,0.832026958
6.981357,0.988853455,-1.596870422,-0.993598938,0.136238769,-0.045805298,0.851314068
6.981983,0.157249451,-1.924934387,-0.779975891,0.114754394,-0.055082642,0.867671490
6.982610,-0.895606995,-2.809944153,-0.490058899,0.099983886,-0.069364868,0.880000591
6.983237,-1.368629456,-3.565254211,-0.390876770,0.093880370,-0.083280884,0.892817974
6.983863,-1.765357971,-4.297676086,-0.184883118,0.082405761,-0.094511352,0.897456646
6.984489,-1.711952209,-5.243721008,-0.215400696,0.050911620,-0.108061157,0.898555279
6.985114,-1.521217346,-6.235542297,-0.085700989,0.030892089,-0.128324836,0.894160748
6.985741,-0.414955139,-6.670417786,-0.017036438,0.012947754,-0.150053352,0.883784771
6.999473,47.535789490,-20.342292786,9.237419128,-0.087882325,-0.256132454,1.176509380
7.000197,47.612083435,-20.021858215,9.702812195,-0.116324708,-0.253324836,1.185420513
7.000822,47.490013123,-19.686164856,10.107170105,-0.130729005,-0.244901985,1.193721294
7.001449,47.139060974,-18.572273254,10.854850769,-0.134757325,-0.234526008,1.204829693
7.002074,46.635520935,-17.717781067,11.419425964,-0.115348145,-0.235746711,1.211543560
7.002700,46.742332458,-16.512336731,11.686454773,-0.078116700,-0.247099251,1.221797466
7.003325,47.131431580,-15.337409973,12.350212097,-0.052481934,-0.256986946,1.231074810
7.003952,47.596824646,-14.528694153,12.609611511,-0.045890138,-0.265898079,1.233638287
7.004578,47.482383728,-13.842048645,13.052116394,-0.063956544,-0.273588508,1.228389263
7.005203,47.253501892,-13.422431946,13.593803406,-0.087271973,-0.280668586,1.222651958
7.005828,47.253501892,-11.934700012,14.738212585,-0.129264161,-0.239408821,1.199092388
7.006453,47.253501892,-11.934700012,14.738212585,-0.129264161,-0.239408821,1.199092388
7.007079,49.443138123,-11.972846985,16.218315125,-0.101187989,-0.236479133,1.183345318
7.007705,51.281822205,-11.850776672,16.203056335,-0.075919434,-0.252226204,1.174434185
7.009453,55.134666443,-12.422981262,17.126213074,-0.028189942,-0.250395149,1.148433208
7.010078,57.339561462,-12.491645813,17.507682800,-0.010733887,-0.229154915,1.132808208
7.010704,59.796226501,-13.239326477,17.774711609,-0.002311035,-0.204984993,1.115718365
7.011331,62.283409119,-13.712348938,17.942558289,-0.005484863,-0.184843391,1.097529888
7.011956,64.503562927,-14.002265930,18.255363464,-0.016471192,-0.170927376,1.081538677
7.012583,65.869224548,-13.979377747,18.255363464,-0.033683106,-0.153593391,1.061397076
7.013208,66.731346130,-13.803901672,18.751274109,-0.051749513,-0.131254524,1.048091412
7.013835,66.746604919,-13.681831360,18.613945007,-0.057730958,-0.111234985,1.035762310
7.014461,66.967857361,-13.269844055,19.064079285,-0.058951661,-0.089994751,1.026851177
7.015086,67.173851013,-12.445869446,19.613395691,-0.062369630,-0.074125610,1.025386333
7.015711,67.044151306,-11.995735168,19.659172058,-0.068717286,-0.057401977,1.018550396
7.016337,66.380393982,-11.660041809,19.773612976,-0.077994630,-0.043730102,1.018672466
7.016962,65.480125427,-11.187019348,19.971977234,-0.090201661,-0.014677368,1.016597271
7.017588,64.000022888,-11.217536926,20.261894226,-0.118155763,0.039643921,1.008296490
7.018215,62.596214294,-11.454048157,20.185600281,-0.137442872,0.100434937,1.002192974
7.019880,59.323204041,-10.836067200,19.338737488,-0.070182130,0.132905632,1.013423443
7.020506,56.225669861,-9.584846497,19.437919617,-0.039664552,0.138154656,1.021968365
7.021132,52.731407166,-8.936347961,19.720207214,-0.046744630,0.234834343,1.016597271
7.021757,48.298728943,-9.081306458,20.261894226,-0.097037598,0.397187859,0.995234966
7.022382,44.888389587,-9.409370422,20.055900574,-0.085807130,0.467012078,0.984858990
7.023008,42.996299744,-7.921638489,19.552360535,-0.070914552,0.489961296,0.985957623
7.023635,39.173973083,-7.379951477,18.232475281,-0.090689942,0.521089256,0.967769146
7.024261,32.467735291,-8.318367004,16.569267273,-0.046866700,0.481294304,0.957515240
7.024887,25.029075623,-8.089485168,16.332756042,0.043221191,0.386079460,0.983272076
7.025513,19.467247009,-5.426826477,16.874443054,0.082405761,0.323091179,1.007930279
7.026139,13.821495056,-3.015937805,16.637931824,0.065437987,0.311738640,1.020381451
7.026766,7.428062439,-1.139106750,16.279350281,0.041268066,0.309297234,1.031978130
7.027392,1.736534119,-0.292243958,15.981803894,0.025154784,0.288911492,1.044551373
7.028018,-3.123390198,0.028190613,16.325126648,0.009773926,0.244599968,1.063472271
7.028645,-5.953895569,0.173149109,16.256462097,-0.002921387,0.176606804,1.083003521
7.030324,-7.174598694,-0.009956360,15.684257507,0.021370605,0.005586304,1.114863873
7.030949,-6.503211975,-0.566902161,15.546928406,0.012825684,-0.026274048,1.107783794
7.031576,-5.427467346,-1.657905579,15.623222351,0.004769043,-0.058134399,1.095454693
7.045433,45.964134216,-7.944526672,11.556755066,0.103890136,0.353364617,1.053096294
7.046146,44.751060486,-7.952156067,11.434684753,0.106331542,0.369599968,1.041987896
7.046772,42.996299744,-7.822456360,11.465202332,0.084725097,0.408174187,1.023921490
7.047397,39.143455505,-7.532539368,10.702262878,0.086922362,0.442475945,1.007197857
7.048024,34.748924255,-6.990852356,10.473381042,0.112312987,0.451875359,1.004634380
7.048651,30.560386658,-5.464973450,10.336051941,0.133309081,0.462861687,0.998408794
7.049277,26.165855408,-4.343452454,10.091911316,0.137825683,0.473359734,0.986934185
7.049903,21.664512634,-3.427925110,9.565483093,0.138680175,0.450288445,0.982295513
7.050530,17.132652283,-2.161445618,8.924613953,0.127083495,0.402803093,0.985225201
7.051157,13.501060486,-0.627937317,8.611808777,0.105110839,0.359468132,0.990352154
7.051783,9.365928650,1.035270691,8.199821472,0.078865722,0.347749382,0.987300396
7.052410,5.192649841,1.782951355,7.917533875,0.068367675,0.334077507,0.982295513
7.053041,0.798118591,1.637992859,7.986198425,0.070809081,0.314424187,0.973628521
7.053668,-2.337562561,1.317558289,7.948051453,0.074715331,0.289643914,0.966548443
7.055404,-6.373512268,-0.627937317,6.696830750,0.073006347,0.259370476,0.913203716
7.056031,-6.716835022,-1.284065247,6.757865906,0.068855956,0.243257195,0.887080669
7.056656,-7.296669006,-1.741828918,6.155143738,0.073128417,0.218965203,0.859004498
7.057281,-7.624732971,-2.077522278,5.811820984,0.084114745,0.189424187,0.837031841
7.057908,-7.327186584,-2.077522278,5.552421570,0.087776855,0.174043328,0.815059185
7.058534,-6.358253479,-2.268257141,5.499015808,0.092537597,0.159394890,0.797481060
7.059159,-5.305397034,-2.451362610,5.399833679,0.099983886,0.127168328,0.783565044
7.059785,-3.817665100,-2.733650208,5.285392761,0.091194823,0.105195679,0.774409771
7.060412,-2.268898010,-3.405036926,4.926811218,0.078499511,0.095674194,0.770625591
7.061041,-0.399696350,-3.961982727,4.652153015,0.077767089,0.093965210,0.765620708
7.061668,2.400291443,-4.808845520,4.598747253,0.066658691,0.094819702,0.765864849
7.062293,5.589378357,-5.732002258,4.308830261,0.049202636,0.098970093,0.769282818
7.062920,8.816612244,-6.586494446,4.095207214,0.038826659,0.084932007,0.769893169
7.063545,11.540306091,-7.631721497,3.751884460,0.041512206,0.078462280,0.778560162
7.064171,14.119041443,-8.844795227,3.652702332,0.044930175,0.080659546,0.784663677
7.065857,19.650352478,-11.690559387,3.217826843,0.053719237,0.127656609,0.813838482
7.066483,20.581138611,-12.453498840,3.385673523,0.051644042,0.143403679,0.826900005
7.067109,21.572959900,-13.506355286,3.049980164,0.052742675,0.152925164,0.837886333
7.067735,22.251976013,-13.880195618,2.935539246,0.053841308,0.147431999,0.849238873
7.068362,22.564781189,-14.604988098,3.027091980,0.059456542,0.144136101,0.865230083
7.068989,22.595298767,-14.940681458,2.821098328,0.065560058,0.144624382,0.881343365
7.069614,22.984397888,-15.261116028,2.622734070,0.069832519,0.154878289,0.899531841
7.070240,22.969139099,-15.512886047,2.317558289,0.071053222,0.163179070,0.911006451
7.070865,22.625816345,-15.703620911,2.454887390,0.065437987,0.172822624,0.921626568
7.071491,22.107017517,-16.390266418,2.378593445,0.062142089,0.181001335,0.932368755
7.072118,21.145713806,-16.504707336,2.164970398,0.055306152,0.192720085,0.943110943
7.072744,20.169151306,-16.519966125,1.844535828,0.044075683,0.205659539,0.948237896
7.073370,18.414390564,-16.642036438,1.737724304,0.047737792,0.218354851,0.957515240
7.073997,16.331565857,-16.832771301,1.798759460,0.054939941,0.211885124,0.958369732
7.074623,13.829124451,-16.542854309,1.974235535,0.062874511,0.205537468,0.971919537
7.076292,9.228599548,-15.009346008,1.646171570,0.075569823,0.210176140,0.989497662
7.076917,7.336509705,-14.604988098,1.417289734,0.068978027,0.225312859,0.994014263
7.077544,5.612266541,-14.215888977,1.493583679,0.052864745,0.220552117,1.001216412
7.078169,3.384483337,-13.994636536,1.302848816,0.040779784,0.198335320,1.012080669
7.078795,1.347434998,-13.567390442,1.142631531,0.031502441,0.184785515,1.019404888
7.092582,17.903221130,-15.695991516,1.997123718,0.000618652,-0.031889282,1.053218365
7.093301,19.673240662,-15.749397278,2.203117371,-0.003775879,-0.029325806,1.063716412
7.093928,21.702659607,-15.886726379,2.607475281,0.005379395,-0.020414673,1.073482037
7.094553,23.312461853,-15.879096985,2.584587097,0.013680176,-0.014067017,1.083247662
7.095212,24.624717712,-16.085090637,2.531181335,0.022835448,-0.008695923,1.092525005
7.096020,25.448692322,-16.191902161,2.752433777,0.030037597,-0.017484985,1.102778912
7.096819,26.608360291,-16.062202454,2.836357117,0.033089355,-0.028593384,1.117915630
7.097635,28.477561951,-15.360298157,3.103385925,0.018929198,-0.015165649,1.129756451
7.098478,29.057395935,-15.535774231,2.905021667,0.013558106,-0.012846313,1.134883404
7.099330,29.126060486,-15.451850891,3.400932312,0.021126464,-0.020170532,1.143306255
7.100146,29.202354431,-16.062202454,3.736625671,0.023079589,0.000215210,1.140010357
7.100964,29.324424744,-16.275825500,3.767143250,0.026375487,0.008515991,1.141963482
7.102928,32.605064392,-15.604438782,4.308830261,0.019173339,0.015718140,1.133784771
7.103555,32.818687439,-15.757026672,4.171501160,0.019661620,0.012178101,1.132686138
7.104181,32.658470154,-16.024055481,4.736076355,0.022591308,0.012300171,1.129268169
7.104807,33.123863220,-16.169013977,5.056510925,0.032234862,0.010347046,1.131953716
7.105432,32.933128357,-15.879096985,5.361686707,0.046761230,0.005586304,1.134028912
7.106057,33.673179626,-15.398445129,5.346427917,0.059334472,0.008149780,1.145991802
7.106683,33.955467224,-15.070381165,5.293022156,0.062874511,0.023652710,1.149775982
7.107308,34.069908142,-15.009346008,5.529533386,0.072395995,0.034028687,1.148555279
7.107934,34.520042419,-15.154304504,5.689750671,0.062874511,0.038301148,1.147334576
7.108561,35.389793396,-15.604438782,5.743156433,0.059334472,0.024263062,1.150752544
7.109186,36.053550720,-15.238227844,6.071220398,0.053108886,0.013765015,1.155879498
7.109813,36.869895935,-14.719429016,6.063591003,0.051521972,0.017671265,1.164546490
7.110438,37.533653259,-14.345588684,5.926261902,0.052376464,0.032807983,1.160640240
7.111064,38.105857849,-14.421882629,6.139884949,0.060066894,0.036103882,1.157466412
7.111689,38.517845154,-14.704170227,6.307731628,0.069466308,0.025117554,1.160762310
7.113415,41.500938416,-14.040412903,6.315361023,0.049935058,0.056611694,1.156856060
7.114042,42.736900330,-14.086189270,6.155143738,0.050911620,0.059541382,1.150508404
7.114712,43.721092224,-13.895454407,6.384025574,0.053475097,0.039888062,1.152583599
7.115534,45.308006287,-13.712348938,6.567131042,0.032356933,0.042329468,1.140254498
7.116338,47.345054626,-14.421882629,5.926261902,0.038338378,0.052705444,1.126460552
7.117164,49.229515076,-14.536323547,6.025444031,0.034554198,0.065156616,1.116328716
7.117996,50.770652771,-15.116157532,6.246696472,0.016976073,0.073701538,1.098872662
7.118830,52.281272888,-16.191902161,5.720268250,0.023079589,0.038057007,1.094966412
7.119628,53.707969666,-15.695991516,5.918632507,0.036263183,0.048432983,1.092402935
7.120448,55.149925232,-14.948310852,5.949150085,0.026863769,0.080049194,1.086177349
7.121276,57.965171814,-15.970649719,5.575309753,0.026619628,0.066621460,1.081294537
7.122062,59.246910095,-15.566291809,5.674491882,0.030403808,0.032930054,1.089961529
7.123765,63.755882263,-15.215339661,5.643974304,0.022835448,0.098359741,1.112422466
7.124390,65.129173279,-15.390815735,5.499015808,0.038460448,0.086274780,1.121333599
7.125016,66.143882751,-15.322151184,5.674491882,0.040901855,0.074433960,1.130122662
7.125641,66.769493103,-15.093269348,5.537162781,0.040047362,0.084932007,1.134883404
7.126266,66.998374939,-15.161933899,5.422721863,0.025398925,0.120942749,1.133662701
7.126891,67.021263123,-15.833320618,5.354057312,0.030525878,0.136445671,1.133906841
7.127517,66.990745544,-16.260566711,5.460868835,0.037117675,0.135102898,1.130977154
7.128142,67.425621033,-16.039314270,5.491386414,0.040413573,0.138887078,1.125728130
7.128769,68.394554138,-16.207160950,5.087028503,0.042488769,0.144990593,1.119502544
7.129395,68.829429626,-16.451301575,4.743705750,0.050545409,0.142060906,1.107661724
7.143214,57.934654236,-12.407722473,3.500114441,0.068978027,0.234468132,1.128413677
7.143942,55.432212830,-11.927070618,3.324638367,0.072518066,0.239473015,1.123530865
7.144568,53.738487244,-11.812629700,3.339897156,0.082405761,0.260347039,1.118770123
7.145193,52.548301697,-11.667671204,3.034721375,0.085701659,0.291474968,1.110347271
7.145819,51.068199158,-11.667671204,3.049980164,0.078377441,0.303559929,1.098384380
7.146445,49.481285095,-11.942329407,3.111015320,0.078621581,0.279878289,1.089595318
7.147071,47.093284607,-11.469306946,3.126274109,0.092781737,0.242402703,1.083735943
7.147697,44.575584412,-10.385932922,2.805839539,0.111580566,0.226899773,1.080317974
7.148324,42.446983337,-9.172859192,2.828727722,0.120857909,0.247895867,1.071284771
7.148949,40.753257751,-8.844795227,2.866874695,0.116585448,0.282441765,1.061030865
7.149574,39.418113708,-8.715095520,2.645622253,0.109627441,0.292817742,1.046992779
7.150201,38.418663025,-8.776130676,2.744804382,0.099129394,0.271333367,1.040400982
7.150827,37.587059021,-8.524360657,2.462516785,0.083260253,0.257905632,1.035762310
7.151453,35.725486755,-8.402290344,2.279411316,0.079354003,0.250459343,1.036250591
7.153180,29.995811462,-8.287849426,2.241264343,0.135506347,0.260713249,1.032710552
7.153806,28.515708923,-7.997932434,1.997123718,0.134407714,0.243135124,1.034175396
7.154486,26.883018494,-7.654609680,1.821647644,0.125374511,0.232270867,1.033442974
7.155113,25.029075623,-7.303657532,1.630912781,0.111824706,0.249238640,1.030147076
7.155739,23.022544861,-7.265510559,1.386772156,0.103401855,0.275849968,1.027217388
7.156366,21.519554138,-7.303657532,1.463066101,0.101448730,0.290498406,1.028316021
7.156992,19.902122498,-7.639350891,1.646171570,0.100716308,0.278169304,1.024531841
7.157619,17.857444763,-7.570686340,1.348625183,0.115486816,0.231660515,1.025508404
7.158244,15.499961853,-7.212104797,1.035820007,0.135384277,0.181733757,1.040156841
7.158869,14.019859314,-6.006660461,1.112113953,0.149300292,0.164155632,1.051265240
7.159495,12.143028259,-5.236091614,0.944267273,0.134041503,0.196992546,1.052608013
7.160121,10.334861755,-5.052986145,0.906120300,0.113533691,0.227510124,1.043574810
7.160746,8.824241638,-6.105842590,0.707756042,0.099983886,0.210786492,1.039668560
7.161371,8.442771912,-6.128730774,0.669609070,0.080330566,0.174165398,1.042232037
7.161998,7.870567322,-6.067695618,0.509391785,0.062996581,0.151948601,1.039912701
7.163650,5.535972595,-5.564155579,0.654350281,0.094734862,0.117524780,1.034053326
7.164275,4.933250427,-6.151618958,0.448356628,0.095101073,0.114106812,1.023433208
7.164902,5.429161072,-6.632270813,0.463615417,0.082771972,0.103730835,1.016841412
7.165528,5.902183533,-6.861152649,0.509391785,0.062752441,0.086885132,1.015254498
7.166155,6.527793884,-7.021369934,0.570426941,0.051277831,0.071870483,1.013179302
7.166781,7.557762146,-6.685676575,0.723014832,0.050301269,0.061494507,1.015010357
7.167406,8.107078552,-6.281318665,0.578056335,0.051766112,0.059419312,1.016353130
7.168031,8.877647400,-6.807746887,0.616203308,0.060799316,0.051362671,1.017817974
7.168656,9.526145935,-7.364692688,0.768791199,0.058968261,0.043794312,1.020137310
7.169283,10.769737244,-8.005561829,0.913749695,0.057991698,0.020845093,1.028926373
7.169909,12.371910095,-8.051338196,0.913749695,0.050667480,0.017793335,1.038081646
7.170535,14.096153259,-8.234443665,1.051078796,0.039192870,0.027314819,1.047236919
7.171160,15.133750916,-8.638801575,1.135002136,0.037239745,0.029756226,1.057490826
7.171786,16.194236755,-8.867683411,1.043449402,0.042000487,0.016572632,1.071895123
7.172412,17.155540466,-9.043159485,1.264701843,0.044197753,0.013520874,1.077876568
7.174133,19.451988220,-9.256782532,1.524101257,0.052742675,0.006440796,1.099605083
7.174758,20.794761658,-9.485664368,1.669059753,0.051277831,0.012910523,1.108882427
7.175383,21.794212341,-9.821357727,1.745353699,0.042366698,0.022554077,1.112910748
7.176010,22.305381775,-10.317268372,1.768241882,0.036629394,0.019014038,1.118770123
7.176635,22.992027283,-10.820808411,2.012382507,0.046150878,0.015351929,1.125239849
7.190431,34.909141541,-9.096565247,3.667961121,0.056160644,0.073091187,1.254512310
7.191154,34.474266052,-8.692207336,3.675590515,0.061043456,0.075288452,1.264766216
7.191780,34.474266052,-8.043708801,3.912101746,0.064827636,0.072724976,1.277095318
7.192407,34.314048767,-7.578315735,4.018913269,0.065193847,0.074678101,1.281978130
7.193032,34.184349060,-7.036628723,3.942619324,0.060066894,0.082612671,1.292964458
7.193657,33.779991150,-6.220283508,3.896842957,0.062508300,0.087373413,1.295650005
7.194282,33.261192322,-5.602302551,4.087577820,0.065193847,0.086640991,1.309199810
7.194908,33.047569275,-4.747810364,4.003654480,0.071785644,0.089692749,1.315181255
7.195534,32.795799255,-3.916206360,4.079948425,0.071297362,0.104585327,1.318233013
7.196160,32.215965271,-2.878608704,4.072319031,0.064339355,0.110078491,1.318843365
7.196787,31.659019470,-2.588691711,3.843437195,0.071907714,0.099092163,1.325068951
7.197412,30.896080017,-1.612129211,4.408012390,0.089852050,0.086885132,1.336177349
7.198041,30.300987244,0.157890320,4.308830261,0.098641112,0.090425171,1.344844341
7.198667,29.896629333,1.363334656,4.377494812,0.099251464,0.109834351,1.347651958
7.200404,28.164756775,2.805290222,4.339347839,0.089363769,0.134980828,1.352290630
7.201031,27.523887634,4.155693054,4.263053894,0.083992675,0.130220085,1.352656841
7.201657,27.119529724,5.048332214,4.179130554,0.079354003,0.130708367,1.359126568
7.202283,26.524436951,6.558952332,4.469047546,0.077156737,0.137910515,1.363154888
7.202909,25.486839294,7.901725769,4.102836609,0.084236816,0.143647820,1.361323833
7.203534,24.060142517,8.565483093,3.881584167,0.091438964,0.153657585,1.363887310
7.204160,22.961509705,9.381828308,3.912101746,0.097054198,0.152681023,1.361567974
7.204787,20.962608337,11.609611511,3.858695984,0.084603027,0.155000359,1.363643169
7.205414,19.703758240,12.799797058,4.087577820,0.078621581,0.148164421,1.362910748
7.206043,18.620384216,14.485893250,4.026542664,0.081062987,0.149507195,1.366572857
7.206670,17.475975037,15.538749695,3.980766296,0.076546386,0.161225945,1.363276958
7.207296,15.927207947,16.583976746,3.774772644,0.078743652,0.168794304,1.355220318
7.207921,14.912498474,17.339286804,3.721366882,0.077767089,0.163667351,1.351191998
7.208546,14.225852966,18.018302917,3.881584167,0.076912597,0.152803093,1.351924419
7.209171,13.386619568,19.185600281,3.652702332,0.070687011,0.149995476,1.351558208
7.210858,11.090171814,21.504936218,3.950248718,0.067879394,0.158784539,1.346797466
7.211483,9.755027771,22.473869324,3.667961121,0.071175292,0.161836296,1.346797466
7.212108,8.519065857,23.450431824,3.919731140,0.073616698,0.160371453,1.344600201
7.212733,7.534873962,24.198112488,3.751884460,0.065926269,0.162324578,1.341426373
7.213359,6.565940857,25.128898621,3.683219910,0.054451659,0.161836296,1.337520123
7.213984,5.444419861,25.838432312,3.660331726,0.051888183,0.158540398,1.336299419
7.214609,4.666221619,26.555595398,3.736625671,0.050911620,0.154756218,1.333980083
7.215235,4.002464294,27.425346375,3.790031433,0.052742675,0.153901726,1.332393169
7.215860,3.125083923,28.531608582,3.523002625,0.054817870,0.153901726,1.327266216
7.216486,2.430809021,28.905448914,3.278862000,0.057381347,0.148164421,1.326289654
7.217113,1.660240173,29.607353210,3.477226257,0.055428222,0.147920281,1.321162701
7.217738,1.416099548,29.805717468,3.049980164,0.053353027,0.146943718,1.315791607
7.218365,1.088035583,30.309257507,3.240715027,0.045540527,0.145112664,1.311519146
7.218990,1.088035583,31.026420593,3.217826843,0.043587402,0.141328484,1.301265240
7.219616,0.904930115,31.400260925,3.103385925,0.044930175,0.132295281,1.298091412
7.221303,1.507652283,32.643852234,2.966056824,0.047371581,0.118135132,1.271113873
7.221930,2.079856873,32.781181335,2.996574402,0.049690917,0.114839233,1.265010357
7.229136,14.904869080,34.940299988,2.477775574,0.082894042,0.136079460,1.229365826
7.229761,15.805137634,35.077629089,2.134452820,0.083626464,0.141938835,1.230220318
7.231458,17.308128357,35.253105164,2.142082214,0.088265136,0.151338249,1.230952740
7.232083,18.101585388,35.703239441,2.088676453,0.091194823,0.155976921,1.233760357
7.245950,32.910240173,41.562614441,-0.390876770,0.079354003,0.141206414,1.178462505
7.246690,34.497154236,41.837272644,-0.337471008,0.078865722,0.143281609,1.181270123
7.247316,35.710227966,42.165336609,-0.352729797,0.078621581,0.144136101,1.177485943
7.247943,37.403953552,41.966972351,-0.444282532,0.075447753,0.145600945,1.177730083
7.248569,39.036643982,42.310295105,-0.581611633,0.073982909,0.148408562,1.182490826
7.249195,40.318382263,42.539176941,-0.848640442,0.070809081,0.151704460,1.182612896
7.249820,41.432273865,42.638359070,-0.734199524,0.069344237,0.152070671,1.180293560
7.250446,42.553794861,42.798576355,-0.863899231,0.072151855,0.153291374,1.188350201
7.251071,43.881309509,43.172416687,-0.871528625,0.076058105,0.159516960,1.191035748
7.251697,44.903648376,43.294487000,-1.077522278,0.079231933,0.165986687,1.189570904
7.252322,45.765769958,43.653068542,-1.199592590,0.078499511,0.170869499,1.185176373
7.252947,46.643150330,43.714103699,-1.199592590,0.077400878,0.173555046,1.187739849
7.253573,47.413719177,43.920097351,-1.298774719,0.075691894,0.177339226,1.184688091
7.254198,48.237693787,44.148979187,-1.420845032,0.076546386,0.178071648,1.181514263
7.255918,49.519432068,44.759330750,-1.527656555,0.078743652,0.187471062,1.174312115
7.256545,49.900901794,44.904289246,-1.680244446,0.080818847,0.193696648,1.169185162
7.257171,50.244224548,45.125541687,-1.809944153,0.081429198,0.199189812,1.156611919
7.257796,50.671470642,45.255241394,-1.970161438,0.080208495,0.205537468,1.152705669
7.258422,51.251304626,45.293388367,-2.038825989,0.077645019,0.207124382,1.144526958
7.259047,51.487815857,45.545158386,-2.023567200,0.074227050,0.206758171,1.137446880
7.259672,51.846397400,45.362052917,-2.420295715,0.073006347,0.211885124,1.128413677
7.260297,52.166831970,45.789299011,-2.595771790,0.074104980,0.220430046,1.107417583
7.260923,52.540672302,45.537528992,-2.740730286,0.073616698,0.221284539,1.100947857
7.261548,52.601707458,45.583305359,-3.068794250,0.070076659,0.226777703,1.092769146
7.262175,52.899253845,45.537528992,-2.847541809,0.068733886,0.229951531,1.087520123
7.262802,53.006065369,45.514640808,-3.213752747,0.064583495,0.231172234,1.080195904
7.263427,53.334129333,45.514640808,-3.442634583,0.063118652,0.234956414,1.074580669
7.264052,53.463829041,45.484123230,-3.328193665,0.060677245,0.238374382,1.074092388
7.264677,53.341758728,45.392570496,-3.541816711,0.060433105,0.242402703,1.067622662
7.266383,53.372276306,45.140800476,-3.969062805,0.059334472,0.247529656,1.064082623
7.267009,53.067100525,45.041618347,-4.037727356,0.057503417,0.249238640,1.063960552
7.267635,52.822959900,45.049247742,-4.167427063,0.053719237,0.252778679,1.066157818
7.268261,52.349937439,45.041618347,-4.426826477,0.052132323,0.256806999,1.067012310
7.268886,51.701438904,44.896659851,-4.403938293,0.049446777,0.261689812,1.072505474
7.269512,51.541221619,44.644889832,-4.564155579,0.049446777,0.258027703,1.071406841
7.270138,50.907981873,44.988212585,-4.686225891,0.052742675,0.261079460,1.074214458
7.270763,50.099266052,45.033988953,-4.915107727,0.048958495,0.260469109,1.078120708
7.271388,49.481285095,44.911918640,-5.143989563,0.047615722,0.261689812,1.079951763
7.272014,48.703086853,44.980583191,-5.288948059,0.046883300,0.262544304,1.080806255
7.272639,48.062217712,44.934806824,-5.327095032,0.046639159,0.265840203,1.080928326
7.273264,47.215354919,45.033988953,-5.594123840,0.046150878,0.261079460,1.084224224
7.273890,46.353233337,45.156059265,-5.563606262,0.045540527,0.265962273,1.084224224
7.274516,45.750511169,45.224723816,-5.784858704,0.048226073,0.265107781,1.085933208
7.275142,44.926536560,45.384941101,-6.120552063,0.047737792,0.263032585,1.083369732
7.276846,42.561424255,45.995292664,-6.265510559,0.047737792,0.260224968,1.080317974
7.277471,41.790855408,46.254692078,-6.524909973,0.042366698,0.258760124,1.079097271
7.278096,40.890586853,46.437797546,-6.654609680,0.042488769,0.260469109,1.075191021
7.278723,40.066612244,46.582756042,-6.532539368,0.043465331,0.258760124,1.071528912
7.279348,39.288414001,46.842155457,-7.036079407,0.038582519,0.259858757,1.071284771
7.293129,17.521751404,50.542411804,-9.126533508,-0.008658691,0.241181999,1.004756451
7.293833,16.339195251,50.855216980,-9.065498352,-0.012687012,0.241792351,1.002803326
7.294458,15.057456970,50.862846375,-9.263862610,-0.017691895,0.237764031,0.998530865
7.295084,13.829124451,51.168022156,-9.469856262,-0.019278809,0.235200554,0.990352154
7.295710,12.707603455,51.114616394,-9.393562317,-0.021598145,0.230439812,0.984736919
7.296336,11.441123962,51.168022156,-9.523262024,-0.023062989,0.227388054,0.980830669
7.296962,10.472190857,51.045951843,-9.546150208,-0.027701661,0.225068718,0.972285748
7.297589,9.457481384,51.457939148,-9.683479309,-0.032462403,0.221406609,0.969233990
7.298214,8.396995544,51.389274597,-9.508003235,-0.036368653,0.213716179,0.963252544
7.298840,7.412803650,51.366386414,-9.706367493,-0.038565919,0.209565789,0.958003521
7.299466,6.649864197,51.419792175,-9.736885071,-0.039420411,0.206147820,0.955073833
7.300091,5.711448669,51.374015808,-9.828437805,-0.041495606,0.203462273,0.948482037
7.300716,5.162132263,51.618156433,-9.744514465,-0.042960450,0.200044304,0.946040630
7.301343,4.559410095,51.328239441,-9.729255676,-0.044669434,0.193696648,0.944941998
7.303108,2.903831482,51.541862488,-9.721626282,-0.048941895,0.184053093,0.934443951
7.303735,2.339256287,51.198539734,-9.775032043,-0.053824708,0.178804070,0.934321880
7.304362,1.858604431,51.267204285,-9.713996887,-0.055655763,0.174531609,0.929561138
7.304988,1.469505310,51.122245789,-9.652961731,-0.054801270,0.171723992,0.929439068
7.305614,0.904930115,51.297721863,-9.721626282,-0.057730958,0.170869499,0.925044537
7.306241,0.615013123,51.145133972,-9.729255676,-0.059684083,0.164399773,0.924190044
7.306867,0.019920349,51.091728210,-9.919990540,-0.062491700,0.162446648,0.923457623
7.307493,-0.079261780,50.870475769,-9.820808411,-0.063102052,0.158540398,0.917842388
7.308120,-0.430213928,51.168022156,-9.805549622,-0.067252442,0.155244499,0.917964458
7.308746,-0.712501526,50.801811218,-9.775032043,-0.068839356,0.149629265,0.915523052
7.309371,-1.116859436,50.702629089,-9.782661438,-0.070914552,0.147798210,0.912593365
7.309998,-1.338111877,50.824699402,-9.576667786,-0.075675294,0.144746453,0.903926373
7.310624,-1.422035217,50.702629089,-9.721626282,-0.075431153,0.143525749,0.903316021
7.311251,-1.368629456,50.557670593,-9.752143860,-0.078727052,0.135347039,0.899531841
7.311877,-1.353370667,50.473747253,-9.675849915,-0.081046388,0.136323601,0.895747662
7.313548,-1.353370667,50.237236023,-9.614814758,-0.085196778,0.127046257,0.885249615
7.314173,-1.078712463,49.916801453,-9.713996887,-0.085685059,0.122773804,0.878291607
7.314800,-0.933753967,49.756584167,-9.538520813,-0.086905763,0.123140015,0.871089458
7.315427,-0.941383362,49.672660828,-9.477485657,-0.091300294,0.120698608,0.869258404
7.316052,-0.521766663,49.581108093,-9.401191711,-0.088614747,0.119722046,0.864741802
7.316677,-0.178443909,49.314079285,-9.576667786,-0.084708497,0.117280640,0.862788677
7.317303,0.195396423,49.062309265,-9.340156555,-0.083365723,0.111909546,0.858760357
7.317929,0.409019470,48.986015320,-9.340156555,-0.082511231,0.109101929,0.855708599
7.318554,0.859153748,48.818168640,-9.294380188,-0.079947755,0.108735718,0.851558208
7.319179,1.133811951,48.337516785,-9.164680481,-0.080436036,0.103730835,0.851314068
7.319804,1.347434998,48.200187683,-9.225715637,-0.079093263,0.102265991,0.844722271
7.320431,1.934898376,47.826347351,-9.012092590,-0.080680177,0.099458374,0.840327740
7.321057,2.613914490,47.757682800,-9.302009583,-0.080313966,0.096406616,0.837275982
7.321682,2.934349060,47.368583679,-9.164680481,-0.074576661,0.097871460,0.833858013
7.322308,3.422630310,46.956596375,-8.882392883,-0.075553223,0.094453491,0.833003521
7.323996,5.024803162,46.353874207,-9.012092590,-0.077384278,0.087495483,0.827388287
7.324622,5.535972595,46.170768738,-8.935798645,-0.077384278,0.089570679,0.823482037
7.325249,6.054771423,46.124992371,-8.714546204,-0.079337403,0.086640991,0.821040630
7.325874,6.794822693,45.659599304,-8.798469543,-0.077140138,0.083955444,0.823359966
7.339694,35.771263123,38.495597839,-7.860054016,-0.080558106,-0.022123657,0.805537701
7.340439,37.709129333,38.083610535,-7.867683411,-0.089347169,-0.026640259,0.809932232
7.341065,40.066612244,37.938652039,-7.844795227,-0.089103028,-0.029936157,0.812129498
7.341691,42.324913025,37.206230164,-7.509101868,-0.092887208,-0.033476196,0.813350201
7.342317,44.796836853,37.030754089,-7.661689758,-0.097525880,-0.034086548,0.813350201
7.342943,47.200096130,36.534843445,-7.593025208,-0.102408692,-0.039091431,0.810176373
7.343568,49.626243591,36.023674011,-7.440437317,-0.109732911,-0.041288696,0.812251568
7.344195,51.915061951,35.947380066,-7.364143372,-0.111563966,-0.037016235,0.814570904
7.344820,54.631126404,35.298881531,-7.356513977,-0.115348145,-0.040922485,0.810908794
7.345445,57.034385681,34.726676941,-7.127632141,-0.118644044,-0.040556274,0.810054302
7.346072,59.628379822,34.474906921,-7.165779114,-0.121939942,-0.041899048,0.807368755
7.346697,62.107933044,33.917961121,-6.875862122,-0.125357911,-0.037992798,0.807490826
7.347324,64.595115662,33.467826843,-7.036079407,-0.130240723,-0.039213501,0.806514263
7.347950,67.158592224,33.132133484,-6.700386047,-0.131583497,-0.032133423,0.805537701
7.349663,74.658287048,31.697807312,-6.677497864,-0.133048341,-0.017729126,0.798701763
7.350289,76.924217224,31.209526062,-6.479133606,-0.133658692,-0.011869751,0.795405865
7.350915,79.289329529,30.583915710,-6.547798157,-0.134269044,-0.005277954,0.796992779
7.351540,81.593406677,30.126152039,-6.578315735,-0.135245606,0.004365601,0.798945904
7.352166,83.470237732,29.714164734,-6.234992981,-0.138175294,0.013154663,0.793818951
7.352791,85.247886658,29.454765320,-6.196846008,-0.133658692,0.019746460,0.796748638
7.353416,86.850059509,28.997001648,-6.120552063,-0.130118653,0.034272827,0.795283794
7.354041,88.681114197,28.623161316,-6.090034485,-0.130606934,0.046357788,0.794917583
7.354668,89.718711853,28.340873718,-5.960334778,-0.129386231,0.056245483,0.797358990
7.355294,90.847862244,27.982292175,-6.120552063,-0.132193848,0.064790405,0.798335552
7.355920,91.725242615,27.753410339,-5.952705383,-0.130362794,0.072480835,0.796748638
7.356545,92.343223572,27.463493347,-5.906929016,-0.126090333,0.083223023,0.796504498
7.357172,92.831504822,27.226982117,-5.655158997,-0.126334473,0.091157593,0.797114849
7.357797,93.212974548,26.776847839,-5.777229309,-0.123282716,0.104341187,0.797358990
7.358422,93.487632751,26.799736023,-5.586494446,-0.119986817,0.110688843,0.792964458
7.360140,93.586814880,25.746879578,-5.670417786,-0.119010255,0.141572624,0.791865826
7.360765,93.495262146,25.380668640,-5.815376282,-0.118766114,0.151948601,0.788447857
7.361391,92.968833923,25.220451355,-5.601753235,-0.116690919,0.162568718,0.785151958
7.362018,92.320335388,24.709281921,-5.685676575,-0.115714356,0.170259148,0.785029888
7.362645,91.565025330,24.709281921,-5.739082336,-0.117057130,0.181001335,0.780757427
7.363271,90.809715271,24.388847351,-5.662788391,-0.113272950,0.188691765,0.777217388
7.363896,89.634788513,24.175224304,-5.647529602,-0.114371583,0.196992546,0.776362896
7.364523,88.704002380,24.015007019,-5.739082336,-0.116324708,0.205049187,0.771846294
7.365148,87.483299255,23.648796082,-5.723823547,-0.115836427,0.213227898,0.771235943
7.365774,86.071861267,23.397026062,-5.784858704,-0.118155763,0.217622429,0.768550396
7.366401,84.744346619,23.030815125,-5.815376282,-0.117667481,0.223970085,0.766597271
7.367027,83.477867126,22.908744812,-5.983222961,-0.116812989,0.230195671,0.762080669
7.367653,82.211387634,22.550163269,-5.914558411,-0.118277833,0.236055046,0.764400005
7.368278,80.738914490,22.237358093,-6.158699036,-0.117667481,0.241792351,0.759517193
7.368904,78.946006775,21.962699890,-6.006111145,-0.117545411,0.245454460,0.764888287
7.370548,76.023948669,21.527824402,-6.181587219,-0.122062013,0.253511101,0.762080669
7.371173,74.353111267,21.184501648,-6.128181458,-0.122306153,0.259370476,0.763057232
7.371800,72.308433533,20.864067078,-6.234992981,-0.122184083,0.263642937,0.766963482
7.372425,70.492637634,20.474967957,-6.357063293,-0.120597169,0.269380242,0.768184185
7.386119,25.174034119,21.642265320,-6.891120911,-0.125479981,0.218232781,0.834834576
7.386768,23.808372498,21.657524109,-6.952156067,-0.128043458,0.209199578,0.836665630
7.387393,22.709739685,21.962699890,-6.769050598,-0.131827638,0.202851921,0.836909771
7.388018,21.542442322,21.886405945,-7.051338196,-0.134024903,0.194551140,0.838740826
7.388645,20.657432556,22.000846863,-7.089485168,-0.135733888,0.190156609,0.837275982
7.389271,19.970787048,21.787223816,-6.959785461,-0.139762208,0.180146843,0.839595318
7.389896,19.177330017,21.985588074,-7.127632141,-0.140616700,0.174409539,0.839229107
7.390521,18.467796326,21.825370789,-7.142890930,-0.141715333,0.167695671,0.839961529
7.391146,17.765892029,22.122917175,-7.181037903,-0.142813966,0.161103874,0.845576763
7.391771,17.315757751,22.176322937,-6.776679993,-0.143302247,0.153779656,0.844600201
7.392397,16.804588318,22.138175964,-7.005561829,-0.147940919,0.141206414,0.844111919
7.393022,16.529930115,22.405204773,-6.883491516,-0.146476075,0.130830437,0.842280865
7.393649,16.224754333,22.336540222,-6.929267883,-0.149039552,0.126069695,0.847041607
