time,gyro x,gyro y,gyro z,accel x,accel y,accel z
25.004848,10.508209229,5.513679504,-6.281677246,-0.022932127,0.025708618,1.032189608
25.005623,10.767608643,5.635749817,-6.419006348,-0.024641111,0.023023071,1.029015779
25.006250,11.019378662,6.070625305,-6.655517578,-0.024274901,0.025830688,1.029504061
25.006875,10.828643799,5.712043762,-6.502929688,-0.029035643,0.025464477,1.030968904
25.007501,10.935455322,5.910408020,-6.823364258,-0.032087401,0.027051391,1.032189608
25.008128,11.179595947,6.192695618,-6.678405762,-0.034772947,0.027783813,1.032677889
25.008755,11.164337158,6.314765930,-6.884399414,-0.035139158,0.025464477,1.031701326
25.009382,11.355072021,6.574165344,-6.960693359,-0.033674315,0.028882446,1.032922029
25.010014,11.225372314,6.574165344,-6.808105469,-0.034895018,0.031079711,1.030846834
25.010639,11.034637451,6.536018372,-7.059875488,-0.033918455,0.031445920,1.032677889
25.011264,11.011749268,6.680976868,-7.067504883,-0.036970213,0.034253538,1.033776522
25.011890,10.904937744,6.940376282,-7.258239746,-0.035261229,0.036694944,1.030968904
25.012516,10.607391357,6.886970520,-7.288757324,-0.037336424,0.034131467,1.027550936
25.013142,10.569244385,6.879341125,-7.197204590,-0.038679197,0.037427366,1.031579256
25.013767,10.279327393,7.024299622,-7.487121582,-0.037824705,0.037671506,1.030480623
25.014394,10.088592529,7.123481750,-7.487121582,-0.035871580,0.039868772,1.030480623
25.015019,9.508758545,7.337104797,-7.502380371,-0.037946776,0.040845335,1.030358553
25.015645,9.333282471,7.329475403,-7.654968262,-0.038435057,0.037183225,1.032922029
25.016272,8.890777588,7.527839661,-7.731262207,-0.037946776,0.040479124,1.034753084
25.016898,8.295684814,7.688056946,-7.662597656,-0.034284666,0.041821897,1.035973787
25.017524,7.898956299,7.657539368,-7.685485840,-0.034162596,0.043164670,1.036828279
25.018150,7.082611084,7.855903625,-7.654968262,-0.036481932,0.042920530,1.033898592
25.018775,6.914764404,8.054267883,-7.792297363,-0.035017088,0.042310178,1.033776522
25.019401,6.388336182,8.229743958,-7.975402832,-0.035993651,0.043042600,1.036950350
25.020027,5.739837646,8.405220032,-7.799926758,-0.033430174,0.040234983,1.036828279
25.020653,5.205780029,8.412849426,-8.166137695,-0.035261229,0.041577756,1.037682772
25.021280,4.717498779,8.512031555,-8.288208008,-0.035505369,0.040845335,1.040246248
25.021907,4.122406006,8.687507629,-8.272949219,-0.031599119,0.039990842,1.038171053
25.022532,3.351837158,8.992683411,-8.127990723,-0.028547361,0.040357053,1.040612459
25.023158,3.046661377,9.160530090,-8.257690430,-0.024885252,0.038892210,1.038659334
25.023784,2.184539795,9.496223450,-8.318725586,-0.024763182,0.035352170,1.045861483
25.024410,1.566558838,9.572517395,-8.372131348,-0.021345213,0.029981079,1.048180819
25.025036,0.803619385,9.938728333,-8.372131348,-0.020734861,0.024854125,1.050011873
25.025661,0.193267822,10.274421692,-8.715454102,-0.021589354,0.021069946,1.050866365
25.026287,-0.150054932,10.457527161,-8.387390137,-0.022810057,0.012525024,1.049889803
25.026913,-0.851959229,10.411750793,-8.509460449,-0.025983885,0.009839477,1.045617342
25.027540,-1.408905029,10.716926575,-8.501831055,-0.029035643,0.002515258,1.048302889
25.028166,-1.622528076,11.098396301,-8.456054688,-0.029768065,0.004102172,1.046838045
25.028793,-2.370208740,11.235725403,-8.486572266,-0.026838377,0.001538696,1.051598787
25.029419,-2.553314209,11.495124817,-8.761230469,-0.021955565,-0.001879273,1.049889803
25.030044,-3.056854248,11.937629700,-8.311096191,-0.018293455,-0.003710328,1.055871248
25.030670,-3.621429443,12.189399719,-8.440795898,-0.014509276,-0.007738648,1.061486483
25.031296,-3.827423096,12.670051575,-8.280578613,-0.010236815,-0.010302125,1.063073397
25.031921,-4.193634033,12.876045227,-8.448425293,-0.009748533,-0.010912476,1.064538240
25.032548,-4.834503174,13.196479797,-8.150878906,-0.008405760,-0.015917359,1.066125154
25.033174,-5.170196533,13.753425598,-8.364501953,-0.008161619,-0.021532593,1.066735506
25.033799,-5.627960205,13.982307434,-8.555236816,-0.005964354,-0.027025757,1.067589998
25.034425,-5.772918701,14.340888977,-8.143249512,-0.006696776,-0.031786501,1.067834139
25.047076,-8.649200439,20.329963684,-5.739990234,0.010026857,-0.071459353,1.027917147
25.047793,-8.588165283,20.535957336,-5.678955078,0.011125490,-0.073290408,1.027428865
25.048420,-8.717864990,20.772468567,-5.587402344,0.009538576,-0.076708376,1.022546053
25.049045,-8.839935303,20.764839172,-5.427185059,0.010759279,-0.074266970,1.022668123
25.049672,-8.771270752,20.848762512,-5.381408691,0.008684084,-0.073778689,1.018639803
25.050297,-8.466094971,21.092903137,-5.328002930,0.005632326,-0.074755251,1.019494295
25.050923,-8.611053467,21.359931946,-5.114379883,0.004777834,-0.075731814,1.019616365
25.051548,-8.382171631,21.314155579,-4.916015625,0.007463381,-0.078905642,1.019982576
25.052173,-8.336395264,21.497261047,-4.824462891,0.004533693,-0.078173220,1.017297029
25.052798,-8.435577393,21.283638000,-4.694763184,0.000627443,-0.077318728,1.017297029
25.053424,-8.260101318,21.565925598,-4.389587402,0.000749514,-0.079882205,1.014733553
25.054049,-7.741302490,21.893989563,-4.389587402,0.000017092,-0.082689822,1.017907381
25.054675,-7.611602783,21.619331360,-4.153076172,-0.000471190,-0.082811892,1.014245272
25.055300,-7.367462158,21.939765930,-4.175964355,-0.000227049,-0.084276736,1.014245272
25.055927,-7.024139404,21.878730774,-4.023376465,0.003679201,-0.084520876,1.014977694
25.056554,-6.612152100,21.916877747,-4.130187988,-0.004011229,-0.090502322,1.014001131
25.057181,-6.154388428,22.038948059,-3.786865234,-0.004743651,-0.089891970,1.012902498
25.057806,-5.795806885,22.336494446,-3.619018555,-0.002058104,-0.090136111,1.014977694
25.058431,-5.399078369,22.336494446,-3.527465820,-0.006086424,-0.090990603,1.012170076
25.059058,-4.926055908,22.412788391,-3.207031250,-0.007429197,-0.094164431,1.012536287
25.059684,-3.896087646,22.511970520,-3.176513672,-0.010847166,-0.096605837,1.009972811
25.060311,-3.484100342,22.733222961,-3.107849121,-0.012556151,-0.097582400,1.013634920
25.060938,-2.698272705,22.557746887,-3.069702148,-0.016584471,-0.102099001,1.009240389
25.061565,-1.973480225,22.763740540,-2.901855469,-0.017927244,-0.099779665,1.008996248
25.062192,-1.172393799,23.007881165,-2.848449707,-0.016950682,-0.104174197,1.010339022
25.062817,-0.218719482,22.786628723,-2.810302734,-0.020246580,-0.103075564,1.010705233
25.063442,0.513702393,23.076545715,-2.566162109,-0.019880369,-0.104174197,1.008996248
25.064068,1.459747314,23.046028137,-2.543273926,-0.022810057,-0.101000369,1.011803865
25.064694,2.352386475,23.267280579,-2.497497559,-0.023664549,-0.101488650,1.010705233
25.065319,3.298431396,23.129951477,-2.260986328,-0.026350096,-0.102709353,1.006921053
25.065945,4.221588135,23.381721497,-2.116027832,-0.026350096,-0.100145876,1.010461092
25.066572,5.060821533,23.618232727,-2.070251465,-0.030744627,-0.100023806,1.007897615
25.067197,6.006866455,23.343574524,-1.902404785,-0.034895018,-0.101976931,1.003747225
25.067823,7.219940186,23.549568176,-2.009216309,-0.037214354,-0.100390017,1.002038240
25.068449,8.165985107,23.694526672,-1.932922363,-0.040266111,-0.100390017,1.000329256
25.069076,9.295135498,23.618232727,-1.833740234,-0.038679197,-0.096483767,0.999230623
25.069703,10.210662842,23.709785461,-1.726928711,-0.038312986,-0.095263064,0.996789217
25.070328,11.149078369,23.793708801,-1.925292969,-0.042463377,-0.091723025,0.997399569
25.070954,12.339263916,23.595344543,-1.543823242,-0.043195799,-0.089891970,0.994347811
25.071580,13.048797607,23.641120911,-1.574340820,-0.044904783,-0.089525759,0.991784334
25.072205,14.177947998,23.923408508,-1.711669922,-0.045148924,-0.087572634,0.988366365
25.072830,15.154510498,23.801338196,-1.337829590,-0.042341307,-0.085009158,0.987878084
25.073455,15.963226318,23.747932434,-1.391235352,-0.048200682,-0.081224978,0.985802889
25.074154,16.665130615,23.763191223,-1.513305664,-0.046369627,-0.078295290,0.986901522
25.074781,17.511993408,23.831855774,-1.337829590,-0.046979979,-0.077074587,0.978966951
25.075407,18.358856201,23.755561829,-1.391235352,-0.049177244,-0.070604861,0.980920076
25.076034,19.045501709,23.824226379,-1.368347168,-0.048078611,-0.068529665,0.976037264
25.088710,22.822052002,23.816596985,-0.864807129,-0.050764158,-0.007006226,0.933556795
25.089457,22.295623779,23.862373352,-0.895324707,-0.052351072,-0.002123414,0.933190584
25.090083,21.914154053,23.946296692,-0.796142578,-0.050764158,0.001416625,0.936364412
25.090710,21.822601318,23.870002747,-1.002136230,-0.048444822,0.000684204,0.932824373
25.091335,21.296173096,23.808967590,-0.727478027,-0.044660643,0.006055297,0.933312654
25.091961,20.693450928,23.831855774,-0.826660156,-0.044660643,0.008618774,0.931725740
25.092587,20.151763916,23.816596985,-0.841918945,-0.045881346,0.007764282,0.929040194
25.093214,19.404083252,23.778450012,-0.483337402,-0.043562010,0.010571899,0.928796053
25.093840,19.045501709,23.694526672,-0.765625000,-0.041608885,0.012036743,0.928796053
25.094466,18.427520752,24.014961243,-0.689331055,-0.042829588,0.011548461,0.928796053
25.095091,17.893463135,24.007331848,-0.681701660,-0.043806151,0.011670532,0.924035311
25.095717,17.115264893,23.831855774,-0.696960449,-0.040876463,0.011670532,0.922570467
25.096342,16.474395752,24.114143372,-0.719848633,-0.042341307,0.014966430,0.921960115
25.096967,16.039520264,24.137031555,-0.498596191,-0.042463377,0.014478149,0.923424959
25.097592,15.337615967,24.182807922,-0.513854980,-0.044538572,0.014478149,0.920861483
25.098218,14.689117432,24.388801575,-0.605407715,-0.043806151,0.014478149,0.919030428
25.098844,14.200836182,24.312507629,-0.483337402,-0.040632322,0.011670532,0.922570467
25.099471,13.331085205,24.274360657,-0.597778320,-0.039533690,0.010327758,0.919762850
25.100096,12.964874268,24.373542786,-0.361267090,-0.039167479,0.013013305,0.919030428
25.100723,12.247711182,24.350654602,-0.483337402,-0.042951658,0.011548461,0.914880037
25.101349,11.835723877,24.327766418,-0.483337402,-0.039777830,0.013379516,0.914757967
25.101975,11.225372314,24.487983704,-0.544372559,-0.043195799,0.013013305,0.913537264
25.102600,10.607391357,24.533760071,-0.468078613,-0.043806151,0.012525024,0.913293123
25.103227,10.065704346,24.755012512,-0.361267090,-0.046857908,0.011548461,0.910851717
25.104960,8.646636963,24.755012512,-0.376525879,-0.045881346,0.012891235,0.905236483
25.105585,8.005767822,24.632942200,-0.376525879,-0.049665526,0.014111938,0.906579256
25.106212,7.326751709,24.816047668,-0.117126465,-0.048566893,0.013135375,0.901818514
25.106837,7.082611084,24.961006165,-0.452819824,-0.046369627,0.018018188,0.900109529
25.107462,6.403594971,24.732124329,-0.315490723,-0.048078611,0.018262329,0.899499178
25.108089,5.900054932,24.777900696,-0.086608887,-0.050886229,0.017529907,0.897423983
25.108715,5.373626709,25.273811340,-0.262084961,-0.052351072,0.021069946,0.896569490
25.109340,4.816680908,25.044929504,-0.117126465,-0.057355955,0.018384399,0.896447420
25.109966,4.419952393,24.922859192,-0.109497070,-0.057722166,0.025708618,0.894006014
25.110593,3.931671143,24.816047668,-0.361267090,-0.060407713,0.021192016,0.892297029
25.111218,3.138214111,25.029670715,-0.178161621,-0.064558104,0.019360961,0.889001131
25.111843,2.527862549,25.182258606,-0.262084961,-0.066145018,0.020825805,0.888146639
25.112470,1.978546143,24.869453430,-0.269714355,-0.070295408,0.019360961,0.887780428
25.113095,1.650482178,24.869453430,-0.185791016,-0.069440916,0.025464477,0.884850740
25.113720,1.131683350,24.831306458,-0.147644043,-0.072980955,0.023389282,0.884240389
25.114345,0.490814209,24.785530090,-0.040832520,-0.073469236,0.023633422,0.883019686
25.114970,-0.058502197,24.922859192,-0.254455566,-0.076154783,0.025220336,0.877160311
25.115596,-0.546783447,24.594795227,-0.208679199,-0.079206541,0.026807250,0.877038240
25.116221,-1.035064697,24.510871887,-0.353637695,-0.078962401,0.025830688,0.876549959
25.116846,-1.431793213,24.442207336,-0.216308594,-0.081647947,0.028882446,0.871789217
25.117473,-2.019256592,24.526130676,-0.155273438,-0.083967283,0.027051391,0.872765779
25.118099,-2.614349365,24.304878235,-0.307861328,-0.085065916,0.026318969,0.870934725
25.118724,-3.018707275,24.022590637,-0.300231934,-0.086408690,0.027783813,0.869469881
25.119350,-3.377288818,23.885261536,-0.117126465,-0.090925291,0.027905883,0.866173983
25.131960,-9.465545654,20.337593079,-0.498596191,-0.106306151,0.028150024,0.849328279
25.132665,-9.946197510,20.200263977,-0.674072266,-0.107648924,0.028150024,0.847863436
25.133290,-9.969085693,19.856941223,-0.757995605,-0.110944822,0.024854125,0.848473787
25.133916,-9.862274170,19.605171204,-0.757995605,-0.112287596,0.025952758,0.847008944
25.134543,-9.953826904,19.284736633,-0.658813477,-0.115583494,0.024243774,0.850915194
25.135168,-10.037750244,19.299995422,-0.666442871,-0.118146971,0.021069946,0.852868319
25.135795,-9.892791748,18.872749329,-0.918212891,-0.119245604,0.018384399,0.850548983
25.136420,-9.785980225,18.682014465,-0.704589844,-0.121320799,0.017774047,0.850060701
25.137047,-9.862274170,18.422615051,-0.727478027,-0.120100096,0.017041625,0.848595858
25.137672,-9.595245361,18.369209290,-1.055541992,-0.127424315,0.012036743,0.849206209
25.138298,-9.488433838,18.025886536,-0.994506836,-0.129011229,0.012280883,0.849816561
25.138925,-9.167999268,17.575752258,-0.963989258,-0.127058104,0.004590454,0.851159334
25.139552,-8.778900146,17.461311340,-0.963989258,-0.131940916,0.003613891,0.851037264
25.140178,-8.656829834,17.331611633,-1.185241699,-0.133161619,-0.003588257,0.852380037
25.140805,-8.298248291,16.805183411,-1.116577148,-0.134870604,-0.002977906,0.851281404
25.141430,-7.947296143,16.576301575,-1.116577148,-0.133405760,-0.004931031,0.853844881
25.142055,-7.268280029,16.294013977,-1.101318359,-0.133039549,-0.013353882,0.851769686
25.142681,-6.711334229,16.034614563,-1.131835938,-0.132429197,-0.016527710,0.854699373
25.143308,-6.192535400,15.889656067,-1.536193848,-0.129499510,-0.019091187,0.857995272
25.143934,-5.917877197,15.508186340,-1.215759277,-0.132185057,-0.022020875,0.854211092
25.144559,-4.910797119,15.233528137,-1.261535645,-0.129987791,-0.027391968,0.859338045
25.145184,-4.552215576,14.844429016,-1.238647461,-0.129011229,-0.028002320,0.856408358
25.145811,-3.712982178,14.546882629,-1.314941406,-0.126691893,-0.029955445,0.855187654
25.146436,-3.095001221,14.546882629,-1.223388672,-0.127180174,-0.036181033,0.859948397
25.147062,-2.377838135,14.134895325,-1.223388672,-0.125837401,-0.035448611,0.858849764
25.147687,-1.569122314,14.020454407,-1.047912598,-0.122907713,-0.038866580,0.859460115
25.148312,-0.737518311,13.730537415,-1.292053223,-0.126325682,-0.039232790,0.860314608
25.148939,-0.157684326,13.509284973,-1.047912598,-0.122785643,-0.045336306,0.859215975
25.149564,0.734954834,12.975227356,-1.253906250,-0.119123533,-0.043871462,0.856530428
25.150190,1.444488525,12.753974915,-1.345458984,-0.117048338,-0.049608767,0.857873201
25.150816,2.291351318,12.387763977,-1.063171387,-0.115095213,-0.048754275,0.856896639
25.151441,3.306060791,12.219917297,-1.253906250,-0.115949705,-0.051439822,0.857995272
25.152066,3.908782959,11.968147278,-1.086059570,-0.112287596,-0.053270876,0.854821444
25.152692,5.015045166,11.807929993,-1.238647461,-0.110944822,-0.054003298,0.859093904
25.153318,5.915313721,11.449348450,-0.971618652,-0.104353026,-0.053881228,0.855675936
25.153944,6.327301025,11.235725403,-0.902954102,-0.102644041,-0.055101931,0.855553865
25.154571,7.540374756,10.770332336,-1.108947754,-0.103864744,-0.053026736,0.852990389
25.155196,8.188873291,10.694038391,-0.971618652,-0.099958494,-0.057177126,0.854821444
25.155822,8.845001221,10.427009583,-0.849548340,-0.097761229,-0.055956423,0.853112459
25.156449,9.806304932,10.114204407,-0.796142578,-0.097639158,-0.053148806,0.852990389
25.157075,10.546356201,9.732734680,-0.780883789,-0.096418455,-0.052782595,0.854089022
25.157700,11.225372314,9.580146790,-0.765625000,-0.090070799,-0.053148806,0.849084139
25.158326,11.980682373,9.458076477,-0.597778320,-0.090314940,-0.050463259,0.848962069
25.158951,12.537628174,9.084236145,-0.651184082,-0.084699705,-0.049730837,0.851769686
25.159576,13.422637939,8.771430969,-0.628295898,-0.087629393,-0.048632205,0.851647615
25.160201,13.918548584,8.611213684,-0.727478027,-0.086042479,-0.048021853,0.848351717
25.160828,14.467864990,8.252632141,-0.498596191,-0.082014158,-0.043749392,0.848717928
25.161454,15.062957764,8.122932434,-0.422302246,-0.083112791,-0.045092165,0.844201326
25.174110,19.884735107,3.697883606,-0.040832520,-0.085920408,-0.007982789,0.858971834
25.174857,19.861846924,3.507148743,0.081237793,-0.085554197,-0.008226929,0.860924959
25.175483,19.724517822,3.110420227,0.157531738,-0.088605955,-0.006762085,0.861657381
25.176108,19.877105713,3.102790833,-0.048461914,-0.087995604,-0.004808960,0.861657381
25.176770,19.716888428,2.835762024,0.203308105,-0.089948729,-0.004808960,0.864831209
25.177396,19.747406006,2.660285950,0.157531738,-0.089582518,-0.004564820,0.869103670
25.178021,19.770294189,2.553474426,-0.071350098,-0.091901854,-0.005541382,0.866662264
25.178647,19.770294189,2.347480774,0.142272949,-0.095441893,-0.002489625,0.865929842
25.179273,19.671112061,2.286445618,-0.002685547,-0.094343260,0.000684204,0.868493319
25.179900,19.663482666,2.126228333,-0.040832520,-0.091535643,-0.000780640,0.866784334
25.180527,19.495635986,1.935493469,-0.040832520,-0.092023924,-0.001757203,0.865929842
25.181152,19.533782959,1.691352844,-0.269714355,-0.091901854,-0.000658570,0.868737459
25.181778,19.587188721,1.554023743,0.111755371,-0.091413572,0.001538696,0.869347811
25.182404,19.045501709,1.523506165,-0.109497070,-0.092145994,0.000073852,0.873254061
25.183031,19.282012939,1.225959778,-0.063720703,-0.086774901,-0.000658570,0.877282381
25.183657,19.083648682,1.264106750,-0.170532227,-0.085554197,0.002271118,0.873986483
25.184282,19.091278076,1.027595520,-0.193420410,-0.084577635,-0.002855835,0.873376131
25.184909,18.892913818,0.897895813,-0.117126465,-0.081770018,0.000684204,0.874352694
25.185534,18.961578369,0.745307922,-0.201049805,-0.079816893,0.003369750,0.875451326
25.186160,18.694549561,0.562202454,-0.155273438,-0.079816893,0.002759399,0.875085115
25.186785,18.526702881,0.386726379,-0.307861328,-0.081892088,0.006787719,0.872277498
25.187412,18.595367432,0.218879700,-0.422302246,-0.077375486,0.004956665,0.873254061
25.188038,18.267303467,0.188362122,-0.422302246,-0.074812010,0.006543579,0.872033358
25.188665,18.046051025,0.257026672,-0.361267090,-0.073713377,0.009473266,0.871911287
25.189291,18.374114990,-0.139701843,-0.368896484,-0.068342283,0.010327758,0.873620272
25.189916,17.862945557,-0.246513367,-0.597778320,-0.067365721,0.012525024,0.870202303
25.190543,17.626434326,-0.414360046,-0.483337402,-0.066145018,0.014234008,0.876672029
25.191170,17.397552490,-0.383842468,-0.521484375,-0.065534666,0.017529907,0.870690584
25.191796,17.161041260,-0.605094910,-0.513854980,-0.065168455,0.018506469,0.869714022
25.192423,16.756683350,-0.544059753,-0.445190430,-0.067609861,0.018506469,0.871056795
25.193049,16.535430908,-0.734794617,-0.674072266,-0.062360838,0.020337524,0.872765779
25.193676,16.253143311,-0.978935242,-0.674072266,-0.063337401,0.020703735,0.873498201
25.194302,15.650421143,-0.872123718,-0.788513184,-0.063215330,0.022290649,0.870080233
25.194928,15.474945068,-1.101005554,-0.864807129,-0.063825682,0.024365844,0.873864412
25.195553,14.925628662,-1.116264343,-0.994506836,-0.062482908,0.027295532,0.875573397
25.196178,14.589935303,-1.047599792,-0.902954102,-0.062849119,0.027539672,0.874352694
25.196805,14.094024658,-1.444328308,-0.864807129,-0.062604979,0.031812131,0.876672029
25.197432,13.559967041,-1.398551941,-1.162353516,-0.061018065,0.033032835,0.876916170
25.198058,12.987762451,-1.467216492,-0.994506836,-0.059919432,0.037549436,0.878991365
25.198685,12.453704834,-1.589286804,-1.139465332,-0.061506346,0.041821897,0.882775545
25.199311,11.881500244,-1.535881042,-1.177612305,-0.062727049,0.041089475,0.881798983
25.199937,11.431365967,-1.825798035,-1.421752930,-0.060163572,0.043652952,0.885339022
25.200563,10.515838623,-1.963127136,-1.498046875,-0.057600096,0.046216428,0.886681795
25.201190,10.050445557,-2.024162292,-1.513305664,-0.058088377,0.046582639,0.889245272
25.201815,9.256988525,-2.291191101,-1.543823242,-0.057478026,0.047681272,0.891320467
25.202442,8.410125732,-2.291191101,-1.467529297,-0.059553221,0.051831663,0.894982576
25.203067,7.715850830,-2.459037781,-1.726928711,-0.057844236,0.048535764,0.896691561
25.262945,11.980682373,-8.692253113,-2.512756348,-0.067243651,-0.015062867,0.988976717
25.263737,12.827545166,-8.913505554,-2.497497559,-0.068830565,-0.011400757,0.989831209
25.264362,13.598114014,-9.111869812,-2.741638184,-0.072248533,-0.011644898,0.995690584
25.264987,14.414459229,-9.508598328,-3.023925781,-0.070417479,-0.012133179,0.990441561
25.265613,15.375762939,-9.851921082,-3.145996094,-0.076032713,-0.013720093,0.993371248
25.266240,16.115814209,-10.065544128,-3.344360352,-0.076643065,-0.011766968,0.997033358
25.266867,17.206817627,-10.500419617,-3.420654297,-0.075300291,-0.009569703,1.000085115
25.267494,18.084197998,-10.859001160,-3.718200684,-0.072126463,-0.011034546,1.000085115
25.268119,18.633514404,-11.148918152,-3.931823730,-0.070661619,-0.012011109,1.007409334
25.268746,19.442230225,-11.301506042,-4.076782227,-0.067854002,-0.008837281,1.007897615
25.269372,20.357757568,-11.438835144,-4.015747070,-0.067365721,-0.008226929,1.012170076
25.269998,21.113067627,-11.850822449,-4.397216797,-0.060895994,-0.008471070,1.015343904
25.270625,21.822601318,-12.072074890,-4.458251953,-0.058088377,-0.010057984,1.018761873
25.271251,22.555023193,-12.308586121,-4.610839844,-0.056623533,-0.011400757,1.024132967
25.271877,23.180633545,-12.400138855,-5.205932617,-0.052595213,-0.009569703,1.025719881
25.272502,23.844390869,-12.529838562,-4.999938965,-0.051374510,-0.012133179,1.031090975
25.273129,24.515777588,-12.346733093,-5.122009277,-0.045393065,-0.009325562,1.035485506
25.273755,25.087982178,-12.575614929,-5.343261719,-0.040876463,-0.008226929,1.036095858
25.274382,25.385528564,-12.522209167,-5.579772949,-0.036359861,-0.010180054,1.042809725
25.275015,25.835662842,-12.377250671,-5.724731445,-0.029523924,-0.008104859,1.043786287
25.275641,26.224761963,-12.430656433,-5.755249023,-0.029401854,-0.009447632,1.045251131
25.276267,26.407867432,-12.293327332,-6.136718750,-0.024396971,-0.009691773,1.050133944
25.276894,26.812225342,-12.682426453,-5.862060547,-0.020368651,-0.007982789,1.051842928
25.277520,27.109771729,-12.407768250,-6.113830566,-0.017561033,-0.008349000,1.053673983
25.278146,27.430206299,-12.278068542,-6.457153320,-0.015852049,-0.009325562,1.054284334
25.278836,27.376800537,-12.155998230,-6.464782715,-0.011457518,-0.009203492,1.059655428
25.279463,27.521759033,-12.209403992,-6.541076660,-0.008039549,-0.008837281,1.060998201
25.280090,27.590423584,-11.950004578,-6.480041504,-0.008039549,-0.006273804,1.063195467
25.280723,27.201324463,-11.896598816,-6.632629395,-0.003400877,-0.004442750,1.062707186
25.281348,27.231842041,-11.721122742,-6.754699707,-0.000471190,-0.005907593,1.067467928
25.281975,26.995330811,-11.591423035,-6.747070312,0.002336428,-0.004198609,1.066613436
25.282621,26.796966553,-11.347282410,-7.052246094,0.004167482,-0.004808960,1.067589998
25.283246,26.545196533,-11.095512390,-6.983581543,0.010148928,-0.006640015,1.070885897
25.283872,26.102691650,-11.095512390,-6.922546387,0.011003420,-0.006273804,1.070275545
25.284498,25.492340088,-10.698783875,-7.319274902,0.012834474,-0.007006226,1.073693514
25.285123,24.943023682,-10.538566589,-7.418457031,0.018449709,-0.007494507,1.074425936
25.285748,24.485260010,-10.195243835,-7.365051270,0.019914553,-0.005541382,1.075402498
25.286373,23.737579346,-9.867179871,-7.387939453,0.022355959,-0.005663453,1.076379061
25.286998,23.134857178,-9.790885925,-7.342163086,0.020280764,-0.008349000,1.079308748
25.287623,22.600799561,-9.371269226,-7.357421875,0.020891115,-0.011156617,1.078088045
25.288248,21.860748291,-9.401786804,-7.418457031,0.020769045,-0.015795289,1.078332186
25.288874,21.044403076,-9.020317078,-7.502380371,0.022844240,-0.016283570,1.077965975
25.289499,20.373016357,-8.738029480,-7.242980957,0.023210451,-0.021654664,1.075768709
25.290124,19.457489014,-8.715141296,-7.487121582,0.020036623,-0.022997437,1.076745272
25.290750,19.068389893,-8.265007019,-7.548156738,0.017595217,-0.028490601,1.078088045
25.291376,18.175750732,-7.982719421,-7.372680664,0.017839357,-0.031176148,1.077111483
25.292001,16.665130615,-7.502067566,-7.395568848,0.016008303,-0.035570681,1.079186678
25.444571,-11.716217041,-7.639396667,-16.665283203,-0.045393065,0.146436155,1.061730623
25.445331,-11.548370361,-7.654655457,-16.756835938,-0.043928221,0.142163694,1.064782381
25.446015,-11.540740967,-7.593620300,-17.123046875,-0.040876463,0.133130491,1.061608553
25.446641,-11.533111572,-7.196891785,-17.496887207,-0.036359861,0.128858030,1.060509920
25.447267,-11.479705811,-7.250297546,-17.588439941,-0.034284666,0.118848264,1.060509920
25.447893,-11.090606689,-7.387626648,-17.718139648,-0.031110838,0.116650999,1.059899569
25.448520,-11.197418213,-6.952751160,-18.046203613,-0.026228026,0.109326780,1.061730623
25.449147,-11.144012451,-6.845939636,-18.099609375,-0.021833494,0.103467405,1.064782381
25.449772,-10.938018799,-6.754386902,-18.236938477,-0.020734861,0.095410764,1.062340975
25.450399,-10.541290283,-6.487358093,-18.420043945,-0.016950682,0.089063108,1.063317537
25.451026,-10.625213623,-6.342399597,-18.534484863,-0.012067869,0.086499631,1.062585115
25.451651,-10.541290283,-6.060112000,-18.610778809,-0.005231932,0.080762327,1.063683748
25.452276,-10.144561768,-5.663383484,-18.832031250,-0.005109861,0.076245725,1.064538240
25.452902,-9.991973877,-5.678642273,-19.045654297,-0.000349119,0.068921506,1.062463045
25.453527,-9.892791748,-5.396354675,-19.152465820,0.001970217,0.065137327,1.062585115
25.454153,-9.625762939,-5.030143738,-19.121948242,0.005266115,0.057691038,1.062096834
25.454780,-9.389251709,-4.885185242,-19.205871582,0.009294435,0.051953733,1.064294100
25.455405,-9.244293213,-4.656303406,-19.350830078,0.009050295,0.047192991,1.063195467
25.456031,-8.916229248,-4.160392761,-19.511047363,0.015886232,0.036450803,1.067467928
25.456657,-8.916229248,-4.160392761,-19.511047363,0.015886232,0.036450803,1.067467928
25.457283,-8.542388916,-3.969657898,-19.541564941,0.022111818,0.026929321,1.068566561
25.457909,-8.702606201,-3.878105164,-19.610229492,0.026506349,0.018506469,1.067467928
25.458534,-8.359283447,-3.565299988,-19.549194336,0.028703615,0.013501586,1.065636873
25.459160,-8.237213135,-3.405082703,-19.495788574,0.032976076,0.009839477,1.067467928
25.459787,-8.336395264,-3.290641785,-19.465270996,0.038347170,0.003125610,1.066491365
25.460412,-8.008331299,-3.199089050,-19.518676758,0.042863771,-0.001513062,1.064049959
25.461037,-8.221954346,-2.710807800,-19.640747070,0.041643068,-0.004686890,1.065270662
25.461662,-8.038848877,-2.497184753,-19.503417969,0.047990724,-0.010180054,1.062340975
25.462287,-7.848114014,-2.436149597,-19.610229492,0.049943849,-0.016283570,1.066003084
25.462913,-7.939666748,-2.260673523,-19.465270996,0.053728029,-0.023974000,1.063439608
25.463539,-7.779449463,-1.986015320,-19.335571289,0.054460451,-0.029833375,1.059533358
25.464165,-7.878631592,-1.604545593,-19.434753418,0.060197756,-0.035082400,1.064660311
25.464792,-7.527679443,-1.474845886,-19.282165527,0.061540529,-0.040819705,1.062829256
25.465418,-7.275909424,-1.101005554,-19.190612793,0.061784670,-0.048876345,1.061486483
25.483384,-6.825775146,3.545295715,-13.506713867,0.117204592,-0.133593142,1.016076326
25.484102,-7.298797607,3.942024231,-13.056579590,0.114152834,-0.133715212,1.016808748
25.484727,-7.375091553,3.797065735,-12.728515625,0.112077639,-0.134691775,1.012048006
25.485352,-7.764190674,4.010688782,-12.492004395,0.110490724,-0.135790408,1.008385897
25.485978,-7.802337646,4.216682434,-12.148681641,0.108659670,-0.132738650,1.008996248
25.486605,-8.214324951,4.270088196,-11.797729492,0.110368654,-0.134081423,1.006432772
25.487231,-8.672088623,4.186164856,-11.690917969,0.106340334,-0.133593142,1.004601717
25.487857,-9.198516846,4.399787903,-11.477294922,0.102312014,-0.134325564,1.004357576
25.488482,-9.137481689,4.598152161,-10.973754883,0.101579592,-0.133471072,1.000329256
25.489109,-9.663909912,4.315864563,-10.714355469,0.099504396,-0.134935915,1.000085115
25.489734,-9.999603271,4.247200012,-10.226074219,0.099748537,-0.133959353,0.997643709
25.490361,-10.594696045,4.636299133,-9.997192383,0.100725099,-0.130541384,0.994958162
25.490986,-10.884613037,4.270088196,-9.905639648,0.096940920,-0.135180056,0.997277498
25.491611,-11.288970947,4.361640930,-9.325805664,0.094377443,-0.133471072,0.992150545
25.504810,-20.383209229,3.407966614,-3.001037598,0.069353029,-0.101854861,0.957238436
25.505530,-20.322174072,3.270637512,-2.726379395,0.066423342,-0.099291384,0.956750154
25.506157,-20.696014404,3.217231750,-2.566162109,0.063493654,-0.093798220,0.949670076
25.506784,-21.008819580,3.201972961,-2.146545410,0.063493654,-0.093187869,0.952233553
25.507409,-21.046966553,2.759468079,-2.062622070,0.058732912,-0.090502322,0.945275545
25.508034,-21.504730225,2.583992004,-1.833740234,0.055437014,-0.090868533,0.948205233
25.508659,-21.527618408,2.553474426,-1.566711426,0.054338381,-0.084032595,0.945153475
25.509284,-21.733612061,2.271186829,-1.520935059,0.050798342,-0.079760134,0.945275545
25.509910,-21.863311768,2.057563782,-1.070800781,0.045549318,-0.080980837,0.940148592
25.510535,-21.680206299,1.729499817,-0.910583496,0.045183107,-0.077807009,0.939538240
25.511161,-21.977752686,1.760017395,-0.559631348,0.043718264,-0.074144900,0.940270662
25.511787,-21.909088135,1.454841614,-0.498596191,0.037858889,-0.071825564,0.939049959
25.512412,-21.962493896,1.058113098,-0.368896484,0.039201662,-0.071459353,0.936242342
25.513037,-21.916717529,0.928413391,-0.040832520,0.035905764,-0.068895876,0.934289217
25.513663,-21.825164795,0.760566711,-0.101867676,0.035295412,-0.065722048,0.937096834
25.514289,-21.573394775,0.485908508,0.088867188,0.026872560,-0.063646853,0.933800936
25.514915,-21.672576904,0.051033020,0.439819336,0.028947756,-0.058275759,0.935509920
25.515541,-21.291107178,0.035774231,0.523742676,0.024187014,-0.057177126,0.934777498
25.516168,-21.260589600,-0.353324890,0.668701172,0.019548342,-0.055956423,0.935021639
25.516794,-20.955413818,-0.620353699,0.592407227,0.015764162,-0.054247439,0.930260897
25.517419,-20.840972900,-0.574577332,0.966247559,0.015520021,-0.050707400,0.933678865
25.518045,-20.299285889,-0.902641296,0.874694824,0.014177248,-0.049730837,0.934411287
25.518671,-20.108551025,-1.177299500,1.111206055,0.007341310,-0.048388064,0.931847811
25.519297,-19.589752197,-1.444328308,1.301940918,0.005388185,-0.041430056,0.929528475
25.519924,-19.391387939,-1.833427429,1.271423340,0.004533693,-0.040819705,0.931115389
25.520549,-19.055694580,-2.054679871,1.362976074,-0.002058104,-0.035448611,0.930260897
25.521174,-18.552154541,-2.336967468,1.515563965,-0.002546385,-0.033617556,0.935143709
25.521801,-18.208831787,-2.565849304,1.446899414,-0.007551268,-0.030687867,0.933556795
25.522426,-17.812103271,-2.901542664,1.507934570,-0.009016111,-0.028734742,0.930993319
25.523051,-17.377227783,-3.023612976,1.843627930,-0.009992674,-0.024340210,0.932946444
25.523676,-16.835540771,-3.702629089,1.843627930,-0.015485838,-0.021898804,0.932091951
25.524302,-16.377777100,-3.687370300,1.759704590,-0.018537596,-0.019579468,0.932336092
25.524928,-15.874237061,-3.725517273,1.950439453,-0.022932127,-0.015551148,0.931603670
25.525553,-15.340179443,-4.251945496,1.782592773,-0.022932127,-0.012987671,0.935265779
25.526179,-14.829010010,-4.648674011,1.950439453,-0.024885252,-0.011156617,0.934777498
25.526806,-14.287322998,-4.587638855,1.942810059,-0.027570799,-0.009325562,0.932946444
25.527432,-13.944000244,-4.938591003,1.889404297,-0.027937010,-0.005297242,0.932214022
25.528057,-13.181060791,-5.381095886,1.919921875,-0.033186033,-0.004442750,0.935998201
25.528684,-12.929290771,-5.732048035,2.064880371,-0.031354979,0.000928344,0.932824373
25.529309,-12.112945557,-5.968559265,2.072509766,-0.031477049,0.004102172,0.934045076
25.529934,-11.624664307,-6.311882019,1.889404297,-0.039411619,0.005933227,0.935876131
25.530559,-11.075347900,-6.487358093,1.958068848,-0.037458494,0.009595336,0.933678865
25.531186,-10.587066650,-6.830680847,1.767333984,-0.037092283,0.007886352,0.937585115
25.531812,-10.030120850,-7.135856628,1.630004883,-0.038679197,0.014234008,0.935876131
25.532437,-9.290069580,-7.219779968,2.034362793,-0.040998533,0.015210571,0.937585115
25.533063,-8.649200439,-7.746208191,1.645263672,-0.037336424,0.021069946,0.935876131
25.533688,-8.244842529,-7.822502136,1.729187012,-0.039655760,0.022290649,0.935998201
25.547583,2.939849854,-13.323295593,0.081237793,-0.043195799,0.068555295,0.946007967
25.548331,3.252655029,-13.529289246,0.226196289,-0.043684080,0.070752561,0.945763826
25.548957,3.687530518,-13.613212585,0.020202637,-0.041608885,0.072461545,0.949670076
25.549583,4.076629639,-13.941276550,0.020202637,-0.042341307,0.074536741,0.948205233
25.550209,4.633575439,-14.460075378,-0.513854980,-0.039655760,0.074048460,0.950646639
25.550835,4.870086670,-14.315116882,-0.506225586,-0.040144041,0.076001585,0.951134920
25.551460,5.434661865,-14.566886902,-0.498596191,-0.040998533,0.079297483,0.953210115
25.552086,5.884796143,-14.772880554,-0.635925293,-0.040021971,0.076123655,0.954430819
25.552711,5.915313721,-14.887321472,-0.658813477,-0.039777830,0.078320920,0.957848787
25.553336,6.540924072,-14.887321472,-1.009765625,-0.037824705,0.078198850,0.958214998
25.553962,6.754547119,-15.070426941,-1.177612305,-0.038923338,0.078931272,0.961388826
25.554588,7.219940186,-15.375602722,-1.200500488,-0.039167479,0.081860960,0.964196444
25.555214,7.364898682,-15.314567566,-1.169982910,-0.035261229,0.078442991,0.966393709
25.555839,8.089691162,-15.123832703,-1.498046875,-0.035749510,0.078565061,0.969079256
25.556465,8.204132080,-15.352714539,-1.604858398,-0.035871580,0.078198850,0.971642733
25.557092,8.677154541,-15.253532410,-1.734558105,-0.039167479,0.076489866,0.973717928
25.557717,8.974700928,-15.337455750,-1.833740234,-0.036481932,0.075025022,0.976647615
25.558342,9.340911865,-15.490043640,-1.856628418,-0.036359861,0.078320920,0.979333162
25.558968,9.676605225,-15.459526062,-2.077880859,-0.036726072,0.072705686,0.981286287
25.559593,10.065704346,-15.505302429,-2.352539062,-0.035383299,0.072583616,0.984093904
25.560219,10.698944092,-15.543449402,-2.550903320,-0.037092283,0.070386350,0.985192537
25.560845,11.095672607,-15.490043640,-2.543273926,-0.038312986,0.070874631,0.987389803
25.561472,11.370330811,-15.322196960,-2.695861816,-0.035139158,0.069898069,0.992150545
25.562098,11.912017822,-15.436637878,-2.795043945,-0.031110838,0.069043577,0.997155428
25.562723,12.171417236,-15.284049988,-3.046813965,-0.035383299,0.065381467,0.998009920
25.563349,12.781768799,-15.352714539,-3.260437012,-0.035749510,0.066358030,0.999596834
25.563975,13.132720947,-15.467155457,-3.260437012,-0.035749510,0.065259397,0.998742342
25.564600,13.430267334,-15.253532410,-3.382507324,-0.038068846,0.061719358,1.001916170
25.565227,13.949066162,-14.978874207,-3.504577637,-0.035017088,0.058057249,1.001672029
25.565853,14.567047119,-15.131462097,-3.565612793,-0.036237791,0.057813108,1.001549959
25.566480,14.856964111,-15.001762390,-3.855529785,-0.036481932,0.054273069,1.003503084
25.567107,15.116363525,-14.971244812,-4.061523438,-0.035383299,0.055493772,1.003381014
25.567732,15.673309326,-14.688957214,-4.099670410,-0.031965330,0.054761350,1.007897615
25.568358,16.016632080,-14.482963562,-4.236999512,-0.036726072,0.055127561,1.006432772
25.568985,16.314178467,-14.543998718,-4.435363770,-0.033063963,0.053540647,1.007775545
25.569610,16.726165771,-14.338005066,-4.641357422,-0.034406736,0.050366819,1.008874178
25.570236,17.252593994,-14.444816589,-4.801574707,-0.032697752,0.051709592,1.008630037
25.570861,17.450958252,-14.162528992,-4.885498047,-0.034895018,0.052564085,1.007287264
25.571487,17.893463135,-13.826835632,-4.916015625,-0.034528807,0.053174436,1.006432772
25.572112,18.305450439,-13.857353210,-5.060974121,-0.034650877,0.051709592,1.009118319
25.572739,18.526702881,-13.498771667,-5.358520508,-0.036848143,0.052075803,1.005944490
25.573364,18.732696533,-13.597953796,-5.419555664,-0.038801268,0.048413694,1.004967928
25.573990,18.839508057,-13.422477722,-5.289855957,-0.040266111,0.051587522,1.006066561
25.574617,18.808990479,-13.216484070,-5.610290527,-0.039655760,0.051709592,1.005944490
25.575244,19.068389893,-13.163078308,-5.701843262,-0.038801268,0.052442014,1.005334139
25.575870,19.091278076,-13.109672546,-5.785766602,-0.041120604,0.050977170,1.007775545
25.576497,19.213348389,-12.827384949,-5.854431152,-0.042341307,0.051343381,1.004357576
25.589144,7.418304443,-9.653556824,-7.731262207,-0.012434080,0.055493772,1.019128084
25.589854,6.563812256,-9.485710144,-7.510009766,-0.012067869,0.055737913,1.017174959
25.590480,5.190521240,-9.111869812,-7.769409180,-0.005842283,0.052197874,1.021691561
25.591106,4.488616943,-8.944023132,-7.532897949,-0.008649901,0.052930295,1.023034334
25.591733,3.092437744,-8.638847351,-7.494750977,-0.004133299,0.048413694,1.022790194
25.592359,1.948028564,-8.402336121,-7.632080078,-0.002058104,0.050122678,1.024621248
25.592985,0.948577881,-7.921684265,-7.731262207,-0.002424315,0.045606077,1.027917147
25.593611,-0.340789795,-7.585990906,-7.670227051,0.000871584,0.044507444,1.033654451
25.594238,-1.569122314,-7.494438171,-7.593933105,-0.001325682,0.041089475,1.031701326
25.594864,-2.789825439,-7.006156921,-7.716003418,0.000505373,0.041699827,1.030968904
25.595490,-3.941864014,-6.639945984,-7.670227051,0.001115724,0.041699827,1.033288240
25.596115,-5.017608643,-6.281364441,-7.586303711,0.000383303,0.033765256,1.036584139
25.596741,-6.360382080,-5.930412292,-7.471862793,0.003435060,0.032422483,1.035851717
25.597368,-7.619232178,-5.403984070,-7.639709473,0.001970217,0.032666624,1.039391756
25.597993,-8.832305908,-5.220878601,-7.647338867,0.002458498,0.030225219,1.037316561
25.598618,-9.785980225,-4.900444031,-7.273498535,0.004533693,0.031567991,1.036828279
25.599243,-11.006683350,-4.541862488,-7.464233398,0.002458498,0.023145141,1.035485506
25.599869,-12.364715576,-4.366386414,-7.395568848,0.001604006,0.020337524,1.039635897
25.600495,-13.318389893,-3.809440613,-7.204833984,0.004533693,0.014356079,1.038659334
25.601120,-14.752716064,-3.496635437,-7.204833984,0.004167482,0.010938110,1.041100740
25.601746,-15.599578857,-3.344047546,-7.212463379,-0.000959471,0.007642211,1.042321444
25.602372,-16.599029541,-3.061759949,-7.128540039,0.003923342,0.004224243,1.040978670
25.602998,-17.697662354,-2.420890808,-6.830993652,0.000261232,-0.003466187,1.041344881
25.603623,-18.544525146,-2.207267761,-6.983581543,0.001359865,-0.007860718,1.041711092
25.604248,-19.360870361,-2.001274109,-6.945434570,0.001237795,-0.014940796,1.044030428
25.604874,-20.177215576,-1.688468933,-6.754699707,0.000627443,-0.020433960,1.042687654
25.605500,-20.955413818,-1.268852234,-6.434265137,-0.002058104,-0.025560914,1.042077303
25.606125,-21.664947510,-1.162040710,-6.579223633,-0.000349119,-0.030932007,1.039147615
25.606750,-22.076934814,-0.818717957,-6.464782715,-0.001203611,-0.041307986,1.044762850
25.607376,-22.885650635,-0.429618835,-6.258789062,-0.003034666,-0.042772830,1.045739412
25.608002,-23.137420654,-0.299919128,-6.281677246,-0.005109861,-0.046923220,1.045617342
25.608629,-23.442596436,-0.185478210,-6.068054199,-0.003400877,-0.058031619,1.043664217
25.609256,-23.907989502,0.195991516,-5.892578125,-0.003278807,-0.062304080,1.045251131
25.609882,-24.113983154,0.409614563,-6.068054199,-0.005964354,-0.067919314,1.046715975
25.610508,-24.304718018,0.546943665,-5.617919922,-0.003034666,-0.077562869,1.044762850
25.611135,-24.342864990,0.768196106,-5.816284180,-0.004377440,-0.085741580,1.043420076
25.611760,-24.106353760,0.966560364,-5.694213867,-0.004011229,-0.091723025,1.043175936
25.612385,-24.182647705,1.134407043,-5.305114746,-0.004743651,-0.095751345,1.041711092
25.613016,-24.045318604,1.355659485,-5.137268066,-0.008405760,-0.104174197,1.044396639
25.613641,-23.793548584,1.714241028,-5.045715332,-0.005476072,-0.108568728,1.043908358
25.614266,-23.755401611,1.821052551,-4.702392578,-0.005354002,-0.116625369,1.041222811
25.614892,-23.022979736,1.859199524,-4.732910156,-0.002912596,-0.120287478,1.042077303
25.615517,-22.649139404,2.172004700,-4.420104980,-0.005109861,-0.126146853,1.038659334
25.616143,-22.168487549,2.072822571,-4.244628906,-0.004377440,-0.130175173,1.041833162
25.616769,-21.611541748,2.271186829,-4.267517090,-0.005231932,-0.135057986,1.037560701
25.617394,-20.963043213,2.408515930,-4.053894043,-0.002180174,-0.135057986,1.035729647
25.618019,-20.352691650,2.629768372,-3.840270996,-0.004987791,-0.141649783,1.036584139
25.618646,-19.681304932,2.400886536,-3.519836426,-0.003522947,-0.142748415,1.035729647
25.631314,-2.538055420,2.988349915,0.874694824,0.003801271,-0.158251345,1.024499178
25.632059,-1.813262939,3.224861145,1.088317871,0.004777834,-0.155932009,1.026086092
25.632684,-1.271575928,3.179084778,1.355346680,0.008562014,-0.153246462,1.023034334
25.633309,-0.707000732,3.324043274,1.515563965,0.006486818,-0.151659548,1.025841951
25.633934,-0.050872803,3.499519348,1.759704590,0.007097170,-0.153002322,1.022790194
25.634560,0.666290283,3.377449036,2.057250977,0.011979982,-0.149340212,1.027917147
25.635185,1.314788818,3.415596008,2.202209473,0.009416506,-0.149096072,1.027673006
25.635811,1.978546143,3.400337219,2.484497070,0.011735842,-0.148607790,1.026940584
25.636436,2.489715576,3.407966614,2.507385254,0.012224123,-0.149096072,1.027428865
25.637061,2.863555908,3.644477844,2.934631348,0.011613771,-0.149462283,1.026574373
25.637687,3.405242920,3.354560852,3.224548340,0.017351076,-0.145800173,1.027428865
25.638314,4.015594482,3.560554504,3.293212891,0.019670412,-0.140917361,1.026452303
25.638939,4.503875732,3.499519348,3.689941406,0.019670412,-0.139696658,1.027306795
25.639565,5.144744873,3.583442688,4.170593262,0.022966310,-0.140429080,1.029137850
25.640192,5.526214600,3.743659973,3.979858398,0.020158693,-0.139452517,1.027917147
25.640819,6.167083740,3.911506653,4.544433594,0.022233889,-0.136278689,1.024743319
25.641445,6.838470459,3.987800598,4.697021484,0.026994631,-0.133593142,1.023766756
25.642071,7.158905029,4.186164856,4.796203613,0.027604982,-0.132372439,1.029748201
25.642696,7.708221436,4.262458801,5.109008789,0.025163576,-0.128710330,1.027184725
25.643322,8.051544189,4.315864563,5.475219727,0.026872560,-0.126146853,1.023278475
25.643949,8.631378174,4.453193665,5.543884277,0.025773928,-0.124315798,1.024743319
25.644574,9.241729736,4.567634583,5.726989746,0.027727053,-0.120409548,1.023156404
25.645199,9.638458252,4.727851868,6.024536133,0.026628420,-0.117357790,1.025353670
25.645824,10.103851318,5.033027649,6.215270996,0.027849123,-0.112719119,1.025719881
25.647571,11.210113525,5.261909485,6.932434082,0.026140139,-0.099901736,1.024010897
25.648196,11.469512939,5.376350403,7.001098633,0.026750490,-0.094042361,1.020348787
25.648822,11.706024170,5.513679504,7.085021973,0.026262209,-0.089403689,1.020226717
25.649448,12.079864502,5.635749817,7.245239258,0.026506349,-0.085497439,1.021325350
25.650073,12.125640869,5.574714661,7.382568359,0.027727053,-0.078539431,1.019128084
25.650699,12.583404541,5.979072571,7.725891113,0.023942873,-0.072557986,1.017541170
25.651325,12.781768799,5.963813782,7.855590820,0.021379396,-0.069506228,1.017297029
25.651950,12.819915771,5.994331360,7.962402344,0.025041506,-0.063768923,1.014367342
25.652575,12.919097900,6.131660461,7.817443848,0.023698732,-0.057665408,1.013634920
25.653202,12.964874268,6.101142883,8.061584473,0.023454592,-0.054613650,1.012780428
25.653829,13.376861572,6.482612610,8.114990234,0.022722170,-0.048265994,1.014855623
25.654455,13.338714600,6.398689270,8.374389648,0.020769045,-0.040819705,1.012658358
25.655082,13.399749756,6.444465637,8.298095703,0.016130373,-0.036547244,1.012170076
25.655707,13.392120361,6.688606262,8.473571777,0.018937990,-0.031786501,1.011071444
25.656334,13.506561279,7.009040833,8.496459961,0.015764162,-0.028734742,1.012048006
25.656960,13.651519775,6.818305969,8.633789062,0.016252443,-0.022509156,1.012292147
25.657585,13.437896729,7.138740540,8.641418457,0.016252443,-0.016161500,1.010461092
25.658212,13.338714600,7.169258118,8.710083008,0.015153810,-0.010668335,1.009484529
25.658837,13.445526123,7.497322083,8.763488770,0.013566896,-0.010180054,1.012414217
25.659462,13.552337646,7.489692688,8.610900879,0.012468264,-0.005663453,1.009484529
25.660089,13.506561279,7.581245422,8.977111816,0.012468264,-0.001513062,1.012536287
25.660714,13.376861572,7.848274231,9.022888184,0.006364748,0.005567016,1.011681795
25.661340,13.117462158,7.955085754,8.931335449,0.005388185,0.011304321,1.010705233
25.661966,13.407379150,8.168708801,8.923706055,0.005266115,0.008008422,1.008630037
25.662591,13.102203369,8.008491516,8.923706055,0.004533693,0.016675415,1.006921053
25.675222,13.170867920,10.571968079,7.703002930,-0.035749510,0.084058225,0.989709139
25.675932,13.270050049,10.762702942,7.291015625,-0.038801268,0.091260374,0.986779451
25.676558,13.201385498,10.732185364,7.374938965,-0.039045408,0.093701780,0.986901522
25.677184,13.216644287,10.983955383,7.161315918,-0.044538572,0.092847288,0.983117342
25.677810,13.277679443,10.968696594,7.046875000,-0.042707518,0.097485960,0.984826326
25.678436,13.147979736,10.999214172,6.673034668,-0.050031736,0.104077756,0.982140779
25.679061,13.140350342,11.281501770,6.673034668,-0.050153807,0.107739866,0.979943514
25.679687,12.926727295,11.144172668,6.482299805,-0.052839354,0.111646116,0.978600740
25.680313,12.865692139,11.357795715,6.268676758,-0.056745604,0.111768186,0.979455233
25.680939,12.911468506,11.312019348,6.062683105,-0.059797361,0.115918577,0.974938631
25.681565,12.789398193,11.228096008,5.765136719,-0.061628416,0.118848264,0.972497225
25.682192,12.400299072,11.746894836,5.681213379,-0.065656736,0.126416624,0.970666170
25.682819,12.529998779,11.319648743,5.536254883,-0.066999510,0.127026975,0.968590975
25.683444,12.430816650,11.540901184,5.330261230,-0.071516111,0.128125608,0.969079256
25.684069,12.362152100,11.617195129,5.055603027,-0.072248533,0.133984983,0.972008944
25.684694,11.927276611,11.670600891,5.070861816,-0.073225096,0.133252561,0.964318514
25.685321,11.469512939,11.662971497,4.582580566,-0.076643065,0.139111936,0.966393709
25.685947,11.545806885,11.502754211,4.353698730,-0.077863768,0.144605100,0.963219881
25.686574,11.088043213,11.792671204,4.223999023,-0.082136229,0.143872678,0.962853670
25.687199,10.508209229,11.617195129,4.185852051,-0.079938963,0.148511350,0.961632967
25.687826,10.424285889,11.792671204,3.606018066,-0.083479002,0.151074827,0.960534334
25.688511,9.783416748,11.601936340,3.667053223,-0.085310057,0.154859006,0.961144686
25.689136,9.348541260,11.525642395,3.331359863,-0.089216307,0.156201780,0.958825350
25.689761,8.890777588,11.594306946,3.140625000,-0.087141111,0.155469358,0.960412264
25.690388,8.242279053,11.716377258,2.927001953,-0.087995604,0.159253538,0.958825350
25.691014,7.998138428,11.693489075,2.576049805,-0.089216307,0.159985960,0.959557772
25.691639,7.105499268,11.594306946,2.438720703,-0.086774901,0.161572874,0.955773592
25.692264,6.472259521,11.556159973,2.400573730,-0.087263182,0.161450803,0.958337069
25.692890,6.029754639,11.411201477,2.118286133,-0.092390135,0.161450803,0.954674959
25.693515,5.167633057,11.754524231,1.774963379,-0.093366697,0.162671506,0.955163240
25.694141,4.564910889,11.647712708,1.813110352,-0.093000486,0.161572874,0.956139803
25.694767,3.901153564,11.518013000,1.454528809,-0.093488768,0.160352170,0.954308748
25.695392,3.466278076,11.556159973,1.324829102,-0.096052244,0.159741819,0.954186678
25.696019,2.627044678,11.640083313,1.027282715,-0.098371580,0.158154905,0.957238436
25.696646,1.940399170,11.838447571,0.859436035,-0.094709471,0.153516233,0.954430819
25.697271,1.139312744,11.594306946,0.836547852,-0.096418455,0.155957639,0.958459139
25.697896,0.345855713,11.968147278,0.470336914,-0.096052244,0.153394163,0.959435701
25.698523,-0.249237061,11.701118469,0.241455078,-0.100812986,0.150464475,0.960412264
25.699149,-0.554412842,11.724006653,0.058349609,-0.100935057,0.145825803,0.962975740
25.699776,-1.363128662,11.983406067,-0.071350098,-0.102033690,0.142774045,0.959069490
25.700402,-1.775115967,11.968147278,-0.048461914,-0.101423338,0.139111936,0.959923983
25.701027,-2.538055420,11.861335754,-0.521484375,-0.099470213,0.135571897,0.963097811
25.701652,-2.988189697,12.090217590,-0.178161621,-0.099104002,0.135816038,0.964684725
25.702278,-3.674835205,12.029182434,-0.506225586,-0.100324705,0.128247678,0.961999178
25.702904,-4.010528564,12.120735168,-0.590148926,-0.102888182,0.123242795,0.960656404
25.703531,-4.597991943,11.960517883,-0.918212891,-0.099470213,0.119702756,0.962487459
25.704157,-4.918426514,12.227546692,-0.849548340,-0.096906736,0.116406858,0.963708162
25.704784,-5.353302002,12.059700012,-1.063171387,-0.096418455,0.111524045,0.963952303
25.734791,6.426483154,9.854804993,-1.780334473,-0.071760252,0.035596311,0.941613436
25.735564,6.968170166,9.824287415,-1.536193848,-0.075788572,0.040479124,0.940881014
25.736190,7.464080811,9.793769836,-1.742187500,-0.075544432,0.041455686,0.939416170
25.736815,7.998138428,9.381782532,-1.559082031,-0.073103026,0.043164670,0.940514803
25.737441,8.272796631,9.557258606,-1.871887207,-0.078474119,0.050000608,0.942834139
25.738066,8.768707275,9.465705872,-1.498046875,-0.077619627,0.050488889,0.940270662
25.738693,9.066253662,9.152900696,-1.818481445,-0.077985838,0.053052366,0.941857576
25.739320,9.737640381,9.122383118,-1.757446289,-0.078718260,0.056592405,0.939904451
25.739946,9.890228271,9.152900696,-1.704040527,-0.080915526,0.058301389,0.939660311
25.740571,10.332733154,8.817207336,-1.856628418,-0.083967283,0.059277952,0.943200350
25.741198,10.851531982,8.794319153,-2.039733887,-0.083723143,0.064038694,0.940270662
25.741823,10.866790771,8.702766418,-1.948181152,-0.084699705,0.065747678,0.944421053
25.742450,11.622100830,8.939277649,-2.001586914,-0.084699705,0.070386350,0.942712069
25.743075,11.828094482,8.420478821,-2.260986328,-0.087019041,0.070386350,0.945153475
25.743702,11.995941162,8.557807922,-2.238098145,-0.088483885,0.072949827,0.940636873
25.744327,12.324005127,8.504402161,-2.505126953,-0.089704588,0.074292600,0.942589998
25.744953,12.751251221,8.412849426,-2.436462402,-0.088361815,0.079297483,0.940270662
25.745578,12.789398193,8.222114563,-2.566162109,-0.097517088,0.081128538,0.943444490
25.746204,13.186126709,8.168708801,-2.886596680,-0.094831541,0.082105100,0.943932772
25.747955,14.032989502,7.947456360,-3.001037598,-0.097272947,0.088696897,0.942345858
25.748581,14.193206787,7.932197571,-2.955261230,-0.101301268,0.086987913,0.942101717
25.749208,14.185577393,7.710945129,-2.947631836,-0.103254393,0.094067991,0.942223787
25.749833,14.322906494,7.710945129,-3.405395508,-0.104230955,0.094434202,0.941125154
25.750458,14.765411377,7.482063293,-3.359619141,-0.106062010,0.097852170,0.940148592
25.751083,14.803558350,7.665168762,-3.428283691,-0.106428221,0.097485960,0.942101717
25.751708,14.841705322,7.703315735,-3.763977051,-0.108015135,0.099683225,0.942712069
25.752334,15.131622314,7.390510559,-3.802124023,-0.108991697,0.100659788,0.945275545
25.752959,15.001922607,7.459175110,-4.114929199,-0.112043455,0.099561155,0.944054842
25.753585,15.162139893,7.367622375,-4.008117676,-0.111555174,0.099927366,0.943444490
25.754210,14.986663818,7.390510559,-4.214111328,-0.109235838,0.101392210,0.941369295
25.754837,15.078216553,7.138740540,-4.397216797,-0.114973143,0.107129514,0.947106600
25.755463,15.291839600,7.100593567,-4.595581055,-0.114851072,0.103467405,0.944787264
25.756089,15.337615967,7.153999329,-4.435363770,-0.113874510,0.102979124,0.947961092
25.756716,15.223175049,7.001411438,-4.763427734,-0.113996580,0.106275022,0.942956209
25.757342,15.352874756,6.917488098,-4.755798340,-0.114729002,0.105542600,0.943932772
25.757967,15.146881104,6.986152649,-5.137268066,-0.112409666,0.106885374,0.950158358
25.758593,15.131622314,6.948005676,-5.137268066,-0.109846190,0.106763303,0.948449373
25.759218,15.032440186,6.902229309,-5.442443848,-0.110944822,0.109082639,0.948327303
25.759843,14.719635010,6.825935364,-5.389038086,-0.109479979,0.108838499,0.948571444
25.760470,14.574676514,6.848823547,-5.533996582,-0.110090330,0.106275022,0.948693514
25.761097,14.574676514,6.696235657,-5.732360840,-0.107893065,0.108472288,0.946130037
25.761723,14.330535889,6.650459290,-5.739990234,-0.108259276,0.108716428,0.946740389
25.762350,14.002471924,6.673347473,-5.869689941,-0.106428221,0.110547483,0.947961092
25.762976,13.743072510,6.452095032,-5.930725098,-0.103986815,0.110059202,0.945275545
25.763603,13.582855225,6.330024719,-6.167236328,-0.096540526,0.111157835,0.942834139
25.764229,12.957244873,6.604682922,-6.281677246,-0.096662596,0.111646116,0.948815584
25.764856,12.957244873,6.612312317,-6.541076660,-0.095686033,0.111035764,0.949059725
25.765481,12.499481201,6.299507141,-6.495300293,-0.090925291,0.110791624,0.945763826
25.778151,0.963836670,7.016670227,-8.127990723,-0.053815916,0.095166624,0.950890779
25.778855,0.315338135,7.077705383,-8.219543457,-0.051374510,0.094434202,0.948571444
25.779481,-0.150054932,7.138740540,-8.066955566,-0.045515135,0.091748655,0.953576326
25.780108,-1.012176514,7.314216614,-8.478942871,-0.046369627,0.094678342,0.950402498
25.780734,-1.599639893,7.222663879,-8.440795898,-0.043439940,0.094678342,0.949059725
25.781360,-2.583831787,7.443916321,-8.326354980,-0.042341307,0.093457639,0.951623201
25.781986,-3.125518799,7.604133606,-8.219543457,-0.041486815,0.093457639,0.946252108
25.782612,-3.865570068,7.581245422,-8.356872559,-0.041486815,0.096753538,0.949670076
25.783237,-4.353851318,7.680427551,-8.417907715,-0.041853026,0.093701780,0.949792147
25.783863,-5.261749268,7.749092102,-8.463684082,-0.042097166,0.091626585,0.949181795
25.784488,-6.032318115,7.825386047,-8.425537109,-0.042951658,0.092236936,0.951501131
25.785115,-7.016510010,7.749092102,-8.471313477,-0.044660643,0.088452756,0.949303865
25.785740,-7.497161865,7.909309387,-8.562866211,-0.047468260,0.090772092,0.948815584
25.786367,-8.496612549,7.985603333,-8.646789551,-0.047712401,0.086865842,0.949059725
25.786994,-8.954376221,7.947456360,-8.402648926,-0.050031736,0.084790647,0.945641756
25.787620,-9.831756592,8.077156067,-8.524719238,-0.050275877,0.087842405,0.947228670
25.788247,-10.426849365,8.016120911,-8.486572266,-0.054670408,0.084790647,0.945641756
25.788872,-10.846466064,7.848274231,-8.555236816,-0.058698729,0.082715452,0.949303865
25.789497,-11.960357666,8.336555481,-8.669677734,-0.060407713,0.079175413,0.945153475
25.790123,-12.196868896,8.092414856,-8.593383789,-0.064924315,0.078687131,0.947716951
25.790799,-13.097137451,7.955085754,-8.631530762,-0.063215330,0.077588499,0.946862459
25.791425,-13.692230225,8.069526672,-8.433166504,-0.067976072,0.075269163,0.945885897
25.792050,-14.180511475,8.054267883,-8.318725586,-0.067609861,0.072339475,0.945275545
25.792675,-14.737457275,7.779609680,-8.593383789,-0.070661619,0.070020139,0.946618319
25.793301,-14.943450928,7.733833313,-8.547607422,-0.073103026,0.066235960,0.944787264
25.793926,-15.515655518,7.565986633,-8.524719238,-0.071394041,0.064526975,0.948693514
25.794552,-15.927642822,7.588874817,-8.593383789,-0.076520994,0.060254514,0.947839022
25.795179,-16.461700439,7.550727844,-8.631530762,-0.076398924,0.057324827,0.948449373
25.795806,-16.805023193,7.459175110,-8.539978027,-0.073225096,0.055493772,0.948693514
25.796433,-17.072052002,7.146369934,-8.669677734,-0.072736815,0.051587522,0.948205233
25.797060,-17.293304443,6.795417786,-8.547607422,-0.074445799,0.050122678,0.948815584
25.797686,-17.545074463,6.864082336,-8.448425293,-0.072126463,0.047925413,0.948693514
25.798312,-17.720550537,6.909858704,-8.631530762,-0.072126463,0.045361936,0.952843904
25.798938,-17.888397217,6.383430481,-8.494201660,-0.071638182,0.044629514,0.948937654
25.799563,-18.063873291,6.314765930,-8.463684082,-0.069929197,0.040479124,0.946618319
25.800189,-17.926544189,6.177436829,-8.395019531,-0.072004393,0.034497678,0.946862459
25.800815,-17.766326904,6.169807434,-8.448425293,-0.070783690,0.035474241,0.947472811
25.801440,-17.850250244,5.986701965,-8.463684082,-0.068220213,0.032666624,0.950280428
25.802065,-17.720550537,6.062995911,-8.532348633,-0.067731932,0.031323850,0.948327303
25.802690,-17.712921143,5.879890442,-8.181396484,-0.064313963,0.030591430,0.949914217
25.803315,-17.789215088,5.734931946,-8.272949219,-0.063093260,0.029736938,0.951256990
25.803940,-17.506927490,5.574714661,-8.257690430,-0.064680174,0.028882446,0.953454256
25.804567,-17.484039307,5.559455872,-8.417907715,-0.061506346,0.027051391,0.952355623
25.805192,-17.369598389,5.368721008,-8.288208008,-0.061018065,0.028760375,0.953454256
25.805819,-17.110198975,5.086433411,-8.105102539,-0.060163572,0.024976196,0.954552889
25.806444,-17.148345947,5.185615540,-8.211914062,-0.059064940,0.027051391,0.956994295
25.807078,-16.888946533,5.284797668,-8.112731934,-0.060895994,0.025708618,0.956750154
25.807703,-16.759246826,5.025398254,-8.044067383,-0.057966307,0.027417602,0.957970858
25.820377,-14.363616943,2.400886536,-7.471862793,-0.050397947,0.034863889,0.974084139
25.821126,-14.157623291,2.339851379,-7.418457031,-0.049909666,0.034253538,0.973595858
25.821752,-13.966888428,2.408515930,-7.487121582,-0.052717283,0.029370727,0.972741365
25.822378,-13.707489014,2.118598938,-7.517639160,-0.056135252,0.030103149,0.973229647
25.823005,-13.326019287,2.156745911,-7.517639160,-0.056501463,0.030835571,0.973962069
25.823630,-13.058990479,1.721870422,-7.311645508,-0.056013182,0.033154905,0.974328279
25.824255,-12.738555908,1.897346497,-7.334533691,-0.061140135,0.026318969,0.973839998
25.824881,-12.273162842,1.599800110,-7.357421875,-0.062849119,0.028516235,0.977380037
25.825507,-11.998504639,1.485359192,-7.304016113,-0.063215330,0.027173461,0.976891756
25.826132,-11.449188232,1.355659485,-7.357421875,-0.066267088,0.024121704,0.979821444
25.826759,-10.861724854,0.875007629,-7.319274902,-0.070661619,0.021192016,0.979333162
25.827386,-10.434478760,0.699531555,-7.593933105,-0.071027830,0.023023071,0.978600740
25.828016,-10.030120850,0.501167297,-7.288757324,-0.071882322,0.021314086,0.980675936
25.828643,-9.175628662,0.218879700,-7.593933105,-0.075788572,0.018384399,0.977990389
25.829269,-8.748382568,0.226509094,-7.525268555,-0.074323729,0.017896118,0.981286287
25.829894,-8.138031006,-0.353324890,-7.197204590,-0.076032713,0.017651977,0.981042147
25.830521,-7.222503662,-0.368583679,-7.517639160,-0.079572752,0.015942993,0.981774569
25.831146,-6.497711182,-0.597465515,-7.555786133,-0.077741697,0.013745727,0.978356600
25.831771,-5.727142334,-0.757682800,-7.441345215,-0.080915526,0.015698852,0.980309725
25.832397,-4.964202881,-0.963676453,-7.578674316,-0.082624510,0.010083618,0.979211092
25.833022,-4.239410400,-1.352775574,-7.525268555,-0.084333494,0.011670532,0.981042147
25.833648,-3.629058838,-1.467216492,-7.487121582,-0.086042479,0.008008422,0.984460115
25.834274,-2.499908447,-1.818168640,-7.624450684,-0.091535643,0.008496704,0.981164217
25.834899,-1.614898682,-1.963127136,-7.693115234,-0.091535643,0.007153930,0.978600740
25.835524,-0.752777100,-2.192008972,-7.647338867,-0.090681151,0.006177368,0.983361483
25.836150,0.170379639,-2.237785339,-7.685485840,-0.097517088,0.008618774,0.984460115
25.836777,1.017242432,-2.718437195,-7.700744629,-0.099104002,0.002759399,0.983483553
25.837403,1.719146729,-2.893913269,-7.921997070,-0.097517088,0.003003540,0.987267733
25.838028,2.627044678,-3.389823914,-7.708374023,-0.104841307,0.003858032,0.988976717
25.838655,3.557830811,-3.450859070,-7.967773438,-0.104841307,0.001172485,0.988854647
25.839281,4.542022705,-3.542411804,-7.944885254,-0.105085447,0.002637329,0.990197420
25.839906,5.358367920,-3.809440613,-7.868591309,-0.106306151,0.005078735,0.987878084
25.840532,6.273895264,-4.175651550,-7.937255859,-0.106306151,0.001172485,0.991662264
25.841158,7.128387451,-4.274833679,-8.189025879,-0.108747557,0.000928344,0.990807772
25.841783,8.104949951,-4.580009460,-7.914367676,-0.105573729,0.002393188,0.992760897
25.842408,8.845001221,-4.991996765,-8.059326172,-0.107404783,0.002515258,0.994836092
25.843033,9.386688232,-5.197990417,-8.189025879,-0.103742674,0.002271118,0.995446444
25.843659,10.248809814,-5.312431335,-8.127990723,-0.103742674,0.004224243,0.999230623
25.844285,11.027008057,-5.533683777,-8.250061035,-0.106062010,0.005078735,0.998620272
25.844912,11.538177490,-5.777824402,-8.196655273,-0.099104002,0.005811157,1.000451326
25.845538,12.133270264,-5.907524109,-8.303466797,-0.097272947,0.005078735,1.005456209
25.846165,12.720733643,-6.311882019,-8.288208008,-0.094587401,0.002149047,1.002648592
25.847947,14.284759521,-6.517875671,-8.311096191,-0.086408690,0.009717407,1.007775545
25.848572,14.719635010,-6.548393250,-8.326354980,-0.086774901,0.008984985,1.012780428
25.849199,15.139251709,-6.693351746,-8.173767090,-0.081281736,0.012525024,1.014001131
25.849824,15.123992920,-6.861198425,-8.326354980,-0.079572752,0.011792602,1.014245272
25.850449,15.474945068,-6.922233582,-8.326354980,-0.074689940,0.016675415,1.014611483
25.851075,15.734344482,-6.937492371,-8.158508301,-0.071638182,0.017651977,1.017785311
25.863765,9.722381592,-5.533683777,-8.005920410,-0.031232908,0.033154905,1.039147615
25.864481,9.203582764,-5.442131042,-8.021179199,-0.031354979,0.032056272,1.039635897
25.865107,8.837371826,-5.465019226,-8.280578613,-0.028913572,0.029248657,1.043175936
25.865732,8.280426025,-5.281913757,-7.944885254,-0.028791502,0.029736938,1.040368319
25.866357,7.677703857,-5.106437683,-8.013549805,-0.025373533,0.026441040,1.041833162
25.866984,7.151275635,-4.625785828,-8.097473145,-0.030866697,0.028760375,1.042931795
25.867609,6.640106201,-4.786003113,-7.929626465,-0.026716307,0.024487915,1.043298006
25.868234,6.251007080,-4.633415222,-8.051696777,-0.027082518,0.023633422,1.046105623
25.868859,5.762725830,-4.236686707,-8.036437988,-0.024030760,0.019605102,1.048302889
25.869484,5.457550049,-4.343498230,-7.906738281,-0.022443846,0.018384399,1.046227694
25.870109,5.045562744,-4.000175476,-7.799926758,-0.027326658,0.017041625,1.049401522
25.870736,4.519134521,-3.778923035,-7.899108887,-0.023908690,0.013623657,1.047936678
25.871362,4.366546631,-3.542411804,-7.944885254,-0.022687986,0.007764282,1.048791170
25.871987,4.091888428,-3.672111511,-7.822814941,-0.024885252,0.008984985,1.048669100
25.872613,3.878265381,-3.229606628,-7.822814941,-0.025129393,0.006543579,1.049523592
25.873239,3.313690186,-3.015983582,-7.860961914,-0.023298338,0.003858032,1.050988436
25.873865,3.191619873,-2.878654480,-7.830444336,-0.022443846,0.001172485,1.053796053
25.874491,2.611785889,-2.687919617,-7.746520996,-0.020124510,-0.001390992,1.051354647
25.875117,2.611785889,-2.550590515,-7.677856445,-0.023054197,-0.003588257,1.052331209
25.875743,2.535491943,-2.268302917,-7.792297363,-0.020856932,-0.004686890,1.053307772
25.876369,2.192169189,-2.298820496,-7.716003418,-0.021345213,-0.009569703,1.053185701
25.876995,1.963287354,-2.092826843,-7.716003418,-0.016950682,-0.011889039,1.054528475
25.877622,1.742034912,-1.947868347,-7.731262207,-0.018903807,-0.018236695,1.052209139
25.878249,1.680999756,-1.612174988,-7.677856445,-0.018293455,-0.016527710,1.050622225
25.878874,1.642852783,-1.345146179,-7.578674316,-0.012189940,-0.017870484,1.057336092
25.879501,1.383453369,-1.337516785,-7.510009766,-0.012312010,-0.018847046,1.056847811
25.880128,1.368194580,-0.948417664,-7.555786133,-0.012556151,-0.022875367,1.054894686
25.880754,1.253753662,-0.811088562,-7.525268555,-0.009992674,-0.031664431,1.055871248
25.881380,1.124053955,-0.864494324,-7.448974609,-0.005109861,-0.028856812,1.052331209
25.882005,1.116424561,-0.360954285,-7.418457031,-0.003645018,-0.031908572,1.056115389
25.882631,1.024871826,-0.048149109,-7.471862793,-0.003645018,-0.033495486,1.054528475
25.883256,0.895172119,-0.193107605,-7.311645508,0.000139162,-0.035448611,1.055382967
25.883882,0.734954834,0.127326965,-7.296386719,-0.000349119,-0.037523806,1.050500154
25.884508,0.719696045,0.318061829,-6.884399414,0.004411623,-0.044115603,1.051476717
25.885134,0.559478760,0.585090637,-7.044616699,0.008317873,-0.043016970,1.048180819
25.885759,0.490814209,0.661384583,-7.036987305,0.009538576,-0.042284548,1.047936678
25.886386,0.475555420,0.928413391,-7.021728516,0.012102053,-0.043871462,1.046471834
25.887015,0.483184814,0.867378235,-6.930175781,0.016008303,-0.042406619,1.043175936
25.887642,0.055938721,1.271736145,-6.708923340,0.016252443,-0.044603884,1.041344881
25.888267,0.055938721,1.439582825,-6.502929688,0.018449709,-0.043993533,1.041344881
25.888893,-0.211090088,1.698982239,-6.365600586,0.021257326,-0.045458376,1.038171053
25.889519,-0.409454346,1.775276184,-6.419006348,0.022844240,-0.043139040,1.034997225
25.890146,-0.592559814,1.843940735,-6.457153320,0.023698732,-0.043749392,1.038903475
25.890773,-1.141876221,1.920234680,-6.205383301,0.026994631,-0.046312869,1.033044100
25.891399,-1.225799561,2.042304993,-6.289306641,0.027971193,-0.046801150,1.033288240
25.892024,-1.347869873,2.225410461,-5.854431152,0.031755373,-0.046312869,1.030724764
25.892649,-1.592010498,2.202522278,-5.739990234,0.033830568,-0.043993533,1.029748201
25.893275,-2.194732666,2.477180481,-5.587402344,0.037858889,-0.044970095,1.029259920
25.906149,-11.639923096,3.407966614,-2.054992676,0.042863771,-0.029833375,1.005212069
25.906905,-12.097686768,3.255378723,-2.154174805,0.047746584,-0.029100953,1.005334139
25.907530,-12.601226807,3.331672668,-1.940551758,0.042619631,-0.030199585,1.004845858
25.908155,-12.952178955,3.400337219,-1.704040527,0.040544435,-0.029467164,1.005944490
25.908781,-13.356536865,3.346931458,-1.368347168,0.038713381,-0.029100953,1.005456209
25.909406,-13.570159912,3.118049622,-1.475158691,0.032854006,-0.030321656,1.004723787
25.910032,-14.012664795,3.079902649,-1.337829590,0.029924318,-0.029345093,0.999352694
25.910657,-14.386505127,3.453742981,-1.101318359,0.028093264,-0.028368531,1.001672029
25.911283,-14.424652100,3.018867493,-1.154724121,0.022478029,-0.028368531,1.000085115
25.911908,-14.386505127,3.018867493,-0.811401367,0.018205568,-0.030809937,0.996667147
25.912535,-14.615386963,2.980720520,-1.025024414,0.015153810,-0.033007205,0.998498201
25.913160,-14.890045166,2.812873840,-0.696960449,0.012712404,-0.036669314,0.996789217
25.913785,-14.867156982,2.736579895,-0.498596191,0.012346193,-0.036913455,0.998742342
25.914412,-14.729827881,2.637397766,-0.292602539,0.006730959,-0.039110720,0.997155428
25.915038,-14.569610596,2.362739563,-0.262084961,-0.000471190,-0.038500369,0.997155428
25.915663,-14.310211182,2.316963196,-0.384155273,0.000383303,-0.042162478,0.995202303
25.916288,-14.294952393,2.172004700,-0.170532227,-0.001813963,-0.042894900,0.999352694
25.916914,-13.913482666,2.233039856,-0.109497070,-0.004377440,-0.047045290,0.998498201
25.917541,-13.470977783,1.637947083,0.088867188,-0.009870604,-0.046801150,0.993493319
25.918166,-12.601226807,1.431953430,-0.025573730,-0.015363768,-0.051683962,0.997155428
25.918793,-12.601226807,1.431953430,-0.025573730,-0.015363768,-0.051683962,0.997155428
25.919418,-12.021392822,1.294624329,0.149902344,-0.013044432,-0.054857790,0.997399569
25.920045,-11.380523682,1.050483704,0.165161133,-0.012922361,-0.058153689,1.000451326
25.920671,-9.969085693,0.775825500,0.279602051,-0.014387205,-0.063402712,0.995202303
25.921296,-9.297698975,0.318061829,0.302490234,-0.015607908,-0.068041384,0.997033358
25.921921,-8.221954346,0.188362122,0.195678711,-0.013776854,-0.068407595,0.997521639
25.922547,-7.695526123,-0.002372742,0.516113281,-0.014875486,-0.071093142,0.997033358
25.923173,-6.779998779,-0.353324890,0.577148438,-0.016340330,-0.070238650,0.997277498
25.923800,-5.818695068,-0.559318542,0.127014160,-0.017438963,-0.073900759,0.998498201
25.924425,-4.895538330,-0.719535828,0.691589355,-0.013532713,-0.078905642,0.996423006
25.925052,-4.071563721,-0.940788269,0.470336914,-0.010114744,-0.076098025,0.997155428
25.925677,-2.889007568,-1.162040710,0.485595703,-0.009748533,-0.077807009,0.997033358
25.926303,-1.851409912,-1.352775574,0.531372070,-0.009748533,-0.080004275,0.993127108
25.926929,-0.935882568,-1.642692566,0.882324219,-0.004133299,-0.079515994,0.993615389
25.927556,-0.005096436,-1.604545593,0.783142090,-0.002180174,-0.082811892,0.993249178
25.928183,1.017242432,-2.108085632,0.760253906,-0.000471190,-0.081957400,0.995202303
25.928809,1.886993408,-2.329338074,0.935729980,0.003801271,-0.079882205,0.991662264
25.929434,2.962738037,-2.207267761,0.744995117,0.002092287,-0.078417361,0.990197420
25.930061,3.855377197,-2.649772644,0.828918457,0.000627443,-0.079638064,0.988366365
25.930688,4.603057861,-2.840507507,1.057800293,0.005144045,-0.080858767,0.987267733
25.931315,5.518585205,-2.985466003,1.156982422,0.011979982,-0.079882205,0.988976717
25.931942,6.426483154,-3.160942078,1.103576660,0.012224123,-0.076952517,0.987267733
25.932569,7.441192627,-3.336418152,1.187500000,0.012590334,-0.073046267,0.989098787
25.933196,8.104949951,-3.603446960,1.088317871,0.012468264,-0.075243533,0.985070467
25.933822,8.776336670,-3.611076355,1.347717285,0.018693849,-0.074022830,0.984826326
25.934449,9.447723389,-3.870475769,1.408752441,0.015153810,-0.072435915,0.981652498
25.935074,10.050445557,-4.328239441,1.599487305,0.018571779,-0.069017947,0.979577303
25.935699,10.691314697,-4.137504578,1.774963379,0.018571779,-0.066576540,0.980309725
25.949548,10.843902588,-8.570182800,4.391845703,0.013688967,-0.026049195,0.963097811
25.950250,10.500579834,-8.882987976,4.384216309,0.011247560,-0.023363648,0.963586092
25.950875,10.080963135,-8.997428894,4.758056641,0.010881349,-0.022631226,0.963464022
25.951500,9.630828857,-9.218681335,4.872497559,0.011003420,-0.022142945,0.963464022
25.952125,9.302764893,-9.249198914,4.697021484,0.006853029,-0.019945679,0.963341951
25.952750,8.783966064,-9.630668640,4.933532715,0.004289553,-0.014208375,0.962731600
25.953375,8.463531494,-9.691703796,5.116638184,0.003801271,-0.014696656,0.960168123
25.954000,7.975250244,-9.928215027,5.147155762,0.001481935,-0.012499390,0.961632967
25.954626,7.532745361,-10.202873230,5.528625488,-0.001081541,-0.010668335,0.965783358
25.955253,7.113128662,-10.309684753,5.604919434,0.000383303,-0.009447632,0.964928865
25.955879,6.945281982,-10.416496277,5.925354004,-0.003522947,-0.006273804,0.965295076
25.956504,6.235748291,-10.431755066,5.650695801,-0.009016111,-0.007738648,0.962609529
25.957129,5.915313721,-10.714042664,5.856689453,-0.006452635,-0.004686890,0.966149569
25.957754,5.472808838,-10.920036316,5.940612793,-0.009504393,-0.007738648,0.966393709
25.958379,5.068450928,-11.064994812,6.154235840,-0.012556151,-0.002489625,0.967370272
25.959004,4.809051514,-11.286247253,6.123718262,-0.014020994,0.002881469,0.963708162
25.959630,4.465728760,-11.431205750,6.215270996,-0.015729979,0.002026977,0.967858553
25.960256,4.091888428,-11.576164246,6.200012207,-0.018781736,0.001782836,0.968590975
25.960883,3.702789307,-11.499870300,6.367858887,-0.020979002,0.005811157,0.968102694
25.961508,3.176361084,-11.789787292,6.283935547,-0.025007322,0.003858032,0.969445467
25.962133,3.298431396,-11.995780945,6.413635254,-0.028913572,0.008862915,0.969811678
25.962759,2.794891357,-12.247550964,6.413635254,-0.030866697,0.006055297,0.970544100
25.963385,2.764373779,-12.415397644,6.520446777,-0.034162596,0.008130493,0.968957186
25.964014,2.642303467,-12.728202820,6.535705566,-0.033552244,0.011182250,0.967858553
25.964640,2.344757080,-12.583244324,6.665405273,-0.036359861,0.012647094,0.971154451
25.965266,1.871734619,-12.781608582,6.482299805,-0.040998533,0.012891235,0.971520662
25.965891,2.024322510,-12.934196472,6.375488281,-0.039289549,0.012891235,0.972741365
25.966516,2.001434326,-12.979972839,6.421264648,-0.044050291,0.017896118,0.969323397
25.967142,1.803070068,-13.231742859,6.406005859,-0.043684080,0.015454711,0.970666170
25.985088,-2.126068115,-17.450798035,3.842529297,-0.054670408,0.069287717,0.975793123
25.985713,-2.423614502,-17.672050476,3.819641113,-0.053083494,0.066358030,0.981774569
25.986339,-2.675384521,-17.923820496,3.628906250,-0.054304197,0.067456663,0.980065584
25.986965,-2.942413330,-17.977226257,3.491577148,-0.048322752,0.067822874,0.980798006
25.987592,-3.621429443,-18.045890808,3.415283203,-0.048566893,0.068433225,0.982629061
25.988218,-3.575653076,-17.931449890,3.079589844,-0.047102049,0.067090452,0.984582186
25.988844,-3.819793701,-18.335807800,3.010925293,-0.048566893,0.066602170,0.983605623
25.989470,-4.353851318,-18.251884460,3.056701660,-0.046369627,0.067822874,0.987023592
25.990096,-4.620880127,-18.579948425,2.888854980,-0.041975096,0.064893186,0.987023592
25.990722,-4.880279541,-18.381584167,2.629455566,-0.039045408,0.066602170,0.991051912
25.991347,-5.383819580,-18.671501160,2.690490723,-0.036115721,0.068067014,0.995812654
25.991973,-5.643218994,-18.557060242,2.408203125,-0.035017088,0.065869749,0.992516756
25.992599,-5.833953857,-18.541801453,2.591308594,-0.033063963,0.065991819,0.992760897
25.993225,-6.337493896,-18.724906921,2.339538574,-0.032819822,0.062940061,0.997521639
25.993851,-6.558746338,-18.900382996,2.385314941,-0.031354979,0.060620725,0.996178865
25.994477,-6.947845459,-19.213188171,2.202209473,-0.025739744,0.060864866,0.999840975
25.995104,-7.169097900,-19.251335144,1.919921875,-0.024519041,0.061719358,1.003136873
25.995731,-7.466644287,-19.060600281,1.996215820,-0.023542479,0.058423460,1.001672029
25.996398,-7.947296143,-19.182670593,1.843627930,-0.021467283,0.057324827,1.004845858
26.009176,-8.733123779,-19.930351257,-0.109497070,0.004167482,-0.005663453,1.023766756
26.009944,-8.298248291,-20.319450378,-0.223937988,0.005021974,-0.011889039,1.023888826
26.010570,-7.802337646,-20.197380066,-0.094238281,0.004167482,-0.017748414,1.027428865
26.011197,-7.336944580,-20.342338562,-0.307861328,0.007219240,-0.019335328,1.023888826
26.011822,-6.558746338,-20.159233093,-0.490966797,0.004777834,-0.024584351,1.030968904
26.012447,-5.833953857,-20.380485535,-0.323120117,0.005998537,-0.025805054,1.032067537
26.013074,-5.223602295,-20.533073425,-0.460449219,0.004533693,-0.033617556,1.033288240
26.013699,-4.605621338,-20.502555847,-0.437561035,0.008562014,-0.038866580,1.031335115
26.014324,-3.903717041,-20.571220398,-0.597778320,0.006364748,-0.042406619,1.032067537
26.014949,-2.843231201,-20.494926453,-0.674072266,0.006853029,-0.045458376,1.035119295
26.015576,-1.767486572,-20.639884949,-0.750366211,0.006853029,-0.047289431,1.036462069
26.016201,-1.103729248,-20.731437683,-0.750366211,0.007097170,-0.049974978,1.039025545
26.016826,-0.409454346,-20.739067078,-0.948730469,0.009782717,-0.053759158,1.041344881
26.017452,0.269561768,-20.731437683,-0.803771973,0.005510256,-0.056810915,1.042443514
26.018077,1.597076416,-20.952690125,-0.918212891,0.007707521,-0.060106814,1.041466951
26.018704,2.314239502,-20.769584656,-0.819030762,0.008195803,-0.060473025,1.043420076
26.019329,2.939849854,-21.051872253,-0.979248047,0.008684084,-0.064379275,1.045129061
26.019955,3.763824463,-20.922172546,-0.933471680,0.008928224,-0.065966189,1.046471834
26.020582,4.755645752,-21.044242859,-1.383605957,0.008317873,-0.066820681,1.049279451
26.021207,5.526214600,-20.983207703,-0.780883789,0.013688967,-0.064867556,1.049279451
26.021833,6.388336182,-21.189201355,-1.398864746,0.015031740,-0.065722048,1.049523592
26.022458,6.830841064,-20.960319519,-1.223388672,0.014665529,-0.068529665,1.052697420
26.023085,7.555633545,-21.036613464,-1.215759277,0.015764162,-0.071825564,1.055627108
26.023710,8.234649658,-21.196830750,-1.223388672,0.015764162,-0.069140017,1.053429842
26.024335,8.730560303,-21.364677429,-1.231018066,0.020036623,-0.071947634,1.056603670
26.024960,9.524017334,-21.311271667,-1.353088379,0.021013185,-0.073656619,1.056115389
26.025586,9.760528564,-21.227348328,-1.246276855,0.022722170,-0.072802126,1.056603670
26.026213,10.508209229,-21.288383484,-1.375976562,0.025041506,-0.074633181,1.056481600
26.026853,10.973602295,-21.364677429,-1.513305664,0.028947756,-0.074999392,1.058556795
26.027500,11.240631104,-21.502006531,-1.345458984,0.029924318,-0.077807009,1.059167147
26.028126,11.767059326,-21.158683777,-1.314941406,0.032731935,-0.078173220,1.060998201
26.028752,12.049346924,-21.341789246,-1.353088379,0.038347170,-0.076952517,1.063195467
26.029377,12.377410889,-21.448600769,-1.276794434,0.041154787,-0.077807009,1.062829256
26.030004,12.392669678,-21.265495300,-1.131835938,0.040544435,-0.080248415,1.061974764
26.030629,12.842803955,-21.173942566,-1.330200195,0.046892092,-0.081102908,1.063805819
26.031255,12.903839111,-21.036613464,-1.032653809,0.047014162,-0.082445681,1.062707186
26.031881,13.102203369,-21.242607117,-0.841918945,0.052019045,-0.084154665,1.062463045
26.032506,12.903839111,-21.036613464,-0.811401367,0.054338381,-0.087816775,1.061730623
26.033131,13.323455811,-20.975578308,-0.986877441,0.056779787,-0.088549197,1.064416170
26.033756,13.132720947,-21.067131042,-0.750366211,0.056413576,-0.086596072,1.068566561
26.034382,13.224273682,-20.845878601,-0.674072266,0.063981935,-0.093187869,1.067956209
26.035016,13.178497314,-20.716178894,-0.521484375,0.065935060,-0.092089236,1.067589998
26.035641,13.346343994,-20.555961609,-0.178161621,0.068742678,-0.092577517,1.066247225
26.036268,12.926727295,-20.678031921,-0.338378906,0.069963381,-0.094286501,1.066735506
26.036895,12.934356689,-20.632255554,-0.201049805,0.074235842,-0.097338259,1.068932772
26.037521,12.949615479,-20.670402527,0.012573242,0.073381349,-0.099291384,1.066003084
26.038146,12.926727295,-20.273674011,0.127014160,0.073259279,-0.101732790,1.067712069
26.052030,11.011749268,-17.343986511,3.651794434,0.124528810,-0.140307009,1.092126131
26.052741,10.904937744,-17.000663757,3.720458984,0.126604006,-0.138353884,1.093713045
26.053366,11.019378662,-16.649711609,4.010375977,0.128679201,-0.138475955,1.094079256
26.053992,10.706573486,-16.626823425,4.323181152,0.130266115,-0.138964236,1.095177889
26.054617,10.416656494,-16.108024597,4.338439941,0.129167482,-0.135912478,1.098229647
26.055243,10.615020752,-16.169059753,4.651245117,0.132951662,-0.133715212,1.097131014
26.055870,10.218292236,-15.718925476,4.903015137,0.130632326,-0.134691775,1.097741365
26.056495,10.012298584,-15.596855164,4.765686035,0.132463381,-0.130907595,1.095422029
26.057121,9.981781006,-15.284049988,5.139526367,0.132341310,-0.130175173,1.097008944
26.057747,9.661346436,-14.887321472,5.246337891,0.133928224,-0.129076540,1.098351717
26.058373,9.165435791,-14.627922058,5.208190918,0.133562014,-0.126390994,1.096276522
26.058998,9.142547607,-14.185417175,5.696472168,0.136613771,-0.127733767,1.099938631
26.059623,8.684783936,-13.941276550,5.803283691,0.135270998,-0.121752322,1.098107576
26.060249,8.524566650,-13.681877136,6.009277344,0.136125490,-0.121630251,1.099206209
26.060875,8.120208740,-13.399589539,5.971130371,0.133562014,-0.121141970,1.098229647
26.061501,7.670074463,-12.957084656,6.154235840,0.137590334,-0.117479861,1.100548983
26.062126,7.372528076,-12.766349792,6.436523438,0.135270998,-0.115160525,1.101037264
26.062752,6.983428955,-12.430656433,6.611999512,0.139055178,-0.112841189,1.100182772
26.063378,6.685882568,-12.232292175,6.611999512,0.136857912,-0.109179080,1.101281404
26.064003,6.174713135,-11.759269714,6.673034668,0.136979982,-0.111986697,1.099206209
26.064628,5.640655518,-11.545646667,6.886657715,0.135026857,-0.108202517,1.099450350
26.065255,5.160003662,-11.255729675,6.962951660,0.134050295,-0.103563845,1.098839998
26.065881,4.625946045,-10.973442078,7.115539551,0.136491701,-0.103075564,1.099450350
26.066507,4.343658447,-10.591972351,7.313903809,0.137590334,-0.101366580,1.100304842
26.067132,3.893524170,-10.187614441,7.336791992,0.138078615,-0.095873415,1.097619295
26.067758,3.290802002,-10.088432312,7.451232910,0.138688967,-0.096239626,1.098839998
26.068384,2.665191650,-9.737480164,7.764038086,0.138078615,-0.092333376,1.099206209
26.069015,1.963287354,-9.333122253,7.519897461,0.138444826,-0.088305056,1.096520662
26.069641,1.787811279,-9.058464050,7.786926270,0.138322756,-0.089403689,1.095788240
26.070267,1.345306396,-8.776176453,8.145507812,0.137712404,-0.089525759,1.097008944
26.070892,0.658660889,-8.203971863,8.000549316,0.137224123,-0.087816775,1.095910311
26.071517,0.139862061,-8.074272156,8.130249023,0.136491701,-0.084398806,1.093835115
26.072142,-0.401824951,-7.639396667,8.366760254,0.132951662,-0.080248415,1.093468904
26.072768,-0.897735596,-7.357109070,8.473571777,0.132585451,-0.078905642,1.090783358
26.073394,-1.546234131,-6.990898132,8.397277832,0.130388185,-0.075975955,1.090539217
26.074019,-2.072662354,-6.845939636,8.649047852,0.127336428,-0.073778689,1.089440584
26.074646,-2.606719971,-6.456840515,8.702453613,0.123430178,-0.075243533,1.087731600
26.075271,-3.201812744,-5.869377136,8.794006348,0.123063967,-0.071825564,1.086266756
26.075898,-3.598541260,-5.777824402,8.816894531,0.120378420,-0.071581423,1.082482576
26.076523,-3.980010986,-5.495536804,9.000000000,0.119890139,-0.068407595,1.085046053
26.077149,-4.506439209,-5.175102234,9.038146973,0.113664553,-0.067553103,1.081628084
26.077776,-5.078643799,-4.816520691,9.045776367,0.110002443,-0.067064822,1.080407381
26.078401,-5.627960205,-4.816520691,9.183105469,0.107316896,-0.064135134,1.079797029
26.079027,-5.925506592,-4.320610046,9.312805176,0.104143068,-0.061937869,1.077477694
26.079653,-6.451934814,-4.091728210,9.320434570,0.099870607,-0.061327517,1.078576326
26.080279,-6.924957275,-4.068840027,9.328063965,0.100114748,-0.059984744,1.078088045
26.080904,-7.367462158,-3.885734558,9.335693359,0.095598146,-0.059984744,1.075768709
26.081529,-7.741302490,-3.794181824,9.328063965,0.095476076,-0.060473025,1.072594881
26.094282,-9.816497803,-2.192008972,10.098632812,0.061662599,-0.058641970,1.041833162
26.095139,-9.847015381,-2.253044128,10.342773438,0.067277834,-0.058519900,1.039757967
26.095809,-9.297698975,-1.924980164,10.174926758,0.062639162,-0.058764040,1.043542147
26.096435,-9.007781982,-2.382743835,10.182556152,0.068864748,-0.055590212,1.042077303
26.097061,-8.855194092,-2.222526550,10.304626465,0.069841310,-0.055346072,1.041222811
26.097687,-8.572906494,-2.199638367,10.159667969,0.064592287,-0.056200564,1.044152498
26.098424,-8.008331299,-2.199638367,10.510620117,0.068498537,-0.056322634,1.043298006
26.099050,-7.680267334,-2.367485046,10.106262207,0.067644045,-0.053881228,1.042565584
26.099676,-7.451385498,-2.039421082,10.388549805,0.068010256,-0.051806033,1.042565584
26.100307,-7.237762451,-1.886833191,10.510620117,0.070207521,-0.048876345,1.044274569
26.100933,-6.810516357,-2.291191101,10.251220703,0.067155764,-0.049974978,1.042199373
26.101558,-6.581634521,-1.993644714,10.411437988,0.067155764,-0.051683962,1.043420076
26.102185,-6.215423584,-1.986015320,10.335144043,0.066057131,-0.051439822,1.042077303
26.102812,-5.780548096,-1.841056824,10.579284668,0.068864748,-0.049730837,1.041344881
26.103438,-5.643218994,-1.963127136,10.388549805,0.066545412,-0.046923220,1.040490389
26.104064,-5.208343506,-1.879203796,10.464843750,0.067155764,-0.050219119,1.039513826
26.104690,-4.765838623,-1.772392273,10.335144043,0.067766115,-0.048265994,1.042687654
26.105316,-4.285186768,-1.574028015,10.541137695,0.066057131,-0.048388064,1.045373201
26.105942,-3.987640381,-1.726615906,10.647949219,0.065446779,-0.049486697,1.044518709
26.106568,-3.682464600,-1.688468933,10.426696777,0.062639162,-0.047045290,1.037926912
26.107195,-3.316253662,-1.459587097,10.609802246,0.065202639,-0.044359744,1.044518709
26.107821,-2.713531494,-1.451957703,10.571655273,0.061784670,-0.041307986,1.044274569
26.108448,-2.316802979,-1.482475281,10.632690430,0.063371584,-0.040575564,1.041589022
26.109073,-2.202362061,-1.329887390,10.518249512,0.061540529,-0.041307986,1.039880037
26.109699,-1.576751709,-1.375663757,10.617431641,0.060563967,-0.038744509,1.041344881
26.110325,-1.096099854,-1.322257996,10.716613770,0.060319826,-0.039476931,1.034508944
26.110951,-0.874847412,-1.360404968,10.548767090,0.059953615,-0.034960330,1.037316561
26.111576,-0.241607666,-1.268852234,10.708984375,0.058610842,-0.030809937,1.037682772
26.112202,0.048309326,-1.131523132,10.785278320,0.056657717,-0.029833375,1.035485506
26.112828,0.338226318,-1.184928894,10.480102539,0.056413576,-0.029467164,1.035241365
26.113453,0.750213623,-1.169670105,10.617431641,0.056169435,-0.027391968,1.034386873
26.114078,1.375823975,-1.314628601,10.525878906,0.053483889,-0.024828492,1.035241365
26.114704,1.742034912,-1.337516785,10.625061035,0.054948732,-0.019213257,1.031213045
26.115331,2.070098877,-1.230705261,10.518249512,0.052873537,-0.019701539,1.027673006
26.115958,2.314239502,-1.337516785,10.708984375,0.048601076,-0.018969117,1.028649569
26.116585,2.718597412,-1.207817078,10.472473145,0.049821779,-0.015917359,1.022790194
26.117211,2.894073486,-1.215446472,10.586914062,0.048234865,-0.012011109,1.024865389
26.117838,3.351837158,-1.245964050,10.602172852,0.047258303,-0.010546265,1.025475740
26.118464,3.580718994,-1.329887390,10.632690430,0.043474123,-0.006762085,1.020592928
26.119091,4.259735107,-1.490104675,10.457214355,0.041765139,-0.006762085,1.020104647
26.119718,4.580169678,-1.329887390,10.686096191,0.041398928,-0.002611695,1.018273592
26.120345,4.519134521,-1.360404968,10.663208008,0.039079592,0.002026977,1.013146639
26.120971,4.976898193,-1.543510437,10.388549805,0.040910646,0.002393188,1.013634920
26.121597,5.457550049,-1.528251648,10.541137695,0.038591310,0.007886352,1.015465975
26.122224,5.709320068,-1.444328308,10.449584961,0.038347170,0.007764282,1.012780428
26.122850,5.861907959,-1.459587097,10.434326172,0.034562990,0.011670532,1.010461092
26.123475,6.243377686,-1.734245300,10.426696777,0.033708498,0.012891235,1.010583162
26.124100,6.334930420,-1.703727722,10.380920410,0.030656740,0.015210571,1.011559725
26.136756,9.394317627,-2.459037781,8.923706055,0.003312990,0.063672483,1.002526522
26.137470,9.272247314,-2.092826843,8.855041504,-0.001325682,0.068433225,1.000207186
26.138095,9.310394287,-2.237785339,8.687194824,0.001604006,0.067578733,1.002282381
26.138722,9.348541260,-2.321708679,8.343872070,-0.000349119,0.071118772,1.003991365
26.139349,9.287506104,-2.283561707,8.259948730,-0.000227049,0.071729124,1.005334139
26.139976,9.340911865,-2.069938660,8.313354492,-0.006330565,0.071607053,1.007409334
26.140602,9.333282471,-2.138603210,8.023437500,-0.002546385,0.076978147,1.004723787
26.141228,9.295135498,-2.359855652,8.160766602,-0.008405760,0.075025022,1.004479647
26.141854,9.379058838,-2.024162292,7.977661133,-0.008161619,0.077466428,1.002892733
26.142481,8.982330322,-1.902091980,7.611450195,-0.009870604,0.076978147,1.002404451
26.143107,9.089141846,-1.924980164,7.847961426,-0.010480955,0.079907835,1.003869295
26.143734,8.814483643,-2.008903503,7.588562012,-0.009992674,0.080274045,1.000939608
26.144359,8.906036377,-2.054679871,7.344421387,-0.013776854,0.081616819,0.997765779
26.144984,8.791595459,-1.986015320,7.313903809,-0.015363768,0.083081663,1.000085115
26.145611,8.677154541,-1.879203796,7.161315918,-0.012556151,0.080396116,0.998986483
26.146236,8.715301514,-1.947868347,7.191833496,-0.015729979,0.081250608,0.997277498
26.146862,8.806854248,-1.856315613,6.940063477,-0.013898924,0.085400999,0.999718904
26.147488,8.417755127,-1.673210144,6.810363770,-0.015485838,0.088818967,0.994469881
26.148113,8.318572998,-2.008903503,6.604370117,-0.012067869,0.086987913,0.996545076
26.148740,8.196502686,-1.703727722,6.421264648,-0.016462401,0.086255491,0.993737459
26.149366,7.982879639,-1.772392273,6.314453125,-0.015363768,0.090527952,0.992638826
26.149992,7.906585693,-1.886833191,6.138977051,-0.015607908,0.093457639,0.993615389
26.150618,7.441192627,-1.421440125,6.085571289,-0.015729979,0.092847288,0.987756014
26.152352,6.716400146,-1.650321960,5.650695801,-0.016340330,0.095532835,0.983361483
26.152978,6.457000732,-1.665580750,5.726989746,-0.016706541,0.099317014,0.984460115
26.153604,5.877166748,-1.635063171,5.711730957,-0.015119627,0.098340452,0.982629061
26.154229,5.709320068,-1.718986511,5.574401855,-0.015729979,0.099194944,0.980920076
26.154854,5.556732178,-1.612174988,5.330261230,-0.014265135,0.097363889,0.980920076
26.155479,4.885345459,-1.772392273,5.215820312,-0.013898924,0.099805295,0.977502108
26.156105,4.595428467,-1.512992859,5.170043945,-0.016584471,0.099194944,0.975793123
26.156730,4.038482666,-1.841056824,5.009826660,-0.017072752,0.103955686,0.975304842
26.157356,3.512054443,-1.764762878,4.697021484,-0.014997557,0.102734983,0.974450350
26.157982,3.054290771,-1.940238953,4.582580566,-0.016462401,0.103345335,0.970177889
26.158608,2.421051025,-1.848686218,4.712280273,-0.016096190,0.102857053,0.975548983
26.159233,2.161651611,-1.764762878,4.445251465,-0.017683104,0.103467405,0.971642733
26.159858,1.528411865,-1.917350769,4.285034180,-0.017438963,0.102124631,0.969811678
26.160484,1.108795166,-1.886833191,4.223999023,-0.015485838,0.103223264,0.969689608
26.161111,0.445037842,-1.825798035,4.132446289,-0.015607908,0.102979124,0.967492342
26.161736,0.063568115,-2.047050476,4.048522949,-0.017438963,0.101025999,0.964928865
26.162361,-0.485748291,-2.054679871,3.918823242,-0.015485838,0.097974241,0.971886873
26.162986,-1.073211670,-1.932609558,3.644165039,-0.017805174,0.098706663,0.968346834
26.163613,-1.439422607,-2.085197449,3.766235352,-0.018659666,0.096875608,0.968957186
26.164239,-2.202362061,-2.260673523,3.598388672,-0.016828611,0.091870725,0.970788240
26.164866,-2.751678467,-2.161491394,3.232177734,-0.018049315,0.093457639,0.968957186
26.165491,-3.079742432,-2.092826843,3.476318359,-0.018659666,0.093213499,0.970910311
26.166117,-3.621429443,-2.428520203,3.300842285,-0.022932127,0.090527952,0.968957186
26.166744,-4.277557373,-2.222526550,3.148254395,-0.021711424,0.082959592,0.970910311
26.167370,-4.529327393,-2.192008972,3.117736816,-0.022321776,0.084546506,0.970299959
26.167995,-5.009979248,-2.344596863,3.224548340,-0.023054197,0.081738889,0.967980623
26.180668,-7.825225830,-3.107536316,2.034362793,-0.015485838,0.007642211,0.980431795
26.181410,-7.085174561,-3.160942078,1.950439453,-0.008161619,0.000928344,0.982262850
26.182035,-7.039398193,-3.077018738,2.118286133,-0.006208494,0.000562133,0.980553865
26.182660,-6.520599365,-3.038871765,1.973327637,-0.003400877,-0.005053101,0.983727694
26.183285,-6.192535400,-3.252494812,2.141174316,-0.001081541,-0.007006226,0.980675936
26.183911,-6.032318115,-3.321159363,2.095397949,0.000505373,-0.007128296,0.980187654
26.184537,-5.666107178,-3.351676941,1.950439453,-0.000349119,-0.009325562,0.981530428
26.185162,-5.368560791,-3.366935730,2.225097656,0.002092287,-0.011034546,0.981164217
26.185788,-4.857391357,-3.565299988,1.973327637,0.004655764,-0.014208375,0.979333162
26.186413,-4.689544678,-3.473747253,2.141174316,0.005754396,-0.015551148,0.978356600
26.187040,-4.193634033,-3.550041199,2.041992188,0.008317873,-0.018114625,0.977868319
26.187665,-3.835052490,-3.733146667,2.064880371,0.006730959,-0.020922242,0.977868319
26.188290,-3.369659424,-3.763664246,2.041992188,0.008317873,-0.020067750,0.978844881
26.188917,-3.178924561,-3.580558777,2.041992188,0.013933107,-0.021654664,0.976403475
26.189543,-2.667755127,-3.855216980,2.240356445,0.014665529,-0.019213257,0.974816561
26.190170,-2.202362061,-3.916252136,2.156433105,0.015153810,-0.018602906,0.975793123
26.190795,-2.271026611,-3.756034851,2.141174316,0.016984865,-0.020433960,0.975548983
26.191421,-1.752227783,-4.053581238,2.103027344,0.016130373,-0.023607789,0.973107576
26.192048,-1.462310791,-4.053581238,2.209838867,0.017839357,-0.017138062,0.973107576
26.192673,-1.485198975,-4.068840027,2.629455566,0.018815920,-0.019823609,0.977013826
26.193299,-1.065582275,-4.374015808,2.316650391,0.018449709,-0.017626343,0.972741365
26.193926,-0.966400146,-4.320610046,2.537902832,0.016862795,-0.017748414,0.975548983
26.194551,-0.752777100,-4.267204285,2.583679199,0.017839357,-0.016039429,0.972985506
26.195176,-0.729888916,-4.488456726,2.766784668,0.022722170,-0.011522828,0.974938631
26.195803,-0.676483154,-4.549491882,2.545532227,0.018815920,-0.011400757,0.975304842
26.196428,-0.554412842,-4.473197937,2.682861328,0.016252443,-0.010668335,0.977013826
26.197055,-0.607818604,-4.694450378,2.652343750,0.017717287,-0.008226929,0.978600740
26.197680,-0.768035889,-4.900444031,2.682861328,0.013566896,-0.006029664,0.979089022
26.198305,-0.684112549,-4.663932800,2.911743164,0.014299318,-0.005419312,0.976647615
26.198931,-0.523895264,-4.839408875,2.751525879,0.015397951,-0.006029664,0.977135897
26.199558,-0.806182861,-4.854667664,2.927001953,0.015153810,-0.004076539,0.977013826
26.200184,-0.798553467,-4.946220398,2.927001953,0.011491701,0.000073852,0.982140779
26.200826,-0.912994385,-5.129325867,3.247436523,0.012956545,0.000440063,0.981408358
26.201451,-0.768035889,-5.205619812,3.125366211,0.009782717,0.004956665,0.985436678
26.202078,-1.286834717,-5.083549500,3.186401367,0.010637209,0.003247680,0.985558748
26.202703,-1.187652588,-5.136955261,3.430541992,0.004411623,0.004956665,0.987878084
26.203330,-1.279205322,-5.175102234,3.270324707,0.002214357,0.002637329,0.988854647
26.203956,-1.408905029,-5.190361023,3.415283203,0.004045412,0.003613891,0.990807772
26.204583,-1.500457764,-5.289543152,3.438171387,-0.001936033,0.003858032,0.993859529
26.205208,-1.614898682,-5.289543152,3.338989258,-0.002180174,0.004834594,0.997277498
26.205835,-1.805633545,-5.297172546,3.674682617,-0.003156736,0.005322875,0.995690584
26.206462,-1.538604736,-5.403984070,3.789123535,-0.005354002,0.006177368,0.994469881
26.207088,-1.767486572,-5.342948914,3.606018066,-0.008039549,0.005811157,0.999718904
26.207714,-1.897186279,-5.327690125,3.827270508,-0.011091307,0.000806274,1.002038240
26.208341,-1.942962646,-5.548942566,3.636535645,-0.012556151,0.003003540,1.004357576
26.208967,-1.927703857,-5.297172546,3.781494141,-0.015119627,0.003613891,1.002038240
26.209593,-1.576751709,-5.442131042,3.804382324,-0.018903807,-0.000048218,1.006798983
26.210220,-1.248687744,-5.274284363,3.766235352,-0.020002440,-0.002001343,1.010094881
26.240581,13.392120361,2.622138977,2.888854980,-0.010114744,0.046582639,1.031823397
26.241347,12.819915771,3.041755676,2.865966797,-0.009870604,0.052319944,1.029870272
26.241972,12.415557861,3.270637512,2.827819824,-0.009382322,0.051343381,1.029381990
26.242598,11.751800537,3.720771790,2.751525879,-0.012067869,0.052319944,1.031457186
26.243225,11.095672607,3.987800598,2.644714355,-0.007795408,0.054883420,1.029504061
26.243852,10.538726807,4.407417297,2.751525879,-0.007429197,0.055371702,1.027306795
26.244479,9.874969482,4.521858215,2.644714355,-0.006330565,0.055371702,1.028283358
26.245106,9.272247314,4.765998840,2.881225586,-0.006574705,0.054639280,1.029259920
26.245732,8.669525146,5.246650696,2.812561035,-0.008771971,0.060254514,1.027062654
26.246357,7.952362061,5.513679504,2.721008301,-0.008649901,0.056470335,1.028039217
26.246983,7.258087158,5.719673157,2.659973145,-0.007917479,0.058789670,1.025597811
26.247609,6.739288330,6.055366516,2.621826172,-0.007429197,0.062329710,1.023888826
26.248235,6.006866455,6.482612610,2.484497070,-0.010847166,0.057813108,1.019494295
26.248860,5.274444580,6.520759583,2.568420410,-0.007551268,0.058789670,1.017907381
26.249485,4.679351807,7.123481750,2.354797363,-0.008771971,0.056836545,1.020959139
26.250111,4.030853271,7.169258118,2.530273438,-0.010236815,0.059644163,1.019006014
26.250736,3.466278076,7.611763000,2.408203125,-0.012189940,0.057935178,1.015343904
26.252532,1.742034912,8.229743958,2.370056152,-0.012556151,0.060864866,1.009240389
26.253158,1.032501221,8.733283997,2.316650391,-0.015485838,0.057813108,1.007775545
26.253783,0.620513916,8.931648254,2.072509766,-0.016340330,0.058667600,1.004845858
26.254409,0.155120850,9.221565247,2.270874023,-0.019147947,0.057202756,1.006188631
26.255034,-0.432342529,9.473335266,2.232727051,-0.017316893,0.056714475,1.002404451
26.255659,-0.783294678,9.648811340,1.927551270,-0.019270018,0.056104124,0.998254061
26.256286,-1.401275635,9.717475891,1.965698242,-0.027814940,0.055493772,0.997643709
26.256911,-1.942962646,10.037910461,1.729187012,-0.024396971,0.056470335,0.997277498
26.257536,-2.255767822,10.213386536,1.897033691,-0.027448729,0.053784788,0.996789217
26.258161,-2.568572998,10.198127747,2.019104004,-0.030988768,0.055737913,0.992394686
26.258786,-3.156036377,10.762702942,1.637634277,-0.030744627,0.052686155,0.993615389
26.259412,-3.384918213,10.922920227,1.721557617,-0.034772947,0.050122678,0.987145662
26.260038,-3.644317627,10.747444153,1.568969727,-0.037946776,0.051709592,0.987267733
26.260664,-3.781646729,11.159431458,1.607116699,-0.037580565,0.052197874,0.986047029
26.261290,-4.323333740,11.266242981,1.576599121,-0.037824705,0.051099241,0.985680819
26.261916,-4.529327393,11.350166321,1.355346680,-0.036848143,0.049878538,0.983605623
26.262543,-4.819244385,11.571418762,1.355346680,-0.040144041,0.047803342,0.981164217
26.263170,-5.132049561,11.838447571,1.424011230,-0.043073729,0.047315061,0.982751131
26.263797,-5.193084717,11.724006653,1.263793945,-0.043073729,0.043164670,0.980065584
26.264423,-5.505889893,11.899482727,1.103576660,-0.047224119,0.041455686,0.979455233
26.265049,-5.551666260,12.067329407,1.218017578,-0.047346190,0.041455686,0.979455233
26.265675,-5.849212646,12.074958801,1.012023926,-0.048688963,0.040601194,0.973962069
26.266300,-5.917877197,12.120735168,1.111206055,-0.050642088,0.038770139,0.973839998
26.266925,-6.062835693,12.067329407,0.958618164,-0.051618651,0.037061155,0.973473787
26.267552,-5.879730225,12.174140930,0.775512695,-0.052961424,0.036450803,0.973107576
26.268177,-6.200164795,12.341987610,0.798400879,-0.054304197,0.034863889,0.970544100
26.268803,-6.001800537,12.509834290,0.775512695,-0.056135252,0.031567991,0.969933748
26.269428,-6.169647217,12.540351868,0.577148438,-0.060285643,0.028882446,0.968346834
26.270053,-6.116241455,12.403022766,0.539001465,-0.061262205,0.028638305,0.967492342
26.270680,-5.910247803,12.433540344,0.401672363,-0.062116697,0.025098266,0.966759920
26.271305,-6.093353271,12.776863098,0.432189941,-0.059309080,0.022901000,0.965417147
26.271932,-5.780548096,12.486946106,0.287231445,-0.061872557,0.019727172,0.964928865
26.284827,-2.652496338,12.876045227,-0.056091309,-0.051984861,-0.007860718,0.939538240
26.285599,-2.370208740,12.982856750,-0.170532227,-0.049665526,-0.008104859,0.938683748
26.286225,-2.606719971,13.028633118,-0.010314941,-0.046613768,-0.009813843,0.938683748
26.286850,-2.171844482,12.937080383,0.020202637,-0.044172361,-0.010180054,0.932336092
26.287475,-2.240509033,12.937080383,-0.010314941,-0.043806151,-0.005907593,0.935387850
26.288102,-2.461761475,12.807380676,0.043090820,-0.045637205,-0.006273804,0.932091951
26.288729,-2.354949951,13.059150696,0.180419922,-0.046857908,-0.008837281,0.931603670
26.289354,-2.278656006,12.860786438,0.355895996,-0.040876463,-0.004564820,0.930627108
26.289980,-2.530426025,12.929450989,0.348266602,-0.041486815,-0.004320679,0.928918123
26.290605,-2.530426025,12.822639465,0.035461426,-0.041853026,-0.003344117,0.929162264
26.291230,-2.759307861,12.624275208,0.355895996,-0.041975096,-0.004076539,0.926598787
26.291856,-2.896636963,12.776863098,0.409301758,-0.039777830,-0.002489625,0.925622225
26.292481,-3.072113037,12.906562805,0.676330566,-0.037702635,-0.001390992,0.924645662
26.293107,-3.247589111,12.723457336,0.516113281,-0.035749510,-0.001513062,0.923424959
26.293732,-3.362030029,12.525093079,0.615295410,-0.035749510,0.000073852,0.925988436
26.294357,-3.842681885,12.647163391,0.752624512,-0.037702635,-0.001635132,0.924645662
26.294984,-4.048675537,12.372505188,0.821289062,-0.031110838,-0.001635132,0.921838045
26.295611,-4.346221924,12.288581848,0.905212402,-0.032697752,-0.001268921,0.922326326
26.296237,-4.674285889,12.677680969,0.813659668,-0.034406736,0.001660766,0.920373201
26.296863,-4.887908936,12.418281555,1.019653320,-0.033918455,0.000317993,0.922082186
26.297489,-5.200714111,12.212287903,0.973876953,-0.031965330,0.006665649,0.922204256
26.298114,-5.437225342,12.326728821,1.294311523,-0.032819822,0.003613891,0.922936678
26.298739,-5.818695068,12.479316711,1.362976074,-0.029523924,0.002881469,0.917687654
26.299364,-6.055206299,12.303840637,1.332458496,-0.028425291,0.003003540,0.919030428
26.299990,-6.284088135,11.975776672,1.309570312,-0.034162596,0.004956665,0.917199373
26.300617,-6.734222412,12.280952454,1.500305176,-0.032819822,0.005811157,0.920129061
26.301243,-6.818145752,12.181770325,1.721557617,-0.032575682,0.006177368,0.918053865
26.301869,-7.199615479,12.105476379,1.736816406,-0.037336424,0.005567016,0.916344881
26.302495,-7.443756104,12.250434875,2.011474609,-0.035139158,0.004712524,0.917199373
26.303161,-7.527679443,12.166511536,1.958068848,-0.039411619,0.001660766,0.919030428
26.303788,-7.649749756,12.067329407,1.828369141,-0.035505369,0.004102172,0.919884920
26.304414,-7.855743408,12.021553040,2.125915527,-0.038923338,0.006787719,0.918786287
26.305042,-7.901519775,12.135993958,1.919921875,-0.036359861,0.004224243,0.921593904
26.305668,-7.893890381,12.052070618,2.103027344,-0.043195799,0.005933227,0.915856600
26.306294,-7.916778564,12.036811829,2.362426758,-0.040998533,0.005322875,0.918175936
26.306920,-8.023590088,11.853706360,2.232727051,-0.044172361,0.003369750,0.916589022
26.307546,-7.802337646,11.807929993,2.568420410,-0.048078611,0.006177368,0.916466951
26.308171,-7.794708252,11.914741516,2.537902832,-0.049909666,0.003369750,0.918664217
26.308798,-7.909149170,11.777412415,2.408203125,-0.051740721,0.003613891,0.921715975
26.309423,-7.665008545,11.876594543,2.545532227,-0.050642088,0.003369750,0.919152498
26.310050,-7.428497314,11.701118469,2.545532227,-0.054426268,0.000806274,0.917931795
26.310676,-7.130950928,11.716377258,2.507385254,-0.056623533,0.006177368,0.919884920
26.311302,-7.001251221,11.487495422,2.728637695,-0.053571776,0.004956665,0.917687654
26.311928,-6.726593018,11.540901184,2.591308594,-0.056867674,0.007886352,0.918420076
26.312553,-6.566375732,11.479866028,2.606567383,-0.058210447,0.004834594,0.921227694
26.313178,-6.123870850,11.525642395,2.850708008,-0.060773924,0.006421508,0.917077303
26.313804,-5.963653564,11.495124817,2.995666504,-0.063947752,0.008496704,0.916833162
26.314431,-5.429595947,11.472236633,2.759155273,-0.065900877,0.007031860,0.916589022
26.327047,0.940948486,8.771430969,2.339538574,-0.076398924,0.066602170,0.885705233
26.327736,1.261383057,8.458625793,2.659973145,-0.076643065,0.069287717,0.888268709
26.328362,1.261383057,8.191596985,2.484497070,-0.076520994,0.075757444,0.885705233
26.328987,1.566558838,8.069526672,2.385314941,-0.079450682,0.074902952,0.880089998
26.329613,1.764923096,7.764350891,2.507385254,-0.077497557,0.078320920,0.883752108
26.330239,1.635223389,7.459175110,2.392944336,-0.078107908,0.083203733,0.884484529
26.330864,1.558929443,7.359992981,2.179321289,-0.077985838,0.086499631,0.883507967
26.331489,1.848846436,7.306587219,2.103027344,-0.074323729,0.090039670,0.883385897
26.332115,1.810699463,6.963264465,2.003845215,-0.075178221,0.093457639,0.880089998
26.332742,1.955657959,6.444465637,2.034362793,-0.077863768,0.094922483,0.882653475
26.333369,1.886993408,6.452095032,1.721557617,-0.072858885,0.095654905,0.882897615
26.333995,1.993804932,6.185066223,1.820739746,-0.072126463,0.099561155,0.884484529
26.334620,2.031951904,6.040107727,1.736816406,-0.070905760,0.102979124,0.883141756
26.335245,2.192169189,5.918037415,1.530822754,-0.070661619,0.105664670,0.884240389
26.335872,2.184539795,5.391609192,1.637634277,-0.070173338,0.108716428,0.885461092
26.336499,2.146392822,5.528938293,1.507934570,-0.069318846,0.111890256,0.886559725
26.337124,2.115875244,5.246650696,1.065429688,-0.063703611,0.114942014,0.886925936
26.337750,2.123504639,4.971992493,1.210388184,-0.065412596,0.117383420,0.886437654
26.338376,2.146392822,4.819404602,1.309570312,-0.066389158,0.117261350,0.888268709
26.339001,2.184539795,4.788887024,0.790771484,-0.066267088,0.122266233,0.888512850
26.339626,2.016693115,4.491340637,0.882324219,-0.064558104,0.124463499,0.888146639
26.340251,2.016693115,4.369270325,0.752624512,-0.065168455,0.126904905,0.892052889
26.340876,1.848846436,4.231941223,0.470336914,-0.068342283,0.133374631,0.895226717
26.341501,1.894622803,4.086982727,0.462707520,-0.068464354,0.134839475,0.895348787
26.342128,2.138763428,3.995429993,0.241455078,-0.067609861,0.135938108,0.891198397
26.342754,1.726776123,3.858100891,0.065979004,-0.069074705,0.137158811,0.893883944
26.343380,1.787811279,3.751289368,-0.140014648,-0.072370604,0.141919553,0.894494295
26.344005,1.520782471,3.530036926,-0.155273438,-0.073835447,0.141553342,0.894982576
26.344632,1.604705811,3.400337219,-0.605407715,-0.072736815,0.145947874,0.893639803
26.345259,1.665740967,3.186714172,-0.773254395,-0.077009276,0.146680295,0.897301912
26.345884,1.581817627,3.079902649,-0.704589844,-0.078718260,0.151318967,0.897790194
26.346509,1.513153076,3.125679016,-0.925842285,-0.084333494,0.154126585,0.899132967
26.347135,1.391082764,2.881538391,-1.185241699,-0.084699705,0.151196897,0.897423983
26.347760,1.162200928,2.789985657,-1.429382324,-0.085554197,0.152417600,0.899865389
26.348385,1.139312744,2.522956848,-1.696411133,-0.091291502,0.154736936,0.900719881
26.349016,0.979095459,2.500068665,-1.871887207,-0.093244627,0.157178342,0.898888826
26.349642,0.788360596,2.507698059,-2.070251465,-0.095686033,0.156690061,0.903161287
26.350268,0.727325439,2.233039856,-2.421203613,-0.098981932,0.158154905,0.900719881
26.350894,0.696807861,2.065193176,-2.344909668,-0.101911619,0.159253538,0.902428865
26.352625,0.490814209,1.698982239,-3.367248535,-0.102277830,0.156812131,0.903527498
26.353251,-0.073760986,1.187812805,-3.481689453,-0.107282713,0.162427366,0.904870272
26.353877,-0.226348877,1.271736145,-3.847900391,-0.109113768,0.163525999,0.908898592
26.354503,-0.195831299,0.958930969,-3.954711914,-0.107893065,0.163159788,0.910119295
26.355129,-0.424713135,0.653755188,-4.221740723,-0.106428221,0.161817014,0.913048983
26.355754,-0.745147705,0.569831848,-4.542175293,-0.108625486,0.165357053,0.908410311
26.356379,-0.935882568,0.455390930,-4.702392578,-0.106184080,0.163648069,0.910363436
26.357005,-0.951141357,0.112068176,-4.954162598,-0.107038572,0.163281858,0.912316561
26.357632,-1.218170166,0.104438782,-5.251708984,-0.105451658,0.163403928,0.912804842
26.358257,-1.172393799,-0.002372742,-5.419555664,-0.107282713,0.162183225,0.913659334
26.370913,-4.559844971,-3.206718445,-9.775939941,-0.064069822,0.105054319,0.929772615
26.371656,-4.666656494,-3.344047546,-10.050598145,-0.060285643,0.105054319,0.930871248
26.372281,-4.826873779,-3.550041199,-10.248962402,-0.060285643,0.102734983,0.932458162
26.372908,-4.933685303,-3.649223328,-10.149780273,-0.054426268,0.099194944,0.936242342
26.373534,-4.918426514,-3.717887878,-10.470214844,-0.052229002,0.096387327,0.934533358
26.374159,-5.208343506,-3.824699402,-10.485473633,-0.049421385,0.092359006,0.937463045
26.374784,-5.055755615,-4.129875183,-10.401550293,-0.049787596,0.090283811,0.938683748
26.375409,-5.055755615,-4.213798523,-10.851684570,-0.045148924,0.086011350,0.939172029
26.376035,-4.842132568,-3.931510925,-11.095825195,-0.041364744,0.080396116,0.944298983
26.376662,-5.292266846,-4.358757019,-10.874572754,-0.038679197,0.079663694,0.942956209
26.377287,-5.009979248,-4.320610046,-11.202636719,-0.034895018,0.077588499,0.945275545
26.377914,-5.315155029,-4.534233093,-11.355224609,-0.035139158,0.075025022,0.943810701
26.378540,-5.071014404,-4.641044617,-11.500183105,-0.032453611,0.070386350,0.946862459
26.379165,-5.254119873,-4.488456726,-11.545959473,-0.031965330,0.067578733,0.947839022
26.379791,-5.338043213,-4.572380066,-11.713806152,-0.028669432,0.065137327,0.949059725
26.380417,-5.429595947,-4.656303406,-11.683288574,-0.025373533,0.062085569,0.949792147
26.381043,-5.154937744,-4.953849792,-11.812988281,-0.024274901,0.058301389,0.951867342
26.381670,-5.147308350,-4.801261902,-11.896911621,-0.023542479,0.052686155,0.956506014
26.382295,-5.315155029,-4.839408875,-12.011352539,-0.020856932,0.054761350,0.955407381
26.382921,-5.566925049,-4.991996765,-12.018981934,-0.020002440,0.050000608,0.959069490
26.383547,-5.666107178,-5.297172546,-11.996093750,-0.020124510,0.049878538,0.963097811
26.384173,-5.719512939,-5.014884949,-12.141052246,-0.018659666,0.048657835,0.959435701
26.384798,-5.887359619,-5.053031921,-12.156311035,-0.019392088,0.043408811,0.960412264
26.385423,-6.123870850,-5.053031921,-12.133422852,-0.016096190,0.042676389,0.962243319
26.386048,-6.169647217,-5.091178894,-12.171569824,-0.016096190,0.041699827,0.964196444
26.386674,-6.207794189,-5.167472839,-12.232604980,-0.015607908,0.039868772,0.966759920
26.387300,-6.337493896,-5.320060730,-12.278381348,-0.016462401,0.036084592,0.966759920
26.387926,-6.467193604,-5.403984070,-12.148681641,-0.017683104,0.034497678,0.965050936
26.388553,-6.650299072,-5.304801941,-12.255493164,-0.014753416,0.033765256,0.965783358
26.389179,-6.696075439,-5.487907410,-12.324157715,-0.013166502,0.029248657,0.963830233
26.389804,-6.932586670,-5.564201355,-12.438598633,-0.013654783,0.026685180,0.968713045
26.390430,-7.146209717,-5.671012878,-12.331787109,-0.013288572,0.025342407,0.967858553
26.391056,-7.314056396,-5.663383484,-12.415710449,-0.017194822,0.025952758,0.964562654
26.391681,-7.466644287,-5.785453796,-12.308898926,-0.014753416,0.022046508,0.967980623
26.392307,-7.817596436,-5.846488953,-12.331787109,-0.011701658,0.020215454,0.968590975
26.392933,-7.756561279,-5.999076843,-12.484375000,-0.013166502,0.019360961,0.968102694
26.393558,-7.901519775,-6.067741394,-12.423339844,-0.013288572,0.015332641,0.968713045
26.394184,-8.115142822,-6.319511414,-12.560668945,-0.015241697,0.012769165,0.967248201
26.394810,-8.244842529,-6.403434753,-12.301269531,-0.013654783,0.012525024,0.963586092
26.395437,-8.397430420,-6.456840515,-12.209716797,-0.010969236,0.011182250,0.967980623
26.396063,-8.260101318,-6.594169617,-12.354675293,-0.010725096,0.012402954,0.966393709
26.396688,-8.618682861,-6.861198425,-12.163940430,-0.011091307,0.007398071,0.964928865
26.397313,-8.656829834,-6.922233582,-12.217346191,-0.011823729,0.004590454,0.969445467
26.397938,-8.946746826,-7.181632996,-12.171569824,-0.009016111,0.002637329,0.968346834
26.398565,-8.954376221,-7.479179382,-12.148681641,-0.009260252,0.003613891,0.968835115
26.399191,-8.916229248,-7.418144226,-12.087646484,-0.006330565,-0.000658570,0.970055819
26.399817,-9.229034424,-7.547843933,-12.041870117,-0.006696776,0.000440063,0.972741365
26.412412,-8.557647705,-10.118949890,-10.958496094,0.014299318,-0.029955445,1.012658358
26.413131,-8.488983154,-10.286796570,-10.866943359,0.016984865,-0.031054078,1.015954256
26.413756,-8.267730713,-10.454643250,-11.011901855,0.014543459,-0.030443726,1.015954256
26.414381,-7.825225830,-10.477531433,-10.851684570,0.016374514,-0.032396853,1.020226717
26.415015,-7.802337646,-10.729301453,-10.790649414,0.013811037,-0.034349978,1.021813631
26.415640,-7.619232178,-10.508049011,-10.744873047,0.014909670,-0.034472048,1.021325350
26.416265,-7.535308838,-10.515678406,-10.744873047,0.014299318,-0.031054078,1.022912264
26.416892,-7.336944580,-10.271537781,-10.630432129,0.014299318,-0.032274783,1.024377108
26.417519,-7.077545166,-10.653007507,-10.508361816,0.012956545,-0.032030642,1.029748201
26.418145,-6.795257568,-10.538566589,-10.744873047,0.013200685,-0.031420290,1.030602694
26.418770,-6.741851807,-10.355461121,-10.493103027,0.012346193,-0.032885134,1.032067537
26.419396,-6.604522705,-10.492790222,-10.416809082,0.010515139,-0.030077515,1.032067537
26.420022,-6.581634521,-10.645378113,-10.187927246,0.005632326,-0.033373415,1.032189608
26.420647,-6.306976318,-10.836112976,-10.142150879,0.003068849,-0.031542361,1.035851717
26.421274,-6.032318115,-10.767448425,-10.195556641,0.002458498,-0.030809937,1.037560701
26.421900,-5.933135986,-10.782707214,-10.187927246,0.002336428,-0.034472048,1.034264803
26.422526,-5.666107178,-11.156547546,-10.027709961,-0.001569822,-0.033007205,1.039147615
26.423151,-5.467742920,-10.912406921,-9.791198730,-0.003034666,-0.033983767,1.040490389
26.423777,-5.330413818,-10.828483582,-9.753051758,-0.001813963,-0.034838259,1.037804842
26.424402,-5.261749268,-11.225212097,-9.714904785,-0.002546385,-0.034227908,1.041589022
26.425028,-4.803985596,-11.591423035,-9.791198730,-0.006818846,-0.032885134,1.042321444
26.425654,-4.544586182,-11.530387878,-9.661499023,-0.009138182,-0.036303103,1.039147615
26.426280,-4.269927979,-11.583793640,-9.531799316,-0.012678221,-0.039232790,1.040124178
26.426905,-4.086822510,-11.797416687,-9.424987793,-0.012067869,-0.039599001,1.040002108
26.427532,-3.774017334,-12.133110046,-9.379211426,-0.015974119,-0.038134158,1.040246248
26.428158,-3.476470947,-12.186515808,-9.287658691,-0.018659666,-0.036669314,1.040856600
26.428784,-2.889007568,-12.377250671,-9.348693848,-0.017438963,-0.039843142,1.039269686
26.429411,-2.919525146,-12.621391296,-9.226623535,-0.017805174,-0.043383181,1.039635897
26.430037,-2.377838135,-12.690055847,-9.211364746,-0.014997557,-0.039599001,1.040124178
26.430664,-2.057403564,-12.903678894,-9.035888672,-0.017805174,-0.038866580,1.043175936
26.431291,-1.897186279,-13.224113464,-8.616271973,-0.019514158,-0.039476931,1.041955233
26.431916,-1.347869873,-13.323295593,-8.883300781,-0.018049315,-0.041674197,1.045251131
26.432541,-1.065582275,-13.582695007,-8.700195312,-0.018171385,-0.041307986,1.044518709
26.433167,-0.851959229,-13.811576843,-8.730712891,-0.015363768,-0.040941775,1.044274569
26.433793,-0.317901611,-14.116752625,-8.593383789,-0.017072752,-0.038500369,1.047326326
26.434418,0.132232666,-14.276969910,-8.532348633,-0.012800291,-0.039476931,1.048791170
26.435045,0.292449951,-14.353263855,-8.364501953,-0.009382322,-0.038988650,1.052819490
26.435671,0.673919678,-14.582145691,-8.494201660,-0.012434080,-0.038988650,1.051232576
26.436297,1.116424561,-14.910209656,-8.150878906,-0.012678221,-0.037157595,1.053429842
26.436923,1.459747314,-15.253532410,-8.150878906,-0.008771971,-0.039476931,1.054040194
26.437548,1.574188232,-15.352714539,-8.250061035,-0.011091307,-0.036547244,1.055016756
26.438174,1.917510986,-15.543449402,-7.998291016,-0.010725096,-0.036181033,1.055993319
26.438799,2.337127686,-15.886772156,-7.983032227,-0.007673338,-0.032640994,1.055749178
26.439424,2.772003174,-16.092765808,-7.967773438,-0.007185057,-0.034105837,1.058556795
26.440049,3.100067139,-16.436088562,-7.967773438,-0.004621580,-0.032152712,1.060143709
26.440675,3.183990479,-16.573417664,-7.578674316,-0.006452635,-0.031176148,1.062951326
26.441301,3.496795654,-16.710746765,-7.937255859,-0.001203611,-0.033983767,1.063561678
26.455154,7.998138428,-17.206657410,-7.105651855,0.063371584,-0.016039429,1.159997225
26.455903,8.410125732,-16.962516785,-7.189575195,0.063371584,-0.019579468,1.163781404
26.456530,8.646636963,-16.596305847,-7.052246094,0.063615724,-0.017870484,1.173424959
26.457155,8.898406982,-16.382682800,-7.098022461,0.063737795,-0.017748414,1.172692537
26.457781,9.142547607,-15.955436707,-7.128540039,0.066789553,-0.019945679,1.178063631
26.458406,9.226470947,-15.490043640,-7.113281250,0.066423342,-0.015551148,1.181237459
26.459032,9.493499756,-15.169609070,-7.365051270,0.064226076,-0.018480835,1.185509920
26.459657,9.874969482,-14.963615417,-7.143798828,0.069230959,-0.017504273,1.187218904
26.460282,9.737640381,-14.490592957,-7.250610352,0.066789553,-0.016527710,1.191735506
26.460909,10.172515869,-13.926017761,-7.189575195,0.066301271,-0.016893921,1.192467928
26.461534,10.210662842,-13.720024109,-7.487121582,0.063493654,-0.018114625,1.193810701
26.462160,10.439544678,-12.995231628,-7.288757324,0.064592287,-0.017138062,1.194665194
26.462787,10.576873779,-12.842643738,-7.380310059,0.064714357,-0.014940796,1.198815584
26.463412,10.477691650,-12.430656433,-7.281127930,0.064592287,-0.011156617,1.197961092
26.464038,10.813385010,-12.049186707,-7.517639160,0.064348146,-0.013231812,1.195519686
26.464665,10.752349854,-11.507499695,-7.433715820,0.062517092,-0.011522828,1.202355623
26.465291,10.790496826,-11.072624207,-7.548156738,0.065568849,-0.012987671,1.202965975
26.465918,10.882049561,-11.057365417,-7.365051270,0.067521974,-0.011278687,1.203820467
26.466543,10.981231689,-10.401237488,-7.334533691,0.066057131,-0.007982789,1.203820467
26.467168,10.973602295,-10.027397156,-7.639709473,0.063249514,-0.004808960,1.203942537
26.467795,11.057525635,-9.630668640,-7.365051270,0.066179201,-0.001879273,1.202843904
26.468421,10.935455322,-9.050834656,-7.410827637,0.070939943,-0.004076539,1.199548006
26.469048,10.607391357,-8.768547058,-7.593933105,0.065935060,-0.001268921,1.201623201
26.469675,10.546356201,-8.333671570,-7.662597656,0.066667482,-0.002733765,1.199914217
26.470300,10.317474365,-7.791984558,-7.532897949,0.066423342,0.000440063,1.197716951
26.470925,10.164886475,-7.318962097,-7.410827637,0.067766115,-0.000536500,1.197228670
26.471551,10.065704346,-7.112968445,-7.319274902,0.064714357,-0.002001343,1.198205233
26.472178,9.997039795,-6.556022644,-7.601562500,0.064714357,0.001904907,1.194054842
26.472803,9.676605225,-6.220329285,-7.441345215,0.062395021,0.002515258,1.194298983
26.490733,-2.507537842,3.728401184,-6.541076660,0.027116701,0.011792602,1.177331209
26.491359,-2.797454834,3.995429993,-6.548706055,0.026750490,0.008984985,1.177697420
26.491984,-2.927154541,4.193794250,-6.518188477,0.024553224,0.008008422,1.174279451
26.492610,-3.270477295,4.476081848,-6.403747559,0.022722170,0.005689086,1.177453279
26.493237,-3.499359131,4.888069153,-6.686035156,0.021623537,0.004956665,1.176354647
26.493863,-3.850311279,5.322944641,-6.357971191,0.023698732,0.001294555,1.176598787
26.494489,-3.789276123,5.620491028,-6.289306641,0.019670412,-0.001268921,1.174645662
26.495114,-3.819793701,5.750190735,-6.380859375,0.027482912,-0.003466187,1.174889803
26.495740,-3.918975830,5.902778625,-6.289306641,0.027727053,-0.002977906,1.172814608
26.496366,-4.041046143,6.230842590,-6.235900879,0.024309084,-0.007494507,1.173913240
26.496991,-3.934234619,6.444465637,-6.258789062,0.029558107,-0.008837281,1.171715975
26.497619,-3.896087646,6.825935364,-6.205383301,0.032487795,-0.011766968,1.172692537
26.498244,-3.705352783,6.955635071,-6.243530273,0.033708498,-0.014330445,1.169884920
26.498871,-3.552764893,6.970893860,-6.319824219,0.034929201,-0.019213257,1.167077303
26.499498,-3.354400635,7.314216614,-6.197753906,0.039445803,-0.019213257,1.165246248
26.500124,-3.377288818,7.604133606,-6.045166016,0.038103029,-0.020800171,1.165612459
26.500749,-3.178924561,7.833015442,-6.258789062,0.045793459,-0.020067750,1.161584139
26.501375,-2.705902100,7.985603333,-6.090942383,0.048601076,-0.024950562,1.159753084
26.514073,5.259185791,10.243904114,-6.213012695,0.094133303,-0.029833375,1.110436678
26.514805,5.289703369,10.388862610,-6.296936035,0.096574709,-0.029711304,1.111291170
26.515431,5.892425537,10.655891418,-6.274047852,0.099748537,-0.029345093,1.112145662
26.516057,6.228118896,10.610115051,-6.274047852,0.099748537,-0.030443726,1.108605623
26.516683,6.388336182,10.404121399,-6.281677246,0.103654787,-0.027147828,1.106286287
26.517309,6.701141357,10.480415344,-6.518188477,0.108293459,-0.029100953,1.106286287
26.517935,6.617218018,10.716926575,-6.327453613,0.110124514,-0.028978882,1.104333162
26.518561,6.830841064,10.655891418,-6.060424805,0.113786623,-0.023485718,1.104455233
26.519186,6.769805908,10.915290833,-6.380859375,0.111345217,-0.025316773,1.104943514
26.519811,6.830841064,10.823738098,-6.365600586,0.117204592,-0.018602906,1.102746248
26.520436,7.006317139,10.854255676,-6.518188477,0.119645998,-0.016893921,1.100304842
26.521062,6.960540771,11.022102356,-6.373229980,0.123674318,-0.014940796,1.100060701
26.521688,6.960540771,11.144172668,-6.388488770,0.123063967,-0.013353882,1.099572420
26.522314,6.731658936,11.144172668,-6.464782715,0.123430178,-0.011034546,1.100426912
