time,gyro x,gyro y,gyro z,accel x,accel y,accel z
22.319115,6.950538635,10.128936768,2.399078369,-0.074720703,0.180903688,0.955368042
22.319915,6.111305237,9.884796143,2.132049561,-0.071546875,0.180659547,0.956100464
22.320542,5.211036682,9.678802490,2.139678955,-0.075086914,0.181269899,0.952438354
22.321168,4.692237854,9.594879150,2.109161377,-0.073622070,0.182002321,0.956100464
22.321793,3.616493225,9.449920654,2.193084717,-0.072523437,0.179316774,0.953048706
22.322419,3.143470764,9.495697021,2.093902588,-0.068373047,0.181758180,0.955123901
22.323045,2.273719788,9.167633057,1.987091064,-0.074354492,0.176631227,0.953903198
22.323672,1.236122131,9.022674561,1.941314697,-0.076429687,0.176142946,0.948776245
22.324298,0.679176331,9.228668213,1.895538330,-0.077162109,0.174800172,0.949752808
22.324924,-0.114280701,8.923492432,1.712432861,-0.077772461,0.169551149,0.949874878
22.325549,-0.976402283,8.671722412,1.651397705,-0.081556641,0.167109743,0.951339722
22.326174,-1.914817810,8.786163330,1.346221924,-0.081312500,0.169184938,0.951705933
22.326800,-2.479393005,8.496246338,1.445404053,-0.083631836,0.164790407,0.946090698
22.327427,-3.471214294,8.542022705,1.414886475,-0.084608398,0.165278688,0.951339722
22.328054,-4.028160095,8.328399658,1.201263428,-0.085584961,0.162837282,0.950241089
22.328680,-4.905540466,8.053741455,1.186004639,-0.087049805,0.160151735,0.944381714
22.329306,-5.828697205,8.198699951,1.208892822,-0.090589844,0.155024782,0.949874878
22.329933,-6.248313904,7.893524170,1.269927979,-0.090589844,0.154902712,0.948410034
22.330559,-7.018882751,7.832489014,1.041046143,-0.096693359,0.150996462,0.946701050
22.331184,-7.758934021,7.901153564,0.972381592,-0.095594727,0.150874391,0.942794800
22.331809,-8.292991638,7.542572021,0.987640381,-0.102918945,0.144770876,0.943893433
22.332435,-8.964378357,7.290802002,1.041046143,-0.105238281,0.140742555,0.945358276
22.333061,-9.597618103,7.252655029,1.010528564,-0.105116211,0.140986696,0.943649292
22.333686,-10.108787537,7.092437744,1.079193115,-0.111585937,0.137568727,0.939132690
22.334312,-10.574180603,6.924591064,0.796905518,-0.113661133,0.133418337,0.935958862
22.334937,-10.886985779,6.581268311,0.598541260,-0.118055664,0.131343141,0.936691284
22.335562,-11.390525818,6.688079834,0.697723389,-0.121717773,0.127436891,0.932052612
22.336187,-11.810142517,6.504974365,0.812164307,-0.125624031,0.122798219,0.934005737
22.336813,-12.229759216,6.176910400,0.690093994,-0.126478523,0.118525758,0.930221558
22.337439,-12.466270447,5.955657959,0.606170654,-0.134168953,0.113887087,0.927902222
22.339196,-13.015586853,5.169830322,0.445953369,-0.139906257,0.099482790,0.922286987
22.339822,-13.160545349,5.078277588,0.423065186,-0.145765632,0.093379274,0.920944214
22.340447,-13.236839294,4.673919678,0.407806396,-0.149061531,0.090815797,0.919479370
22.341072,-13.320762634,4.322967529,0.377288818,-0.153211921,0.088252321,0.914108276
22.341699,-13.168174744,4.155120850,0.545135498,-0.157606453,0.083003297,0.910079956
22.342326,-12.855369568,3.903350830,0.293365479,-0.159437507,0.074214235,0.909469604
22.342951,-12.893516541,3.659210205,0.323883057,-0.162367195,0.071162477,0.913009644
22.343578,-12.679893494,3.331146240,0.346771240,-0.164808601,0.066523805,0.908370972
22.344205,-12.481529236,2.781829834,0.171295166,-0.170545906,0.064204469,0.905441284
22.344832,-12.214500427,2.766571045,0.468841553,-0.175672859,0.062739626,0.904830933
22.345459,-12.084800720,2.430877686,0.461212158,-0.179701179,0.055415407,0.904708862
22.346086,-11.848289490,2.087554932,0.247589111,-0.181288093,0.056147829,0.900680542
22.346711,-11.421043396,1.484832764,0.369659424,-0.184217781,0.048701540,0.901779175
22.347337,-11.092979431,1.103363037,0.239959717,-0.189833015,0.048213258,0.896896362
22.347963,-10.658103943,0.828704834,0.293365479,-0.190809578,0.043452516,0.900436401
22.348590,-10.269004822,0.210723877,0.484100342,-0.193495125,0.042720094,0.895553589
22.349216,-9.872276306,0.058135986,0.568023682,-0.191786140,0.041133180,0.897384644
22.349843,-9.559471130,-0.285186768,0.362030029,-0.198011726,0.037837282,0.895919800
22.350469,-9.261924744,-0.910797119,0.522247314,-0.198744148,0.035762087,0.896163940
22.431888,-5.996543884,6.474456787,12.218109131,-0.090345703,0.165034547,0.989059448
22.432641,-6.416160583,6.901702881,12.065521240,-0.087416016,0.160395876,0.992965698
22.433267,-6.667930603,7.107696533,12.118927002,-0.090101562,0.165400758,0.990280151
22.433894,-6.851036072,7.016143799,11.973968506,-0.089857422,0.165156618,0.985519409
22.434520,-7.034141541,7.359466553,11.676422119,-0.090345703,0.161128297,0.983566284
22.435147,-7.133323669,7.519683838,11.729827881,-0.087904297,0.164302126,0.982833862
22.435772,-7.476646423,7.626495361,11.767974854,-0.090833984,0.163325563,0.979537964
22.436399,-7.652122498,7.779083252,11.478057861,-0.089247070,0.164790407,0.978561401
22.437025,-7.461387634,8.015594482,11.371246338,-0.091078125,0.161372438,0.973922729
22.437650,-7.377464294,7.939300537,11.256805420,-0.093153320,0.160884157,0.966110229
22.438276,-7.484275818,8.122406006,10.989776611,-0.093397461,0.157832399,0.967575073
22.438901,-7.400352478,8.282623291,10.997406006,-0.093763672,0.160029665,0.966598511
22.439527,-6.957847595,8.351287842,10.852447510,-0.092909180,0.158808962,0.964767456
22.440152,-6.927330017,7.840118408,10.730377197,-0.095838867,0.157588258,0.964523315
22.440779,-6.591636658,8.175811768,10.501495361,-0.096571289,0.159541383,0.956710815
22.441404,-6.553489685,8.053741455,10.234466553,-0.093031250,0.159175172,0.954757690
22.442031,-6.271202087,8.099517822,10.318389893,-0.096449219,0.156367555,0.953659058
22.442658,-5.958396912,7.954559326,10.135284424,-0.094862305,0.158442751,0.946823120
22.443284,-5.584556580,8.130035400,10.005584717,-0.094618164,0.158564821,0.947189331
22.443911,-5.302268982,7.924041748,9.830108643,-0.093031250,0.155513063,0.944503784
22.444537,-4.875022888,7.817230225,9.746185303,-0.094618164,0.157344118,0.941818237
22.445164,-4.623252869,7.847747803,9.502044678,-0.095228516,0.157344118,0.935714722
22.445789,-3.936607361,7.649383545,9.448638916,-0.094984375,0.159175172,0.935958862
22.446416,-3.921348572,7.519683838,9.341827393,-0.094862305,0.158442751,0.931320190
22.447041,-3.280479431,7.710418701,9.242645264,-0.094740234,0.160395876,0.931442261
22.447668,-2.960044861,7.077178955,8.876434326,-0.092542969,0.164180055,0.929977417
22.448294,-2.616722107,7.206878662,8.990875244,-0.093763672,0.161616579,0.926315308
22.448919,-2.265769958,7.046661377,8.609405518,-0.092298828,0.163935915,0.924850464
22.449545,-1.846153259,6.779632568,8.594146729,-0.095106445,0.167109743,0.922042847
22.450170,-1.754600525,6.627044678,8.548370361,-0.094374023,0.164302126,0.922164917
22.451958,-0.648338318,6.100616455,8.121124268,-0.096449219,0.171870485,0.916427612
22.452583,-0.427085876,6.062469482,7.785430908,-0.097059570,0.170405641,0.916305542
22.453209,-0.152427673,5.925140381,7.754913330,-0.098890625,0.171260133,0.909713745
22.453834,-0.160057068,5.505523682,7.434478760,-0.098524414,0.173335329,0.907028198
22.454460,0.129859924,5.673370361,7.342926025,-0.099012695,0.174556032,0.911056519
22.455085,0.236671448,5.413970947,7.327667236,-0.099867187,0.171382204,0.910446167
22.455710,0.496070862,5.314788818,7.205596924,-0.105116211,0.172724977,0.909469604
22.456335,0.503700256,5.017242432,6.930938721,-0.106703125,0.173579469,0.907394409
22.456962,0.579994202,4.795989990,7.053009033,-0.104750000,0.177363649,0.906173706
22.457589,0.625770569,4.757843018,6.770721436,-0.108534180,0.177485719,0.905685425
22.458216,0.793617249,4.429779053,6.511322021,-0.107557617,0.177119508,0.903976440
22.458843,0.763099670,4.292449951,6.419769287,-0.110975586,0.175654665,0.904708862
22.459469,0.702064514,4.063568115,6.396881104,-0.111341797,0.177485719,0.900558472
22.460096,0.625770569,3.788909912,6.099334717,-0.111097656,0.175776735,0.900192261
22.460723,0.763099670,3.544769287,6.167999268,-0.115614258,0.175776735,0.898849487
22.461350,0.633399963,3.331146240,6.076446533,-0.118543945,0.176997438,0.898849487
22.461977,0.892799377,3.498992920,5.962005615,-0.114637695,0.176265016,0.896408081
22.462604,0.518959045,3.025970459,5.656829834,-0.118177734,0.175898805,0.894088745
22.476557,0.557106018,-1.605072021,3.688446045,-0.163099617,0.171138063,0.889816284
22.477284,0.717323303,-1.719512939,3.345123291,-0.165418953,0.173213258,0.892013550
22.477911,0.686805725,-2.032318115,3.345123291,-0.167616218,0.172114626,0.889205933
22.478536,0.869911194,-2.291717529,3.192535400,-0.168836921,0.174311891,0.890304565
22.479161,0.694435120,-2.512969971,3.108612061,-0.169325203,0.171260133,0.893722534
22.479787,1.045387268,-2.688446045,2.917877197,-0.172865242,0.170039430,0.891769409
22.480412,1.075904846,-2.993621826,2.925506592,-0.172254890,0.167598024,0.892868042
22.481039,1.426856995,-3.306427002,2.727142334,-0.175917000,0.169184938,0.893966675
22.481664,1.487892151,-3.733673096,2.627960205,-0.177503914,0.170283571,0.896163940
22.482291,1.602333069,-3.901519775,2.521148682,-0.175917000,0.169673219,0.899093628
22.482917,2.029579163,-4.145660400,2.406707764,-0.177870125,0.169184938,0.896530151
22.483542,1.983802795,-4.427947998,2.170196533,-0.177015632,0.170649782,0.895919800
22.484167,2.266090393,-4.382171631,2.208343506,-0.179823250,0.170771852,0.896163940
22.484794,2.411048889,-4.756011963,2.078643799,-0.181043953,0.170893922,0.902877808
22.485420,2.632301331,-4.832305908,1.880279541,-0.180677742,0.173091188,0.902023315
22.486045,2.708595276,-5.061187744,1.758209229,-0.178480476,0.169551149,0.903976440
22.486671,2.830665588,-5.068817139,1.643768311,-0.183485359,0.172602907,0.906173706
22.487297,2.815406799,-5.457916260,1.498809814,-0.185438484,0.171748415,0.909469604
22.487923,3.105323792,-5.595245361,1.376739502,-0.184828132,0.172236696,0.911544800
22.488548,3.166358948,-5.755462646,1.216522217,-0.185926765,0.171748415,0.909347534
22.489173,3.326576233,-5.824127197,1.300445557,-0.185560554,0.171504274,0.913742065
22.489798,3.303688049,-6.045379639,1.056304932,-0.187513679,0.168696657,0.914596558
22.490424,3.311317444,-6.075897217,0.995269775,-0.187635750,0.169429079,0.913131714
22.491050,3.433387756,-6.342926025,0.865570068,-0.188978523,0.171138063,0.918136597
22.491676,3.494422913,-6.190338135,0.827423096,-0.191786140,0.173579469,0.919601440
22.492302,3.502052307,-6.403961182,0.827423096,-0.194105476,0.171992555,0.922164917
22.492927,3.364723206,-6.526031494,0.590911865,-0.193006843,0.175776735,0.922653198
22.493553,3.219764709,-6.388702393,0.583282471,-0.194715828,0.175776735,0.926437378
22.494178,3.212135315,-6.632843018,0.514617920,-0.196180671,0.174311891,0.926071167
22.494804,3.166358948,-6.609954834,0.262847900,-0.197157234,0.175532594,0.931808472
22.496542,2.731483459,-6.556549072,0.117889404,-0.197157234,0.177363649,0.930953979
22.497169,2.609413147,-6.716766357,0.041595459,-0.199964851,0.179682985,0.936813354
22.497794,2.563636780,-6.823577881,-0.126251221,-0.199110359,0.181147829,0.939132690
22.498419,2.128761292,-6.724395752,-0.011810303,-0.200819343,0.182124391,0.936080933
22.499046,1.724403381,-6.739654541,-0.316986084,-0.199110359,0.181636110,0.939620972
22.499671,1.625221252,-6.518402100,-0.393280029,-0.200697273,0.185786501,0.943161011
22.500297,1.274269104,-6.747283936,-0.469573975,-0.200697273,0.185664430,0.944747925
22.500922,0.801246643,-6.602325439,-0.355133057,-0.202406257,0.187495485,0.949508667
22.501547,0.312965393,-6.243743896,-0.690826416,-0.197157234,0.189692751,0.949386597
22.502172,-0.030357361,-6.243743896,-0.622161865,-0.198255867,0.187373415,0.950485229
22.502798,-0.572044373,-6.136932373,-0.622161865,-0.197157234,0.188960329,0.953414917
22.503424,-1.014549255,-5.953826904,-0.851043701,-0.199964851,0.190303102,0.952682495
22.504049,-1.701194763,-5.892791748,-0.912078857,-0.197645515,0.192622438,0.956588745
22.504676,-2.403099060,-5.518951416,-0.858673096,-0.198377937,0.195307985,0.961471558
22.505303,-2.784568787,-5.534210205,-1.003631592,-0.198988289,0.196650758,0.962570190
22.505928,-3.677207947,-5.251922607,-0.996002197,-0.196180671,0.199336305,0.968063354
22.506555,-4.180747986,-4.946746826,-1.369842529,-0.201917976,0.197139040,0.968673706
22.507180,-4.875022888,-4.801788330,-1.194366455,-0.199354500,0.198237672,0.969284058
22.507805,-5.485374451,-4.603424072,-1.346954346,-0.200453132,0.200190797,0.971603394
22.521709,-19.569236755,0.981292725,-2.636322021,-0.197157234,0.171748415,0.961227417
22.522443,-20.011741638,1.217803955,-2.926239014,-0.198866218,0.167109743,0.958541870
22.523068,-19.950706482,1.210174561,-2.987274170,-0.197401375,0.167964235,0.959884644
22.523693,-20.332176208,1.545867920,-2.819427490,-0.199842781,0.167475954,0.954025269
22.524319,-20.545799255,1.561126709,-3.109344482,-0.197279304,0.165522829,0.955612183
22.524945,-20.789939880,1.652679443,-2.872833252,-0.199720711,0.164668337,0.953903198
22.525571,-21.041709900,2.064666748,-3.132232666,-0.196424812,0.163447633,0.957199097
22.526196,-21.232444763,2.072296143,-3.185638428,-0.197645515,0.160640016,0.955001831
22.526823,-21.011192322,2.026519775,-3.284820557,-0.196180671,0.157588258,0.954757690
22.527448,-21.072227478,2.346954346,-3.170379639,-0.197645515,0.156855837,0.951705933
22.528075,-21.224815369,2.491912842,-3.460296631,-0.197279304,0.158198610,0.949142456
22.528700,-21.331626892,2.438507080,-3.353485107,-0.196424812,0.155268922,0.950607300
22.529325,-21.316368103,2.613983154,-3.475555420,-0.191419929,0.153559938,0.947189331
22.529952,-21.217185974,2.858123779,-3.612884521,-0.196180671,0.151973024,0.945480347
22.530578,-21.179039001,2.850494385,-3.506072998,-0.191786140,0.152583376,0.945846558
22.531205,-21.354515076,2.896270752,-3.521331787,-0.192152351,0.150386110,0.944381714
22.531831,-21.255332947,3.079376221,-3.750213623,-0.193373054,0.148555055,0.939743042
22.532457,-21.240074158,3.102264404,-3.879913330,-0.193128914,0.144038454,0.939620972
22.533082,-21.110374451,3.064117432,-3.635772705,-0.192518562,0.143061891,0.936080933
22.533708,-20.812828064,3.224334717,-3.818878174,-0.192274421,0.141230837,0.933395386
22.534334,-20.889122009,3.445587158,-3.925689697,-0.197157234,0.137080446,0.934127808
22.534959,-20.660240173,3.155670166,-3.811248779,-0.197035164,0.135127321,0.930587769
22.535584,-20.278770447,3.270111084,-4.093536377,-0.198133796,0.131953493,0.933639526
22.536209,-20.034629822,3.315887451,-4.185089111,-0.198744148,0.132685915,0.928878784
22.536835,-19.889671326,2.942047119,-4.146942139,-0.203749031,0.128169313,0.927658081
22.537461,-19.538719177,2.888641357,-4.108795166,-0.202162117,0.122432008,0.925216675
22.538088,-19.195396423,2.720794678,-4.291900635,-0.203749031,0.119624391,0.922775269
22.538713,-18.874961853,2.911529541,-4.299530029,-0.205824226,0.116816774,0.918380737
22.539338,-18.493492126,2.453765869,-4.375823975,-0.202772468,0.115718141,0.919357300
22.539963,-17.860252380,2.369842529,-4.360565186,-0.206312507,0.110713258,0.916549683
22.541743,-16.303855896,2.018890381,-4.680999756,-0.209974617,0.098994508,0.916427612
22.542368,-16.052085876,1.828155518,-4.536041260,-0.211073250,0.096919313,0.914108276
22.542995,-15.083152771,1.622161865,-4.726776123,-0.209486336,0.089839235,0.918136597
22.543621,-14.442283630,1.362762451,-4.772552490,-0.212049812,0.086787477,0.916305542
22.544247,-13.709861755,1.187286377,-4.658111572,-0.211073250,0.081172243,0.918624878
22.544872,-13.038475037,1.126251221,-4.925140381,-0.211195320,0.080928102,0.920089722
22.545498,-12.405235291,0.828704834,-4.803070068,-0.208998054,0.074336305,0.920333862
22.546123,-11.550743103,0.958404541,-4.749664307,-0.208631843,0.072139040,0.920944214
22.546748,-10.902244568,0.630340576,-4.795440674,-0.207044929,0.071162477,0.925582886
22.547375,-10.032493591,0.645599365,-4.978546143,-0.206678718,0.067866579,0.924606323
22.548009,-9.216148376,0.676116943,-4.978546143,-0.202284187,0.062007204,0.928268433
22.548635,-8.346397400,0.561676025,-4.810699463,-0.204603523,0.060542360,0.933395386
22.549261,-7.568199158,0.454864502,-4.948028564,-0.206678718,0.056147829,0.934127808
22.549887,-6.675559998,0.660858154,-4.909881592,-0.206312507,0.055293337,0.935836792
22.550512,-5.828697205,0.439605713,-4.932769775,-0.203504890,0.055415407,0.936569214
22.551137,-4.920799255,0.393829346,-4.978546143,-0.204603523,0.049678102,0.943038940
22.551763,-4.165489197,0.348052979,-4.955657959,-0.203626961,0.048213258,0.943405151
22.552389,-3.440696716,0.515899658,-4.635223389,-0.207411140,0.046138063,0.944625854
22.573143,6.446998596,5.360565186,-2.598175049,-0.208631843,0.065669313,0.972824097
22.573905,6.500404358,5.703887939,-2.735504150,-0.208631843,0.063105837,0.975509644
22.574532,6.241004944,5.711517334,-2.674468994,-0.207289070,0.058711305,0.976242065
22.575159,6.179969788,5.879364014,-2.743133545,-0.211317390,0.060420290,0.977096558
22.575786,5.905311584,6.199798584,-2.567657471,-0.208387703,0.062373415,0.977828979
22.576412,5.844276428,6.100616455,-2.498992920,-0.204481453,0.062129274,0.982223511
22.577038,5.684059143,6.154022217,-2.437957764,-0.208631843,0.059809938,0.979415894
22.577664,5.485694885,6.497344971,-2.415069580,-0.205824226,0.057490602,0.979660034
22.578290,5.127113342,6.840667725,-2.163299561,-0.206556648,0.061518922,0.982467651
22.578916,5.211036682,6.886444092,-1.987823486,-0.205458015,0.059077516,0.980758667
22.579542,4.882972717,7.161102295,-2.094635010,-0.203871101,0.059199587,0.978195190
22.580168,4.646461487,7.222137451,-1.827606201,-0.200941414,0.061152712,0.975753784
22.580793,4.646461487,7.527313232,-1.850494385,-0.199232429,0.062251344,0.978317261
22.581419,4.364173889,7.801971436,-1.797088623,-0.202162117,0.060420290,0.977462769
22.582044,4.326026917,8.015594482,-1.919158936,-0.197645515,0.061396852,0.975875854
22.582669,4.150550842,8.038482666,-1.652130127,-0.199232429,0.064082399,0.974288940
22.583295,3.769081116,8.381805420,-1.545318604,-0.198011726,0.064692751,0.971969604
22.583921,3.486793518,8.557281494,-1.690277100,-0.196424812,0.062861696,0.970993042
22.584547,3.616493225,8.809051514,-1.484283447,-0.191664070,0.066523805,0.972824097
22.585174,3.189247131,9.129486084,-1.278289795,-0.194715828,0.065425172,0.971481323
22.585800,2.899330139,9.358367920,-1.217254639,-0.193373054,0.064814821,0.970138550
22.586425,2.838294983,9.343109131,-1.201995850,-0.194837898,0.068965212,0.966110229
22.587050,2.388160706,9.602508545,-0.873931885,-0.193373054,0.070796266,0.970138550
22.587676,2.220314026,10.022125244,-0.873931885,-0.191786140,0.072993532,0.966110229
22.588302,1.884620667,9.938201904,-0.797637939,-0.191542000,0.075190797,0.962936401
22.588928,1.533668518,10.266265869,-0.675567627,-0.188856453,0.080439821,0.964645386
22.589553,1.159828186,10.441741943,-0.507720947,-0.190809578,0.078608766,0.961837769
22.590179,0.778358459,10.594329834,-0.507720947,-0.191908211,0.082026735,0.961471558
22.590804,0.099342346,10.762176514,-0.400909424,-0.192884773,0.088252321,0.961349487
22.591430,-0.388938904,10.731658936,-0.332244873,-0.194715828,0.088862672,0.960250854
22.593223,-1.373130798,11.357269287,-0.179656982,-0.195570320,0.096797243,0.959396362
22.593849,-1.769859314,11.189422607,-0.065216064,-0.193250984,0.093623415,0.960983276
22.594474,-2.128440857,11.227569580,-0.072845459,-0.192518562,0.098628297,0.959030151
22.595101,-2.677757263,11.601409912,-0.049957275,-0.193006843,0.100703493,0.958541870
22.595726,-2.998191833,11.548004150,0.163665771,-0.191419929,0.100947633,0.958297729
22.596352,-3.639060974,11.715850830,0.133148193,-0.189100593,0.102412477,0.959274292
22.596978,-4.043418884,11.792144775,0.095001221,-0.189466804,0.104487672,0.955123901
22.597604,-4.424888611,11.929473877,0.056854248,-0.188734382,0.103755251,0.954635620
22.598229,-4.813987732,11.967620850,0.247589111,-0.186659187,0.105586305,0.957077026
22.598855,-5.332786560,12.173614502,0.232330322,-0.186292976,0.100337282,0.957199097
22.599480,-5.767662048,12.310943604,0.255218506,-0.184339851,0.107051149,0.954269409
22.600106,-5.973655701,12.494049072,0.362030029,-0.183119148,0.105342165,0.951828003
22.600731,-6.233055115,12.326202393,0.384918213,-0.184828132,0.106318727,0.957077026
22.601358,-6.591636658,12.707672119,0.331512451,-0.184217781,0.104975954,0.955490112
22.601983,-6.545860291,12.585601807,0.354400635,-0.182752937,0.104487672,0.954879761
22.602609,-6.934959412,13.058624268,0.300994873,-0.181898445,0.109004274,0.952438354
22.603234,-6.942588806,12.860260010,0.362030029,-0.179701179,0.107783571,0.955123901
22.603860,-6.995994568,13.157806396,0.407806396,-0.179945320,0.107173219,0.952682495
22.617835,-3.990013123,15.515289307,-0.103363037,-0.167127937,0.117060915,0.927413940
22.618613,-3.913719177,15.438995361,-0.484832764,-0.165907234,0.117427126,0.927780151
22.619238,-3.898460388,15.553436279,-0.469573975,-0.167250007,0.116328493,0.923507690
22.619863,-3.692466736,15.652618408,-0.606903076,-0.165785164,0.118037477,0.921554565
22.620489,-3.219444275,15.461883545,-0.759490967,-0.166883796,0.115962282,0.919967651
22.621115,-3.120262146,15.507659912,-0.553497314,-0.169813484,0.119136110,0.919357300
22.621741,-2.960044861,15.362701416,-0.866302490,-0.169935554,0.117915407,0.916061401
22.622367,-2.853233337,15.309295654,-0.873931885,-0.172743171,0.114375368,0.912521362
22.622992,-2.830345154,15.233001709,-0.790008545,-0.169935554,0.116084352,0.912033081
22.623618,-2.631980896,15.110931396,-0.927337646,-0.171400398,0.113398805,0.906906128
22.624245,-2.067405701,15.149078369,-1.026519775,-0.174574226,0.110713258,0.905929565
22.624872,-2.075035095,15.034637451,-1.209625244,-0.175917000,0.110835329,0.905563354
22.625498,-1.861412048,14.935455322,-1.293548584,-0.175794929,0.108515993,0.900680542
22.626123,-1.602012634,14.698944092,-1.201995850,-0.179823250,0.109370485,0.899826050
22.626749,-1.334983826,14.409027100,-1.552947998,-0.179457039,0.108271852,0.895553589
22.627375,-1.159507751,14.538726807,-1.522430420,-0.181288093,0.103755251,0.894332886
22.628009,-0.930625916,14.195404053,-1.362213135,-0.182386726,0.100703493,0.893356323
22.628636,-0.518638611,13.791046143,-1.659759521,-0.183363289,0.099849001,0.890548706
22.629262,-0.518638611,13.806304932,-1.453765869,-0.187025398,0.097773805,0.885910034
22.629887,-0.160057068,13.783416748,-1.690277100,-0.186170906,0.096431032,0.887619019
22.630514,0.045936584,13.447723389,-1.812347412,-0.188734382,0.093013063,0.883224487
22.631140,0.450294495,13.333282471,-1.865753174,-0.189222664,0.092524782,0.883712769
22.631767,0.915687561,12.989959717,-1.644500732,-0.188978523,0.090327516,0.883956909
22.632393,1.106422424,12.730560303,-1.881011963,-0.188734382,0.087153688,0.883590698
22.633020,1.152198792,12.761077881,-1.812347412,-0.192884773,0.087641969,0.882125854
22.633645,1.640480042,12.242279053,-2.003082275,-0.193739265,0.086909547,0.882614136
22.634270,1.892250061,12.219390869,-1.865753174,-0.193250984,0.085688844,0.879196167
22.634895,2.235572815,12.097320557,-1.804718018,-0.194959968,0.084224001,0.877853394
22.635520,2.479713440,11.868438721,-2.178558350,-0.197523445,0.084224001,0.878585815
22.636145,2.784889221,11.464080811,-2.094635010,-0.199842781,0.082026735,0.878707886
22.637923,3.547828674,10.891876221,-2.178558350,-0.202284187,0.078242555,0.878219604
22.638549,3.975074768,10.487518311,-2.231964111,-0.202040046,0.073603883,0.882003784
22.639174,4.036109924,10.334930420,-2.125152588,-0.202406257,0.074458376,0.881759644
22.639799,4.425209045,10.258636475,-2.399810791,-0.203626961,0.075434938,0.884201050
22.640424,4.532020569,9.884796143,-2.117523193,-0.205946296,0.075312868,0.884445190
22.641049,4.844825745,9.869537354,-2.285369873,-0.206922859,0.073970094,0.883956909
22.641675,4.738014221,9.694061279,-2.216705322,-0.207411140,0.072261110,0.887374878
22.642301,5.020301819,9.320220947,-2.193817139,-0.207044929,0.069575563,0.889694214
22.642927,5.050819397,9.411773682,-2.331146240,-0.207533211,0.071772829,0.887008667
22.643554,5.134742737,9.144744873,-2.239593506,-0.206434578,0.070918337,0.890914917
22.644179,5.287330627,8.732757568,-2.254852295,-0.206434578,0.067134157,0.892623901
22.644804,5.256813049,8.748016357,-2.277740479,-0.209242195,0.069575563,0.891525269
22.645431,5.378883362,8.549652100,-2.331146240,-0.209120125,0.068110719,0.895309448
22.646056,5.134742737,8.358917236,-2.270111084,-0.213880867,0.067988649,0.897384644
22.646682,5.294960022,8.259735107,-2.148040771,-0.211805671,0.067622438,0.899093628
22.647308,5.378883362,8.274993896,-2.109893799,-0.215101570,0.066890016,0.902999878
22.647934,5.302589417,7.992706299,-2.170928955,-0.213636726,0.066523805,0.900802612
22.648561,5.203407288,8.168182373,-2.292999268,-0.214857429,0.064204469,0.905197144
22.662577,2.037208557,8.419952393,-0.812896729,-0.232313484,0.057490602,0.927291870
22.663314,2.090614319,8.404693604,-0.873931885,-0.234754890,0.059077516,0.926315308
22.663939,1.655738831,8.328399658,-1.003631592,-0.234754890,0.059199587,0.925094604
22.664565,1.442115784,8.419952393,-0.629791260,-0.235487312,0.059443727,0.925094604
22.665190,1.114051819,8.580169678,-0.675567627,-0.240980476,0.059443727,0.925094604
22.665816,1.045387268,8.336029053,-0.606903076,-0.240858406,0.063838258,0.922531128
22.666441,0.648658752,8.267364502,-0.446685791,-0.238050789,0.065669313,0.923385620
22.667067,0.503700256,8.366546631,-0.469573975,-0.240125984,0.064082399,0.923507690
22.667692,0.404518127,8.137664795,-0.515350342,-0.239393562,0.065181032,0.923873901
22.668318,-0.221092224,8.198699951,-0.095733643,-0.240614265,0.068599001,0.925094604
22.668945,-0.228721619,8.297882080,-0.133880615,-0.241712898,0.070796266,0.924484253
22.669570,-0.579673767,8.244476318,-0.065216064,-0.239759773,0.073725954,0.926071167
22.670197,-0.945884705,8.206329346,-0.057586670,-0.241957039,0.078608766,0.924850464
22.670822,-1.205284119,8.297882080,0.011077881,-0.238050789,0.081294313,0.926559448
22.671449,-1.884300232,8.183441162,0.171295166,-0.243910164,0.080806032,0.928878784
22.672075,-2.219993591,8.366546631,0.125518799,-0.241712898,0.088252321,0.929244995
22.672701,-2.624351501,8.534393311,0.224700928,-0.240614265,0.088740602,0.935348511
22.673328,-3.066856384,8.267364502,0.133148193,-0.240980476,0.090937868,0.935714722
22.673953,-3.768760681,8.458099365,0.293365479,-0.238417000,0.093013063,0.938034058
22.674580,-4.028160095,8.625946045,0.484100342,-0.238294929,0.096675172,0.940353394
22.675205,-4.592735291,8.656463623,0.339141846,-0.239393562,0.100459352,0.942062378
22.675831,-5.081016541,8.793792725,0.438323975,-0.238661140,0.102656618,0.949264526
22.676457,-5.531150818,8.755645752,0.407806396,-0.238905281,0.102778688,0.948165894
22.677082,-6.202537537,8.946380615,0.491729736,-0.236830086,0.107051149,0.953903198
22.677708,-7.003623962,9.129486084,0.377288818,-0.238417000,0.104609743,0.950607300
22.678335,-7.331687927,9.373626709,0.506988525,-0.239149421,0.108882204,0.955978394
22.678960,-7.942039490,9.236297607,0.545135498,-0.238905281,0.111445680,0.957565308
22.679585,-8.453208923,9.770355225,0.392547607,-0.237440437,0.114253297,0.955978394
22.680212,-9.025413513,9.762725830,0.499359131,-0.239515632,0.114863649,0.959518433
22.680837,-9.498435974,9.709320068,0.445953369,-0.240614265,0.114863649,0.961959839
22.682580,-10.764915466,10.052642822,0.537506104,-0.240492195,0.115107790,0.959884644
22.683206,-11.138755798,10.327301025,0.613800049,-0.240980476,0.116938844,0.961471558
22.683832,-11.504966736,10.357818604,0.445953369,-0.243910164,0.114741579,0.963912964
22.684458,-11.840660095,10.510406494,0.316253662,-0.237806648,0.116206422,0.958419800
22.685083,-12.138206482,10.617218018,0.629058838,-0.239637703,0.114863649,0.958663940
22.685709,-12.199241638,10.792694092,0.308624268,-0.238783211,0.116206422,0.961593628
22.686335,-12.122947693,10.724029541,0.178924561,-0.238050789,0.112666383,0.961227417
22.686961,-12.283164978,11.219940186,0.377288818,-0.239393562,0.111689821,0.955490112
22.687587,-12.245018005,10.891876221,0.217071533,-0.236708015,0.115107790,0.960372925
22.688213,-12.298423767,11.273345947,0.224700928,-0.239149421,0.113398805,0.955490112
22.688839,-12.176353455,11.418304443,0.072113037,-0.237074226,0.115718141,0.957565308
22.689465,-12.222129822,11.395416260,0.148406982,-0.240980476,0.110224977,0.955368042
22.690092,-11.833030701,11.479339600,-0.042327881,-0.237806648,0.113520876,0.955856323
22.690717,-11.688072205,11.548004150,-0.164398193,-0.237928718,0.109126344,0.954269409
22.691343,-11.321861267,11.517486572,0.026336670,-0.236463875,0.110713258,0.954391479
22.691969,-11.253196716,11.662445068,0.003448486,-0.237318367,0.110591188,0.954391479
22.692594,-10.932762146,11.723480225,-0.103363037,-0.239393562,0.108882204,0.953414917
22.693220,-10.375816345,11.639556885,-0.301727295,-0.240980476,0.108271852,0.951339722
22.707179,1.938026428,11.326751709,-2.407440186,-0.236341804,0.109858766,0.954147339
22.707880,2.571266174,11.349639893,-2.437957764,-0.236952156,0.110957399,0.951828003
22.708505,3.227394104,11.227569580,-2.727874756,-0.232801765,0.112300172,0.953414917
22.709130,3.898780823,11.235198975,-2.720245361,-0.233534187,0.108027712,0.956466675
22.709756,4.562538147,11.326751709,-2.758392334,-0.236830086,0.108515993,0.954513550
22.710381,4.936378479,11.258087158,-3.002532959,-0.236830086,0.106440797,0.955001831
22.711007,5.668800354,11.105499268,-3.086456299,-0.234999031,0.109248415,0.954757690
22.711632,6.225746155,10.983428955,-3.147491455,-0.235365242,0.107783571,0.952926636
22.712258,6.820838928,10.838470459,-3.185638428,-0.236463875,0.109492555,0.951583862
22.712884,7.164161682,10.853729248,-3.445037842,-0.234144539,0.107783571,0.953903198
22.713509,7.782142639,10.724029541,-3.315338135,-0.235853523,0.106074587,0.950485229
22.714134,8.171241760,10.380706787,-3.582366943,-0.230604500,0.106684938,0.952316284
22.714759,9.056251526,10.525665283,-3.544219971,-0.232557625,0.107783571,0.947677612
22.715385,9.353797913,10.174713135,-3.559478760,-0.230482429,0.104121462,0.955123901
22.716010,9.864967346,10.136566162,-3.673919678,-0.227674812,0.106074587,0.949630737
22.716636,10.170143127,10.144195557,-3.834136963,-0.225965828,0.102412477,0.949386597
22.717262,10.757606506,9.793243408,-4.131683350,-0.223036140,0.101069704,0.946823120
22.717887,11.146705627,9.640655518,-4.063018799,-0.223646492,0.100825563,0.953414917
22.718512,11.749427795,9.709320068,-3.841766357,-0.223524421,0.100215212,0.952194214
22.719139,11.985939026,9.480438232,-4.078277588,-0.219251961,0.099360719,0.952316284
22.719765,12.436073303,9.320220947,-4.070648193,-0.217298836,0.102046266,0.952560425
22.720391,12.748878479,9.297332764,-4.101165771,-0.215589851,0.097651735,0.955245972
22.721017,12.985389709,9.274444580,-4.459747314,-0.212660164,0.099726930,0.957565308
22.721644,13.374488831,9.205780029,-4.185089111,-0.212904304,0.097407594,0.960006714
22.722270,13.450782776,9.251556396,-4.337677002,-0.213270515,0.095454469,0.962081909
22.722897,13.878028870,8.923492432,-4.330047607,-0.211195320,0.097895876,0.964157104
22.723522,13.740699768,8.969268799,-4.345306396,-0.212660164,0.097651735,0.966598511
22.724148,14.045875549,8.854827881,-4.314788818,-0.215467781,0.093501344,0.969650269
22.724774,14.175575256,9.152374268,-4.207977295,-0.208998054,0.096064821,0.971847534
22.725399,14.053504944,8.976898193,-4.375823975,-0.211073250,0.097407594,0.977218628
22.727191,13.931434631,8.923492432,-4.131683350,-0.205213875,0.093257204,0.983932495
22.727817,13.870399475,9.160003662,-4.223236084,-0.206556648,0.089717165,0.986495972
22.728442,13.710182190,9.030303955,-4.108795166,-0.200697273,0.094844118,0.988082886
22.729069,13.572853088,9.182891846,-4.040130615,-0.199598640,0.094966188,0.989059448
22.729695,13.229530334,9.503326416,-4.055389404,-0.201307625,0.090205446,0.991867065
22.730322,13.176124573,9.434661865,-3.925689697,-0.198622078,0.088130251,0.993087769
22.730947,12.916725159,9.457550049,-3.910430908,-0.199232429,0.085078493,0.993698120
22.731572,12.588661194,9.770355225,-3.841766357,-0.199720711,0.086787477,0.995529175
22.732197,12.268226624,9.755096436,-3.918060303,-0.197645515,0.085688844,0.995651245
22.732822,11.924903870,9.854278564,-3.689178467,-0.196180671,0.082637087,0.998336792
22.733448,11.505287170,9.869537354,-3.437408447,-0.196791023,0.079585329,0.996505737
22.734073,11.284034729,10.464630127,-3.635772705,-0.193739265,0.079585329,0.999679565
22.734698,10.971229553,10.083160400,-3.406890869,-0.188734382,0.080439821,0.998458862
22.735323,10.666053772,10.128936768,-3.254302979,-0.191664070,0.080683962,0.998092651
22.735949,10.292213440,10.357818604,-3.116973877,-0.188734382,0.075557008,1.001388550
22.736576,9.971778870,10.708770752,-3.078826904,-0.187391609,0.074824587,0.997360229
22.737202,9.788673401,10.800323486,-2.880462646,-0.189466804,0.075679079,0.996749878
22.737827,9.292762756,10.838470459,-2.956756592,-0.188612312,0.071772829,0.998092651
22.738452,9.109657288,10.930023193,-2.636322021,-0.182752937,0.071284547,0.998703003
22.752487,1.808326721,10.609588623,0.156036377,-0.142103523,0.113276735,0.999801636
22.753231,1.670997620,10.792694092,0.499359131,-0.141004890,0.123164430,1.000289917
22.753858,1.175086975,10.670623779,0.346771240,-0.144789070,0.131831422,1.000656128
22.754484,0.579994202,10.975799561,0.545135498,-0.147108406,0.138789430,0.996627808
22.755109,-0.022727966,10.769805908,0.362030029,-0.149793953,0.141230837,1.002609253
22.755735,-0.488121033,10.594329834,0.476470947,-0.151502937,0.145747438,0.998458862
22.756362,-0.884849548,10.968170166,0.598541260,-0.153456062,0.151240602,1.000778198
22.756988,-1.464683533,10.762176514,0.415435791,-0.150038093,0.152339235,1.004562378
22.757615,-1.830894470,10.937652588,0.560394287,-0.149549812,0.155513063,1.003463745
22.758242,-2.372581482,10.785064697,0.369659424,-0.146620125,0.161494508,1.004684448
22.758869,-2.715904236,10.960540771,0.293365479,-0.144056648,0.165400758,1.003952026
22.759494,-3.455955505,10.823211670,0.560394287,-0.143080086,0.167231813,1.004074097
22.760119,-3.822166443,11.052093506,0.552764893,-0.144300789,0.170161501,1.003585815
22.760745,-4.516441345,10.899505615,0.461212158,-0.143080086,0.172724977,1.006027222
22.761370,-4.936058044,10.762176514,0.262847900,-0.140516609,0.176875368,1.007492065
22.761995,-5.454856873,10.792694092,0.362030029,-0.144911140,0.177485719,1.007003784
22.762622,-5.714256287,10.769805908,0.201812744,-0.140516609,0.180659547,1.006027222
22.763248,-6.187278748,10.746917725,0.056854248,-0.138319343,0.181880251,1.003952026
22.763873,-6.492454529,10.640106201,0.011077881,-0.138075203,0.186274782,1.001388550
22.764499,-6.759483337,10.617218018,-0.095733643,-0.139540046,0.184687868,1.001998901
22.765126,-7.026512146,10.426483154,-0.110992432,-0.135145515,0.187007204,1.000534058
22.765753,-7.095176697,10.273895264,-0.461944580,-0.133436531,0.191279665,0.997970581
22.766378,-7.255393982,10.159454346,-0.561126709,-0.134657234,0.187495485,0.996749878
22.767010,-7.224876404,10.289154053,-0.522979736,-0.134535164,0.187373415,0.997116089
22.767635,-7.453758240,9.785614014,-0.652679443,-0.130995125,0.187129274,0.997726440
22.768260,-7.438499451,9.877166748,-0.873931885,-0.134413093,0.191279665,0.993942261
22.768886,-7.201988220,9.831390381,-1.224884033,-0.132093757,0.185542360,0.994552612
22.769511,-7.018882751,9.449920654,-1.201995850,-0.130995125,0.185054079,0.995285034
22.770136,-6.767112732,9.396514893,-1.484283447,-0.129896492,0.187007204,0.996261597
22.770761,-6.797630310,9.198150635,-1.697906494,-0.130384773,0.188594118,0.994796753
22.772521,-5.500633240,8.793792725,-2.201446533,-0.129286140,0.186885133,0.991989136
22.773147,-5.134422302,8.282623291,-2.445587158,-0.127943367,0.186763063,0.989547729
22.773773,-5.035240173,8.191070557,-2.598175049,-0.132337898,0.188594118,0.991744995
22.774399,-4.478294373,8.221588135,-2.659210205,-0.133070320,0.187007204,0.991012573
22.775026,-3.837425232,7.733306885,-2.849945068,-0.133436531,0.184932008,0.990280151
22.775653,-3.105003357,7.451019287,-3.124603271,-0.138807625,0.184321657,0.989791870
22.776279,-2.929527283,7.245025635,-3.109344482,-0.138929695,0.186518922,0.987716675
22.776904,-2.189476013,6.817779541,-3.475555420,-0.142591804,0.190791383,0.990158081
22.777531,-1.808006287,6.756744385,-3.666290283,-0.144300789,0.187983766,0.991134644
22.778158,-1.144248962,6.634674072,-3.872283936,-0.147596687,0.192012087,0.989913940
22.778785,-0.587303162,5.940399170,-4.207977295,-0.149183601,0.190425172,0.992355347
22.779412,-0.053245544,5.764923096,-4.391082764,-0.147108406,0.190669313,0.990158081
22.780037,0.351112366,5.497894287,-4.520782471,-0.150892586,0.192500368,0.992965698
22.780664,0.602882385,5.513153076,-4.597076416,-0.151136726,0.194087282,0.994308472
22.781290,1.365821838,4.956207275,-5.047210693,-0.153089851,0.198481813,0.994674683
22.781916,1.861732483,4.658660889,-5.108245850,-0.152967781,0.199580446,0.990524292
22.782541,2.258460999,4.597625732,-5.428680420,-0.153089851,0.198115602,0.996139526
22.783166,2.601783752,4.231414795,-5.733856201,-0.153944343,0.198359743,0.994186401
22.807349,7.377784729,-8.120574951,-12.371429443,-0.159681648,0.123774782,1.043869019
22.808076,7.713478088,-8.479156494,-12.760528564,-0.152967781,0.121577516,1.043624878
22.808703,8.171241760,-8.814849854,-12.699493408,-0.151869148,0.116206422,1.048507690
22.809329,8.522193909,-9.104766846,-12.707122803,-0.144667000,0.111933962,1.052047729
22.809954,8.728187561,-9.310760498,-12.768157959,-0.142225593,0.108638063,1.057052612
22.810579,9.239356995,-9.532012939,-12.798675537,-0.142713875,0.104121462,1.061935425
22.811204,9.391944885,-9.745635986,-12.653717041,-0.136244148,0.100703493,1.066696167
22.811829,9.796302795,-9.867706299,-12.882598877,-0.131727546,0.099482790,1.072799683
22.812454,10.261695862,-10.180511475,-12.699493408,-0.126722664,0.094477907,1.079635620
22.813080,10.330360413,-10.333099365,-12.638458252,-0.121961914,0.097773805,1.087448120
22.813706,10.429542542,-10.371246338,-12.951263428,-0.115248047,0.092646852,1.092330933
22.814333,10.826271057,-10.310211182,-12.791046143,-0.114881836,0.090083376,1.100997925
22.814958,11.139076233,-10.577239990,-12.806304932,-0.111219727,0.088740602,1.105636597
22.823532,7.888954163,-7.731475830,-11.310943604,-0.070570312,0.073848024,1.198532104
22.824158,7.476966858,-7.418670654,-11.074432373,-0.061537109,0.077021852,1.196823120
22.824784,6.950538635,-6.831207275,-10.898956299,-0.061659180,0.080439821,1.202072144
22.825409,6.530921936,-6.327667236,-10.898956299,-0.054823242,0.081416383,1.206710815
22.826035,5.829017639,-5.999603271,-10.502227783,-0.051283203,0.078120485,1.209518433
22.826661,5.088966370,-5.045928955,-10.639556885,-0.048353516,0.083735719,1.212814331
22.827286,4.409950256,-4.839935303,-10.143646240,-0.048475586,0.084224001,1.215621948
22.827912,3.845375061,-4.054107666,-9.960540771,-0.044325195,0.090449587,1.220504761
22.828537,3.204505920,-3.573455811,-10.021575928,-0.037855469,0.090083376,1.221115112
22.829163,2.243202209,-2.886810303,-9.907135010,-0.040907227,0.094599977,1.220138550
22.829789,1.175086975,-2.306976318,-9.594329834,-0.037977539,0.098262087,1.224288940
22.830414,0.374000549,-1.475372314,-9.441741943,-0.033583008,0.100215212,1.224899292
22.831041,-0.518638611,-0.979461670,-9.441741943,-0.032606445,0.098872438,1.226486206
22.831666,-1.296836853,-0.514068604,-9.479888916,-0.033216797,0.102046266,1.228805542
22.832292,-2.090293884,0.111541748,-8.892425537,-0.027601562,0.106562868,1.224899292
22.832918,-2.891380310,0.592193604,-9.006866455,-0.026747070,0.108638063,1.224288940
22.833544,-3.860313416,1.301727295,-8.953460693,-0.025160156,0.111811891,1.224411011
22.834169,-4.852134705,1.896820068,-8.686431885,-0.020399414,0.114863649,1.224044800
22.834796,-5.775291443,2.583465576,-8.297332764,-0.022596680,0.117793337,1.221481323
22.835422,-6.614524841,3.064117432,-8.694061279,-0.022596680,0.120600954,1.219161987
22.836049,-7.537681580,3.514251709,-8.297332764,-0.021253906,0.119136110,1.218063354
22.836674,-8.125144958,4.170379639,-8.022674561,-0.018690430,0.120967165,1.215744019
22.837301,-9.338218689,4.719696045,-8.167633057,-0.020521484,0.119990602,1.208541870
22.837927,-10.131675720,5.047760010,-7.923492432,-0.022962891,0.124629274,1.210006714
22.838552,-10.879356384,5.513153076,-7.801422119,-0.024671875,0.126948610,1.209762573
22.839178,-11.428672791,6.138763428,-7.954010010,-0.023329102,0.127070680,1.208175659
22.839804,-12.290794373,6.611785889,-7.694610596,-0.025404297,0.127192751,1.205490112
22.840429,-13.229209900,7.016143799,-7.618316650,-0.026747070,0.128413454,1.201095581
22.841054,-13.831932068,7.573089600,-7.748016357,-0.028700195,0.126948610,1.199508667
22.841679,-14.213401794,7.801971436,-7.458099365,-0.032850586,0.131099001,1.193283081
22.843522,-16.036827087,8.686981201,-7.503875732,-0.032240234,0.131831422,1.186691284
22.844147,-16.441184998,8.915863037,-7.671722412,-0.035169922,0.131221071,1.181686401
22.844772,-16.860801697,9.373626709,-7.549652100,-0.039076172,0.131465212,1.181198120
22.845397,-17.043907166,9.617767334,-7.427581787,-0.035658203,0.130854860,1.179000854
22.858264,-12.817222595,12.967071533,-8.777984619,-0.078382812,0.119380251,1.134078979
22.859071,-11.810142517,13.211212158,-9.060272217,-0.084852539,0.120600954,1.128097534
22.859697,-11.085350037,13.050994873,-9.174713135,-0.085829102,0.120600954,1.124191284
22.860322,-10.406333923,13.272247314,-9.273895264,-0.087416016,0.121211305,1.122970581
22.860947,-9.956199646,13.028106689,-9.319671631,-0.088026367,0.121943727,1.113937378
22.861573,-9.567100525,13.218841553,-9.258636475,-0.092542969,0.120478883,1.109909058
22.862199,-8.910972595,13.096771240,-9.502777100,-0.095960937,0.123042360,1.106124878
22.864077,-7.339317322,12.944183350,-9.777435303,-0.105116211,0.125972047,1.092697144
22.864702,-6.973106384,12.806854248,-9.754547119,-0.106947266,0.128413454,1.088668823
22.865328,-6.683189392,12.852630615,-9.884246826,-0.106458984,0.129512087,1.083663940
22.865954,-6.240684509,12.890777588,-10.021575928,-0.108778320,0.129145876,1.082565308
22.866579,-6.011802673,12.577972412,-10.197052002,-0.107557617,0.129145876,1.077072144
22.867206,-5.508262634,12.677154541,-10.120758057,-0.107923828,0.132441774,1.073287964
22.867833,-5.584556580,12.875518799,-10.326751709,-0.105238281,0.130122438,1.072921753
22.868459,-5.203086853,12.570343018,-10.563262939,-0.106581055,0.134516969,1.068771362
22.869086,-5.302268982,12.387237549,-10.464080811,-0.109144531,0.133784547,1.069381714
22.869711,-5.264122009,12.402496338,-10.418304443,-0.108900391,0.135249391,1.066329956
22.870336,-4.951316833,12.272796631,-10.670074463,-0.111219727,0.133540407,1.064865112
22.870961,-5.088645935,12.066802979,-10.723480225,-0.108290039,0.132197633,1.060226440
22.871587,-5.218345642,12.028656006,-10.807403564,-0.109999023,0.133296266,1.057418823
22.872214,-5.019981384,11.914215088,-10.753997803,-0.107801758,0.132197633,1.052658081
22.872840,-5.180198669,11.868438721,-10.746368408,-0.108900391,0.129756227,1.049484253
22.873466,-5.317527771,11.364898682,-10.944732666,-0.110853516,0.127558962,1.049850464
22.874093,-5.393821716,11.410675049,-10.807403564,-0.110731445,0.125972047,1.042648315
22.874719,-5.508262634,11.189422607,-10.792144775,-0.112074219,0.122676149,1.039718628
22.875345,-5.531150818,11.021575928,-11.013397217,-0.112684570,0.123042360,1.036788940
22.875970,-5.775291443,10.479888916,-11.112579346,-0.113172852,0.118281618,1.032882690
22.876597,-5.912620544,10.357818604,-11.059173584,-0.113172852,0.110835329,1.027999878
22.877222,-5.851585388,10.144195557,-10.921844482,-0.112684570,0.107295290,1.025314331
22.877847,-5.752403259,9.907684326,-10.929473877,-0.112806641,0.105098024,1.018478394
22.878473,-5.538780212,9.510955811,-11.005767822,-0.114393555,0.098994508,1.016159058
22.879098,-5.767662048,9.083709717,-10.967620850,-0.117323242,0.094599977,1.013351440
22.879724,-5.691368103,8.816680908,-10.792144775,-0.118055664,0.088618532,1.008468628
22.880351,-5.515892029,8.404693604,-10.944732666,-0.118666016,0.084956422,0.999557495
22.880976,-5.233604431,7.962188721,-10.952362061,-0.117811523,0.078608766,0.999679565
22.881602,-4.882652283,7.679901123,-10.715850830,-0.119764648,0.071284547,0.995162964
22.882228,-4.653770447,7.000885010,-10.822662354,-0.120130859,0.067866579,0.991622925
22.884038,-3.417808533,5.635223389,-10.464080811,-0.125501961,0.054682985,0.984298706
22.884663,-2.944786072,5.383453369,-10.593780518,-0.123670898,0.048945680,0.982589722
22.885289,-2.342063904,4.765472412,-10.509857178,-0.123060547,0.045283571,0.977462769
22.885916,-1.823265076,4.368743896,-10.265716553,-0.122206055,0.040400758,0.981246948
22.886542,-1.151878357,3.910980225,-10.158905029,-0.124159180,0.037471071,0.978195190
22.887168,-0.594932556,3.369293213,-10.136016846,-0.123304687,0.031977907,0.981124878
22.887794,0.000160217,2.697906494,-10.151275635,-0.123304687,0.025264038,0.979171753
22.888419,0.900428772,2.194366455,-9.868988037,-0.120741211,0.023310913,0.982711792
22.889046,1.510780334,1.828155518,-9.762176514,-0.122694336,0.022700561,0.980514526
22.889672,2.487342834,1.400909424,-9.708770752,-0.119276367,0.016352905,0.986495972
22.890299,2.937477112,0.912628174,-9.548553467,-0.118666016,0.015620483,0.989669800
22.904284,17.791908264,-4.336395264,-6.069549561,-0.071424805,0.003047241,1.057174683
22.905036,18.287818909,-4.382171631,-6.107696533,-0.068128906,0.004878296,1.060104370
22.905663,18.348854065,-4.305877686,-5.649932861,-0.070692383,0.008662475,1.060470581
22.906288,18.493812561,-4.046478271,-5.550750732,-0.065077148,0.011470092,1.064376831
22.906915,18.860023499,-4.084625244,-5.352386475,-0.063978516,0.011470092,1.062789917
22.907541,18.760841370,-4.206695557,-4.925140381,-0.062635742,0.017207397,1.066085815
22.908166,18.829505920,-3.825225830,-4.894622803,-0.060438477,0.022578491,1.066085815
22.908792,18.661659241,-3.825225830,-4.665740967,-0.063246094,0.025508178,1.069992065
22.909417,18.600624084,-3.787078857,-4.513153076,-0.060072266,0.027827514,1.068649292
22.910043,18.303077698,-3.466644287,-4.352935791,-0.055921875,0.035517946,1.070358276
22.910669,18.005531311,-3.413238525,-4.009613037,-0.053236328,0.038203493,1.071701050
22.911295,17.685096741,-3.245391846,-3.795989990,-0.054823242,0.040278688,1.074264526
22.911921,17.097633362,-2.993621826,-3.635772705,-0.051283203,0.042842165,1.075729370
22.912548,16.800086975,-2.879180908,-3.681549072,-0.054457031,0.047114626,1.074874878
22.913173,16.220252991,-2.848663330,-3.193267822,-0.049696289,0.053828493,1.074020386
22.913799,15.434425354,-2.596893311,-3.017791748,-0.047254883,0.053706422,1.080368042
22.914425,15.045326233,-2.314605713,-2.827056885,-0.044325195,0.057734743,1.076950073
22.915051,14.434974670,-2.245941162,-2.613433838,-0.043470703,0.063472047,1.078414917
22.915676,13.778846741,-2.238311768,-2.529510498,-0.040663086,0.063472047,1.077438354
22.916302,12.886207581,-1.605072021,-2.292999268,-0.041029297,0.066645876,1.083053589
22.916929,12.336891174,-1.429595947,-2.064117432,-0.039076172,0.071162477,1.079635620
22.917555,11.398475647,-1.345672607,-1.942047119,-0.037000977,0.075312868,1.082565308
22.918180,10.597389221,-1.040496826,-1.789459229,-0.035047852,0.075190797,1.083053589
22.918806,9.979408264,-0.666656494,-1.476654053,-0.034803711,0.077388063,1.084518433
22.919432,9.086769104,-0.475921631,-1.255401611,-0.032240234,0.079585329,1.083175659
22.920059,8.445899963,-0.193634033,-1.263031006,-0.030775391,0.084834352,1.087814331
22.920684,7.499855042,0.142059326,-0.942596436,-0.031019531,0.084346071,1.088058472
22.921311,6.805580139,0.241241455,-0.805267334,-0.029554687,0.083003297,1.090866089
22.921937,5.706947327,0.470123291,-0.637420654,-0.028578125,0.083613649,1.090621948
22.922564,5.249183655,0.866851807,-0.385650635,-0.027357422,0.086299196,1.091964722
22.924368,3.242652893,1.851043701,0.163665771,-0.023817383,0.087519899,1.090011597
22.924994,2.563636780,2.003631592,0.354400635,-0.020277344,0.088252321,1.090133667
22.925620,2.037208557,2.369842529,0.438323975,-0.020765625,0.089961305,1.092086792
22.926245,1.594703674,2.591094971,0.636688232,-0.018812500,0.088374391,1.091842651
22.926871,1.083534241,2.995452881,0.796905518,-0.018812500,0.089717165,1.093551636
22.927496,0.694435120,3.132781982,0.789276123,-0.016493164,0.091914430,1.092819214
22.928122,0.297706604,3.315887451,1.239410400,-0.017103516,0.094355837,1.092941284
22.928747,0.122230530,3.827056885,1.269927979,-0.018324219,0.091914430,1.091232300
22.929372,-0.243980408,4.162750244,1.346221924,-0.014173828,0.093623415,1.095138550
22.929997,-0.495750427,4.391632080,1.529327393,-0.016615234,0.096675172,1.094284058
22.930623,-0.610191345,4.773101807,1.567474365,-0.016371094,0.094233766,1.092819214
22.931248,-0.778038025,5.108795166,1.727691650,-0.015760742,0.097773805,1.091720581
22.931875,-0.938255310,5.253753662,1.849761963,-0.015638672,0.097041383,1.092086792
22.932500,-0.724632263,5.467376709,2.139678955,-0.015760742,0.098017946,1.089645386
22.933127,-0.869590759,5.963287354,2.185455322,-0.012831055,0.104731813,1.090377808
22.933752,-0.686485291,6.298980713,1.926055908,-0.011122070,0.104365602,1.090011597
22.934379,-0.846702576,6.474456787,2.177825928,-0.011000000,0.106074587,1.087814331
22.935007,-0.511009216,6.939849854,2.292266846,-0.014417969,0.108271852,1.088302612
22.949007,8.827369690,10.342559814,2.360931396,-0.029432617,0.143306032,1.016403198
22.949792,9.826820374,10.403594971,2.406707764,-0.032240234,0.142085329,1.013839722
22.950418,10.025184631,10.174713135,2.490631104,-0.033827148,0.144038454,1.014083862
22.951045,10.719459534,10.212860107,2.376190186,-0.028456055,0.145869508,1.006149292
22.951670,11.329811096,10.373077393,2.528778076,-0.034193359,0.145747438,1.006027222
22.952296,12.130897522,10.113677979,2.261749268,-0.034071289,0.149531618,0.999313354
22.952922,12.634437561,10.212860107,2.246490479,-0.035047852,0.149165407,0.998947144
22.953549,13.115089417,10.273895264,2.307525635,-0.039076172,0.152339235,0.997360229
22.954174,13.717811584,10.067901611,2.299896240,-0.036634766,0.156611696,0.995285034
22.954800,14.465492249,10.037384033,2.246490479,-0.038587891,0.158931032,0.992111206
22.955426,15.007179260,9.907684326,2.284637451,-0.040296875,0.159175172,0.986251831
22.956052,15.587013245,10.075531006,2.139678955,-0.039564453,0.164546266,0.986129761
22.956678,15.937965393,9.716949463,1.903167725,-0.043592773,0.167598024,0.980880737
22.957303,16.662757874,9.678802490,1.895538330,-0.041029297,0.165644899,0.977462769
22.957929,17.028968811,9.571990967,1.857391357,-0.041761719,0.170893922,0.976119995
22.958555,17.402809143,9.602508545,1.788726807,-0.041761719,0.174067751,0.973434448
22.959180,17.730873108,9.327850342,1.765838623,-0.040418945,0.172847047,0.972579956
22.959807,18.226783752,9.266815186,1.895538330,-0.039686523,0.177607790,0.966720581
22.960434,18.440406799,9.076080322,1.765838623,-0.043592773,0.178706422,0.962936401
22.961059,18.989723206,8.984527588,1.727691650,-0.040174805,0.180659547,0.961227417
22.961684,19.333045959,8.847198486,1.651397705,-0.044203125,0.181391969,0.954757690
22.962309,19.462745667,8.900604248,1.521697998,-0.046766602,0.183711305,0.950485229
22.962935,20.073097229,8.503875732,1.704803467,-0.050184570,0.183100954,0.950607300
22.963562,20.279090881,8.442840576,1.651397705,-0.050306641,0.187495485,0.945358276
22.964189,20.500343323,8.130035400,1.514068604,-0.054823242,0.188472047,0.939254761
22.964815,20.462196350,7.946929932,1.491180420,-0.058241211,0.192500368,0.936813354
22.965441,20.965736389,7.718048096,1.323333740,-0.061659180,0.194697633,0.931808472
22.966068,20.904701233,7.718048096,1.277557373,-0.065809570,0.198115602,0.930465698
22.966693,21.263282776,7.176361084,1.254669189,-0.066786133,0.197261110,0.925582886
22.967320,21.301429749,6.894073486,1.254669189,-0.069471680,0.199336305,0.921188354
22.969132,21.515052795,6.314239502,0.957122803,-0.080580078,0.206416383,0.913131714
22.969757,21.545570374,6.047210693,0.774017334,-0.080824219,0.207026735,0.909347534
22.970382,21.629493713,5.680999756,0.705352783,-0.086927734,0.206904665,0.908004761
22.971008,21.530311584,5.246124268,0.552764893,-0.087782227,0.206782594,0.906295776
22.971633,21.682899475,5.093536377,0.583282471,-0.090956055,0.211299196,0.901290894
22.972259,21.766822815,4.895172119,0.415435791,-0.092420898,0.210078493,0.900314331
22.972884,21.637123108,4.338226318,0.445953369,-0.097791992,0.211055055,0.899337769
22.973510,21.446388245,4.086456299,0.384918213,-0.101087891,0.207392946,0.896530151
22.974137,21.759193420,4.017791748,0.041595459,-0.103773437,0.208125368,0.895187378
22.974762,21.507423401,3.148040771,0.186553955,-0.109022461,0.206538454,0.891769409
22.975387,21.545570374,2.957305908,-0.080474854,-0.109510742,0.209834352,0.891647339
22.976012,21.606605530,2.774200439,-0.126251221,-0.111219727,0.208735719,0.892501831
22.976639,21.751564026,2.362213135,-0.240692139,-0.113172852,0.205195680,0.892135620
22.977264,21.415870667,1.835784912,-0.454315186,-0.116834961,0.201899782,0.884933472
22.977889,21.949928284,1.500091553,-0.568756104,-0.119154297,0.203120485,0.885665894
22.978514,21.743934631,1.133880615,-0.652679443,-0.119642578,0.200679079,0.887130737
22.979140,21.682899475,0.904998779,-0.591644287,-0.120619141,0.200190797,0.883834839
22.979767,21.614234924,0.462493896,-0.667938232,-0.124159180,0.198359743,0.885665894
22.980393,21.972816467,-0.063934326,-0.835784912,-0.124281250,0.197993532,0.885177612
22.994350,24.345558167,-7.922210693,-2.010711670,-0.170667976,0.168330446,0.882247925
22.995080,24.276893616,-8.097686768,-2.186187744,-0.176161140,0.169429079,0.885910034
22.995705,24.124305725,-8.379974365,-2.163299561,-0.174574226,0.173701540,0.885910034
22.996330,23.651283264,-8.700408936,-2.018341064,-0.176283211,0.174067751,0.884323120
22.996956,23.346107483,-8.837738037,-2.186187744,-0.177503914,0.174922243,0.885421753
22.997581,23.079078674,-9.043731689,-2.102264404,-0.182264656,0.176142946,0.887252808
22.998207,22.506874084,-9.326019287,-2.087005615,-0.183607429,0.175898805,0.888229370
22.998833,21.927040100,-9.509124756,-1.995452881,-0.176283211,0.181269899,0.892501831
22.999459,21.499794006,-9.776153564,-2.094635010,-0.178114265,0.179927126,0.890182495
23.000085,20.775001526,-9.860076904,-2.102264404,-0.180555671,0.178218141,0.894332886
23.000712,19.928138733,-10.218658447,-1.987823486,-0.178480476,0.182002321,0.896530151
23.001337,19.226234436,-10.348358154,-1.903900146,-0.182752937,0.180537477,0.893478394
23.001962,18.158119202,-10.409393311,-1.987823486,-0.182386726,0.181636110,0.896530151
23.002588,17.555397034,-10.623016357,-1.980194092,-0.182752937,0.180171266,0.896774292
23.003215,16.716163635,-10.478057861,-1.781829834,-0.182752937,0.182978883,0.894210815
23.003840,15.968482971,-10.882415771,-1.888641357,-0.182752937,0.185664430,0.896652222
23.004466,14.679115295,-10.874786377,-1.736053467,-0.187391609,0.186152712,0.896774292
23.005092,13.809364319,-11.111297607,-1.629241943,-0.183119148,0.187861696,0.900436401
23.005717,12.581031799,-11.248626709,-1.812347412,-0.187513679,0.189204469,0.898361206
23.006344,11.680763245,-11.233367920,-1.507171631,-0.191175789,0.185420290,0.897018433
23.006970,10.742347717,-11.446990967,-1.659759521,-0.190565437,0.188105837,0.897384644
23.007596,9.811561584,-11.347808838,-1.522430420,-0.191419929,0.188105837,0.899459839
23.008223,8.606117249,-11.347808838,-1.362213135,-0.193128914,0.188594118,0.899215698
23.008848,7.240455627,-11.668243408,-1.308807373,-0.193861336,0.186640993,0.898239136
23.009473,6.302040100,-11.576690674,-1.392730713,-0.194715828,0.185420290,0.900192261
23.010100,5.020301819,-11.622467041,-1.301177979,-0.196180671,0.184321657,0.900680542
23.010726,4.097145081,-11.683502197,-1.301177979,-0.197645515,0.181880251,0.903610229
23.011352,2.754371643,-11.630096436,-1.110443115,-0.202162117,0.181147829,0.902999878
23.011979,1.739662170,-11.858978271,-1.285919189,-0.201795906,0.184687868,0.905685425
23.012605,0.976722717,-11.828460693,-1.095184326,-0.204603523,0.180293337,0.904464722
23.014382,-2.319175720,-12.126007080,-0.896820068,-0.208509773,0.173335329,0.908493042
23.015009,-3.486473083,-11.828460693,-0.942596436,-0.211439461,0.171382204,0.908615112
23.015635,-4.249412537,-11.988677979,-0.812896729,-0.214857429,0.167475954,0.912643433
23.016262,-5.264122009,-12.164154053,-0.942596436,-0.217909187,0.169307008,0.912765503
23.016888,-6.164390564,-11.889495850,-0.889190674,-0.220106453,0.162471071,0.911666870
23.017513,-6.805259705,-11.698760986,-0.614532471,-0.220960945,0.160762087,0.913986206
23.018138,-7.598716736,-11.935272217,-0.835784912,-0.224500984,0.158198610,0.918136597
23.018765,-8.231956482,-11.881866455,-0.584014893,-0.224134773,0.154048219,0.918258667
23.019390,-8.773643494,-11.920013428,-0.584014893,-0.225233406,0.152217165,0.921432495
23.020015,-9.452659607,-11.973419189,-0.545867920,-0.228285164,0.145747438,0.923019409
23.020641,-9.841758728,-11.958160400,-0.606903076,-0.228407234,0.145015016,0.923385620
23.021266,-10.413963318,-11.729278564,-0.568756104,-0.231703132,0.145381227,0.926071167
23.021893,-10.818321228,-11.942901611,-0.698455811,-0.233045906,0.137812868,0.928512573
23.022520,-11.184532166,-11.698760986,-0.446685791,-0.229505867,0.137690797,0.929122925
23.023147,-11.382896423,-11.622467041,-0.431427002,-0.233656257,0.132319704,0.930831909
23.023773,-11.642295837,-11.584320068,-0.446685791,-0.232679695,0.127925172,0.932907104
23.024399,-11.886436462,-11.446990967,-0.477203369,-0.229872078,0.124263063,0.936325073
23.038398,-3.730613708,-8.090057373,-0.263580322,-0.243666023,0.086787477,0.949020386
23.039124,-3.394920349,-7.929840088,0.018707275,-0.246839851,0.089961305,0.948410034
23.039750,-3.036338806,-7.609405518,-0.263580322,-0.249403328,0.091059938,0.948654175
23.040376,-2.631980896,-7.357635498,-0.339874268,-0.250013679,0.092158571,0.950607300
23.041007,-2.029258728,-7.174530029,-0.110992432,-0.252577156,0.088984743,0.951583862
23.041632,-1.548606873,-6.915130615,-0.019439697,-0.250013679,0.091792360,0.951095581
23.042259,-1.289207458,-6.411590576,-0.248321533,-0.251234382,0.093257204,0.953781128
23.042884,-1.014549255,-6.259002686,-0.286468506,-0.254042000,0.094111696,0.954269409
23.043511,-0.625450134,-6.342926025,-0.187286377,-0.251600593,0.094111696,0.952194214
23.044136,-0.449974060,-5.534210205,-0.156768799,-0.254286140,0.093501344,0.950363159
23.044761,-0.274497986,-5.297698975,-0.080474854,-0.254408211,0.097041383,0.954269409
23.045388,-0.305015564,-4.893341064,-0.057586670,-0.259901375,0.097773805,0.955123901
23.046014,0.129859924,-4.733123779,-0.149139404,-0.257337898,0.100459352,0.953781128
23.046639,0.274818420,-4.229583740,-0.080474854,-0.252943367,0.099238649,0.951583862
23.047266,0.305335999,-4.061737061,-0.141510010,-0.256605476,0.101435915,0.951828003
23.047893,0.358741760,-3.573455811,-0.309356689,-0.255262703,0.100703493,0.949630737
23.048520,0.412147522,-3.115692139,-0.042327881,-0.255384773,0.103999391,0.949508667
23.049146,0.267189026,-2.848663330,-0.179656982,-0.257215828,0.103755251,0.953292847
23.049771,0.213783264,-2.497711182,-0.095733643,-0.258070320,0.104609743,0.950607300
23.050396,0.297706604,-2.123870850,-0.088104248,-0.257459968,0.107173219,0.952072144
23.051023,0.229042053,-1.536407471,-0.164398193,-0.259657234,0.103999391,0.943771362
23.051649,-0.167686462,-1.269378662,-0.118621826,-0.260389656,0.105830446,0.944992065
23.052275,-0.022727966,-0.910797119,-0.103363037,-0.262953132,0.103755251,0.946334839
23.052901,-0.236351013,-0.437774658,-0.164398193,-0.263685554,0.104731813,0.943405151
23.053526,-0.160057068,0.019989014,-0.057586670,-0.263197273,0.099849001,0.939743042
23.054152,-0.221092224,0.401458740,-0.034698486,-0.263807625,0.101313844,0.938766479
23.054777,-0.449974060,0.630340576,0.003448486,-0.267835945,0.103389040,0.934005737
23.055404,-0.457603455,1.034698486,-0.034698486,-0.266249031,0.100825563,0.929489136
23.056030,-0.549156189,1.080474854,0.056854248,-0.267958015,0.099849001,0.928146362
23.056656,-0.678855896,1.530609131,-0.179656982,-0.264906257,0.098872438,0.924850464
23.058436,-0.686485291,2.438507080,-0.110992432,-0.270033211,0.096553102,0.913131714
23.059061,-0.793296814,2.835235596,0.163665771,-0.268324226,0.091914430,0.912521362
23.059688,-0.594932556,2.819976807,-0.019439697,-0.266981453,0.088862672,0.909347534
23.060314,-0.663597107,3.201446533,-0.133880615,-0.265272468,0.086421266,0.906661987
23.060941,-0.427085876,3.025970459,0.178924561,-0.268934578,0.083369508,0.902999878
23.061567,-0.266868591,3.300628662,0.095001221,-0.266859382,0.081782594,0.898605347
23.062192,-0.350791931,3.590545654,-0.126251221,-0.265516609,0.082026735,0.894699097
23.062818,0.000160217,3.560028076,0.217071533,-0.267469734,0.075557008,0.891891479
23.063444,0.328224182,3.628692627,0.156036377,-0.266004890,0.075190797,0.892257690
23.064069,0.564735413,4.071197510,0.156036377,-0.267591804,0.070063844,0.886398315
23.064694,0.900428772,3.956756592,0.140777588,-0.267347664,0.065303102,0.878219604
23.065320,0.938575745,3.834686279,0.278106689,-0.270521492,0.062373415,0.879074097
23.072510,5.882423401,2.667388916,0.781646729,-0.297987312,0.046992555,0.831466675
23.073137,6.233375549,2.423248291,0.774017334,-0.297010750,0.043208376,0.830734253
23.073762,6.500404358,1.843414307,1.033416748,-0.297621101,0.043940797,0.826950073
23.074389,7.034461975,1.812896729,1.094451904,-0.300917000,0.046138063,0.825363159
23.075014,7.385414124,1.309356689,1.071563721,-0.301527351,0.043818727,0.825851440
23.075641,7.904212952,1.210174561,1.254669189,-0.302503914,0.045893922,0.827804565
23.089648,8.751075745,-1.139678955,2.711883545,-0.287245125,0.064814821,0.865768433
23.090381,8.430641174,-1.017608643,2.872100830,-0.280165046,0.069575563,0.875778198
23.091007,8.293312073,-1.101531982,3.100982666,-0.280287117,0.071894899,0.876754761
23.091633,8.560340881,-0.994720459,3.032318115,-0.278944343,0.072749391,0.878952026
23.092258,8.369606018,-0.788726807,3.024688721,-0.280287117,0.070063844,0.876754761
23.092885,8.133094788,-0.597991943,3.131500244,-0.273329109,0.073359743,0.883468628
23.093512,8.239906311,-0.498809814,3.108612061,-0.271742195,0.075557008,0.890060425
23.094137,8.133094788,-0.277557373,3.215423584,-0.270277351,0.080317751,0.890304565
23.094764,7.927101135,-0.056304932,3.383270264,-0.271009773,0.079951540,0.894821167
23.095389,7.896583557,0.157318115,3.505340576,-0.268446296,0.081904665,0.894454956
23.096015,7.766883850,0.370941162,3.390899658,-0.267103523,0.085322633,0.899581909
23.096642,7.560890198,0.294647217,3.360382080,-0.268324226,0.088130251,0.903976440
23.097268,7.461708069,0.699005127,3.535858154,-0.264662117,0.089350954,0.904464722
23.097894,7.049720764,1.027069092,3.482452393,-0.262464851,0.095088258,0.908737183
23.098519,6.828468323,1.385650635,3.413787842,-0.265516609,0.094722047,0.913253784
23.099145,6.904762268,1.652679443,3.627410889,-0.264784187,0.099482790,0.913253784
23.099771,6.309669495,1.919708252,3.741851807,-0.259779304,0.101680055,0.916183472
23.100398,5.752723694,2.362213135,3.619781494,-0.260877937,0.105830446,0.920211792
23.101023,5.432289124,2.606353760,3.657928467,-0.259413093,0.107783571,0.921310425
23.101649,5.150001526,2.896270752,3.757110596,-0.258558601,0.106562868,0.922653198
23.102274,4.600685120,3.483734131,3.459564209,-0.259168953,0.111933962,0.925094604
23.102899,4.211585999,3.582916260,3.680816650,-0.256605476,0.110835329,0.924728394
23.103524,3.837745667,4.178009033,3.818145752,-0.258802742,0.113032594,0.928390503
23.104150,3.288429260,4.147491455,3.627410889,-0.258924812,0.115718141,0.927413940
23.104777,2.899330139,4.712066650,3.627410889,-0.259901375,0.120600954,0.924606323
23.105404,2.334754944,4.887542725,3.703704834,-0.260633796,0.117182985,0.925827026
23.106029,1.945655823,5.551300049,3.665557861,-0.259291023,0.121455446,0.924972534
23.106656,1.503150940,5.597076416,3.596893311,-0.259657234,0.123164430,0.922531128
23.107282,1.106422424,5.993804932,3.726593018,-0.259046882,0.126338258,0.923141479
23.107909,0.541847229,6.344757080,3.703704834,-0.260145515,0.126704469,0.924362183
23.109669,-0.411827087,7.122955322,3.505340576,-0.254042000,0.130000368,0.920700073
23.110295,-0.991661072,7.176361084,3.696075439,-0.253919929,0.133784547,0.919601440
23.110921,-1.464683533,7.603607178,3.642669678,-0.251844734,0.133662477,0.916671753
23.111548,-2.143699646,7.771453857,3.543487549,-0.251234382,0.133540407,0.917404175
23.112173,-2.654869080,8.236846924,3.703704834,-0.253187507,0.134272829,0.914962769
23.112800,-3.097373962,8.686981201,3.482452393,-0.248060554,0.140010133,0.915817261
23.113427,-3.486473083,8.831939697,3.528228760,-0.246961921,0.141230837,0.914962769
23.114053,-3.959495544,9.320220947,3.398529053,-0.246351570,0.139033571,0.917770386
23.114678,-4.745323181,9.625396729,3.650299072,-0.244642586,0.139888063,0.914108276
23.115304,-5.065757751,9.571990967,3.383270264,-0.242323250,0.145625368,0.912521362
23.115930,-5.538780212,9.961090088,3.535858154,-0.242445320,0.143916383,0.914108276
23.116555,-5.897361755,10.388336182,3.467193604,-0.241346687,0.142085329,0.911666870
23.117180,-6.370384216,10.838470459,3.360382080,-0.240858406,0.144648805,0.911788940
23.117806,-7.133323669,11.013946533,3.284088135,-0.238050789,0.148066774,0.907638550
23.118432,-7.324058533,11.258087158,3.314605713,-0.237928718,0.146357790,0.910324097
23.119058,-8.193809509,11.677703857,3.200164795,-0.236219734,0.149775758,0.909347534
23.119683,-8.689720154,11.929473877,3.207794189,-0.234266609,0.149409547,0.906784058
23.120309,-9.048301697,12.379608154,3.017059326,-0.233778328,0.150019899,0.903732300
23.120934,-9.422142029,12.471160889,3.139129639,-0.230482429,0.147212282,0.904708862
23.134915,-8.186180115,16.560516357,1.636138916,-0.233045906,0.128413454,0.879440308
23.135656,-7.705528259,16.682586670,1.460662842,-0.228529304,0.124873415,0.879196167
23.136282,-7.224876404,17.079315186,1.239410400,-0.229872078,0.123896852,0.882614136
23.136907,-6.507713318,17.216644287,1.292816162,-0.225477546,0.122554079,0.880172729
23.137534,-5.973655701,17.003021240,1.277557373,-0.225111336,0.119990602,0.877487183
23.138159,-5.485374451,17.521820068,1.086822510,-0.227552742,0.116816774,0.878952026
23.138786,-4.829246521,17.476043701,1.041046143,-0.225111336,0.115962282,0.878219604
23.139411,-4.173118591,17.926177979,0.949493408,-0.225965828,0.113398805,0.877120972
23.140037,-3.181297302,17.804107666,0.911346436,-0.226576179,0.109370485,0.872360229
23.140664,-2.494651794,17.895660400,0.850311279,-0.225843757,0.107051149,0.872238159
23.141289,-1.518089294,18.254241943,0.392547607,-0.226454109,0.106196657,0.868820190
23.141915,-0.991661072,18.170318604,0.613800049,-0.226454109,0.102168337,0.864669800
23.142540,-0.068504333,17.994842529,0.560394287,-0.226698250,0.100703493,0.863937378
23.143165,0.717323303,18.315277100,0.499359131,-0.226576179,0.098140016,0.859298706
23.143791,1.892250061,18.200836182,0.476470947,-0.229383796,0.095698610,0.857345581
23.144417,2.655189514,18.406829834,0.262847900,-0.230482429,0.095088258,0.857223511
23.145043,3.692787170,18.391571045,0.308624268,-0.230238289,0.094355837,0.850387573
23.145669,4.585426331,18.071136475,0.308624268,-0.230360359,0.092036501,0.848434448
23.146294,5.706947327,18.254241943,0.079742432,-0.233290046,0.091792360,0.844161987
23.146919,6.683509827,18.322906494,0.201812744,-0.234876961,0.089961305,0.839523315
23.147544,7.591407776,18.109283447,0.072113037,-0.233534187,0.090937868,0.838790894
23.148170,8.720558167,17.926177979,0.110260010,-0.234632820,0.088374391,0.833175659
23.148795,9.529273987,17.857513428,-0.027069092,-0.236708015,0.087153688,0.826705933
23.149420,10.681312561,17.727813721,-0.126251221,-0.237562507,0.089473024,0.825119019
23.150045,11.696022034,17.437896729,-0.080474854,-0.237318367,0.087886110,0.820358276
23.150671,12.634437561,17.445526123,-0.126251221,-0.238294929,0.089106813,0.816940308
23.151296,13.801734924,17.041168213,0.125518799,-0.239393562,0.093501344,0.814498901
23.151923,14.602821350,16.987762451,-0.133880615,-0.238539070,0.089106813,0.809616089
23.152550,15.365760803,16.995391846,-0.156768799,-0.237074226,0.094233766,0.805465698
23.153177,16.296546936,16.682586670,-0.194915771,-0.238661140,0.094355837,0.805953979
23.154973,18.646400452,15.889129639,-0.439056396,-0.242689461,0.100825563,0.794235229
23.155598,19.256752014,15.629730225,-0.301727295,-0.240980476,0.103877321,0.797042847
23.156224,20.271461487,15.637359619,-0.423797607,-0.245741218,0.107417360,0.792160034
23.156849,20.652931213,15.240631104,-0.316986084,-0.245497078,0.114009157,0.793502808
23.157474,20.958106995,14.866790771,-0.522979736,-0.247328132,0.117793337,0.790328979
23.158099,21.904151917,14.584503174,-0.568756104,-0.245863289,0.120967165,0.790939331
23.158724,22.155921936,14.309844971,-0.934967041,-0.249037117,0.126094118,0.790695190
23.159349,22.682350159,13.821563721,-0.851043701,-0.241834968,0.128047243,0.794357300
23.159974,23.315589905,13.577423096,-1.133331299,-0.239515632,0.124751344,0.796676636
23.160600,23.193519592,13.417205811,-1.041778564,-0.232801765,0.122920290,0.796554565
23.161225,23.330848694,12.913665771,-1.034149170,-0.226576179,0.124018922,0.795455933
23.161851,23.346107483,12.875518799,-0.957855225,-0.223890632,0.128413454,0.798873901
23.162477,23.048561096,12.745819092,-1.064666748,-0.221327156,0.127803102,0.798385620
23.163103,23.353736877,12.349090576,-1.087554932,-0.225599617,0.131953493,0.795333862
23.163730,23.277442932,12.127838135,-1.079925537,-0.229383796,0.131953493,0.796798706
23.164356,23.231666565,11.906585693,-1.018890381,-0.230848640,0.135249391,0.796676636
23.164982,22.934120178,11.525115967,-0.957855225,-0.233167976,0.137934938,0.792282104
23.165608,23.018043518,11.235198975,-1.041778564,-0.233045906,0.139521852,0.793136597
23.179545,12.695472717,4.963836670,-1.667388916,-0.236830086,0.173945680,0.822189331
23.180267,11.978309631,4.773101807,-1.362213135,-0.236952156,0.173091188,0.825851440
23.180894,11.322181702,4.445037842,-1.499542236,-0.231947273,0.178584352,0.832443237
23.181520,10.498207092,4.307708740,-1.613983154,-0.230238289,0.175288454,0.836471558
23.182146,9.697120667,4.269561768,-1.652130127,-0.227674812,0.181147829,0.841964722
23.182772,8.987586975,4.406890869,-1.591094971,-0.224989265,0.184809938,0.844284058
23.183397,8.186500549,4.414520264,-1.621612549,-0.225721687,0.182490602,0.853439331
23.184022,7.515113831,4.445037842,-1.652130127,-0.221937507,0.185054079,0.855636597
23.184647,6.576698303,4.528961182,-1.697906494,-0.219251961,0.185542360,0.861129761
23.185272,5.584877014,4.483184814,-1.575836182,-0.219740242,0.188960329,0.864425659
23.185897,4.966896057,4.483184814,-1.675018311,-0.220594734,0.187617555,0.866012573
23.186524,4.104774475,4.879913330,-1.766571045,-0.223646492,0.187373415,0.872970581
23.187151,3.318946838,4.795989990,-1.675018311,-0.216566414,0.185054079,0.878952026
23.187778,2.487342834,5.001983643,-1.911529541,-0.217054695,0.188594118,0.879196167
23.188404,1.663368225,5.001983643,-1.934417725,-0.219496101,0.189570680,0.884201050
23.189031,1.121681213,5.116424561,-1.667388916,-0.218519539,0.189326540,0.887496948
23.189657,0.328224182,5.307159424,-1.942047119,-0.219740242,0.191523805,0.889938354
23.190282,-0.472862244,5.513153076,-1.903900146,-0.217787117,0.188716188,0.889938354
23.190908,-1.357872009,5.543670654,-1.995452881,-0.217420906,0.190669313,0.893478394
23.191533,-2.021629333,5.665740967,-2.010711670,-0.218275398,0.190303102,0.892623901
23.192160,-2.555686951,6.001434326,-2.384552002,-0.216688484,0.189692751,0.894088745
23.192787,-3.257591248,6.260833740,-2.056488037,-0.217176765,0.190547243,0.894332886
23.193412,-4.028160095,6.360015869,-2.231964111,-0.219374031,0.187617555,0.895065308
23.194037,-4.653770447,6.543121338,-2.209075928,-0.216444343,0.191767946,0.895919800
23.194663,-5.325157166,6.772003174,-2.384552002,-0.218519539,0.190303102,0.894210815
23.195288,-5.988914490,6.802520752,-2.224334717,-0.219984382,0.189570680,0.895919800
23.195914,-6.347496033,6.855926514,-2.346405029,-0.215833992,0.187373415,0.895675659
23.196539,-7.140953064,7.283172607,-2.331146240,-0.217542976,0.187739626,0.897628784
23.197164,-7.743675232,7.382354736,-2.613433838,-0.217542976,0.187129274,0.898605347
23.197790,-8.125144958,7.481536865,-2.636322021,-0.219862312,0.187983766,0.895431519
23.199559,-9.795982361,7.962188721,-2.926239014,-0.218641609,0.183711305,0.897750854
23.200185,-10.078269958,8.305511475,-2.704986572,-0.216932625,0.184687868,0.898605347
23.200810,-10.619956970,8.328399658,-3.048309326,-0.216078132,0.187251344,0.897018433
23.201436,-11.176902771,8.389434814,-2.926239014,-0.218519539,0.185420290,0.896896362
23.202063,-11.596519470,8.389434814,-3.063568115,-0.217542976,0.183711305,0.897018433
23.202690,-12.039024353,8.915863037,-3.139862061,-0.218275398,0.182002321,0.897750854
23.203316,-12.382347107,8.679351807,-3.048309326,-0.223158211,0.181391969,0.894943237
23.203942,-12.893516541,9.060821533,-3.239044189,-0.220838875,0.180781618,0.898239136
23.204568,-13.206321716,9.083709717,-3.132232666,-0.224378914,0.176631227,0.898849487
23.205195,-13.397056580,9.083709717,-3.437408447,-0.225233406,0.179194704,0.898361206
23.205821,-14.076072693,9.144744873,-3.216156006,-0.224989265,0.177241579,0.897384644
23.206446,-14.297325134,9.327850342,-3.178009033,-0.231092781,0.174678102,0.896163940
23.207071,-14.625389099,9.312591553,-3.628143311,-0.232313484,0.175166383,0.895675659
23.207697,-14.938194275,9.327850342,-3.445037842,-0.232191414,0.176142946,0.895553589
23.208324,-15.289146423,9.243927002,-3.651031494,-0.232801765,0.171138063,0.893966675
23.208950,-15.441734314,9.243927002,-3.727325439,-0.234999031,0.167231813,0.894332886
23.209576,-15.670616150,9.411773682,-3.834136963,-0.239759773,0.165644899,0.892990112
23.210203,-15.884239197,9.152374268,-3.727325439,-0.241712898,0.163569704,0.893844604
23.224184,-12.435752869,9.846649170,-4.101165771,-0.276380867,0.108760133,0.909347534
23.224926,-11.977989197,9.755096436,-4.093536377,-0.277113289,0.108393922,0.905197144
23.225551,-11.779624939,10.029754639,-4.146942139,-0.277845711,0.106929079,0.910446167
23.226177,-11.146385193,9.930572510,-4.055389404,-0.282606453,0.105220094,0.913253784
23.226803,-10.650474548,10.197601318,-4.055389404,-0.281996101,0.102656618,0.913497925
23.227430,-10.131675720,10.243377686,-4.032501221,-0.284071296,0.103022829,0.914596558
23.228057,-9.750205994,10.167083740,-4.116424561,-0.283827156,0.098994508,0.915817261
23.228682,-9.338218689,10.121307373,-4.024871826,-0.287977546,0.097773805,0.914840698
23.229307,-9.040672302,10.434112549,-3.948577881,-0.287245125,0.094844118,0.915573120
23.229932,-8.079368591,10.243377686,-3.971466064,-0.288954109,0.096308962,0.917526245
23.230557,-7.789451599,10.495147705,-3.895172119,-0.293714851,0.094111696,0.914474487
23.231211,-7.186729431,10.388336182,-3.902801514,-0.294447273,0.089839235,0.916915894
23.231836,-6.774742126,10.769805908,-3.940948486,-0.296766609,0.091670290,0.917282104
23.232462,-6.316978455,10.670623779,-4.055389404,-0.300550789,0.088496462,0.917770386
23.233088,-5.714256287,10.838470459,-3.879913330,-0.297254890,0.083247438,0.915817261
23.233714,-5.081016541,10.777435303,-4.055389404,-0.301893562,0.086177126,0.913619995
23.234339,-4.409629822,10.846099854,-4.001983643,-0.302503914,0.080806032,0.912643433
23.234965,-4.005271912,10.632476807,-3.734954834,-0.307142586,0.084834352,0.914108276
23.235591,-3.608543396,10.907135010,-3.704437256,-0.311292976,0.080439821,0.913497925
23.236217,-2.860862732,10.815582275,-3.635772705,-0.314710945,0.079219118,0.910568237
23.236842,-2.052146912,10.693511963,-3.658660889,-0.314833015,0.077510133,0.911788940
23.237469,-1.602012634,10.807952881,-3.513702393,-0.319105476,0.074946657,0.908981323
23.238096,-1.403648376,10.968170166,-3.620513916,-0.319959968,0.074946657,0.908248901
23.238722,-0.587303162,10.548553467,-3.429779053,-0.322035164,0.073237672,0.907882690
23.239348,0.015419006,10.418853760,-3.330596924,-0.324476570,0.076777712,0.906417847
23.239973,0.663917542,10.769805908,-3.384002686,-0.324232429,0.070185915,0.906906128
23.240599,1.136940002,10.418853760,-3.414520264,-0.324598640,0.071406618,0.905563354
23.241226,1.564186096,10.647735596,-3.200897217,-0.324232429,0.072016969,0.908248901
23.241852,2.327125549,10.426483154,-3.132232666,-0.323011726,0.072627321,0.907516479
23.242477,2.853553772,10.174713135,-3.033050537,-0.324720711,0.072383180,0.907760620
23.244277,4.181068420,10.174713135,-2.865203857,-0.327162117,0.077265993,0.911056519
23.244902,4.532020569,10.174713135,-2.956756592,-0.323622078,0.078608766,0.912277222
23.245528,5.142372131,10.289154053,-2.857574463,-0.326429695,0.077265993,0.913497925
23.246154,5.401771545,10.212860107,-2.712615967,-0.322401375,0.080317751,0.915328979
23.246781,5.798500061,10.159454346,-2.636322021,-0.324476570,0.081294313,0.913742065
23.247406,6.111305237,10.167083740,-2.384552002,-0.323011726,0.080195680,0.912887573
23.248033,6.263893127,9.999237061,-2.521881104,-0.321302742,0.083003297,0.915206909
23.248660,6.561439514,10.045013428,-2.338775635,-0.321058601,0.086665407,0.913253784
23.249286,6.912391663,9.839019775,-2.338775635,-0.318617195,0.090083376,0.913619995
23.249913,6.981056213,9.999237061,-2.277740479,-0.319837898,0.090571657,0.914718628
23.250539,7.255714417,9.800872803,-2.262481689,-0.315443367,0.094233766,0.912643433
23.251164,7.187049866,9.602508545,-2.163299561,-0.317152351,0.094233766,0.915817261
23.251789,7.423561096,9.671173096,-1.957305908,-0.316419929,0.094599977,0.914840698
23.252416,7.431190491,9.648284912,-2.003082275,-0.317396492,0.100093141,0.915451050
23.253041,7.560890198,9.556732178,-1.919158936,-0.313490242,0.097041383,0.915817261
23.253668,7.339637756,9.724578857,-1.789459229,-0.313246101,0.097407594,0.913742065
23.254295,7.476966858,9.190521240,-1.835235596,-0.313734382,0.099238649,0.912155151
23.254920,7.408302307,9.160003662,-1.644500732,-0.311170906,0.103022829,0.912643433
23.268854,0.305335999,5.833587646,-0.400909424,-0.253797859,0.144282594,0.964523315
23.269549,-0.228721619,6.108245850,-0.255950928,-0.253309578,0.149287477,0.973312378
23.270174,-0.808555603,5.948028564,-0.355133057,-0.250135750,0.145747438,0.977096558
23.270799,-1.853782654,6.215057373,-0.271209717,-0.245863289,0.150386110,0.986129761
23.271425,-2.563316345,6.352386475,-0.248321533,-0.240248054,0.149043337,0.993820190
23.272050,-3.219444275,6.222686768,0.026336670,-0.237928718,0.151118532,0.997360229
23.272676,-3.906089783,6.756744385,-0.088104248,-0.233900398,0.151606813,1.000900269
23.273301,-4.714805603,7.183990479,0.293365479,-0.232923836,0.152461305,1.007614136
23.273926,-5.660850525,7.428131104,0.064483643,-0.230604500,0.154414430,1.014450073
23.274553,-6.507713318,7.695159912,0.049224854,-0.229383796,0.153559938,1.016281128
23.275178,-7.201988220,8.168182373,0.285736084,-0.231092781,0.156977907,1.020919800
23.275804,-7.987815857,8.404693604,0.278106689,-0.230238289,0.157466188,1.025070190
23.276429,-8.720237732,8.770904541,0.316253662,-0.229017586,0.153804079,1.025314331
23.277055,-9.773094177,9.106597900,0.468841553,-0.230482429,0.154292360,1.027755737
23.277681,-10.513145447,9.633026123,0.491729736,-0.229383796,0.155390993,1.033737183
23.278308,-11.337120056,10.106048584,0.529876709,-0.224867195,0.152827516,1.033004761
23.278933,-11.878807068,10.479888916,0.613800049,-0.224378914,0.152949587,1.035079956
23.279560,-12.817222595,10.884246826,0.651947021,-0.223280281,0.150141969,1.033248901
23.280187,-13.389427185,11.448822021,0.774017334,-0.222181648,0.150019899,1.035568237
23.280812,-14.236289978,11.677703857,0.697723389,-0.219496101,0.150019899,1.035446167
23.281438,-14.976341248,12.097320557,0.697723389,-0.217665046,0.147700563,1.035202026
23.282063,-15.487510681,12.608489990,0.987640381,-0.217787117,0.148677126,1.036788940
23.282688,-16.074974060,12.921295166,1.086822510,-0.217298836,0.143916383,1.036911011
23.283314,-16.639549255,13.241729736,0.987640381,-0.215345711,0.141352907,1.033004761
23.283940,-17.150718689,13.615570068,0.918975830,-0.209364265,0.140010133,1.031417847
23.284566,-17.738182068,13.981781006,1.353851318,-0.209974617,0.140132204,1.031173706
23.285193,-17.982322693,14.271697998,1.269927979,-0.210340828,0.137324587,1.028488159
23.285818,-18.325645447,14.691314697,1.361480713,-0.205091804,0.138789430,1.024215698
23.286443,-18.806297302,15.011749268,1.483551025,-0.205091804,0.137812868,1.021408081
23.287070,-19.233543396,15.393218994,1.460662842,-0.198988289,0.135737672,1.021163940
23.288870,-19.828636169,15.820465088,1.857391357,-0.200697273,0.131709352,1.012863159
23.289496,-19.973594666,16.087493896,1.735321045,-0.200575203,0.129878297,1.014816284
23.290122,-20.187217712,16.446075439,1.727691650,-0.202406257,0.129878297,1.010177612
23.290747,-20.240623474,16.606292725,1.819244385,-0.202040046,0.133174196,1.007125854
23.291373,-20.408470154,16.598663330,1.887908936,-0.199110359,0.134394899,1.007125854
23.291998,-20.469505310,16.926727295,1.826873779,-0.201063484,0.132441774,1.003097534
23.292625,-20.522911072,16.964874268,1.964202881,-0.199720711,0.132930055,1.000045776
23.293250,-20.622093201,16.995391846,2.086273193,-0.202162117,0.130854860,1.001144409
23.293875,-20.561058044,17.102203369,1.948944092,-0.199598640,0.132685915,0.997604370
23.294502,-20.622093201,17.285308838,2.147308350,-0.202650398,0.127192751,0.997848511
23.295129,-20.454246521,17.140350342,2.048126221,-0.198133796,0.129634157,0.996627808
23.295754,-20.324546814,17.285308838,2.025238037,-0.197401375,0.129023805,0.997116089
23.296381,-20.347434998,17.506561279,2.177825928,-0.199476570,0.127314821,0.995407104
23.297009,-20.347434998,17.361602783,2.246490479,-0.195936531,0.125972047,0.994308472
23.297636,-20.027000427,17.415008545,2.170196533,-0.195692390,0.128413454,0.990768433
23.298261,-19.691307068,17.308197021,2.231231689,-0.196058601,0.124018922,0.989791870
23.298886,-19.645530701,17.346343994,2.307525635,-0.193250984,0.125361696,0.988082886
23.299513,-18.997032166,17.201385498,2.200714111,-0.194105476,0.123896852,0.986862183
23.313494,-1.159507751,12.967071533,2.154937744,-0.189588875,0.072139040,0.965011597
23.314246,0.000160217,12.623748779,2.277008057,-0.194593757,0.070674196,0.965011597
23.314871,0.976722717,12.371978760,2.414337158,-0.193250984,0.071650758,0.966598511
23.315497,2.205055237,11.929473877,2.292266846,-0.191175789,0.070918337,0.964889526
23.322719,14.160316467,8.686981201,2.505889893,-0.175306648,0.083003297,0.975387573
23.323345,14.793556213,8.595428467,2.292266846,-0.175917000,0.086421266,0.975387573
23.323971,15.503089905,8.595428467,2.292266846,-0.175550789,0.085810915,0.977462769
23.324596,16.075294495,8.183441162,2.444854736,-0.175917000,0.086055055,0.980392456
23.325222,16.960304260,8.114776611,2.254119873,-0.174818367,0.087397829,0.984664917
23.325849,17.273109436,7.962188721,2.360931396,-0.178358406,0.084468141,0.984542847
23.326475,17.624061584,7.466278076,2.635589600,-0.179823250,0.090327516,0.986740112
23.327100,18.081825256,7.298431396,2.292266846,-0.179823250,0.089961305,0.986373901
23.327727,18.531959534,7.199249268,2.582183838,-0.179945320,0.090205446,0.987594604
23.328354,18.913429260,6.924591064,2.475372314,-0.180677742,0.091914430,0.991134644
23.328980,19.294898987,6.718597412,2.772918701,-0.180189461,0.091304079,0.989181519
23.329605,19.569557190,6.375274658,2.605072021,-0.180189461,0.092036501,0.991256714
23.330231,19.699256897,6.367645264,2.498260498,-0.179823250,0.092524782,0.989791870
23.330857,20.042579651,5.993804932,2.772918701,-0.178480476,0.092036501,0.991867065
23.331483,20.202796936,5.764923096,2.734771729,-0.182142586,0.094844118,0.990402222
23.332109,20.141761780,5.734405518,2.948394775,-0.183485359,0.093501344,0.992721558
23.333926,20.706336975,5.001983643,2.849212646,-0.182264656,0.093379274,0.996505737
23.334553,20.569007874,4.841766357,3.123870850,-0.184461921,0.093989626,0.998703003
23.335178,20.385902405,4.681549072,3.047576904,-0.186537117,0.096797243,1.000778198
23.335803,20.561378479,4.788360596,3.017059326,-0.186781257,0.098506227,1.001144409
23.336429,20.363014221,4.475555420,3.154388428,-0.184950203,0.098872438,1.001388550
23.337054,20.210426331,4.589996338,3.207794189,-0.185072273,0.101802126,1.006393433
23.337680,20.309608459,4.376373291,3.360382080,-0.186415046,0.103755251,1.008712769
23.338306,20.004432678,4.132232666,3.276458740,-0.190565437,0.104121462,1.011642456
23.338932,19.760292053,4.261932373,3.207794189,-0.187391609,0.104243532,1.015060425
23.339558,19.699256897,4.132232666,3.314605713,-0.189588875,0.106318727,1.015792847
23.340183,19.447486877,4.178009033,3.192535400,-0.191786140,0.104365602,1.016525269
23.340810,19.020240784,3.964385986,3.360382080,-0.189955086,0.107173219,1.022506714
23.341436,18.501441956,3.865203857,3.444305420,-0.189833015,0.111201540,1.024093628
23.342062,18.196266174,4.040679932,3.535858154,-0.191542000,0.109858766,1.028854370
23.342688,17.685096741,3.895721436,3.642669678,-0.194227546,0.113276735,1.029586792
23.343313,17.212074280,4.017791748,3.581634521,-0.198011726,0.115107790,1.031539917
23.343939,16.395729065,3.987274170,3.673187256,-0.193006843,0.119746462,1.031417847
23.344564,15.884559631,3.994903564,3.657928467,-0.199354500,0.121821657,1.030319214
23.345191,15.281837463,3.750762939,3.894439697,-0.200697273,0.125239626,1.033981323
23.345816,14.732521057,3.697357178,3.482452393,-0.203871101,0.128657594,1.034835815
23.346442,14.022987366,3.537139893,3.558746338,-0.201307625,0.128047243,1.038375854
23.347067,13.023536682,3.758392334,3.833404541,-0.200941414,0.129634157,1.037643433
23.347694,12.397926331,3.666839600,3.749481201,-0.199110359,0.129756227,1.040206909
23.348319,11.406105042,3.781280518,3.673187256,-0.196302742,0.134150758,1.043014526
23.348946,10.345619202,3.788909912,3.688446045,-0.194715828,0.135127321,1.041183472
23.349571,9.697120667,3.949127197,3.734222412,-0.193250984,0.133662477,1.046310425
23.350196,8.674781799,4.178009033,3.810516357,-0.194593757,0.133906618,1.050460815
23.350823,7.812660217,4.147491455,3.604522705,-0.194959968,0.136103883,1.050216675
23.351448,6.836097717,4.147491455,3.818145752,-0.193983406,0.132441774,1.053512573
23.365464,-13.145286560,8.328399658,4.695526123,-0.148573250,0.069331422,1.079269409
23.366231,-13.534385681,8.488616943,4.642120361,-0.150038093,0.064082399,1.080001831
23.366857,-13.816673279,8.618316650,4.771820068,-0.148084968,0.059321657,1.079879761
23.367484,-13.938743591,8.633575439,5.145660400,-0.146864265,0.054438844,1.076339722
23.368110,-13.954002380,8.839569092,5.076995850,-0.148084968,0.045893922,1.076217651
23.368735,-14.114219666,9.053192139,5.115142822,-0.151014656,0.043086305,1.073165894
23.369360,-13.999778748,9.114227295,5.199066162,-0.152479500,0.036250368,1.071456909
23.369987,-14.106590271,9.427032471,5.557647705,-0.153822273,0.031855837,1.069625854
23.370613,-14.121849060,9.617767334,5.588165283,-0.156629890,0.027827514,1.065109253
23.371238,-13.885337830,9.579620361,5.664459229,-0.160902351,0.022578491,1.063034058
23.371863,-13.809043884,9.716949463,5.916229248,-0.166761726,0.016597046,1.063766479
23.372490,-13.480979919,9.907684326,5.969635010,-0.171644539,0.010493530,1.058151245
23.373115,-13.030845642,9.701690674,6.175628662,-0.176649421,0.008662475,1.054977417
23.373741,-12.641746521,9.663543701,6.290069580,-0.179090828,0.002436890,1.054611206
23.374368,-12.191612244,9.556732178,6.328216553,-0.183729500,-0.001713501,1.048751831
23.374994,-11.649925232,9.388885498,6.595245361,-0.187147468,-0.006596313,1.050460815
23.375619,-11.268455505,9.465179443,6.572357178,-0.188612312,-0.009403931,1.048629761
23.376244,-10.291893005,9.449920654,6.900421143,-0.190443367,-0.014652954,1.046432495
23.376869,-9.651023865,9.243927002,7.083526611,-0.187635750,-0.020268189,1.044113159
23.377495,-9.040672302,9.266815186,7.175079346,-0.188124031,-0.022465454,1.039352417
23.378121,-8.170921326,9.076080322,7.358184814,-0.190199226,-0.023930298,1.038253784
23.378746,-7.285911560,9.060821533,7.556549072,-0.194105476,-0.025883423,1.033126831
23.379373,-6.416160583,8.580169678,7.884613037,-0.193250984,-0.026737915,1.034103394
23.380007,-5.813438416,8.610687256,8.067718506,-0.190199226,-0.030400025,1.035446167
23.380633,-4.852134705,8.343658447,8.014312744,-0.193006843,-0.033451781,1.033615112
23.381259,-4.203636169,7.985076904,8.372894287,-0.191786140,-0.031620726,1.030441284
23.381885,-3.181297302,7.901153564,8.525482178,-0.186659187,-0.030766236,1.030319214
23.382510,-2.425987244,7.626495361,8.525482178,-0.188246101,-0.035038695,1.025192261
23.383136,-1.510459900,7.351837158,8.922210693,-0.185194343,-0.036991820,1.027511597
23.383763,-0.480491638,7.267913818,8.990875244,-0.185926765,-0.033451781,1.022750854
23.385587,2.128761292,6.253204346,9.395233154,-0.183973640,-0.038578734,1.021408081
23.386213,2.731483459,6.100616455,9.746185303,-0.182875007,-0.036869749,1.019332886
23.386840,3.769081116,5.986175537,10.013214111,-0.182508796,-0.038578734,1.016891479
23.387467,4.509132385,5.490264893,10.310760498,-0.182386726,-0.037724242,1.012374878
23.388093,5.294960022,5.284271240,10.379425049,-0.184461921,-0.037724242,1.014205933
23.388720,6.332557678,4.910430908,10.463348389,-0.182264656,-0.037480101,1.012741089
23.389346,6.813209534,4.689178467,10.974517822,-0.185438484,-0.035649046,1.010665894
23.389971,7.919471741,4.208526611,11.096588135,-0.189344734,-0.035771117,1.011886597
23.390596,8.644264221,4.055938721,11.287322998,-0.191053718,-0.035282835,1.007980347
23.391222,9.239356995,3.575286865,11.607757568,-0.192396492,-0.037358031,1.008346558
23.391848,10.048072815,3.315887451,11.737457275,-0.198622078,-0.036015257,1.005661011
23.392473,10.872047424,2.957305908,11.951080322,-0.201185554,-0.033451781,1.005050659
23.393099,11.589210510,2.598724365,12.218109131,-0.202772468,-0.034306273,1.006271362
23.393725,12.108009338,2.324066162,12.363067627,-0.205702156,-0.032231078,1.005050659
23.394352,12.924354553,1.873931885,12.454620361,-0.210096687,-0.029667603,1.002975464
23.394979,13.633888245,1.553497314,12.759796143,-0.212171882,-0.030155884,1.003463745
23.395605,14.030616760,1.004180908,12.858978271,-0.211805671,-0.026249634,1.004684448
23.396231,14.892738342,0.760040283,13.171783447,-0.216078132,-0.027592408,1.006515503
23.410263,23.651283264,-4.366912842,17.451873779,-0.209608406,0.010127319,1.047775269
23.411084,23.941200256,-4.725494385,17.680755615,-0.208387703,0.011225952,1.046066284
23.411710,24.017494202,-4.962005615,17.627349854,-0.205213875,0.012568725,1.048263550
23.412336,23.986976624,-4.916229248,18.069854736,-0.201795906,0.018550171,1.046310425
23.412962,24.009864807,-5.053558350,17.947784424,-0.201429695,0.023066772,1.045089722
23.413589,24.040382385,-5.351104736,18.344512939,-0.199720711,0.028193725,1.044723511
23.414216,24.315040588,-5.381622314,18.603912354,-0.195814461,0.032466188,1.047775269
23.414841,24.116676331,-5.549468994,18.634429932,-0.195448250,0.039057985,1.047409058
23.415467,23.750465393,-5.854644775,18.840423584,-0.193250984,0.040766969,1.046676636
23.416092,23.735206604,-6.022491455,18.970123291,-0.191053718,0.050288454,1.046676636
23.416719,23.857276917,-6.152191162,19.069305420,-0.190565437,0.054438844,1.046798706
23.417344,23.201148987,-6.259002686,19.435516357,-0.188734382,0.058223024,1.051437378
23.417970,23.056190491,-6.320037842,19.527069092,-0.184217781,0.068476930,1.051071167
23.418596,22.674720764,-6.846466064,19.595733643,-0.181288093,0.074824587,1.051559448
23.419221,22.613685608,-6.892242432,19.549957275,-0.176283211,0.079585329,1.053268433
23.419846,21.858375549,-6.991424561,20.045867920,-0.176649421,0.087153688,1.056076050
23.420473,21.408241272,-7.365264893,20.145050049,-0.171766609,0.096186891,1.059371948
23.421100,20.912330627,-7.350006104,20.091644287,-0.166883796,0.100215212,1.059249878
23.421726,20.286720276,-7.533111572,20.160308838,-0.164076179,0.104243532,1.062789917
23.422351,19.752662659,-7.601776123,20.488372803,-0.159071296,0.114497438,1.067916870
23.422976,19.066017151,-7.639923096,20.412078857,-0.155409187,0.119624391,1.068405151
23.423603,18.104713440,-7.906951904,20.526519775,-0.148817390,0.125605837,1.072189331
23.424228,17.257850647,-7.830657959,20.419708252,-0.145643562,0.133540407,1.075485229
23.424853,16.479652405,-7.800140381,20.595184326,-0.142591804,0.138301149,1.080368042
23.425478,15.785377502,-7.891693115,20.633331299,-0.138929695,0.143061891,1.083541870
23.426104,14.877479553,-7.868804932,20.526519775,-0.131605476,0.147822633,1.086471558
23.426729,13.656776428,-7.845916748,20.747772217,-0.124159180,0.156001344,1.092575073
23.427354,12.809913635,-7.769622803,20.808807373,-0.117323242,0.156611696,1.096481323
23.427979,11.940162659,-7.830657959,20.824066162,-0.109754883,0.161494508,1.101486206
23.428604,10.734718323,-7.510223389,20.816436768,-0.105604492,0.163081422,1.106369019
23.430436,7.766883850,-6.945648193,21.129241943,-0.095472656,0.183345094,1.118209839
23.431062,6.652992249,-6.739654541,21.327606201,-0.096083008,0.192500368,1.118209839
23.431687,5.500953674,-6.434478760,21.045318604,-0.098402344,0.190669313,1.121383667
23.432312,4.417579651,-6.526031494,21.205535889,-0.097425781,0.197139040,1.120529175
23.432938,3.257911682,-6.312408447,20.923248291,-0.096449219,0.199824587,1.124069214
23.433564,2.578895569,-6.175079346,20.946136475,-0.095350586,0.199580446,1.128341675
23.434190,1.747291565,-6.068267822,20.930877686,-0.088148437,0.204585329,1.126266479
23.434815,0.999610901,-5.999603271,21.030059814,-0.084486328,0.203486696,1.124557495
23.435442,0.259559631,-5.824127197,20.816436768,-0.073988281,0.207637087,1.124191284
23.436090,-0.411827087,-5.618133545,20.602813721,-0.070082031,0.207148805,1.122238159
23.436715,-1.228172302,-5.305328369,20.831695557,-0.065443359,0.209224001,1.122116089
23.437342,-1.869041443,-5.297698975,20.564666748,-0.062513672,0.209590212,1.123580933
23.437967,-2.342063904,-4.824676514,20.511260986,-0.057264648,0.207637087,1.121871948
23.438593,-2.776939392,-4.794158936,20.701995850,-0.057142578,0.210566774,1.121139526
23.439219,-3.211814880,-4.565277100,20.198455811,-0.054212891,0.214350954,1.118942261
23.439845,-3.516990662,-4.122772217,20.244232178,-0.050062500,0.212153688,1.122360229
23.440470,-3.852684021,-4.366912842,19.931427002,-0.045790039,0.216792360,1.121017456
23.441097,-4.325706482,-4.099884033,20.259490967,-0.044935547,0.218623415,1.121749878
23.455072,-1.563865662,-5.015411377,15.575042725,0.001451172,0.251704454,1.101119995
23.455823,-1.380760193,-5.099334717,15.391937256,0.000474609,0.252803087,1.103805542
23.456448,-0.938255310,-5.167999268,15.246978760,0.000596680,0.250361681,1.102706909
23.457074,-0.488121033,-5.503692627,15.147796631,0.003404297,0.253413439,1.104904175
23.457699,-0.175315857,-5.297698975,14.674774170,0.002916016,0.252192736,1.105758667
23.458326,0.198524475,-5.633392334,14.506927490,0.004258789,0.251826525,1.102462769
23.458952,0.717323303,-5.839385986,14.270416260,0.003404297,0.250972033,1.104660034
23.459579,1.083534241,-5.862274170,13.858428955,0.006456055,0.251582384,1.104660034
23.460206,1.434486389,-5.938568115,13.637176514,0.007432617,0.250239611,1.103805542
23.460832,2.128761292,-6.106414795,13.141265869,0.005113281,0.250483751,1.104782104
23.461458,2.632301331,-6.060638428,12.912384033,0.005357422,0.251948595,1.106124878
23.462085,3.074806213,-6.403961182,12.477508545,0.004136719,0.251216173,1.105880737
23.462712,3.479164124,-6.442108154,12.210479736,0.006822266,0.248774782,1.105148315
23.463339,3.929298401,-6.571807861,12.012115479,0.007920898,0.243769899,1.106613159
23.463966,4.516761780,-6.602325439,11.829010010,0.005113281,0.245600954,1.110641479
23.464592,5.020301819,-6.472625732,11.424652100,0.005357422,0.243769899,1.107467651
23.465217,5.378883362,-6.808319092,11.325469971,0.006578125,0.241816774,1.110763550
23.465843,5.973976135,-6.716766357,10.982147217,0.006333984,0.236933962,1.113204956
23.466470,6.492774963,-6.800689697,10.638824463,0.005113281,0.237910524,1.112716675
23.467096,7.141273499,-6.709136963,10.524383545,0.001207031,0.233271852,1.111984253
23.467721,7.652442932,-6.991424561,10.036102295,0.005113281,0.234980837,1.115890503
23.468347,7.972877502,-6.770172119,9.845367432,0.001939453,0.230708376,1.114547729
23.468972,8.659523010,-6.739654541,9.715667725,-0.000990234,0.227412477,1.115768433
23.469597,9.224098206,-7.105865479,9.540191650,-0.000379883,0.225825563,1.116012573
23.470222,9.842079163,-7.060089111,9.135833740,0.000962891,0.223872438,1.116012573
23.470848,9.994667053,-6.960906982,8.945098877,0.001207031,0.219599977,1.118209839
23.471473,10.780494690,-7.060089111,8.685699463,-0.000868164,0.217524782,1.120895386
23.472098,11.100929260,-6.861724854,8.464447021,-0.004530273,0.215937868,1.119552612
23.472724,11.749427795,-7.136383057,8.372894287,-0.003797852,0.210688844,1.120529175
23.473349,12.306373596,-7.006683350,8.174530029,-0.002699219,0.211665407,1.120040894
23.475182,13.725440979,-7.067718506,7.464996338,-0.002577148,0.203242555,1.121749878
23.475808,14.183204651,-6.701507568,7.304779053,-0.008680664,0.200190797,1.120407104
23.476433,14.511268616,-6.815948486,7.060638428,-0.009291016,0.199092165,1.120895386
23.477058,14.785926819,-7.006683350,7.114044189,-0.011488281,0.197627321,1.121017456
23.477684,15.297096252,-6.846466064,6.900421143,-0.009901367,0.195796266,1.121871948
23.478309,15.838783264,-6.777801514,6.595245361,-0.012708984,0.193721071,1.126632690
23.478934,15.953224182,-6.815948486,6.526580811,-0.011732422,0.192988649,1.123336792
23.479559,16.349952698,-6.777801514,6.488433838,-0.014662109,0.191523805,1.124923706
23.480185,16.433876038,-6.449737549,6.259552002,-0.013319336,0.189814821,1.121139526
23.480810,16.800086975,-6.571807861,6.053558350,-0.020277344,0.188472047,1.120285034
23.481435,17.044227600,-6.571807861,6.190887451,-0.015760742,0.183711305,1.119064331
23.482061,17.372291565,-6.548919678,5.847564697,-0.014417969,0.183100954,1.120407104
23.482687,17.486732483,-6.449737549,5.870452881,-0.015760742,0.184321657,1.119674683
23.483312,17.456214905,-6.304779053,5.717864990,-0.021742187,0.181147829,1.118698120
23.483939,17.791908264,-6.541290283,5.542388916,-0.016737305,0.180781618,1.118453979
23.484565,17.608802795,-6.289520264,5.641571045,-0.017347656,0.180903688,1.117599487
23.485191,17.906349182,-6.182708740,5.397430420,-0.017713867,0.175044313,1.116012573
23.485817,17.952125549,-6.304779053,5.626312256,-0.016493164,0.173579469,1.114181519
23.499873,13.733070374,-5.572357178,5.298248291,-0.038587891,0.148066774,1.112716675
23.500676,13.687294006,-5.419769287,5.458465576,-0.038832031,0.147700563,1.111373901
23.501301,13.336341858,-5.358734131,5.565277100,-0.038221680,0.149775758,1.114913940
23.501927,13.237159729,-5.076446533,5.527130127,-0.038709961,0.148555055,1.117111206
23.502552,12.916725159,-5.175628662,5.435577393,-0.039198242,0.149409547,1.121139526
23.503178,12.802284241,-4.672088623,5.481353760,-0.041151367,0.145747438,1.118331909
23.503803,12.558143616,-4.847564697,5.534759521,-0.037733398,0.144526735,1.124069214
23.504428,12.359779358,-4.839935303,5.717864990,-0.041151367,0.145137087,1.122482300
23.505055,12.245338440,-4.557647705,5.565277100,-0.040052734,0.149165407,1.124801636
23.505680,11.886756897,-4.450836182,5.694976807,-0.039808594,0.146968141,1.127731323
23.506307,11.726539612,-4.061737061,5.733123779,-0.038221680,0.148921266,1.128585815
23.506932,11.642616272,-3.832855225,5.725494385,-0.040785156,0.148921266,1.129196167
23.507559,11.390846252,-3.596343994,5.534759521,-0.039442383,0.147212282,1.130172729
23.508186,11.367958069,-3.558197021,5.801788330,-0.038954102,0.150874391,1.134445190
23.508812,11.093299866,-3.001251221,5.870452881,-0.039320312,0.151850954,1.131027222
23.509437,10.963600159,-2.841033936,5.588165283,-0.038954102,0.151973024,1.132492065
23.510063,10.711830139,-2.688446045,5.900970459,-0.041151367,0.153193727,1.132614136
23.510689,10.711830139,-2.207794189,5.832305908,-0.039564453,0.154536501,1.133590698
23.511315,10.513465881,-2.162017822,5.626312256,-0.039320312,0.155146852,1.131637573
23.511942,10.299842834,-1.894989014,5.847564697,-0.041029297,0.152705446,1.134078979
23.512568,10.025184631,-1.704254150,5.893341064,-0.039686523,0.159175172,1.132369995
23.513195,9.857337952,-1.208343506,5.756011963,-0.041151367,0.159541383,1.131759644
23.513821,9.918373108,-1.009979248,5.786529541,-0.041883789,0.157832399,1.130294800
23.514448,9.430091858,-0.903167725,5.900970459,-0.042005859,0.163203493,1.128341675
23.515074,9.498756409,-0.437774658,5.641571045,-0.042738281,0.163813844,1.127853394
23.515699,9.170692444,-0.208892822,5.794158936,-0.047132812,0.166133180,1.126022339
23.516325,8.873146057,0.203094482,5.794158936,-0.049085937,0.168818727,1.122970581
23.516950,8.560340881,0.233612061,6.015411377,-0.051771484,0.171382204,1.125411987
23.517575,8.194129944,0.714263916,5.527130127,-0.049574219,0.171015993,1.124069214
23.518201,7.652442932,0.775299072,5.572906494,-0.051893555,0.174800172,1.118820190
23.520023,6.759803772,1.698455811,5.527130127,-0.054457031,0.185298219,1.109176636
23.520649,6.454627991,1.736602783,5.717864990,-0.055067383,0.192378297,1.108444214
23.521275,6.019752502,2.003631592,5.382171631,-0.057875000,0.192378297,1.107955933
23.521902,5.516212463,2.484283447,5.527130127,-0.063246094,0.194941774,1.104782104
23.522528,5.150001526,2.690277100,5.328765869,-0.058119141,0.198359743,1.105026245
23.523153,4.722755432,2.743682861,5.321136475,-0.057997070,0.199946657,1.101486206
23.523779,4.188697815,2.865753174,5.076995850,-0.059583984,0.201899782,1.099655151
23.524405,3.608863831,3.041229248,5.305877686,-0.062147461,0.206050172,1.095993042
23.525032,3.135841370,3.407440186,4.970184326,-0.061659180,0.206660524,1.096481323
23.525659,2.815406799,3.613433838,4.893890381,-0.062147461,0.206904665,1.094161987
23.526285,2.220314026,3.842315674,4.756561279,-0.063490234,0.207270876,1.090255737
23.526912,1.716773987,3.872833252,4.848114014,-0.060194336,0.209101930,1.092208862
23.527537,1.403968811,4.246673584,4.863372803,-0.061537109,0.211543337,1.089523315
23.528162,0.831764221,4.452667236,4.611602783,-0.064710937,0.209712282,1.087203979
23.528787,0.404518127,4.551849365,4.466644287,-0.065077148,0.211665407,1.089035034
23.529412,-0.350791931,4.925689697,4.420867920,-0.065687500,0.213984743,1.085494995
23.530038,-0.526268005,4.925689697,4.108062744,-0.066541992,0.214473024,1.081832886
23.530664,-0.961143494,5.055389404,4.108062744,-0.063612305,0.210566774,1.077926636
23.531289,-1.586753845,5.505523682,4.207244873,-0.065809570,0.213008180,1.077804565
23.545247,-3.669578552,9.900054932,0.697723389,-0.078382812,0.182978883,1.037155151
23.545981,-3.341514587,10.205230713,0.857940674,-0.082044922,0.182490602,1.034225464
23.546608,-3.120262146,9.953460693,0.621429443,-0.081434570,0.184443727,1.028488159
23.547234,-2.784568787,10.319671631,0.445953369,-0.081190430,0.180415407,1.026046753
23.547859,-2.471763611,10.151824951,0.339141846,-0.085218750,0.173213258,1.022872925
23.548484,-2.364952087,10.647735596,0.201812744,-0.080824219,0.170649782,1.017501831
23.549110,-2.219993591,10.556182861,-0.156768799,-0.082044922,0.168696657,1.014816284
23.549737,-1.846153259,10.685882568,-0.065216064,-0.081678711,0.170649782,1.010299683
23.550364,-1.472312927,10.830841064,-0.057586670,-0.083753906,0.164180055,1.004562378
23.550989,-1.327354431,10.785064697,-0.233062744,-0.087293945,0.161128297,0.999069214
23.551615,-0.869590759,10.884246826,-0.355133057,-0.091444336,0.161372438,0.993453979
23.552240,-0.556785583,10.945281982,-0.484832764,-0.092298828,0.162471071,0.989181519
23.552865,-0.121910095,10.968170166,-0.744232178,-0.095472656,0.158808962,0.985763550
23.553492,0.305335999,10.930023193,-0.736602783,-0.097791992,0.157466188,0.980514526
23.554118,0.633399963,11.044464111,-0.690826416,-0.100721680,0.154658571,0.973190308
23.554744,1.236122131,10.945281982,-1.072296143,-0.104383789,0.152217165,0.973556519
23.555371,1.426856995,10.884246826,-1.118072510,-0.103407227,0.151118532,0.967330933
23.555998,2.029579163,10.983428955,-1.293548584,-0.106458984,0.150874391,0.964279175
23.556624,2.411048889,10.868988037,-1.415618896,-0.105970703,0.147212282,0.959640503
23.557250,3.044288635,10.922393799,-1.301177979,-0.109022461,0.145747438,0.957077026
23.557876,3.387611389,10.861358643,-1.583465576,-0.110609375,0.146724001,0.952804565
23.558502,3.914039612,10.647735596,-1.621612549,-0.114271484,0.144038454,0.952316284
23.559128,4.364173889,10.678253174,-1.652130127,-0.117689453,0.141352907,0.948165894
23.559754,4.562538147,10.579071045,-1.835235596,-0.118666016,0.140864626,0.945236206
23.560379,5.264442444,10.579071045,-2.041229248,-0.120497070,0.140498415,0.940719604
23.561007,5.623023987,10.487518311,-1.942047119,-0.120741211,0.139888063,0.941085815
23.561633,5.760353088,10.426483154,-2.170928955,-0.123792969,0.135859743,0.935470581
23.562259,6.378334045,10.281524658,-2.315887451,-0.126356453,0.138545290,0.933761597
23.562885,6.881874084,10.113677979,-2.331146240,-0.128675789,0.134639040,0.932418823
23.563512,6.912391663,9.839019775,-2.415069580,-0.125379890,0.130488649,0.931076050
23.565276,8.064430237,9.465179443,-2.514251709,-0.121717773,0.120112672,0.924972534
23.565901,8.491676331,9.259185791,-2.834686279,-0.127455086,0.119380251,0.919601440
23.573070,12.642066956,7.481536865,-3.040679932,-0.138807625,0.099604860,0.894577026
23.573697,12.848060608,7.306060791,-3.040679932,-0.141126961,0.094355837,0.890548706
23.574323,13.351600647,7.161102295,-3.071197510,-0.142225593,0.094355837,0.892257690
23.574950,13.519447327,7.161102295,-3.033050537,-0.142225593,0.094844118,0.891525269
23.575575,13.595741272,6.939849854,-2.972015381,-0.146742195,0.093623415,0.890914917
23.576202,13.824623108,7.054290771,-3.116973877,-0.146375984,0.092402712,0.888839722
23.576827,14.099281311,6.756744385,-2.987274170,-0.150038093,0.094477907,0.886154175
23.577452,14.412086487,6.695709229,-3.010162354,-0.151869148,0.090449587,0.890304565
23.578077,14.343421936,6.741485596,-3.155120850,-0.152113289,0.091426149,0.890304565
23.578702,14.488380432,6.619415283,-2.933868408,-0.152967781,0.091426149,0.886520386
23.579328,14.366310120,6.413421631,-3.033050537,-0.154310554,0.091670290,0.884933472
23.579955,14.473121643,6.321868896,-2.865203857,-0.161390632,0.086787477,0.884323120
23.580581,14.145057678,6.199798584,-3.010162354,-0.163709968,0.089595094,0.882003784
23.581206,13.923805237,6.337127686,-2.796539307,-0.166761726,0.086543337,0.880661011
23.581831,13.710182190,5.871734619,-2.575286865,-0.167860359,0.087397829,0.880661011
23.582456,13.618629456,6.115875244,-2.582916260,-0.169691414,0.086177126,0.876022339
23.596523,6.538551331,4.467926025,-1.003631592,-0.193861336,0.057978883,0.858444214
23.597291,6.271522522,4.498443604,-0.790008545,-0.195570320,0.057734743,0.854537964
23.597917,6.027381897,4.681549072,-0.797637939,-0.191908211,0.056636110,0.854904175
23.598543,5.623023987,4.704437256,-0.637420654,-0.195936531,0.057612672,0.856124878
23.599168,5.462806702,4.536590576,-0.538238525,-0.198377937,0.053096071,0.854782104
23.599794,5.203407288,4.384002686,-0.477203369,-0.196913093,0.051509157,0.854415894
23.600421,4.768531799,4.635772705,-0.561126709,-0.196058601,0.053828493,0.857589722
23.601048,4.539649963,4.551849365,-0.294097900,-0.198255867,0.056025758,0.856491089
23.601673,4.203956604,4.635772705,-0.110992432,-0.198744148,0.050898805,0.855636597
23.602298,4.005592346,4.391632080,-0.042327881,-0.201185554,0.050044313,0.855270386
23.602924,3.700416565,4.300079346,-0.149139404,-0.196546882,0.052119508,0.857101440
23.603550,3.624122620,4.391632080,0.133148193,-0.198622078,0.051142946,0.856369019
23.604176,3.296058655,4.544219971,0.339141846,-0.197767586,0.054805055,0.854293823
23.604801,2.975624084,4.742584229,0.308624268,-0.196424812,0.052485719,0.851119995
23.605427,2.617042542,4.574737549,0.369659424,-0.198866218,0.048701540,0.850143433
23.606052,2.433937073,4.727325439,0.590911865,-0.199354500,0.051265016,0.850631714
23.606677,2.113502502,4.742584229,0.636688232,-0.200208992,0.048335329,0.848190308
23.607302,1.922767639,4.826507568,0.819793701,-0.199720711,0.052363649,0.848556519
23.607928,1.686256409,4.910430908,0.903717041,-0.200575203,0.052363649,0.849777222
23.608553,1.365821838,4.879913330,0.812164307,-0.203016609,0.056636110,0.847213745
23.609179,0.908058167,4.940948486,0.850311279,-0.198133796,0.055903688,0.846969604
23.609806,0.564735413,4.918060303,1.147857666,-0.202162117,0.054927126,0.849288940
23.610433,0.358741760,5.055389404,1.132598877,-0.204847664,0.056269899,0.845870972
23.611059,0.122230530,4.979095459,1.414886475,-0.207777351,0.057368532,0.845138550
23.611684,-0.518638611,5.116424561,1.483551025,-0.206800789,0.059443727,0.839767456
23.612310,-0.747520447,5.452117920,1.437774658,-0.206800789,0.057612672,0.845382690
23.612936,-0.984031677,5.070648193,1.529327393,-0.206678718,0.059687868,0.838790894
23.613562,-1.266319275,5.314788818,1.636138916,-0.210340828,0.058223024,0.837570190
23.614189,-1.861412048,5.192718506,1.765838623,-0.209242195,0.061274782,0.836349487
23.614816,-2.075035095,5.406341553,1.964202881,-0.212416023,0.060786501,0.838424683
23.616592,-3.318626404,5.429229736,2.048126221,-0.214247078,0.063227907,0.834152222
23.617219,-3.745872498,5.520782471,1.941314697,-0.213392586,0.062495485,0.829269409
23.617844,-4.035789490,5.513153076,2.254119873,-0.216078132,0.066157594,0.833297729
23.618470,-4.096824646,5.711517334,2.154937744,-0.214125007,0.064814821,0.831832886
23.619096,-4.714805603,5.581817627,2.414337158,-0.214247078,0.061396852,0.830123901
23.619721,-4.974205017,5.574188232,2.330413818,-0.211439461,0.063838258,0.828048706
23.620348,-5.393821716,5.673370361,2.627960205,-0.212293953,0.063227907,0.828414917
23.620973,-5.447227478,5.818328857,2.490631104,-0.210707039,0.060908571,0.830001831
23.621599,-5.660850525,5.803070068,2.544036865,-0.210707039,0.061396852,0.826705933
23.622224,-6.156761169,5.749664307,2.688995361,-0.210218757,0.063227907,0.825607300
23.622850,-6.164390564,5.848846436,2.948394775,-0.213514656,0.059321657,0.826217651
23.623475,-6.606895447,5.795440674,2.856842041,-0.209608406,0.060664430,0.822433472
23.624102,-6.584007263,5.757293701,2.933135986,-0.210218757,0.057368532,0.823410034
23.624727,-6.728965759,5.856475830,2.856842041,-0.213514656,0.058345094,0.820602417
23.625354,-6.965476990,5.993804932,3.131500244,-0.210218757,0.057856813,0.819992065
23.625981,-7.079917908,5.932769775,3.108612061,-0.213636726,0.056636110,0.818893433
23.626606,-6.995994568,5.970916748,3.085723877,-0.211073250,0.054438844,0.817062378
23.627232,-7.041770935,6.215057373,3.345123291,-0.212538093,0.053706422,0.818161011
23.627859,-7.278282166,6.146392822,3.284088135,-0.214247078,0.053828493,0.817184448
23.641784,-6.698448181,7.039031982,4.253021240,-0.225721687,0.049800172,0.791427612
23.642565,-6.652671814,7.199249268,4.359832764,-0.225599617,0.050166383,0.789352417
23.643190,-6.561119080,6.932220459,4.489532471,-0.225965828,0.049067751,0.786544800
23.643816,-6.652671814,7.122955322,4.237762451,-0.228285164,0.049556032,0.788619995
23.644443,-6.721336365,7.084808350,4.443756104,-0.228041023,0.044062868,0.785324097
23.645069,-6.660301208,6.970367432,4.527679443,-0.229627937,0.042598024,0.782028198
23.645696,-6.423789978,7.031402588,4.466644287,-0.228407234,0.041743532,0.780807495
23.646321,-6.294090271,6.970367432,4.428497314,-0.229994148,0.042964235,0.777511597
23.646946,-6.240684509,6.840667725,4.794708252,-0.230482429,0.037104860,0.777755737
23.647571,-6.034690857,6.886444092,4.481903076,-0.229627937,0.036982790,0.771530151
23.648197,-5.698997498,6.672821045,4.947296143,-0.229872078,0.035640016,0.770675659
23.648822,-5.660850525,6.772003174,4.932037354,-0.231214851,0.032832399,0.770309448
23.649447,-5.287010193,6.764373779,4.817596436,-0.232923836,0.028559936,0.767501831
23.650072,-5.019981384,6.627044678,5.046478271,-0.233900398,0.028315796,0.765670776
23.650698,-4.737693787,6.314239502,5.160919189,-0.231336921,0.026606811,0.764572144
23.651324,-4.241783142,6.245574951,5.252471924,-0.234144539,0.022700561,0.763717651
23.651950,-4.134971619,6.192169189,5.260101318,-0.234388679,0.022944702,0.759078979
23.652576,-3.547508240,6.100616455,5.504241943,-0.233167976,0.019282592,0.758224487
23.653201,-3.242332458,6.092987061,5.511871338,-0.231336921,0.016841186,0.754196167
23.653828,-2.799827576,5.894622803,5.488983154,-0.231092781,0.013545288,0.753829956
23.654454,-2.326805115,5.955657959,5.687347412,-0.231214851,0.010249389,0.755905151
23.655080,-1.800376892,5.635223389,5.496612549,-0.232069343,0.006709351,0.754928589
23.655706,-1.495201111,5.696258545,5.778900146,-0.228651375,0.009639038,0.753829956
23.656333,-0.823814392,5.558929443,6.023040771,-0.229627937,0.007075562,0.755172729
23.656958,-0.236351013,5.467376709,5.839935303,-0.235121101,0.002192749,0.754928589
23.657583,0.488441467,5.192718506,6.114593506,-0.232557625,0.001826538,0.754562378
23.658208,1.083534241,5.063018799,6.290069580,-0.234999031,-0.000614868,0.754440308
23.658834,1.518409729,4.918060303,6.335845947,-0.232923836,-0.003910766,0.752975464
23.659461,2.418678284,4.696807861,6.488433838,-0.232069343,-0.002079712,0.755416870
23.660088,2.906959534,4.834136963,6.587615967,-0.232679695,-0.005741821,0.756759644
23.661860,5.142372131,4.261932373,6.694427490,-0.230726570,-0.004887329,0.752609253
23.662486,5.935829163,3.819427490,6.770721436,-0.231581062,-0.006596313,0.751388550
23.663112,6.645362854,3.483734131,6.908050537,-0.230604500,-0.012333618,0.752609253
23.663739,7.339637756,3.567657471,7.022491455,-0.225965828,-0.014897095,0.752853394
23.664364,7.812660217,3.292999268,7.365814209,-0.225477546,-0.016728150,0.754318237
23.664989,8.590858459,3.170928955,7.266632080,-0.224623054,-0.015995728,0.753097534
23.665614,9.437721252,2.949676514,7.709136963,-0.223036140,-0.019291626,0.752609253
23.666241,10.185401917,3.071746826,7.663360596,-0.224500984,-0.015751587,0.751632690
23.666867,10.765235901,2.781829834,7.854095459,-0.224500984,-0.015507447,0.750656128
23.667492,11.383216858,2.705535889,8.021942139,-0.225599617,-0.017582642,0.750900269
23.668119,12.001197815,2.560577393,8.174530029,-0.223768562,-0.013798462,0.749435425
23.668744,12.893836975,2.530059814,8.220306396,-0.222669929,-0.015019165,0.748825073
23.669369,13.771217346,2.346954346,8.365264893,-0.222669929,-0.010624634,0.752120972
23.669994,14.290016174,2.331695557,8.586517334,-0.223036140,-0.014530884,0.751388550
23.670620,14.808815002,2.095184326,8.609405518,-0.222425789,-0.011723267,0.751510620
23.671245,15.464942932,1.851043701,8.708587646,-0.224256843,-0.008305298,0.749679565
23.671871,15.960853577,2.041778564,8.952728271,-0.221571296,-0.006840454,0.751388550
23.672497,16.578834534,1.996002197,9.059539795,-0.219740242,-0.003910766,0.749435425
23.673122,16.952674866,2.034149170,9.242645264,-0.223524421,0.000361694,0.751876831
23.698651,4.837196350,-2.566375732,13.629547119,-0.201673836,0.114863649,0.758590698
23.699390,4.303138733,-2.711334229,13.858428955,-0.199598640,0.114741579,0.762985229
23.700015,3.952186584,-2.574005127,13.736358643,-0.197645515,0.118159547,0.766769409
23.700641,3.296058655,-2.474822998,13.827911377,-0.194715828,0.119746462,0.771408081
23.701266,2.655189514,-2.825775146,13.797393799,-0.195204109,0.127436891,0.774826050
23.701891,2.227943420,-2.451934814,13.812652588,-0.194105476,0.128169313,0.783248901
23.702516,1.617591858,-2.406158447,13.835540771,-0.188001961,0.131221071,0.789596558
23.703143,0.930946350,-2.375640869,13.881317139,-0.187879890,0.132685915,0.790695190
23.703769,0.366371155,-2.352752686,13.759246826,-0.185682625,0.134394899,0.794601440
23.704395,-0.236351013,-2.024688721,13.949981689,-0.185316414,0.142573610,0.799728394
23.705020,-0.739891052,-1.872100830,13.721099854,-0.181288093,0.142695680,0.806930542
23.705647,-1.235801697,-1.582183838,13.873687744,-0.179701179,0.146724001,0.807785034
23.706272,-1.975852966,-1.376190186,13.621917725,-0.182020515,0.145259157,0.813400269
23.706899,-2.471763611,-1.086273193,13.545623779,-0.181654304,0.148310915,0.819869995
23.707524,-3.402549744,-0.895538330,13.667694092,-0.181288093,0.151240602,0.817794800
23.708150,-3.837425232,-0.453033447,13.499847412,-0.178114265,0.151118532,0.822555542
23.708776,-4.318077087,-0.323333740,13.583770752,-0.178358406,0.152827516,0.825973511
23.709403,-4.852134705,0.035247803,13.637176514,-0.175917000,0.151728883,0.822067261
23.710029,-5.393821716,0.416717529,13.492218018,-0.179334968,0.153437868,0.822067261
23.710656,-5.576927185,0.668487549,13.164154053,-0.180067390,0.154658571,0.826705933
23.711282,-6.301719666,0.752410889,13.545623779,-0.181410164,0.152217165,0.825241089
23.711907,-6.698448181,1.408538818,13.362518311,-0.182997078,0.153437868,0.823776245
23.712533,-6.873924255,1.461944580,13.064971924,-0.185194343,0.152095094,0.822677612
23.713160,-7.201988220,2.026519775,13.194671631,-0.185560554,0.150630251,0.819625854
23.713786,-7.423240662,1.950225830,13.278594971,-0.186415046,0.149531618,0.821090698
23.714411,-7.842857361,2.110443115,13.095489502,-0.190443367,0.151850954,0.814865112
23.715037,-7.926780701,2.659759521,13.011566162,-0.190687507,0.150752321,0.812057495
23.715664,-7.903892517,2.758941650,13.095489502,-0.193250984,0.149775758,0.810958862
23.716289,-7.919151306,2.934417725,12.660614014,-0.194959968,0.149775758,0.804122925
23.716914,-7.881004333,3.117523193,12.706390381,-0.198500007,0.149653688,0.803024292
23.718690,-7.667381287,3.354034424,12.622467041,-0.203260750,0.148921266,0.789962769
23.719316,-7.560569763,3.498992920,12.492767334,-0.205580086,0.146601930,0.787887573
23.719943,-7.469017029,3.407440186,12.500396729,-0.204603523,0.149653688,0.784103394
23.720569,-7.354576111,3.354034424,12.279144287,-0.208143562,0.151606813,0.780075073
23.721195,-7.057029724,3.262481689,12.080780029,-0.208143562,0.151484743,0.775314331
23.721821,-6.904441833,3.201446533,12.042633057,-0.211439461,0.149775758,0.771530151
23.722446,-6.622154236,2.972564697,11.783233643,-0.213270515,0.152339235,0.767745972
23.723071,-6.103355408,2.781829834,12.103668213,-0.211927742,0.153559938,0.765548706
23.723697,-5.904991150,2.575836182,12.096038818,-0.213148445,0.154048219,0.762741089
23.724323,-5.569297791,2.484283447,11.745086670,-0.215467781,0.154902712,0.760665894
23.724948,-5.256492615,2.186737061,11.561981201,-0.214735359,0.153804079,0.759201050
23.725573,-4.836875916,1.889190674,11.561981201,-0.215223640,0.157954469,0.754196167
23.726199,-4.676658630,1.690826416,11.523834229,-0.217420906,0.159541383,0.754562378
23.726824,-4.356224060,1.706085205,11.485687256,-0.218519539,0.160762087,0.754074097
23.727449,-3.860313416,1.133880615,11.279693604,-0.219496101,0.162226930,0.752120972
23.728076,-3.402549744,0.889739990,11.264434814,-0.217665046,0.162715212,0.750656128
23.728703,-3.150779724,0.447235107,11.005035400,-0.217909187,0.165644899,0.752120972
23.729328,-2.754051208,0.531158447,10.890594482,-0.218519539,0.168086305,0.750167847
23.744418,-0.327903748,-3.733673096,7.884613037,-0.237928718,0.197871462,0.788253784
23.745150,-0.541526794,-4.000701904,7.800689697,-0.240980476,0.197383180,0.788742065
23.745775,-0.457603455,-3.855743408,7.732025146,-0.242933601,0.196162477,0.792282104
23.746402,-0.526268005,-3.947296143,7.464996338,-0.242445320,0.195185915,0.790451050
23.747027,-0.594932556,-4.031219482,7.487884521,-0.243543953,0.194575563,0.790695190
23.747654,-0.541526794,-4.107513428,7.320037842,-0.241468757,0.196040407,0.794357300
23.748280,-0.678855896,-4.221954346,7.098785400,-0.245497078,0.195307985,0.794357300
23.748907,-0.800926208,-4.168548584,7.068267822,-0.245619148,0.193476930,0.796920776
23.749534,-0.449974060,-4.237213135,6.908050537,-0.241957039,0.196040407,0.796554565
23.750161,-0.747520447,-4.221954346,6.610504150,-0.243055671,0.193354860,0.796798706
23.750787,-0.778038025,-4.488983154,6.709686279,-0.244154304,0.193721071,0.795211792
23.751413,-0.701744080,-4.389801025,6.595245361,-0.243788093,0.192744508,0.799972534
23.752038,-0.594932556,-4.511871338,6.511322021,-0.245863289,0.191645876,0.799240112
