time,gyro x,gyro y,gyro z,accel x,accel y,accel z
7.657254,-2.327285767,3.420227051,0.299552917,-0.085259154,-0.127273798,0.846331835
7.666965,18.607772827,-5.109436035,0.398735046,-0.069023803,-0.041214235,1.054827929
7.667591,17.310775757,-4.804260254,-0.081916809,0.008124634,0.004684202,1.024432421
7.668218,16.204513550,-3.499633789,-0.310798645,0.069037721,-0.001175173,1.029681444
7.668845,15.594161987,-1.859313965,-0.539680481,0.034369752,-0.036819704,1.050311327
7.669470,15.296615601,-1.790649414,0.383476257,-0.019585326,-0.038894899,1.063494921
7.670096,15.014328003,-3.492004395,1.085380554,-0.063530639,-0.035965212,1.085467577
7.670723,14.274276733,-5.719787598,1.428703308,-0.045342162,-0.017166384,1.093035936
7.671348,13.236679077,-5.651123047,1.016716003,-0.002129273,-0.000686891,1.072650194
7.671973,13.808883667,-4.727966309,0.299552917,0.018988892,-0.035354860,1.102313280
7.672599,12.702621460,-3.072387695,-0.059028625,0.058417603,0.006393187,1.054949999
7.673225,10.406173706,-0.569946289,0.146965027,0.095160767,0.006881468,1.013201952
7.673850,10.169662476,0.093811035,0.505546570,0.061591431,-0.057571657,1.022235155
7.674476,9.811080933,0.124328613,1.413444519,-0.026909545,-0.057327516,1.032733202
7.675102,10.924972534,-1.866943359,2.023796082,-0.084038451,-0.082474001,1.076678514
7.675728,11.901535034,-4.605895996,1.855949402,-0.123833373,-0.077224977,1.117083788
7.676354,12.641586304,-6.307250977,1.726249695,-0.066216186,-0.016922243,1.097430468
7.676980,10.429061890,-5.124694824,0.619987488,0.061713502,0.016158812,1.066668749
7.677606,9.803451538,-2.553588867,0.337699890,0.071845338,-0.022171266,1.095355272
7.678231,9.017623901,-0.699645996,0.734428406,0.050116822,-0.014358766,1.088519335
7.678857,6.911911011,-0.775939941,1.451591492,0.019599244,0.053024046,1.066058397
7.679484,1.495040894,-0.585205078,2.573112488,0.083808228,0.223800421,1.028094530
7.680111,-5.729995728,1.345031738,2.657035828,0.112738892,0.164108038,1.050189257
7.680738,-8.232437134,3.145568848,2.443412781,0.023993775,0.005904905,1.080340624
7.681363,-8.949600220,3.748291016,2.077201843,-0.054497436,-0.046951540,1.006243944
7.681989,-8.705459595,2.848022461,2.275566101,-0.121758178,-0.131302118,0.966082811
7.682615,-5.882583618,-0.630981445,2.473930359,-0.149956420,-0.200271845,0.931292772
7.683241,-2.792678833,-3.003723145,2.397636414,-0.130303100,-0.209793329,0.894549608
7.683867,-0.419937134,-4.193908691,2.351860046,-0.028374389,-0.105301149,0.839740038
7.684493,-0.694595337,-3.064758301,2.321342468,0.005561157,-0.064895876,0.854754686
7.685118,0.014938354,-2.889282227,2.840141296,0.017035767,-0.077835329,0.885638475
7.685745,1.098312378,-2.584106445,3.122428894,-0.002251343,-0.071487673,0.893450975
7.686370,1.601852417,-1.996643066,2.687553406,0.003852173,-0.067215212,0.869158983
7.686996,3.387130737,-1.752502441,2.519706726,-0.026543334,-0.115921266,0.878070116
7.687621,5.424179077,-2.668029785,2.565483093,-0.047661498,-0.118606813,0.863909960
7.688246,6.431259155,-3.049499512,2.504447937,-0.036797240,-0.101516970,0.839862108
7.688871,7.613815308,-3.766662598,2.832511902,-0.064263061,-0.148147821,0.872210741
7.689496,10.955490112,-5.956298828,3.427604675,-0.111504272,-0.179641962,0.923236132
7.690122,12.923873901,-8.123046875,3.580192566,-0.072685912,-0.116653688,0.924334764
7.690748,13.587631226,-8.710510254,3.580192566,-0.028008178,-0.075149782,0.959735155
7.691374,14.999069214,-8.275634766,2.962211609,0.015570923,-0.093216188,0.998309374
7.692001,16.448654175,-7.222778320,2.534965515,0.022162721,-0.075027712,1.024554491
7.692627,16.250289917,-6.269104004,2.748588562,0.045356080,0.015792601,1.023822069
7.693254,13.259567261,-5.178100586,3.259757996,0.063178346,0.073531859,1.021624804
7.693881,10.276473999,-4.682189941,3.671745300,0.030341431,0.053512327,1.082659960
7.694506,8.033432007,-4.796630859,4.022697449,0.042548463,0.075607054,1.074115038
7.695132,3.310836792,-3.476745605,4.045585632,0.065497681,0.090865843,1.039813280
7.695757,1.342453003,-1.989013672,4.213432312,0.034125611,-0.001663454,1.074603319
7.696384,0.816024780,-2.210266113,4.114250183,-0.025810912,-0.055618532,1.085955858
7.709521,-2.014480591,-5.506164551,7.936576843,-0.009941773,-0.032913454,0.993182421
7.710235,-2.876602173,-5.712158203,8.020500183,-0.021782592,-0.052810915,0.995135546
7.710860,-2.960525513,-5.971557617,8.012870789,-0.038262084,-0.061599977,0.997454882
7.711485,-3.258071899,-6.513244629,8.394340515,-0.039971069,-0.067215212,0.989642382
7.712112,-3.532730103,-6.864196777,8.585075378,-0.034966186,-0.066116579,0.996722460
7.712737,-3.662429810,-7.192260742,8.508781433,-0.021538451,-0.073807009,0.999041796
7.713364,-3.746353149,-7.573730469,8.783439636,-0.020195678,-0.068191774,0.999285936
7.713991,-3.883682251,-7.978088379,8.981803894,-0.031792358,-0.082718141,1.028582811
7.714617,-3.776870728,-8.527404785,9.027580261,-0.015679076,-0.077469118,1.043231249
7.715244,-3.830276489,-8.512145996,9.248832703,0.008002563,-0.046829470,1.052020311
7.715869,-4.432998657,-7.932312012,9.401420593,0.034858033,-0.008743532,1.042865038
7.716494,-5.783401489,-7.123596191,9.424308777,0.048896119,-0.007889040,1.035418749
7.717119,-6.820999146,-6.047851562,9.401420593,0.033393189,-0.024734743,1.051532030
7.717891,-8.491836548,-5.178100586,10.095695496,0.011054321,-0.008621462,1.064105272
7.718518,-9.300552368,-5.490905762,9.965995789,0.001288696,-0.013138063,1.056781054
7.719143,-10.010086060,-5.345947266,9.996513367,0.000190063,-0.021438845,1.050067186
7.719768,-10.696731567,-4.918701172,10.126213074,-0.001763062,-0.034500368,1.046893358
7.720393,-11.093460083,-4.872924805,9.927848816,0.014594360,-0.031326540,1.032733202
7.721019,-11.597000122,-4.453308105,10.149101257,-0.000176148,-0.035476930,1.021502733
7.721646,-11.963211060,-4.819519043,10.347465515,-0.017998412,-0.045120485,1.021624804
7.722272,-11.535964966,-5.452758789,10.408500671,-0.027031615,-0.047195680,1.011981249
7.722898,-11.848770142,-5.773193359,10.477165222,-0.011772827,-0.044876345,0.980975389
7.723524,-11.749588013,-5.765563965,10.339836121,-0.007988648,-0.056717165,0.974749804
7.724151,-10.895095825,-5.735046387,10.202507019,0.001410767,-0.059402712,0.972796679
7.724778,-10.307632446,-5.292541504,10.316947937,0.016547486,-0.046829470,0.960101366
7.725404,-9.765945435,-5.399353027,10.393241882,0.010566040,-0.033035524,0.956439257
7.726029,-9.605728149,-5.155212402,10.179618835,0.002875610,-0.031326540,0.954241991
7.726656,-9.239517212,-5.025512695,10.347465515,0.000678345,-0.035599001,0.962542772
7.727281,-8.301101685,-5.330688477,10.355094910,-0.015190796,-0.037307985,0.968768358
7.727907,-7.599197388,-5.880004883,10.248283386,-0.020073608,-0.038528688,0.969500780
7.728532,-6.729446411,-5.994445801,10.065177917,-0.029717162,-0.045730837,0.975360155
7.729158,-5.798660278,-6.940490723,9.866813660,-0.015557007,-0.032058962,0.969744921
7.729784,-5.859695435,-6.467468262,9.836296082,0.020819947,0.003829710,0.943743944
7.730411,-5.493484497,-6.185180664,9.744743347,0.012030884,-0.011795290,0.958636522
7.731037,-5.478225708,-6.299621582,9.576896667,0.005805298,-0.020218141,0.951678514
7.731662,-4.875503540,-6.307250977,9.798149109,0.007514282,-0.031692751,0.934466600
7.732287,-3.830276489,-6.322509766,9.645561218,-0.000542358,-0.040848024,0.933490038
7.732912,-2.548538208,-6.559020996,9.225944519,0.002021118,-0.046341188,0.916888475
7.733537,-1.312576294,-6.711608887,9.035209656,-0.002007202,-0.051346071,0.903460741
7.734164,0.205673218,-6.887084961,9.180168152,-0.012016968,-0.052200563,0.900042772
7.734790,1.472152710,-7.077819824,8.997062683,-0.011406616,-0.047806032,0.900775194
7.735417,2.921737671,-7.611877441,9.058097839,-0.019097045,-0.050613649,0.914447069
7.736043,4.165328979,-7.955200195,8.852104187,-0.021172240,-0.041946657,0.917498827
7.736670,5.263961792,-8.214599609,8.607963562,-0.012993530,-0.037185915,0.916400194
7.737295,6.072677612,-8.428222656,8.211235046,-0.016411498,-0.036209352,0.929461718
7.737921,7.697738647,-8.779174805,8.409599304,-0.017388061,-0.035232790,0.939227343
7.738547,8.506454468,-9.160644531,8.012870789,-0.010307983,-0.030960329,0.946551561
7.739172,9.681381226,-9.641296387,8.234123230,-0.008843140,-0.031936891,0.957904100
7.739797,10.581649780,-9.893066406,7.974723816,-0.001152710,-0.030594118,0.966449022
7.754142,6.606735229,-7.901794434,6.761650085,0.007270142,0.007735960,1.042498827
7.754880,5.668319702,-8.130676270,6.769279480,0.002753540,0.004684202,1.041644335
7.755507,4.951156616,-7.878906250,6.883720398,0.002143188,-0.000564821,1.036639452
7.756133,4.394210815,-8.008605957,6.845573425,0.007026001,-0.003372438,1.029803514
7.756758,3.570236206,-7.749206543,6.784538269,0.005683227,-0.004837282,1.029193163
7.757384,3.059066772,-7.634765625,6.815055847,0.006293579,-0.006668337,1.025653124
7.758010,2.601303101,-7.451660156,6.792167664,0.004096313,-0.008377321,1.015277147
7.758636,2.433456421,-7.398254395,6.776908875,0.004706665,-0.013382204,1.015887499
7.759262,2.090133667,-7.215148926,6.792167664,0.005194946,-0.012405641,1.009295702
7.759888,1.807846069,-7.177001953,6.807426453,0.001654907,-0.014114626,1.005999804
7.760514,1.411117554,-7.260925293,6.799797058,0.000800415,-0.011062868,1.002948046
7.761141,1.166976929,-7.291442871,6.898979187,0.002753540,-0.009231813,0.994158983
7.761766,0.762619019,-7.192260742,6.746391296,0.000922485,-0.010452516,0.993182421
7.762392,0.663436890,-7.283813477,6.723503113,0.000312134,-0.012771852,0.990130663
7.763017,0.251449585,-7.177001953,6.868461609,0.003852173,-0.011429079,0.984637499
7.763643,0.053085327,-7.123596191,6.837944031,0.001410767,-0.017288454,0.986834764
7.764269,0.045455933,-7.222778320,6.692985535,0.002997681,-0.012283571,0.980975389
7.764894,-0.122390747,-7.512695312,6.662467957,-0.004326538,-0.018020876,0.982562304
7.765521,-0.175796509,-7.093078613,6.670097351,-0.006279663,-0.014480837,0.982318163
7.767216,-0.671707153,-7.634765625,6.708244324,0.005072876,-0.016922243,0.974871874
7.767843,-0.488601685,-7.352478027,6.563285828,0.002387329,-0.021194704,0.977435350
7.768469,-0.519119263,-7.543212891,6.692985535,0.003363892,-0.019119509,0.971698046
7.769095,-0.480972290,-7.657653809,6.403068542,-0.009819702,-0.026809938,0.983538866
7.769721,-0.252090454,-8.443481445,6.639579773,-0.029839233,-0.022903688,1.002581835
7.770348,-0.229202271,-8.992797852,6.921867371,-0.003838257,-0.006912477,0.996234179
7.770974,-0.458084106,-8.802062988,6.609062195,0.027777955,-0.002884157,0.996234179
7.771599,-0.580154419,-7.932312012,6.342033386,0.037177369,-0.003860720,0.999285936
7.772225,-0.877700806,-7.161743164,6.250480652,0.031806275,0.014571898,1.004779100
7.772852,-1.900039673,-7.154113770,6.639579773,0.012397095,0.020309202,1.009295702
7.773478,-2.502761841,-7.276184082,6.548027039,-0.000908569,0.016402952,1.018695116
7.774103,-3.128372192,-7.650024414,6.334403992,-0.005058960,0.007735960,1.021868944
7.774728,-3.189407349,-7.733947754,6.486991882,0.007148071,-0.000076540,1.019061327
7.775353,-3.341995239,-7.451660156,6.067375183,0.013007446,-0.002395876,1.016009569
7.775978,-3.456436157,-7.253295898,5.838493347,0.011542602,-0.013748415,1.012591600
7.776603,-3.364883423,-7.054931641,5.983451843,0.014594360,-0.013870485,1.002825975
7.777228,-3.509841919,-7.123596191,6.067375183,0.010688110,-0.016433962,0.996722460
7.777854,-3.219924927,-7.268554688,5.922416687,-0.001885132,-0.028885134,1.002215624
7.778480,-3.113113403,-7.512695312,6.090263367,-0.000176148,-0.016556032,1.002093554
7.779106,-3.006301880,-7.566101074,5.792716980,0.025702760,-0.002762087,0.991107225
7.779731,-3.341995239,-6.848937988,5.762199402,0.040839478,0.020553343,0.995135546
7.780357,-4.082046509,-6.032592773,5.510429382,0.032050416,0.020919554,1.002703905
7.780984,-4.967056274,-5.750305176,6.036857605,-0.002251343,0.026046507,1.016009569
7.781610,-6.042800903,-6.780273438,6.044487000,-0.014092163,0.034591429,1.011615038
7.782236,-6.904922485,-6.902343750,5.899528503,-0.016045287,0.012984984,1.010394335
7.782862,-6.943069458,-7.154113770,5.746940613,-0.016045287,-0.016311891,1.003192186
7.783487,-7.110916138,-7.321960449,5.479911804,0.005194946,-0.014724977,0.984027147
7.784112,-7.072769165,-6.826049805,5.441764832,0.012397095,-0.015457399,0.976580858
7.784737,-7.088027954,-6.894714355,5.510429382,0.011786743,-0.021927126,0.968524218
7.785363,-6.538711548,-6.871826172,5.617240906,0.000434204,-0.032058962,0.962542772
7.798335,-3.853164673,-8.847839355,3.664115906,-0.016411498,-0.036209352,0.950701952
7.799020,-2.472244263,-9.397155762,3.526786804,-0.022148803,-0.078811891,0.951922655
7.799645,0.800765991,-10.427124023,3.336051941,-0.032158569,-0.126175165,0.968768358
7.800270,3.432907104,-10.892517090,2.962211609,0.000556274,-0.095779665,0.955218554
7.800896,5.141891479,-10.488159180,2.740959167,0.052069947,-0.041580446,0.951434374
7.801523,5.042709351,-9.435302734,2.863029480,0.064521119,0.036056273,0.968890429
7.802148,3.577865601,-8.672363281,3.221611023,0.034003541,0.093795530,1.006610155
7.802774,1.205123901,-9.450561523,3.648857117,-0.017876342,0.096847288,1.050067186
7.803399,-0.091873169,-10.457641602,3.305534363,-0.029473022,0.084396116,1.078753710
7.804032,-1.587234497,-10.892517090,2.649406433,0.011298462,0.071944945,1.084368944
7.804659,-1.854263306,-10.251647949,1.924613953,0.049872681,0.038619749,1.090228319
7.805285,-2.502761841,-9.030944824,1.649955750,0.078437135,0.021651976,1.074725389
7.805910,-3.464065552,-7.489807129,1.855949402,0.078803346,0.024215452,1.051898241
7.806537,-4.806838989,-7.093078613,2.298454285,0.037787721,0.035445921,1.039813280
7.807164,-5.752883911,-7.207519531,2.420524597,0.003852173,0.037521116,1.027484179
7.807790,-6.576858521,-7.611877441,2.138237000,-0.001274780,0.039352171,1.013446093
7.808416,-7.034622192,-7.856018066,1.787284851,0.004828735,0.026168577,1.012591600
7.809041,-7.126174927,-7.833129883,1.367668152,0.015204712,0.013107054,1.006366014
7.809666,-6.538711548,-7.985717773,1.093009949,0.009589477,-0.003860720,1.008197069
7.810291,-6.386123657,-8.008605957,1.031974792,0.012152954,-0.001297243,1.003192186
7.810917,-6.393753052,-7.741577148,0.986198425,0.025824830,-0.008865602,0.982806444
7.811543,-6.035171509,-7.527954102,0.963310242,0.016547486,-0.030472048,0.982196093
7.812169,-4.852615356,-7.932312012,1.085380554,-0.012139038,-0.048172243,1.004046679
7.812794,-3.631912231,-9.099609375,1.070121765,-0.015190796,-0.046951540,1.010150194
7.813420,-3.013931274,-8.939392090,0.574211121,0.027167603,-0.022537477,0.992572069
7.814047,-2.014480591,-8.512145996,0.520805359,0.038520142,-0.063919313,1.004290819
7.814674,-0.748001099,-7.878906250,0.276664734,0.046820924,-0.031814821,0.982074022
7.815300,-0.694595337,-6.871826172,0.162223816,0.062812135,0.008590452,0.959368944
7.815927,-0.770889282,-6.589538574,0.276664734,0.031928346,-0.003616579,0.981951952
7.816553,-0.679336548,-6.787902832,0.543693542,0.005561157,-0.008499391,0.995379686
7.817179,-0.290237427,-7.352478027,0.543693542,-0.001763062,-0.017654665,0.992327929
7.817804,-0.603042603,-7.123596191,-0.272651672,0.027045533,-0.007156618,0.960101366
7.818430,-0.389419556,-6.436950684,-0.188728333,0.019355103,-0.019607790,0.964862108
7.819056,-0.221572876,-6.688720703,-0.051399231,-0.011528687,-0.026321657,0.978289843
7.819682,-0.641189575,-7.314331055,0.063041687,-0.012993530,-0.016800173,0.965960741
7.820307,-0.564895630,-8.039123535,0.215629578,-0.039848998,-0.038284548,0.990008593
7.820933,0.297225952,-9.427673340,0.215629578,-0.049614623,-0.059280641,1.017474413
7.821559,0.999130249,-10.137207031,0.139335632,0.000678345,-0.053665407,1.003680468
7.822184,1.571334839,-9.404785156,-0.272651672,0.049262330,-0.058059938,0.998797655
7.822810,1.693405151,-8.504516602,-0.203987122,0.069159791,-0.033890016,0.990496874
7.823437,1.578964233,-7.657653809,-0.036140442,0.051703736,-0.032425173,0.994036913
7.824063,1.517929077,-7.329589844,0.238517761,0.016425416,-0.024002321,0.989886522
7.824689,1.273788452,-7.680541992,0.505546570,-0.003472046,-0.034134157,0.974871874
7.825315,2.311386108,-8.229858398,0.124076843,-0.007500366,-0.056717165,0.974627733
7.825941,3.051437378,-8.176452637,-0.448127747,0.028998658,-0.057937868,0.945086718
7.826567,4.165328979,-7.558471680,-0.234504700,0.022651002,-0.070999391,0.959979296
7.827193,4.714645386,-7.726318359,-0.020881653,0.010566040,-0.051468141,0.979876757
7.827819,4.813827515,-8.435852051,0.406364441,0.018012330,-0.020584352,0.977923632
7.840417,-6.370864868,-3.926879883,1.024345398,-0.054863647,0.031539671,1.004657030
7.841178,-7.011734009,-5.506164551,0.894645691,-0.044243529,-0.041702516,0.983050585
7.841805,-6.279312134,-5.918151855,0.513175964,-0.025810912,-0.088455446,0.985125780
7.842431,-4.608474731,-5.963928223,0.200370789,0.001899048,-0.108474977,0.965350389
7.843056,-3.357254028,-5.612976074,0.116447449,0.024726197,-0.121292360,0.932147264
7.843681,-2.632461548,-5.376464844,0.909904480,0.013617798,-0.108108766,0.897113085
7.844307,-1.053176880,-6.032592773,1.215080261,-0.017143920,-0.140091181,0.892840624
7.844933,1.449264526,-6.925231934,1.222709656,-0.018852904,-0.138015985,0.886859179
7.845558,3.806747437,-7.154113770,1.237968445,-0.005547241,-0.102981813,0.867572069
7.846184,5.462326050,-7.665283203,0.978569031,0.004706665,-0.091873415,0.873797655
7.846811,7.476486206,-7.924682617,0.955680847,0.008612915,-0.088821657,0.889910936
7.847437,8.903182983,-8.176452637,1.154045105,0.017890260,-0.076126345,0.893695116
7.848062,10.368026733,-8.168823242,1.001457214,0.006415649,-0.068557985,0.918475389
7.848687,11.214889526,-8.336669922,1.375297546,-0.000298218,-0.069168337,0.944964647
7.849314,12.130416870,-8.908874512,1.314262390,0.007270142,-0.048782595,0.963763475
7.849940,12.183822632,-8.916503906,1.276115417,0.009589477,-0.041092165,0.982318163
7.850566,11.985458374,-8.817321777,1.123527527,0.015082642,-0.033157595,1.008563280
7.851193,11.329330444,-8.939392090,1.283744812,0.021796510,-0.012405641,1.025164843
7.851820,10.474838257,-8.710510254,1.329521179,0.021186158,0.001022093,1.034930468
7.852446,9.185470581,-8.428222656,1.596549988,0.012030884,0.000167601,1.038348436
7.853072,7.804550171,-8.687622070,1.443962097,0.012152954,0.010543577,1.045794725
7.853698,6.194747925,-8.786804199,1.665214539,0.007758423,0.029342405,1.047503710
7.854323,4.211105347,-8.557922363,1.550773621,0.009345337,0.065475218,1.057391405
7.854948,2.059616089,-8.588439941,1.550773621,0.001288696,0.036910765,1.070819139
7.855574,0.671066284,-8.756286621,1.344779968,0.030585572,0.009689085,1.052508593
7.856201,-0.465713501,-8.481628418,1.436332703,0.039252564,-0.011429079,1.037616014
7.856828,-0.931106567,-7.993347168,1.474479675,0.032904908,-0.038894899,1.028949022
7.857454,-0.877700806,-7.627136230,1.833061218,0.024482056,-0.049637087,1.008563280
7.858081,-0.755630493,-7.894165039,1.634696960,0.020575806,-0.052932985,0.999041796
7.858707,-0.480972290,-7.955200195,1.955131531,0.015326782,-0.051224001,0.987933397
7.859332,-0.397048950,-8.084899902,2.061943054,0.016303346,-0.047806032,0.985125780
7.859959,-0.374160767,-8.229858398,2.039054871,0.018134400,-0.044388063,0.985980272
7.860586,-0.282608032,-8.222229004,2.054313660,0.020087525,-0.043045290,0.985003710
7.861213,0.068344116,-8.145935059,2.100090027,0.019477174,-0.046097048,0.989032030
7.861838,0.304855347,-8.092529297,2.176383972,0.021186158,-0.046707399,0.994281054
7.862463,0.121749878,-8.222229004,2.092460632,0.019599244,-0.034500368,1.000384569
7.863090,-0.114761353,-8.237487793,2.214530945,0.013129517,-0.029373415,1.001361132
7.863716,-0.740371704,-8.367187500,2.313713074,0.011664673,-0.024734743,1.005877733
7.864342,-1.434646606,-8.268005371,2.351860046,0.010321899,-0.023636110,1.004657030
7.864968,-1.861892700,-8.565551758,2.435783386,0.013495727,-0.022903688,1.006243944
7.865594,-2.762161255,-8.420593262,2.412895203,0.014106079,-0.025711305,1.005511522
7.867304,-4.417739868,-8.611328125,2.893547058,0.010321899,-0.029007204,0.981097460
7.867929,-4.684768677,-8.748657227,2.870658875,0.011420532,-0.033767946,0.977801561
7.868554,-4.852615356,-8.786804199,2.695182800,0.010077759,-0.038772829,0.974017382
7.869180,-4.745803833,-9.076721191,2.748588562,0.015204712,-0.043411501,0.966937304
7.869805,-4.631362915,-9.091979980,2.977470398,0.018500611,-0.048538454,0.968402147
7.870432,-4.371963501,-8.947021484,3.015617371,0.018744752,-0.049881227,0.966082811
7.871058,-3.990493774,-9.214050293,2.992729187,0.016181275,-0.050247438,0.966082811
7.871684,-3.601394653,-9.290344238,3.084281921,0.019843385,-0.053177126,0.966326952
7.884346,0.434555054,-11.373168945,3.793815613,0.021064088,-0.048538454,0.985736132
7.885014,0.754989624,-11.266357422,3.625968933,0.021430299,-0.045974977,0.990130663
7.885639,1.014389038,-11.106140137,3.870109558,0.022284791,-0.045242555,0.993182421
7.886266,0.991500854,-11.365539551,3.816703796,0.023139283,-0.043533571,0.996966600
7.886891,1.426376343,-11.380798340,3.679374695,0.024115846,-0.042801149,0.999896288
7.887517,1.434005737,-11.350280762,3.862480164,0.022651002,-0.038650759,1.007098436
7.888144,1.624740601,-11.403686523,3.702262878,0.024726197,-0.038284548,1.008929491
7.888770,1.746810913,-11.396057129,3.923515320,0.023627564,-0.037674196,1.009295702
7.889395,1.762069702,-11.342651367,3.801445007,0.029609010,-0.035354860,1.014056444
7.890020,1.617111206,-11.197692871,3.908256531,0.028998658,-0.027542360,1.014910936
7.890647,1.731552124,-10.892517090,3.778556824,0.027411744,-0.023269899,1.016986132
7.891272,1.601852417,-11.151916504,3.984550476,0.029120728,-0.020462282,1.018695116
7.891898,1.479782104,-10.976440430,3.954032898,0.024604127,-0.020340212,1.019061327
7.892523,1.083053589,-10.778076172,3.931144714,0.020209596,-0.026687868,1.023455858
7.893150,1.220382690,-11.258728027,3.831962585,0.018378541,-0.029251345,1.027484179
7.893775,1.395858765,-11.396057129,4.106620789,0.010199829,-0.029251345,1.025775194
7.894401,2.196945190,-12.731201172,4.419425964,-0.038628295,-0.068680055,1.064715624
7.895031,2.120651245,-13.333923340,3.900627136,0.052924439,-0.017044313,1.021624804
7.895657,2.723373413,-11.914855957,3.656486511,0.084174439,-0.048782595,1.047747850
7.896283,3.295578003,-10.732299805,3.511528015,0.076606080,-0.003616579,1.060809374
7.896908,2.967514038,-10.144836426,3.725151062,0.047431275,0.006149046,1.072283983
7.897533,2.120651245,-10.129577637,3.870109558,0.051947877,0.031417601,1.062396288
7.898158,1.228012085,-10.121948242,3.992179871,0.046576783,0.037643187,1.063983202
7.898784,-0.068984985,-9.755737305,3.717521667,0.053290650,0.052657835,1.065325975
7.899409,-1.365982056,-9.015686035,3.435234070,0.044745728,0.055099241,1.056414843
7.900034,-3.006301880,-8.687622070,3.351310730,0.038642213,0.043258421,1.053118944
7.900660,-3.837905884,-8.634216309,3.114799500,0.036322877,0.027511351,1.046160936
7.901286,-4.555068970,-8.412963867,3.160575867,0.027411744,0.009567015,1.028949022
7.901912,-5.249343872,-8.588439941,3.069023132,0.023139283,-0.014969118,1.017596483
7.902537,-5.836807251,-8.512145996,3.046134949,0.026435181,-0.019241579,0.995379686
7.903163,-6.073318481,-8.855468750,3.206352234,0.023505494,-0.037674196,0.976947069
7.903789,-6.119094849,-8.802062988,3.229240417,0.017646119,-0.056473024,0.962054491
7.904414,-5.775772095,-8.954650879,3.458122253,-0.002251343,-0.078933962,0.962786913
7.905041,-4.974685669,-9.336120605,3.259757996,0.002753540,-0.065384157,0.940570116
7.905667,-3.845535278,-9.839660645,3.397087097,-0.006035523,-0.083328493,0.933734179
7.906293,-2.579055786,-10.007507324,3.381828308,-0.004936890,-0.090530641,0.940570116
7.906918,-1.404129028,-10.503417969,3.465751648,0.022773072,-0.072098024,0.921160936
7.907544,-0.450454712,-10.076171875,3.267387390,0.031440064,-0.069168337,0.916156054
7.908170,0.571884155,-10.213500977,3.587821960,0.017890260,-0.060379274,0.919818163
7.915366,2.677597046,-10.518676758,2.908805847,0.041083619,0.007613890,1.042987108
7.915992,2.219833374,-10.236389160,2.878288269,0.041449830,0.003463499,1.044574022
7.916617,1.563705444,-9.885437012,2.916435242,0.036933228,0.008590452,1.050555468
7.917242,1.151718140,-10.045654297,2.748588562,0.032904908,0.000533812,1.057391405
7.917868,0.793136597,-9.923583984,2.763847351,0.038276002,0.001022093,1.054095507
7.918494,0.121749878,-9.694702148,2.931694031,0.040717408,-0.004715212,1.050067186
7.919120,-0.313125610,-9.458190918,2.863029480,0.034369752,-0.006668337,1.049334764
7.919747,-0.557266235,-9.862548828,2.885917664,0.036322877,0.003219359,1.042498827
7.920374,-0.953994751,-9.770996094,2.840141296,0.037787721,-0.000076540,1.042254686
7.921001,-1.121841431,-9.320861816,2.756217957,0.043158814,-0.004959352,1.047259569
7.933703,-4.829727173,-7.840759277,1.520256042,0.023871705,-0.031936891,0.947161913
7.934467,-4.249893188,-8.245117188,1.535514832,0.018256471,-0.036087282,0.954241991
7.935093,-3.563247681,-8.596069336,1.428703308,0.016425416,-0.030349977,0.958636522
7.935718,-2.807937622,-8.489257812,1.459220886,0.020575806,-0.021438845,0.966204882
7.936344,-2.662979126,-8.679992676,1.199821472,0.030951783,-0.017044313,0.969378710
7.936971,-2.624832153,-8.542663574,1.169303894,0.032660767,-0.016067751,0.974383593
7.937597,-2.113662720,-8.443481445,1.138786316,0.029975221,-0.018875368,0.977313280
7.938223,-2.067886353,-8.252746582,1.070121765,0.027533814,-0.021927126,0.984637499
7.938850,-1.701675415,-8.695251465,1.085380554,0.022162721,-0.023514040,0.988177538
7.939475,-1.488052368,-8.718139648,1.199821472,0.031317994,-0.016800173,0.987689257
7.940102,-1.312576294,-8.947021484,0.726799011,0.035956666,-0.018875368,0.990741014
7.940728,-1.205764771,-8.679992676,0.894645691,0.037543580,-0.017410524,0.994158983
7.941353,-1.304946899,-8.199340820,0.833610535,0.036200806,-0.013504274,0.999774218
7.941979,-1.587234497,-8.268005371,0.658134460,0.025580689,-0.014236696,1.006488085
7.942605,-1.121841431,-8.359558105,0.642875671,0.022773072,-0.018875368,1.022601366
7.943231,-1.297317505,-8.496887207,0.673393250,0.032782838,-0.010574587,1.027972460
7.943857,-1.587234497,-8.603698730,0.505546570,0.033271119,-0.003860720,1.042132616
7.944483,-1.823745728,-8.321411133,0.360588074,0.040717408,0.005294554,1.051409960
7.945110,-2.266250610,-7.878906250,0.482658386,0.040229127,-0.001053102,1.055072069
7.945735,-3.044448853,-8.016235352,0.444511414,0.039252564,-0.003128298,1.054705858
7.946361,-3.509841919,-7.726318359,0.169853210,0.043525025,-0.008499391,1.043475389
7.946987,-3.410659790,-7.627136230,0.299552917,0.048041627,-0.014969118,1.041033983
7.947614,-3.227554321,-7.482177734,0.543693542,0.042304322,-0.018753298,1.043353319
7.948240,-3.219924927,-7.253295898,0.383476257,0.037909791,-0.007522829,1.042742968
7.948866,-3.296218872,-7.314331055,0.017265320,0.036567017,-0.008377321,1.048480272
7.949492,-3.769241333,-7.032043457,0.269035339,0.041938111,-0.008377321,1.049456835
7.950117,-4.005752563,-6.787902832,0.368217468,0.043402955,-0.017288454,1.048724413
7.950744,-4.127822876,-6.772644043,0.009635925,0.039984986,-0.023514040,1.037738085
7.951369,-3.929458618,-6.620056152,0.459770203,0.035834596,-0.033157595,1.035418749
7.951995,-4.028640747,-6.528503418,0.490287781,0.040961549,-0.033035524,1.030902147
7.952621,-3.990493774,-6.497985840,0.230888367,0.042426392,-0.033279665,1.022601366
7.953246,-3.967605591,-6.299621582,0.200370789,0.035468385,-0.029983766,1.020404100
7.953872,-4.028640747,-6.116516113,0.436882019,0.034613892,-0.030349977,1.017840624
7.954498,-3.853164673,-6.055480957,0.322441101,0.032538697,-0.033157595,1.015399218
7.955123,-3.982864380,-6.124145508,0.261405945,0.027900025,-0.039016970,1.011492968
7.955748,-3.555618286,-6.177551270,0.597099304,0.026801392,-0.043655641,1.005267382
7.956375,-3.151260376,-6.101257324,0.177482605,0.031806275,-0.046341188,1.001727343
7.957001,-3.105484009,-6.147033691,0.551322937,0.036444947,-0.044265993,0.998919725
7.957626,-2.670608521,-5.986816406,0.467399597,0.032904908,-0.045608766,0.997088671
7.958252,-2.579055786,-6.108886719,0.337699890,0.031684205,-0.049148805,0.993426561
7.958877,-1.922927856,-5.834228516,0.215629578,0.031317994,-0.048416384,0.995867968
7.959503,-1.892410278,-5.925781250,0.719169617,0.029609010,-0.045364626,0.998797655
7.960128,-1.587234497,-5.818969727,0.558952332,0.032172486,-0.044143923,1.001361132
7.960754,-1.503311157,-5.864746094,0.772575378,0.031073853,-0.042801149,0.999408007
7.961379,-1.343093872,-5.986816406,0.497917175,0.031562135,-0.044876345,1.002337694
7.962006,-0.969253540,-5.918151855,0.528434753,0.028876588,-0.047195680,0.998065233
7.962631,-0.404678345,-5.994445801,0.619987488,0.034003541,-0.049392946,0.997943163
7.963258,-0.320755005,-6.032592773,0.543693542,0.039130494,-0.049026735,0.994647264
7.963884,-0.091873169,-5.605346680,0.711540222,0.039008424,-0.047806032,0.991717577
7.977643,-0.557266235,-3.797180176,1.054862976,0.044501588,-0.031204470,1.032977343
7.978328,-0.488601685,-3.743774414,1.100639343,0.045600221,-0.032303102,1.033099413
7.978954,-0.374160767,-3.659851074,1.199821472,0.046454713,-0.030227907,1.032855272
7.979579,-0.534378052,-3.514892578,1.024345398,0.044257447,-0.033523805,1.039202929
7.980205,-0.442825317,-3.392822266,1.306632996,0.044623658,-0.030960329,1.038470507
7.980832,-0.259719849,-3.156311035,1.123527527,0.046698853,-0.033645876,1.038470507
7.981457,-0.412307739,-3.156311035,1.115898132,0.042670533,-0.033401735,1.039935350
7.982084,-0.641189575,-2.805358887,1.192192078,0.042548463,-0.034622438,1.042742968
7.982709,-0.358901978,-2.515441895,1.245597839,0.046454713,-0.034866579,1.041033983
7.983335,-0.488601685,-2.553588867,1.283744812,0.047309205,-0.033767946,1.040423632
7.983961,-0.366531372,-2.416259766,1.237968445,0.045966431,-0.037430055,1.041522264
7.984588,-0.480972290,-2.187377930,1.161674500,0.047187135,-0.032425173,1.038958788
7.985215,-0.603042603,-1.920349121,1.192192078,0.045356080,-0.031204470,1.037249804
7.985841,-0.282608032,-2.019531250,1.283744812,0.044745728,-0.030960329,1.034686327
7.986467,-0.496231079,-1.783020020,1.321891785,0.046576783,-0.030349977,1.035662889
7.987093,-0.503860474,-1.615173340,1.344779968,0.045111939,-0.030472048,1.032366991
7.987718,-0.397048950,-1.668579102,1.276115417,0.046576783,-0.032547243,1.031756639
7.988344,-0.679336548,-1.493103027,1.276115417,0.045722291,-0.031326540,1.027362108
7.988970,-0.488601685,-1.248962402,1.260856628,0.048896119,-0.029861696,1.026629686
7.989595,-0.450454712,-0.875122070,1.413444519,0.047431275,-0.035110720,1.021136522
7.990222,-0.328384399,-0.814086914,1.291374207,0.045966431,-0.033767946,1.017718554
7.990847,-0.297866821,-0.890380859,1.428703308,0.042670533,-0.033890016,1.011737108
7.991472,0.114120483,-0.684387207,1.367668152,0.040717408,-0.038284548,1.004779100
7.992097,0.030197144,-0.692016602,1.009086609,0.041571900,-0.038162477,1.007464647
7.992722,0.602401733,-0.432617188,1.199821472,0.042426392,-0.037307985,1.006121874
7.993349,0.709213257,-0.455505371,1.314262390,0.038764283,-0.037307985,1.003192186
7.993976,0.915206909,-0.211364746,1.237968445,0.041816041,-0.034012087,1.000628710
7.994603,1.075424194,-0.402099609,1.360038757,0.040839478,-0.033279665,1.004290819
7.995228,1.212753296,-0.463134766,1.199821472,0.038031861,-0.029495485,1.004901171
7.995854,1.639999390,-0.234252930,1.062492371,0.040107056,-0.029495485,1.007220507
7.996479,1.777328491,-0.394470215,1.360038757,0.043036744,-0.028396852,1.009295702
7.997105,1.876510620,-0.066406250,0.986198425,0.042914674,-0.024002321,1.012591600
7.997730,1.693405151,-0.020629883,1.207450867,0.043158814,-0.021438845,1.014056444
7.998357,1.868881226,-0.211364746,0.948051453,0.045844361,-0.016800173,1.020159960
7.998983,1.823104858,0.017517090,1.169303894,0.045356080,-0.015945680,1.027117968
7.999608,1.899398804,0.200622559,0.871757507,0.046576783,-0.012405641,1.030902147
8.000234,1.739181519,0.177734375,0.833610535,0.046454713,-0.009842165,1.035174608
8.000861,1.479782104,0.566833496,0.726799011,0.048529908,-0.006912477,1.038836718
8.001487,1.266159058,0.429504395,0.734428406,0.049140260,-0.003616579,1.042498827
8.002112,1.144088745,0.559204102,0.459770203,0.050849244,-0.003494509,1.042865038
8.002737,0.899948120,1.062744141,0.604728699,0.051581666,-0.002273805,1.045672655
8.003362,0.610031128,0.925415039,0.505546570,0.056830689,-0.000686891,1.049090624
8.003988,0.457443237,1.192443848,0.612358093,0.052802369,-0.001297243,1.050555468
8.004613,0.068344116,1.360290527,0.459770203,0.051825806,-0.002517946,1.049823046
8.005238,-0.252090454,1.879089355,0.337699890,0.054145142,0.000045530,1.050067186
8.005864,-0.252090454,1.680725098,0.208000183,0.053656861,-0.003372438,1.053729296
8.006489,-0.488601685,2.001159668,0.322441101,0.053412721,-0.003494509,1.050311327
8.007114,-0.900588989,2.161376953,0.169853210,0.053901002,-0.004715212,1.051287889
8.007740,-1.068435669,2.329223633,-0.051399231,0.053046510,-0.008133180,1.051043749
8.020434,-2.151809692,5.548828125,0.024894714,0.046088502,-0.025467165,1.029803514
8.021201,-2.426467896,5.678527832,0.032524109,0.045966431,-0.024246462,1.030413866
8.021828,-2.456985474,5.854003906,0.284294128,0.049140260,-0.021682985,1.027362108
8.022453,-2.502761841,5.846374512,0.101188660,0.046698853,-0.022903688,1.027850389
8.023078,-2.449356079,5.800598145,0.078300476,0.047431275,-0.025955446,1.025164843
8.023703,-2.724014282,6.014221191,0.215629578,0.045722291,-0.024734743,1.026507616
8.024329,-2.891860962,6.182067871,-0.005622864,0.044257447,-0.026077516,1.026141405
8.024954,-2.914749146,6.342285156,0.078300476,0.044257447,-0.027786501,1.024188280
8.025581,-2.701126099,6.487243652,0.032524109,0.043769166,-0.028885134,1.021014452
8.026207,-3.021560669,6.403320312,0.330070496,0.041205689,-0.030472048,1.019427538
8.026833,-3.059707642,6.456726074,0.017265320,0.042670533,-0.033157595,1.016986132
8.027460,-2.998672485,6.685607910,-0.013252258,0.042426392,-0.034988649,1.018450975
8.028086,-3.006301880,6.761901855,0.162223816,0.041449830,-0.038772829,1.012469530
8.028711,-3.006301880,6.914489746,0.078300476,0.041205689,-0.038284548,1.012225389
8.029336,-2.960525513,6.754272461,0.177482605,0.038153931,-0.039383180,1.008807421
8.029962,-2.785049438,7.097595215,0.162223816,0.040107056,-0.038772829,1.008807421
8.030588,-2.647720337,7.089965820,-0.013252258,0.039740846,-0.041214235,1.007708788
8.031213,-2.395950317,7.265441895,0.230888367,0.042548463,-0.040603884,1.008807421
8.031839,-2.395950317,7.288330078,0.185112000,0.040717408,-0.039871462,1.010028124
8.032465,-2.365432739,7.280700684,0.101188660,0.040717408,-0.038040407,1.009783983
8.033092,-1.892410278,7.356994629,0.238517761,0.046210572,-0.034988649,1.009539843
8.033717,-2.128921509,7.440917969,0.330070496,0.041571900,-0.035476930,1.008074999
8.034343,-1.907669067,7.593505859,0.192741394,0.044501588,-0.037796266,1.010638475
8.034968,-1.777969360,7.578247070,0.116447449,0.042914674,-0.032791384,1.013690233
8.035594,-1.549087524,7.852905273,-0.089546204,0.044135377,-0.030472048,1.014422655
8.036221,-1.457534790,7.906311035,0.116447449,0.043525025,-0.029861696,1.015155077
8.036848,-1.526199341,7.906311035,0.009635925,0.045356080,-0.032425173,1.016986132
8.037473,-1.274429321,8.074157715,-0.051399231,0.043525025,-0.029617555,1.018573046
8.038098,-1.282058716,8.341186523,-0.280281067,0.042670533,-0.026565798,1.018939257
8.038723,-1.335464478,8.158081055,-0.043769836,0.043280885,-0.025467165,1.024554491
8.039349,-1.182876587,8.402221680,0.002006531,0.044623658,-0.026077516,1.023333788
8.039975,-0.915847778,8.676879883,-0.066658020,0.046576783,-0.029861696,1.023699999
8.040602,-0.908218384,8.577697754,-0.203987122,0.040717408,-0.028152712,1.021991014
8.041227,-0.969253540,8.753173828,-0.219245911,0.043647096,-0.028274782,1.024310350
8.041853,-0.885330200,8.852355957,-0.249763489,0.043891236,-0.026809938,1.025164843
8.042478,-0.839553833,8.936279297,-0.600715637,0.038520142,-0.028030641,1.027240038
8.043104,-0.961624146,9.004943848,-0.226875305,0.040107056,-0.026687868,1.029315233
8.043730,-0.931106567,9.241455078,-0.348945618,0.044135377,-0.024368532,1.027484179
8.044356,-0.870071411,9.119384766,-0.409980774,0.039984986,-0.025345095,1.030535936
8.044982,-1.289688110,9.363525391,-0.440498352,0.041693971,-0.021316774,1.028826952
8.045607,-1.304946899,9.477966309,-0.448127747,0.041205689,-0.023269899,1.025408983
8.046233,-1.381240845,9.500854492,-0.646492004,0.040839478,-0.027054079,1.022601366
8.046858,-1.472793579,9.615295410,-0.524421692,0.041205689,-0.024978884,1.023089647
8.047484,-1.678787231,9.668701172,-0.669380188,0.040107056,-0.025589235,1.016741991
8.048110,-1.777969360,9.981506348,-0.463386536,0.039374635,-0.026687868,1.009051561
8.048735,-1.793228149,9.783142090,-0.623603821,0.040473267,-0.030349977,1.008441210
8.049360,-2.090774536,9.981506348,-0.577827454,0.038520142,-0.031326540,0.999041796
8.049985,-2.159439087,10.294311523,-0.585456848,0.035468385,-0.033767946,0.990863085
8.050610,-1.861892700,10.294311523,-0.623603821,0.033149049,-0.039871462,0.982806444
8.063226,-1.343093872,7.601135254,0.230888367,0.027045533,-0.020340212,0.998309374
8.063894,-2.083145142,7.814758301,0.024894714,0.028754517,-0.021682985,1.005877733
8.064519,-2.319656372,7.662170410,0.208000183,0.032294556,-0.019363649,1.007342577
8.065145,-2.930007935,7.730834961,0.154594421,0.030219361,-0.015213259,1.010760546
8.065771,-3.685317993,7.784240723,0.009635925,0.032294556,-0.014724977,1.017230272
8.066396,-4.028640747,7.822387695,0.261405945,0.033271119,-0.013504274,1.018450975
8.067029,-4.844985962,7.830017090,0.192741394,0.035956666,-0.013138063,1.017352343
8.067656,-5.195938110,7.730834961,0.238517761,0.034125611,-0.018631227,1.017230272
8.068282,-5.997024536,7.883422852,0.307182312,0.036567017,-0.014236696,1.014910936
8.068907,-6.347976685,7.761352539,0.299552917,0.031806275,-0.023269899,1.018328905
8.069533,-6.897293091,7.936828613,0.383476257,0.026557252,-0.034622438,1.017840624
8.070158,-7.286392212,7.875793457,0.253776550,0.030341431,-0.031204470,1.017962694
8.070783,-7.461868286,7.913940430,0.589469910,0.036322877,-0.018875368,1.010028124
8.071409,-7.912002563,8.081787109,0.398735046,0.029120728,-0.024002321,1.005389452
8.072034,-7.843338013,7.799499512,0.383476257,0.029120728,-0.025955446,0.998797655
8.072661,-7.934890747,8.211486816,0.070671082,0.029120728,-0.023391970,0.983294725
8.073286,-7.690750122,8.081787109,0.261405945,0.023017213,-0.029983766,0.977801561
8.073913,-7.812820435,7.974975586,0.192741394,0.027900025,-0.031326540,0.965594530
8.074539,-7.377944946,7.601135254,0.337699890,0.026557252,-0.041092165,0.960223436
8.075166,-6.645523071,7.471435547,0.124076843,0.013373657,-0.032547243,0.943621874
8.075793,-6.401382446,7.204406738,0.124076843,0.013129517,-0.041214235,0.932635546
8.076420,-6.103836060,6.845825195,0.101188660,0.010688110,-0.057449587,0.932513475
8.078093,-5.287490845,6.685607910,0.070671082,0.012885376,-0.046829470,0.918597460
8.078719,-4.928909302,6.128662109,0.146965027,0.008368774,-0.053543337,0.919696093
8.079346,-4.371963501,5.846374512,-0.036140442,0.004706665,-0.058426149,0.922503710
8.079972,-3.845535278,5.701416016,0.024894714,0.012152954,-0.051468141,0.924945116
8.080597,-3.799758911,5.289428711,0.223258972,0.015204712,-0.050613649,0.922381639
8.081224,-3.464065552,5.266540527,0.177482605,0.009101196,-0.053543337,0.925433397
8.081851,-3.059707642,5.045288086,0.093559265,0.004096313,-0.046829470,0.924945116
8.082477,-3.006301880,4.999511719,0.307182312,0.008734985,-0.043899782,0.925799608
8.083102,-2.846084595,4.518859863,0.024894714,0.003730102,-0.044021852,0.929705858
8.083727,-2.662979126,4.137390137,0.314811707,0.007148071,-0.040603884,0.931658983
8.084352,-2.662979126,3.984802246,0.360588074,0.011176392,-0.035476930,0.929461718
8.084977,-2.403579712,3.626220703,0.139335632,0.009467407,-0.034378298,0.927264452
8.085604,-2.281509399,3.519409180,0.352958679,0.010077759,-0.029983766,0.937640429
8.086230,-2.235733032,3.366821289,0.276664734,0.009589477,-0.025223024,0.940448046
8.086855,-2.510391235,2.970092773,0.192741394,0.010810181,-0.019363649,0.948138475
8.087481,-2.395950317,2.855651855,0.154594421,0.011420532,-0.019241579,0.948992968
8.088108,-2.678237915,2.756469727,0.009635925,0.012885376,-0.020584352,0.950946093
8.088733,-3.074966431,2.474182129,-0.028511047,0.013617798,-0.016067751,0.954974413
8.089359,-3.151260376,2.252929688,-0.127693176,0.013861938,-0.019241579,0.959735155
8.089984,-3.357254028,2.237670898,0.169853210,0.014716431,-0.027054079,0.957415819
8.090610,-3.441177368,2.031677246,-0.036140442,0.014960571,-0.033767946,0.960833788
8.091237,-3.166519165,1.833312988,-0.066658020,0.016303346,-0.033645876,0.961810350
8.091863,-3.403030396,1.741760254,0.040153503,0.014716431,-0.034622438,0.966449022
8.092490,-3.311477661,1.741760254,-0.005622864,0.012152954,-0.032058962,0.968280077
8.093116,-3.349624634,1.535766602,-0.249763489,0.013861938,-0.036697634,0.965960741
8.093741,-3.319107056,1.306884766,-0.043769836,0.014594360,-0.037430055,0.971331835
8.094366,-3.410659790,1.123779297,0.200370789,0.013007446,-0.038894899,0.970721483
8.107013,-0.946365356,-2.668029785,0.032524109,0.003974243,-0.042068727,0.938861132
8.107731,-0.694595337,-2.881652832,-0.043769836,0.004096313,-0.043655641,0.938372850
8.108358,-0.511489868,-3.057128906,0.108818054,0.004096313,-0.043655641,0.934466600
8.108985,-0.213943481,-3.484375000,0.131706238,0.004096313,-0.046707399,0.936419725
8.109611,-0.015579224,-3.446228027,0.154594421,0.004340454,-0.046463259,0.935321093
8.110237,0.137008667,-3.820068359,-0.051399231,0.004218384,-0.045974977,0.938250780
8.110864,0.472702026,-3.942138672,0.009635925,0.009345337,-0.044754274,0.938739061
8.111490,0.747360229,-4.102355957,-0.081916809,0.008612915,-0.043655641,0.940570116
8.112115,1.365341187,-4.392272949,0.070671082,0.009101196,-0.041580446,0.943011522
8.112742,1.533187866,-4.239685059,0.009635925,0.010077759,-0.041336305,0.942157030
8.113368,1.823104858,-4.491455078,-0.112434387,0.009833618,-0.043655641,0.939227343
8.113994,1.655258179,-4.659301758,-0.081916809,0.008857056,-0.040725954,0.942157030
8.114620,2.341903687,-5.078918457,0.024894714,0.008734985,-0.042068727,0.942767382
8.115247,2.433456421,-5.025512695,-0.043769836,0.006537720,-0.043289430,0.941912889
8.115873,2.685226440,-5.216247559,0.017265320,0.009223267,-0.042312868,0.945941210
8.116498,3.135360718,-5.391723633,-0.089546204,0.010199829,-0.043899782,0.944964647
8.117124,3.524459839,-5.498535156,-0.371833801,0.008979126,-0.041946657,0.951190233
8.117750,3.448165894,-5.765563965,-0.051399231,0.012885376,-0.040603884,0.953753710
8.118377,3.867782593,-5.948669434,0.024894714,0.013129517,-0.036941774,0.953021288
8.119003,3.966964722,-5.941040039,-0.211616516,0.011664673,-0.035232790,0.956073046
8.119628,3.944076538,-6.154663086,-0.013252258,0.013129517,-0.034866579,0.954974413
8.120254,4.081405640,-6.147033691,-0.173469543,0.010321899,-0.035843141,0.955706835
8.120879,4.195846558,-6.551391602,-0.173469543,0.011054321,-0.038650759,0.956195116
8.121504,4.615463257,-6.375915527,-0.272651672,0.011420532,-0.037307985,0.960345507
8.122130,4.760421753,-6.673461914,-0.158210754,0.013495727,-0.033890016,0.961566210
8.122755,4.691757202,-6.894714355,-0.287910461,0.013251587,-0.039749391,0.966571093
8.123380,4.943527222,-6.864196777,-0.120063782,0.013373657,-0.035721071,0.963885546
8.124006,5.065597534,-6.948120117,-0.181098938,0.015082642,-0.036819704,0.968402147
8.124632,5.103744507,-7.138854980,-0.478645325,0.013861938,-0.032913454,0.968280077
8.125258,4.989303589,-7.161743164,-0.303169250,0.014716431,-0.033890016,0.971575975
8.125885,4.745162964,-7.184631348,-0.211616516,0.016913697,-0.031082399,0.975970507
8.126510,4.913009644,-7.444030762,-0.295539856,0.016303346,-0.029373415,0.975726366
8.127135,4.737533569,-7.505065918,-0.150581360,0.017768189,-0.028030641,0.972552538
8.127761,4.516281128,-7.642395020,-0.127693176,0.020697877,-0.030227907,0.977679491
8.128388,4.615463257,-7.756835938,-0.348945618,0.018012330,-0.030594118,0.983050585
8.129014,4.348434448,-7.718688965,-0.280281067,0.020453736,-0.027542360,0.985614061
8.129639,3.997482300,-7.665283203,-0.066658020,0.020087525,-0.025955446,0.985736132
8.130266,3.570236206,-7.901794434,-0.142951965,0.021552369,-0.021560915,0.988177538
8.130892,3.364242554,-7.947570801,-0.112434387,0.018256471,-0.021072634,0.991961718
8.131517,2.822555542,-7.962829590,-0.074287415,0.019843385,-0.021316774,0.992083788
8.132143,2.570785522,-8.046752930,-0.112434387,0.020942017,-0.021194704,0.995501757
8.132769,1.983322144,-8.039123535,0.017265320,0.020942017,-0.020584352,0.995257616
8.133395,1.540817261,-8.268005371,0.078300476,0.021796510,-0.025467165,0.992327929
8.134020,1.022018433,-8.153564453,0.070671082,0.018500611,-0.025467165,0.987200975
8.134645,0.793136597,-8.283264160,0.002006531,0.019965455,-0.025100954,0.989032030
8.135270,0.510848999,-8.275634766,0.017265320,0.022162721,-0.030227907,0.990496874
8.135897,0.060714722,-8.214599609,0.124076843,0.023383424,-0.028396852,0.992083788
8.136522,-0.168167114,-8.618957520,0.215629578,0.022528931,-0.026687868,0.986102343
8.137149,-0.427566528,-8.329040527,0.452140808,0.021308228,-0.030227907,0.983660936
8.149683,0.465072632,-9.664184570,0.688652039,0.021918580,-0.039871462,0.974139452
8.150330,0.503219604,-9.755737305,0.612358093,0.025092408,-0.040359743,0.973529100
8.150955,0.762619019,-9.877807617,0.612358093,0.021796510,-0.037918337,0.974871874
8.151581,1.029647827,-9.748107910,0.719169617,0.022406861,-0.039016970,0.977923632
8.152208,1.380599976,-9.923583984,0.421623230,0.020575806,-0.038406618,0.979144335
8.152834,1.594223022,-10.015136719,0.536064148,0.026068971,-0.036697634,0.976214647
8.153459,1.945175171,-10.190612793,0.505546570,0.022162721,-0.036087282,0.976702929
8.154086,1.884140015,-9.984619141,0.444511414,0.024237916,-0.033401735,0.978656054
8.154713,2.021469116,-10.297424316,0.345329285,0.026801392,-0.036209352,0.976458788
8.155338,2.113021851,-10.327941895,0.543693542,0.024359986,-0.036087282,0.977435350
8.155964,2.303756714,-10.312683105,0.711540222,0.026068971,-0.038040407,0.975360155
8.156589,2.349533081,-10.282165527,0.467399597,0.024604127,-0.036697634,0.977923632
8.157214,2.471603394,-10.236389160,0.375846863,0.022162721,-0.035476930,0.978411913
8.157841,2.402938843,-10.182983398,0.413993835,0.024604127,-0.032791384,0.979266405
8.158466,2.410568237,-10.671264648,0.459770203,0.022162721,-0.036331423,0.980853319
8.165624,0.968612671,-11.075622559,0.536064148,0.026191041,-0.032181032,0.986712694
8.166250,1.121200562,-11.144287109,0.833610535,0.026679322,-0.030716188,0.988055468
8.166876,1.022018433,-11.411315918,0.749687195,0.027655885,-0.034622438,0.986590624
8.167502,0.915206909,-11.304504395,0.841239929,0.024604127,-0.030838259,0.989032030
8.168128,0.823654175,-11.083251953,0.787834167,0.028388306,-0.027420290,0.988055468
8.168754,0.777877808,-11.296875000,0.742057800,0.031440064,-0.030472048,0.984027147
8.169380,1.022018433,-11.487609863,0.749687195,0.030219361,-0.035721071,0.984149218
8.170007,1.052536011,-11.502868652,0.711540222,0.029975221,-0.036575563,0.984759569
8.170633,1.052536011,-11.472351074,0.604728699,0.027777955,-0.036209352,0.988787889
8.171259,1.136459351,-11.678344727,0.726799011,0.030463502,-0.035721071,0.987323046
8.171886,1.029647827,-11.663085938,0.909904480,0.027655885,-0.035232790,0.987811327
8.172513,1.228012085,-11.518127441,0.551322937,0.025702760,-0.033401735,0.991839647
8.173139,1.395858765,-11.716491699,0.887016296,0.029731080,-0.032303102,0.989276171
8.173766,1.342453003,-11.899597168,0.711540222,0.027900025,-0.033157595,0.989886522
8.174391,1.296676636,-11.869079590,0.764945984,0.027655885,-0.033279665,0.988299608
8.175017,1.670516968,-11.808044434,0.681022644,0.031440064,-0.033890016,0.988055468
8.175642,1.685775757,-11.968261719,0.627616882,0.031073853,-0.031082399,0.988665819
8.176267,1.830734253,-12.006408691,0.505546570,0.029609010,-0.032058962,0.990496874
8.176893,1.861251831,-11.914855957,0.619987488,0.029120728,-0.032181032,0.989764452
8.178590,2.265609741,-12.090332031,0.566581726,0.033026978,-0.034012087,0.991595507
8.179215,2.463973999,-11.975891113,0.642875671,0.036078736,-0.033645876,0.995257616
8.179840,2.677597046,-12.021667480,0.642875671,0.035956666,-0.031936891,0.997088671
8.180465,2.830184937,-12.059814453,0.711540222,0.040839478,-0.031326540,0.997943163
8.181092,3.112472534,-12.036926270,0.536064148,0.037543580,-0.034256227,1.002703905
8.181718,3.173507690,-11.991149902,0.444511414,0.038520142,-0.033890016,1.004290819
8.182343,3.417648315,-12.014038086,0.887016296,0.037055299,-0.034256227,1.004779100
8.182969,3.539718628,-12.067443848,0.185112000,0.036933228,-0.032303102,1.006854296
8.183596,3.493942261,-11.769897461,0.269035339,0.041327760,-0.035110720,1.010394335
8.184222,3.837265015,-11.815673828,0.276664734,0.043647096,-0.036209352,1.006732225
8.184848,3.860153198,-11.548645020,0.574211121,0.044379517,-0.033767946,1.010882616
8.185473,4.233993530,-11.602050781,0.375846863,0.042914674,-0.039871462,1.007952929
8.186099,4.600204468,-11.731750488,0.398735046,0.040229127,-0.042557009,1.011370897
8.186724,4.874862671,-11.655456543,0.413993835,0.042182252,-0.041214235,1.009783983
8.187350,4.981674194,-11.342651367,0.185112000,0.045966431,-0.045120485,1.009906054
8.200011,11.970199585,-8.954650879,0.101188660,0.058783814,-0.022049196,1.056414843
8.200787,12.496627808,-8.741027832,0.017265320,0.063910767,-0.018387087,1.064715624
8.201413,12.672103882,-8.527404785,-0.028511047,0.064154908,-0.018753298,1.066424608
8.202038,12.534774780,-8.222229004,-0.028511047,0.066840455,-0.019485720,1.067401171
8.202663,12.656845093,-8.084899902,-0.318428040,0.071845338,-0.017898805,1.071307421
8.203288,12.855209351,-7.657653809,-0.379463196,0.069526002,-0.016189821,1.073382616
8.203913,12.862838745,-7.260925293,-0.608345032,0.067328736,-0.017898805,1.079241991
8.204539,13.053573608,-7.009155273,-0.570198059,0.071723267,-0.024734743,1.082415819
8.205165,13.404525757,-6.734497070,-0.615974426,0.070746705,-0.025589235,1.080706835
8.205790,13.785995483,-6.337768555,-0.646492004,0.072699830,-0.029495485,1.083880663
8.206416,14.144577026,-5.818969727,-0.989814758,0.069403931,-0.034256227,1.086566210
8.207042,14.312423706,-5.597717285,-0.844856262,0.078070924,-0.038162477,1.088397264
8.207668,15.021957397,-5.536682129,-1.073738098,0.078803346,-0.048782595,1.089617968
8.208293,15.617050171,-4.628784180,-0.875373840,0.074286744,-0.051956423,1.092669725
8.208918,16.082443237,-4.491455078,-0.905891418,0.075263306,-0.059402712,1.097186327
8.209544,16.463912964,-4.109985352,-1.142402649,0.074286744,-0.059768923,1.103900194
8.210170,17.074264526,-3.652221680,-0.959297180,0.080024049,-0.063308962,1.104998827
8.210795,18.005050659,-3.133422852,-1.050849915,0.078437135,-0.063675173,1.114398241
8.211420,18.569625854,-2.706176758,-0.974555969,0.081000611,-0.065384157,1.116961718
8.212046,18.844284058,-2.240783691,-0.883003235,0.082343385,-0.060379274,1.123065233
8.212671,19.271530151,-1.622802734,-0.928779602,0.083442017,-0.055984743,1.130267382
8.213297,19.736923218,-1.226074219,-0.982185364,0.083197877,-0.052200563,1.132952929
8.213924,20.164169312,-0.844604492,-0.646492004,0.083686158,-0.048172243,1.136126757
8.214549,20.179428101,-0.272399902,-0.745674133,0.087226197,-0.049515016,1.141253710
8.215176,20.576156616,0.101440430,-0.760932922,0.086371705,-0.054886110,1.140155077
8.215802,21.117843628,0.620239258,-0.440498352,0.097235963,-0.055496462,1.140277147
8.216429,21.873153687,1.406066895,-0.753303528,0.106025025,-0.057083376,1.134051561
8.217054,22.735275269,2.275817871,-0.493904114,0.102729127,-0.050125368,1.138079882
8.217680,23.246444702,3.084533691,-0.615974426,0.098822877,-0.038040407,1.145648241
8.218305,23.666061401,3.908508301,-0.600715637,0.094062135,-0.020462282,1.150164843
8.218932,23.788131714,4.457824707,-0.783821106,0.087592408,-0.004837282,1.157366991
8.219558,23.551620483,4.633300781,-0.875373840,0.084052369,0.003829710,1.166766405
8.220183,23.399032593,5.106323242,-0.944038391,0.081488892,0.009078734,1.170672655
8.220809,23.132003784,5.442016602,-0.829597473,0.093207642,0.014327757,1.174090624
8.221434,22.849716187,6.159179688,-0.921150208,0.100043580,0.009811155,1.178607225
8.222060,22.628463745,6.937377930,-1.111885071,0.102607056,0.003829710,1.184466600
8.222686,22.803939819,7.929199219,-1.142402649,0.099677369,0.007125609,1.189959764
8.223313,22.445358276,8.776062012,-1.203437805,0.102118775,0.010787718,1.196673632
8.223939,22.208847046,9.569519043,-1.394172668,0.103949830,0.004928343,1.202288866
8.224564,22.361434937,10.607116699,-1.371284485,0.106269166,-0.004471071,1.199847460
8.225191,22.658981323,11.606567383,-1.569648743,0.107367799,-0.010574587,1.196551561
8.225816,22.895492554,12.285583496,-1.500984192,0.100776002,-0.010086305,1.196551561
8.226443,23.200668335,12.819641113,-1.676460266,0.100409791,-0.012527712,1.197772264
8.227068,23.528732300,13.323181152,-1.470466614,0.107489869,-0.011184938,1.194842577
8.227694,23.650802612,14.223449707,-1.600166321,0.108710572,-0.008255251,1.196673632
8.228319,23.605026245,14.696472168,-1.401802063,0.110419556,-0.003982790,1.200457811
8.228944,23.872055054,15.406005859,-1.562019348,0.111884400,-0.002273805,1.209857225
8.229569,23.948348999,16.085021973,-1.562019348,0.115912721,0.009689085,1.214984179
8.230196,24.093307495,16.970031738,-1.928230286,0.110541627,0.014816038,1.228778124
8.242767,20.438827515,30.069702148,-4.835029602,0.069770142,0.015670530,1.210101366
8.243504,20.736373901,30.252807617,-4.781623840,0.053290650,0.012862913,1.228533983
8.244129,21.606124878,30.077331543,-5.010505676,0.058417603,0.021041624,1.230242968
8.244754,21.712936401,30.634277344,-5.628486633,0.086371705,0.022872679,1.210101366
8.245381,21.094955444,32.022827148,-6.849189758,0.103949830,0.012496702,1.195697069
8.246007,20.980514526,33.251159668,-7.566352844,0.091132447,-0.010940798,1.189105272
8.246632,21.491683960,33.922546387,-7.429023743,0.073676392,-0.024856813,1.196673632
8.247257,23.254074097,33.548706055,-7.009407043,0.053290650,-0.052444704,1.210223436
8.247884,25.275863647,32.259338379,-7.009407043,0.055854127,-0.076492555,1.217547655
8.248510,26.725448608,30.855529785,-7.505317688,0.054511353,-0.088211305,1.214740038
8.249137,28.808273315,29.772155762,-8.176704407,0.050849244,-0.091629274,1.224383593
8.249763,30.822433472,29.291503906,-7.940193176,0.046576783,-0.066482790,1.227679491
8.250388,32.294906616,29.100769043,-7.818122864,0.048896119,-0.035599001,1.216693163
8.251014,32.355941772,30.039184570,-7.467170715,0.083686158,-0.025100954,1.213153124
8.251641,32.256759644,31.481140137,-8.092781067,0.084784791,-0.005813845,1.226702929
8.252266,31.287826538,31.717651367,-8.321662903,0.019233033,0.011642210,1.246844530
8.252891,32.111801147,28.398864746,-7.665534973,-0.111748412,0.044112913,1.321795702
8.253518,32.554306030,22.028320312,-6.109138489,-0.115288451,0.010177366,1.322894335
8.254153,33.698715210,10.675781250,-8.306404114,-0.126396850,-0.044021852,1.403216600
8.254780,33.698715210,10.675781250,-8.306404114,-0.126396850,-0.044021852,1.403216600
8.255405,34.835494995,8.196228027,-9.855171204,-0.109673217,-0.048050173,1.389544725
8.256030,34.209884644,7.356994629,-10.587593079,-0.147270873,0.083053343,1.370013475
8.256656,30.006088257,7.646911621,-10.831733704,-0.016655639,0.098922484,1.324847460
8.257281,23.872055054,15.032165527,-15.615364075,0.092231080,0.149093390,1.260394335
8.257907,23.872055054,15.032165527,-15.615364075,0.092231080,0.149093390,1.260394335
8.258533,20.972885132,18.625610352,-13.013740540,0.208808228,0.144332647,1.210589647
8.259160,18.188156128,20.517700195,-14.814277649,0.312079698,0.152877569,1.137103319
8.259786,14.442123413,23.470275879,-16.431709290,0.329413682,0.140548468,1.089251757
8.260413,11.474288940,27.178161621,-15.005012512,0.335028917,0.149825811,1.050067186
8.261040,9.162582397,31.656616211,-11.968513489,0.365058213,0.117721312,1.006610155
8.261667,7.857955933,36.455505371,-10.160346985,0.408393174,0.051437132,0.949481249
8.262293,6.530441284,41.490905762,-9.672065735,0.380927354,0.067428343,0.917620897
8.262919,5.256332397,45.976989746,-9.321113586,0.376654893,0.105514280,0.892962694
8.263545,4.218734741,50.630920410,-9.168525696,0.388495713,0.104659788,0.876727343
8.264170,4.424728394,54.956787109,-7.627388000,0.268378526,0.119186155,0.870867968
8.264795,4.851974487,57.428710938,-5.636116028,0.177924439,0.088424437,0.890765429
8.265421,5.759872437,58.580749512,-5.018135071,0.139106080,0.023483030,0.924578905
8.266047,6.324447632,60.068481445,-6.246467590,0.172675416,0.022384398,0.963153124
8.266673,7.369674683,61.884277344,-8.275886536,0.141425416,0.034713499,0.995257616
8.267298,8.987106323,64.272277832,-8.832832336,0.105414674,0.051559202,1.026507616
8.267923,10.276473999,66.561096191,-8.664985657,0.065863892,0.095992796,1.046283007
8.268549,10.230697632,67.446105957,-8.703132629,-0.008110718,0.128463507,1.064349413
8.269174,8.193649292,66.484802246,-9.046455383,-0.069512084,0.105270140,1.086077929
8.269799,5.668319702,64.897888184,-9.801765442,-0.086479858,0.059615843,1.110125780
8.270426,3.875411987,63.219421387,-10.572334290,-0.095268920,0.028365843,1.133319139
8.271051,2.776779175,61.502807617,-11.251350403,-0.097466186,0.019576780,1.148089647
8.271678,2.319015503,60.037963867,-11.655708313,-0.081474975,0.043014280,1.153460741
8.272303,1.899398804,58.702819824,-12.288948059,-0.045586303,0.079025023,1.149432421
8.286126,11.542953491,60.259216309,-12.533088684,-0.052056029,-0.052078493,0.955706835
8.286882,11.169113159,60.625427246,-12.235542297,-0.089531615,-0.099930055,0.956927538
8.287508,9.551681519,61.212890625,-10.656257629,-0.235405639,0.007613890,0.894671679
8.288133,2.738632202,56.368225098,-9.580513000,-0.488091201,0.238448858,0.737200975
8.288760,-10.933242798,42.673461914,-8.993049622,-0.714287460,0.405807257,0.539324999
8.289385,-28.816543579,24.340026855,-7.200141907,-0.818779647,0.385787725,0.359149218
8.290011,-45.280776978,7.700317383,-4.186531067,-0.807671249,0.271774054,0.191058397
8.290637,-58.426223755,-3.957397461,-2.523323059,-0.699028671,0.131149054,0.029437304
8.291263,-66.833816528,-10.221130371,-2.736946106,-0.570976913,0.031295530,-0.142803907
8.291888,-70.190750122,-12.502319336,-4.423042297,-0.451103896,-0.015091188,-0.315899611
8.292514,-69.885574341,-11.548645020,-6.269355774,-0.366387099,-0.048904665,-0.462383986
8.293140,-66.315017700,-9.702331543,-8.207221985,-0.289360732,-0.149002314,-0.582867384
8.293766,-59.158645630,-7.169372559,-9.611030579,-0.210503295,-0.271194696,-0.691754103
8.294391,-49.278579712,-4.705078125,-11.266609192,-0.144829467,-0.356155634,-0.753521681
8.295018,-38.177810669,-2.980834961,-12.189765930,-0.112969115,-0.422073603,-0.770245314
8.295643,-25.955520630,-2.629882812,-11.571784973,-0.067192748,-0.504104853,-0.742169142
8.296268,-11.871658325,-3.301269531,-10.312934875,-0.003349976,-0.557571650,-0.670391798
8.296895,4.264511108,-3.690368652,-8.817573547,0.101264283,-0.569900751,-0.530377150
8.297520,21.690048218,-2.507812500,-7.863899231,0.154486939,-0.566482782,-0.372418165
8.298146,38.856185913,-0.821716309,-7.131477356,0.159003541,-0.538040400,-0.193341017
8.298772,53.352035522,2.413146973,-6.536384583,0.135688111,-0.492386103,-0.009503126
8.299399,63.605941772,5.312316895,-6.093879700,0.074652955,-0.446731806,0.163836718
8.300031,69.015182495,7.326477051,-6.070991516,-0.004936890,-0.423172235,0.346331835
8.300658,70.533432007,9.424560547,-6.048103333,-0.059624389,-0.400345087,0.533587694
8.301283,69.427169800,11.247985840,-5.201240540,-0.097344115,-0.344436884,0.720843554
8.301908,66.123641968,12.316101074,-3.614326477,-0.123711303,-0.259964228,0.902850389
8.302533,61.607040405,11.804931641,-2.294441223,-0.117485717,-0.178665400,1.073992968
8.303159,57.273544312,9.096496582,-1.325508118,-0.120781615,-0.076858766,1.224993944
8.303784,52.726425171,4.518859863,-0.715156555,-0.106133178,0.054366820,1.377581835
8.304410,47.195114136,-0.081665039,1.016716003,-0.063408569,0.121749632,1.519793749
8.305037,41.167892456,-3.583557129,2.161125183,-0.051323608,0.152145147,1.625140429
8.305663,35.285629272,-6.787902832,3.015617371,-0.063530639,0.110275023,1.695574999
8.306288,29.433883667,-8.817321777,3.351310730,-0.103813842,0.058395140,1.749163866
8.306914,22.704757690,-10.831481934,3.732780457,-0.162529662,0.017013304,1.763446093
8.307540,15.670455933,-13.188964844,3.419975281,-0.221611694,0.005660765,1.752215624
8.308165,8.788742065,-16.736633301,3.152946472,-0.247124389,0.001266234,1.723407030
8.308790,2.776779175,-20.833618164,3.244499207,-0.236748412,0.025192015,1.688128710
8.309415,-1.198135376,-25.136596680,2.779106140,-0.196221069,0.019088499,1.649432421
8.310040,-2.647720337,-28.875000000,2.374748230,-0.130181029,-0.004471071,1.604876757
8.310666,-1.877151489,-31.118041992,1.566032410,-0.054863647,-0.035721071,1.555804491
8.311291,0.411666870,-31.530029297,0.658134460,0.015204712,-0.058304079,1.503436327
8.311917,2.967514038,-30.843383789,-0.265022278,0.077460572,-0.072830446,1.439471483
8.312542,5.714096069,-28.859741211,-0.730415344,0.135199830,-0.082474001,1.367572069
8.313169,8.041061401,-26.090270996,-0.600715637,0.180121705,-0.073807009,1.290423632
8.313796,9.528793335,-23.198730469,-0.425239563,0.216864869,-0.064407595,1.215960741
8.314421,10.230697632,-20.009643555,0.261405945,0.248359010,-0.038162477,1.150897264
8.315047,10.116256714,-16.751892090,1.146415710,0.266059190,-0.020462282,1.099383593
8.315672,9.391464233,-13.532287598,2.397636414,0.271064073,-0.005813845,1.055072069
8.328231,-6.477676392,-11.838562012,4.655937195,-0.026177123,-0.083450563,0.737933397
8.328953,-5.249343872,-11.754638672,4.655937195,0.008734985,-0.087600954,0.752703905
8.329580,-3.235183716,-11.190063477,5.090812683,0.039984986,-0.087356813,0.773822069
8.330207,-1.030288696,-10.297424316,5.266288757,0.065375611,-0.080520876,0.799212694
8.330832,0.709213257,-9.473449707,5.617240906,0.091742799,-0.069412477,0.832782030
8.331459,2.914108276,-8.161193848,5.601982117,0.104804322,-0.060745485,0.869891405
8.332084,5.355514526,-6.589538574,5.846122742,0.118842408,-0.053665407,0.916644335
8.332709,7.766403198,-5.040771484,5.838493347,0.127143189,-0.052932985,0.967913866
8.333335,9.856857300,-3.553039551,6.044487000,0.132514283,-0.052444704,1.029315233
8.333960,11.733688354,-1.577026367,6.342033386,0.135443971,-0.055374391,1.091204882
8.334585,13.427413940,0.612609863,6.189445496,0.135443971,-0.064285524,1.162005663
8.335210,15.220321655,2.924316406,6.181816101,0.138373658,-0.069778688,1.232684374
8.335835,16.990341187,5.312316895,6.029228210,0.142035767,-0.075760134,1.308001757
8.336460,18.272079468,7.311218262,5.777458191,0.139960572,-0.070877321,1.385882616
8.337085,19.805587769,9.233825684,5.556205750,0.146430299,-0.059036501,1.457171679
8.337710,21.125473022,10.774963379,5.586723328,0.151191041,-0.047928102,1.527606249
8.338336,22.704757690,12.148254395,5.098442078,0.153144166,-0.038284548,1.596331835
8.338963,23.818649292,13.231628418,5.151847839,0.161567017,-0.025955446,1.655291796
8.339589,24.474777222,14.078491211,5.281547546,0.157782838,-0.013382204,1.714129686
8.340214,24.749435425,14.955871582,5.273918152,0.155219361,-0.002640016,1.762713671
8.340839,24.177230835,15.993469238,5.174736023,0.151557252,0.012862913,1.802874804
8.341466,22.941268921,16.992919922,5.113700867,0.144233033,0.027511351,1.829852343
8.342091,21.163619995,17.832153320,5.121330261,0.140815064,0.044234984,1.852557421
8.342716,18.806137085,18.740051270,5.060295105,0.138251588,0.054122679,1.863299608
8.343341,16.173995972,19.686096191,5.029777527,0.129218385,0.055587523,1.867083788
8.343968,13.259567261,20.746582031,4.770378113,0.111884400,0.060104124,1.851092577
8.344594,10.268844604,21.494262695,5.212882996,0.072333619,0.084029905,1.813128710
8.345219,6.286300659,20.983093262,5.685905457,0.000678345,0.159347296,1.739764452
8.345846,1.128829956,18.083923340,5.823234558,-0.089897826,0.241134405,1.629290819
8.346472,-13.038955688,7.242553711,6.029228210,-0.217583373,0.265670538,1.374408007
8.347098,-20.599685669,2.207153320,6.090263367,-0.251763076,0.214278936,1.230731249
8.347723,-27.771316528,-1.584655762,6.006340027,-0.267510146,0.174117804,1.085955858
8.348349,-34.469924927,-4.079467773,5.647758484,-0.254570693,0.136642218,0.929705858
8.348976,-40.146194458,-5.292541504,4.251579285,-0.236504272,0.127486944,0.757586718
8.349602,-44.258438110,-6.055480957,3.809074402,-0.204765990,0.133590460,0.582904100
8.350228,-47.355972290,-6.627685547,3.679374695,-0.151665404,0.131271124,0.415423632
8.350854,-48.607192993,-6.780273438,3.458122253,-0.090141967,0.124679320,0.262347460
8.351479,-47.478042603,-7.199890137,3.313163757,-0.038262084,0.103072874,0.122699022
8.352104,-44.655166626,-7.154113770,3.213981628,0.014228149,0.069015257,0.010882616
8.352731,-40.199600220,-6.482727051,3.358940125,0.055854127,0.020065062,-0.073223829
8.353357,-33.539138794,-5.155212402,3.519157410,0.087470338,-0.025833376,-0.127789259
8.353984,-26.054702759,-2.828247070,3.740409851,0.110907838,-0.064041384,-0.148052931
8.354610,-17.692886353,0.452392578,3.664115906,0.113227174,-0.085525759,-0.141216993
8.355237,-9.216629028,3.778808594,3.473381042,0.094550416,-0.087967165,-0.105328321
8.355863,-1.640640259,7.128112793,2.794364929,0.073798463,-0.080887087,-0.041485548
8.356488,4.943527222,10.164611816,2.466300964,0.034369752,-0.074539430,0.036761522
8.357114,10.528244019,12.392395020,1.939872742,-0.003349976,-0.069656618,0.133074999
8.357740,15.067733765,14.002197266,1.741508484,-0.039726928,-0.063308962,0.248675585
8.358366,18.691696167,14.414184570,1.443962097,-0.069878295,-0.036697634,0.368426561
8.370990,13.106979370,-17.972595215,-1.455207825,0.121405885,-0.053787477,1.213275194
8.371755,14.548934937,-16.278869629,-1.325508118,0.139838502,-0.041214235,1.195697069
8.372381,15.609420776,-14.386779785,-0.883003235,0.145087525,-0.026443727,1.181658983
8.373008,15.823043823,-12.242919922,-0.501533508,0.142890260,-0.006180055,1.167620897
8.373633,15.365280151,-9.992248535,-0.173469543,0.137152955,0.015060179,1.162249804
8.374258,14.442123413,-8.046752930,0.131706238,0.123481080,0.036178343,1.152850389
8.374885,12.824691772,-6.421691895,0.711540222,0.102973267,0.051070921,1.143817186
8.375511,10.741867065,-5.361206055,1.161674500,0.074042603,0.069991820,1.132220507
8.376138,8.384384155,-4.476196289,1.375297546,0.041571900,0.078292601,1.121478319
8.376765,5.576766968,-4.560119629,1.810173035,0.008612915,0.090499632,1.108294725
8.377391,2.807296753,-4.674560547,1.993278503,-0.028130248,0.096359007,1.086077929
8.378016,-0.091873169,-5.422241211,2.069572449,-0.059746459,0.096359007,1.064593554
8.378641,-2.655349731,-6.665832520,2.107719421,-0.084160522,0.083663695,1.037005663
8.379266,-4.906021118,-7.573730469,2.176383972,-0.100029662,0.066573851,1.012103319
8.379891,-6.981216431,-8.618957520,1.955131531,-0.111260131,0.043380491,0.981707811
8.380517,-8.690200806,-9.328491211,1.520256042,-0.110771850,0.027389280,0.952166796
8.381143,-9.918533325,-9.961730957,1.276115417,-0.111260131,0.009933226,0.917132616
8.381769,-10.765396118,-10.686523438,0.932792664,-0.102837279,0.002242796,0.884295702
8.382396,-11.116348267,-11.472351074,0.833610535,-0.088188842,-0.007400759,0.850726366
8.383029,-10.956130981,-12.021667480,0.749687195,-0.072075561,-0.021682985,0.823870897
8.383654,-10.895095825,-12.311584473,0.894645691,-0.049492553,-0.033401735,0.798358202
8.384281,-10.170303345,-12.601501465,1.077751160,-0.028252319,-0.035721071,0.773944139
8.384906,-9.559951782,-12.433654785,1.245597839,-0.004326538,-0.038162477,0.757708788
8.386620,-6.065689087,-11.251098633,2.122978210,0.050238892,-0.023269899,0.742205858
8.387246,-4.959426880,-10.434753418,2.328971863,0.065863892,-0.018997438,0.754657030
8.387871,-3.090225220,-9.153015137,2.679924011,0.080268189,-0.022415407,0.776019335
8.388497,-1.228652954,-7.451660156,2.596000671,0.089911744,-0.023636110,0.807025194
8.389123,0.388778687,-5.788452148,3.015617371,0.095526978,-0.022537477,0.842425585
8.389749,2.021469116,-4.003173828,2.863029480,0.093207642,-0.016678102,0.884539843
8.390375,3.196395874,-2.248413086,3.145317078,0.091986939,-0.013015993,0.937518358
8.391001,4.363693237,-0.615722656,2.878288269,0.087592408,-0.016067751,0.992816210
8.391627,5.859054565,0.780456543,2.946952820,0.087470338,-0.018020876,1.052630663
8.392252,6.988204956,2.123229980,2.779106140,0.082099244,-0.023514040,1.112689257
8.392877,8.285202026,3.336303711,2.618888855,0.079413697,-0.036941774,1.175677538
8.393503,9.536422729,4.167907715,2.260307312,0.073676392,-0.036819704,1.233905077
8.394130,10.863937378,5.129211426,2.122978210,0.065619752,-0.036453493,1.291400194
8.394755,11.634506226,5.312316895,1.955131531,0.060004517,-0.034988649,1.343646288
8.395382,12.504257202,5.487792969,1.688102722,0.056464478,-0.027908571,1.391131639
8.396008,13.038314819,5.419128418,1.703361511,0.053168580,-0.019241579,1.431292772
8.396633,13.656295776,5.159729004,1.634696960,0.057196900,-0.015213259,1.464617968
8.397259,13.541854858,5.022399902,1.535514832,0.050727174,-0.003006227,1.492572069
8.397886,13.450302124,4.534118652,1.451591492,0.056830689,0.013351195,1.513568163
8.398512,13.168014526,4.305236816,1.093009949,0.061469361,0.023849241,1.527972460
8.399139,12.588180542,4.228942871,0.955680847,0.068061158,0.036056273,1.536395311
8.399765,12.061752319,4.083984375,0.841239929,0.074286744,0.040328734,1.537982225
8.400390,11.230148315,4.434936523,0.543693542,0.081733033,0.048263304,1.529193163
8.401016,10.390914917,5.228393555,0.314811707,0.090033814,0.054733030,1.522601366
8.401643,9.086288452,5.945556641,0.185112000,0.091132447,0.062911741,1.509417772
8.402270,7.873214722,6.731384277,-0.181098938,0.098090455,0.069137327,1.489276171
8.421466,24.314559937,7.372253418,-1.981636047,0.059394166,-0.082474001,0.695452929
8.422221,25.809921265,7.852905273,-1.378913879,0.043402955,-0.055740602,0.810443163
8.422847,26.145614624,8.005493164,-1.218696594,0.034003541,-0.033157595,0.924823046
8.423472,25.359786987,8.089416504,-0.791450500,0.016547486,-0.018265016,1.034442186
8.424097,24.146713257,7.608764648,-0.463386536,0.005683227,-0.009842165,1.139300585
8.424723,22.201217651,7.074707031,-0.234504700,-0.014580444,-0.008377321,1.234027147
8.425348,20.774520874,6.273620605,-0.257392883,-0.036675170,-0.000320680,1.316424608
8.425974,18.478073120,4.785888672,0.131706238,-0.063042358,-0.006424196,1.381732225
8.426600,16.364730835,2.733581543,0.009635925,-0.081597045,-0.009842165,1.430072069
8.427226,14.289535522,0.254028320,0.154594421,-0.099663451,-0.013382204,1.464740038
8.427852,12.115158081,-1.958496094,-0.188728333,-0.107475951,-0.009842165,1.483660936
8.428479,10.200180054,-4.674560547,-0.303169250,-0.113945678,-0.002640016,1.493670702
8.429104,8.102096558,-7.184631348,-0.387092590,-0.116509154,0.004562132,1.489886522
8.429730,6.156600952,-10.060913086,-0.646492004,-0.110283569,0.015182249,1.469256639
8.430356,4.455245972,-12.288696289,-0.944038391,-0.098442748,0.017379515,1.436175585
8.430981,3.142990112,-14.623291016,-1.195808411,-0.080986694,0.014327757,1.395404100
8.431608,2.525009155,-16.400939941,-1.676460266,-0.058037475,0.010177366,1.345721483
8.432233,1.792587280,-17.507202148,-2.012153625,-0.034599975,0.010543577,1.289324999
8.432858,1.174606323,-18.178588867,-2.088447571,-0.008232788,0.015060179,1.227557421
8.433485,0.800765991,-17.942077637,-2.439399719,0.023505494,0.011153929,1.162371874
8.434110,0.770248413,-17.430908203,-2.324958801,0.056708619,0.009322874,1.099871874
8.434736,0.617660522,-16.004211426,-2.469917297,0.086737916,0.004440062,1.039813280
8.435361,0.617660522,-14.081604004,-1.996894836,0.113593385,0.004195921,0.985125780
8.435987,0.571884155,-12.090332031,-1.981636047,0.140815064,0.009322874,0.938250780
8.436613,0.236190796,-9.458190918,-1.531501770,0.156195924,0.015304320,0.899920702
8.437239,0.022567749,-7.154113770,-0.921150208,0.165595338,0.019332640,0.869281054
8.437864,-0.671707153,-4.766113281,-0.432868958,0.167426392,0.023727171,0.849261522
8.438490,-0.900588989,-2.439147949,0.169853210,0.163276002,0.027633421,0.835101366
8.439116,-1.144729614,-0.348693848,1.024345398,0.147284791,0.026900999,0.829486132
8.439743,-1.549087524,1.779907227,1.360038757,0.118720338,0.026656859,0.832782030
8.440370,-2.189956665,3.015869141,1.894096375,0.090277955,0.028732054,0.846209764
8.440996,-2.418838501,4.305236816,2.382377625,0.055732056,0.026534788,0.856097460
8.441623,-2.731643677,5.052917480,2.519706726,0.026557252,0.025192015,0.875506639
8.442249,-3.219924927,5.503051758,2.527336121,-0.004570679,0.023849241,0.897113085
8.442874,-3.647171021,5.609863281,2.466300964,-0.033989623,0.021774046,0.917254686
8.443500,-3.830276489,5.129211426,2.214530945,-0.059502319,0.023727171,0.942523241
8.444127,-4.143081665,4.618041992,1.840690613,-0.081719115,0.019820921,0.959735155
8.444752,-4.677139282,3.496520996,1.489738464,-0.096245483,0.016769163,0.979998827
8.445378,-5.333267212,2.375000000,1.062492371,-0.102471069,0.011520140,0.996966600
8.446004,-5.478225708,1.207702637,0.902275085,-0.102104858,0.003341429,1.008563280
8.446630,-5.905471802,-0.104553223,0.421623230,-0.095635131,-0.002395876,1.013934374
8.447256,-6.172500610,-1.279479980,-0.219245911,-0.082329467,-0.015091188,1.022479296
8.447881,-6.264053345,-2.660400391,-0.409980774,-0.066338256,-0.023391970,1.027484179
8.448507,-5.905471802,-3.697998047,-0.471015930,-0.047295287,-0.037796266,1.029559374
8.449133,-5.600296021,-4.254943848,-0.600715637,-0.021294311,-0.044632204,1.027850389
8.449758,-4.997573853,-4.933959961,-0.799079895,0.006659790,-0.044265993,1.027117968
8.450384,-4.158340454,-4.789001465,-0.806709290,0.028266236,-0.052688845,1.024554491
8.451009,-3.143630981,-4.796630859,-0.638862610,0.051459596,-0.055130251,1.023211718
8.463630,4.920639038,6.739013672,0.192741394,-0.022637084,0.019332640,1.247210741
8.464382,1.014389038,4.602783203,0.169853210,-0.045098022,0.039718382,1.187518358
8.465008,-1.083694458,3.260009766,0.352958679,-0.062920287,0.057906859,1.147479296
8.465635,-3.036819458,1.512878418,0.169853210,-0.074028686,0.073165648,1.100116014
8.466260,-5.348526001,-0.074035645,0.192741394,-0.078911498,0.076095335,1.044574022
8.466885,-7.301651001,-1.302368164,0.215629578,-0.075615600,0.067550413,0.994158983
8.467510,-9.216629028,-2.339965820,-0.089546204,-0.071587279,0.049606077,0.934222460
8.468137,-11.375747681,-2.660400391,-0.181098938,-0.062554076,0.029830687,0.878558397
8.468764,-12.657485962,-2.393371582,-0.318428040,-0.047661498,0.007613890,0.825213671
8.469391,-13.435684204,-1.989013672,-0.638862610,-0.030449584,-0.003250368,0.775531054
8.470016,-13.786636353,-1.584655762,-0.577827454,-0.013725952,-0.011429079,0.732562304
8.470642,-13.229690552,-0.836975098,-0.364204407,0.011298462,-0.021805055,0.688494921
8.471268,-12.443862915,-0.173217773,-0.463386536,0.032050416,-0.028152712,0.659564257
8.471894,-10.765396118,-0.203735352,-0.196357727,0.048651978,-0.033767946,0.640887499
8.472519,-8.697830200,0.490539551,0.291923523,0.059150025,-0.035843141,0.625018358
8.473144,-6.386123657,1.123779297,0.787834167,0.063910767,-0.040848024,0.625994921
8.473770,-4.211746216,2.130859375,1.031974792,0.065985963,-0.040237673,0.634783983
8.474396,-1.961074829,3.000610352,1.222709656,0.062079713,-0.040481813,0.658221483
8.475029,-0.328384399,4.122131348,1.291374207,0.053656861,-0.038528688,0.683123827
8.475656,1.365341187,5.808227539,1.306632996,0.045966431,-0.037674196,0.719500780
8.476281,2.784408569,6.784790039,1.665214539,0.031073853,-0.032913454,0.764300585
8.476906,3.852523804,7.822387695,1.306632996,0.011054321,-0.022781618,0.813128710
8.477532,4.737533569,8.104675293,1.405815125,-0.004936890,-0.016067751,0.858905077
8.478157,5.256332397,8.028381348,1.138786316,-0.023125365,-0.009842165,0.910174608
8.478782,5.172409058,7.204406738,0.948051453,-0.035698608,-0.007889040,0.956195116
8.479409,5.340255737,6.479614258,1.161674500,-0.055351928,-0.005447634,1.002948046
8.480034,4.981674194,5.503051758,0.612358093,-0.059868529,-0.005691774,1.041644335
8.480660,4.684127808,4.045837402,0.589469910,-0.069878295,-0.005691774,1.076800585
8.481285,4.233993530,2.695434570,0.177482605,-0.072319701,-0.007400759,1.104632616
8.481910,3.707565308,1.116149902,0.017265320,-0.076225951,-0.008011110,1.121844530
8.482536,3.348983765,-0.180847168,-0.242134094,-0.072441772,-0.018875368,1.135394335
8.483162,2.708114624,-1.477844238,-0.516792297,-0.064385131,-0.021072634,1.143573046
8.483787,2.402938843,-2.790100098,-0.409980774,-0.056328490,-0.026932009,1.143328905
8.484414,2.372421265,-3.926879883,-0.928779602,-0.043266967,-0.030472048,1.139666796
8.485041,2.319015503,-5.033142090,-0.974555969,-0.033257201,-0.035476930,1.131488085
8.486751,2.517379761,-6.459838867,-0.913520813,-0.000908569,-0.037674196,1.099383593
8.487376,2.639450073,-6.795532227,-0.974555969,0.014716431,-0.037796266,1.084613085
8.488002,2.982772827,-6.963378906,-0.814338684,0.028998658,-0.032913454,1.064837694
8.488627,3.425277710,-6.742126465,-0.921150208,0.041693971,-0.031082399,1.048846483
8.489253,3.631271362,-6.665832520,-0.478645325,0.054267213,-0.023391970,1.027240038
8.489880,4.089035034,-5.788452148,-0.318428040,0.061591431,-0.020706423,1.014544725
8.490506,4.317916870,-5.010253906,-0.425239563,0.068671510,-0.017044313,1.004168749
8.491131,4.485763550,-4.193908691,-0.127693176,0.074652955,-0.009598024,0.992572069
8.491757,4.745162964,-3.171569824,0.276664734,0.073310181,-0.004349001,0.983050585
8.492383,4.714645386,-2.225524902,0.177482605,0.072577760,-0.001297243,0.976947069
8.493010,4.676498413,-1.714355469,0.375846863,0.063300416,0.003341429,0.972674608
8.493636,4.371322632,-0.745422363,0.665763855,0.056464478,0.008346312,0.968768358
8.494263,4.058517456,-0.043518066,0.925163269,0.048285767,0.011886351,0.972552538
8.494889,3.692306519,0.482910156,0.887016296,0.036689088,0.013107054,0.974871874
8.507682,-0.961624146,2.169006348,1.276115417,0.035102174,-0.018875368,1.033587694
8.508372,-0.496231079,2.458923340,1.436332703,0.029853150,-0.020340212,1.038104296
8.508997,-0.450454712,2.519958496,1.337150574,0.024848267,-0.020584352,1.045794725
8.509623,-0.023208618,2.748840332,1.398185730,0.019721314,-0.020096071,1.048602343
8.510249,0.251449585,2.802246094,1.550773621,0.013373657,-0.019974001,1.050555468
8.510875,0.343002319,2.863281250,1.398185730,0.001288696,-0.022781618,1.050433397
8.511500,0.663436890,2.733581543,1.314262390,-0.001640991,-0.017166384,1.049212694
8.512126,0.922836304,2.382629395,1.451591492,-0.010185913,-0.016678102,1.052630663
8.512752,1.022018433,2.336853027,1.276115417,-0.013603882,-0.018020876,1.051043749
8.513377,1.372970581,1.703613281,1.138786316,-0.017388061,-0.016433962,1.052630663
8.514004,1.487411499,1.329772949,1.070121765,-0.018486694,-0.014602907,1.047381639
8.514629,1.571334839,0.978820801,0.970939636,-0.017510131,-0.012527712,1.039080858
8.515254,1.769699097,0.475280762,0.818351746,-0.019829467,-0.010696657,1.028949022
8.515881,2.051986694,0.200622559,0.879386902,-0.017632201,-0.007034548,1.026507616
8.516507,1.708663940,-0.417358398,0.711540222,-0.015190796,-0.007156618,1.013934374
8.517133,1.937545776,-0.554687500,0.764945984,-0.009209351,-0.005935915,1.006976366
8.517760,1.929916382,-0.730163574,0.574211121,-0.006157593,0.000777952,0.999041796
8.518386,2.235092163,-1.012451172,0.619987488,0.001532837,0.003707640,0.988665819
8.519013,2.082504272,-0.859863281,0.658134460,0.005927368,0.006149046,0.976947069
8.519638,2.059616089,-0.745422363,0.490287781,0.013617798,0.010909788,0.969989061
8.520263,2.105392456,-0.852233887,0.406364441,0.018622681,0.014449827,0.964862108
8.520889,2.090133667,-0.280029297,0.597099304,0.021552369,0.012618773,0.956195116
8.521514,1.937545776,-0.089294434,0.742057800,0.023383424,0.016647093,0.953387499
8.522139,1.701034546,0.170104980,0.520805359,0.025092408,0.016525023,0.948870897
8.522765,1.739181519,0.757568359,0.703910828,0.025092408,0.015182249,0.945208788
8.523392,1.556076050,1.474731445,0.948051453,0.025214478,0.014938109,0.945697069
8.524018,1.342453003,1.566284180,0.848869324,0.019843385,0.019820921,0.951922655
8.524643,0.892318726,2.031677246,0.864128113,0.019110963,0.019820921,0.953509569
8.525270,1.006759644,2.359741211,0.925163269,0.011786743,0.018600218,0.958148241
8.525897,0.602401733,2.405517578,0.902275085,0.006781860,0.015304320,0.965350389
8.526522,0.419296265,2.794616699,1.146415710,0.002387329,0.017257445,0.969622850
8.527147,0.060714722,2.947204590,0.879386902,-0.004692749,0.016158812,0.973529100
8.527774,-0.099502563,2.748840332,0.963310242,-0.011894898,0.018111937,0.979266405
8.528400,-0.397048950,2.580993652,0.803092957,-0.019341186,0.014816038,0.986712694
8.529031,-0.740371704,2.336853027,0.726799011,-0.022515014,0.016280882,0.988543749
8.529656,-0.953994751,2.054565430,0.818351746,-0.025200561,0.013351195,0.992449999
8.530282,-1.274429321,1.741760254,0.688652039,-0.028130248,0.012862913,0.997943163
8.530907,-1.381240845,1.314514160,0.681022644,-0.029961303,0.009933226,0.997821093
8.531534,-1.549087524,1.222961426,0.497917175,-0.030693725,0.007125609,0.994769335
8.532160,-1.755081177,0.757568359,0.551322937,-0.032646850,0.006759398,0.992572069
8.532787,-1.831375122,0.307434082,0.490287781,-0.028496459,0.005904905,0.990008593
8.533414,-2.052627563,-0.119812012,0.368217468,-0.024101928,0.001510374,0.984759569
8.534040,-2.197586060,-0.287658691,0.383476257,-0.021660522,-0.002029665,0.975482225
8.534665,-1.846633911,-0.371582031,0.337699890,-0.018120483,-0.003006227,0.977069139
8.535290,-1.846633911,-1.042968750,0.215629578,-0.018364623,-0.004593141,0.970233202
8.535915,-1.945816040,-1.096374512,0.322441101,-0.012993530,-0.006790407,0.965960741
8.536540,-1.457534790,-1.042968750,0.406364441,-0.012383179,-0.012893923,0.961077929
8.537166,-0.984512329,-1.294738770,0.238517761,-0.008476929,-0.012405641,0.956561327
8.537791,-0.839553833,-1.309997559,0.436882019,-0.007012085,-0.013138063,0.952288866
8.538417,-0.427566528,-1.104003906,0.314811707,-0.006767944,-0.014602907,0.949603319
8.550947,2.547897339,-0.516540527,1.047233582,0.006049438,0.002486937,1.061175585
8.551684,1.662887573,-0.417358398,0.963310242,0.011176392,-0.000442751,1.065936327
8.552309,1.426376343,-0.348693848,1.108268738,0.016059205,0.000777952,1.068866014
8.552936,1.083053589,-0.112182617,0.978569031,0.016669556,-0.000198610,1.069110155
8.553562,0.831283569,-0.028259277,1.039604187,0.015692994,0.001144163,1.069720507
8.554188,0.632919312,0.269287109,1.314262390,0.017401978,0.000411741,1.066424608
8.554815,0.335372925,0.421875000,1.291374207,0.015570923,-0.000198610,1.063372850
8.555441,0.045455933,0.498168945,1.504997253,0.015326782,-0.001785524,1.063372850
8.556066,-0.160537720,0.948303223,1.680473328,0.013617798,-0.000076540,1.059710741
8.556692,-0.465713501,1.016967773,1.581291199,0.012885376,-0.000320680,1.048236132
8.557318,-0.778518677,0.948303223,1.756767273,0.010443970,-0.000808962,1.043841600
8.557943,-1.076065063,1.085632324,1.741508484,0.004218384,0.001266234,1.037249804
8.558568,-1.144729614,1.177185059,1.634696960,-0.001518921,0.004195921,1.028704882
8.559194,-1.228652954,1.078002930,1.688102722,-0.002739624,0.005660765,1.023089647
8.559819,-1.121841431,0.833862305,1.710990906,-0.007622437,0.004928343,1.012957811
8.560445,-1.541458130,1.177185059,1.710990906,-0.009209351,0.002853148,1.005267382
8.561070,-1.571975708,0.788085938,1.932243347,-0.014336304,0.002120726,0.995013475
8.561695,-1.373611450,1.009338379,1.840690613,-0.016167358,0.001144163,0.988543749
8.562320,-1.335464478,1.009338379,1.993278503,-0.013481812,-0.002517946,0.977557421
8.562946,-1.312576294,0.810974121,1.863578796,-0.012871460,-0.001419313,0.970233202
8.563572,-1.274429321,0.749938965,1.779655457,-0.012139038,-0.002151735,0.958636522
8.564198,-1.083694458,0.635498047,1.802543640,-0.011406616,-0.003738649,0.953265429
8.564823,-0.778518677,0.635498047,1.886466980,-0.009697632,-0.001907595,0.945452929
8.565450,-0.435195923,0.795715332,1.649955750,-0.008476929,0.001632445,0.947894335
8.566076,-0.091873169,0.604980469,1.947502136,-0.006890015,-0.000198610,0.941546679
8.566701,0.182785034,0.727050781,2.084831238,-0.007744507,-0.002395876,0.942279100
8.567326,0.411666870,0.528686523,2.000907898,-0.004692749,0.000045530,0.941424608
8.567952,0.762619019,0.490539551,1.825431824,-0.004692749,0.004317991,0.938983202
8.568578,1.014389038,0.727050781,2.100090027,-0.003227905,0.003219359,0.940936327
8.569203,1.357711792,0.620239258,1.939872742,-0.006279663,0.004928343,0.944598436
8.569829,1.556076050,0.627868652,2.084831238,-0.005913452,0.007369749,0.949481249
8.570455,1.845993042,0.994079590,2.138237000,-0.003472046,0.007613890,0.956805468
8.571081,2.204574585,1.093261719,1.985649109,-0.001763062,0.010909788,0.961932421
8.571706,2.189315796,1.230590820,1.916984558,-0.003105835,0.012740843,0.975116014
8.572331,2.555526733,1.268737793,1.970390320,-0.000176148,0.012862913,0.984027147
8.572957,2.517379761,1.406066895,1.932243347,0.000678345,0.015792601,0.994891405
8.573583,2.463973999,1.543395996,1.787284851,0.003363892,0.013229124,1.002825975
8.574209,2.578414917,1.314514160,1.878837585,0.000678345,0.019088499,1.015155077
8.574834,2.319015503,1.360290527,1.863578796,0.000067993,0.015548460,1.025531054
8.575460,2.456344604,1.467102051,1.733879089,-0.001640991,0.013595335,1.034320116
8.576085,1.891769409,1.428955078,1.855949402,-0.004936890,0.009567015,1.043719530
8.576711,1.540817261,1.367919922,1.894096375,-0.009209351,0.007735960,1.047259569
8.577338,1.235641479,1.215332031,1.703361511,-0.015679076,0.008956663,1.052996874
8.577963,0.915206909,1.009338379,1.741508484,-0.013115601,0.009689085,1.056781054
8.578590,0.793136597,0.986450195,1.978019714,-0.008721069,0.012740843,1.059588671
8.579216,0.548995972,0.902526855,1.718620300,-0.009697632,0.010177366,1.061053514
8.579842,0.411666870,0.742309570,1.482109070,-0.011406616,0.015914671,1.058612108
8.580467,0.457443237,0.345581055,1.321891785,-0.008721069,0.016036741,1.058001757
8.581093,0.289596558,-0.005371094,1.436332703,-0.008354858,0.014083616,1.055682421
8.594812,1.235641479,-0.699645996,0.963310242,-0.014092163,0.009933226,0.913470507
8.595466,1.319564819,-0.745422363,0.818351746,-0.015801147,0.009078734,0.918841600
8.596091,1.479782104,-0.562316895,1.047233582,-0.011650757,0.008956663,0.925067186
8.596716,1.693405151,-0.882751465,0.894645691,-0.010674194,0.007858030,0.937030077
8.597341,1.891769409,-0.676757812,0.810722351,-0.008476929,0.006149046,0.950701952
8.597968,1.922286987,-0.592834473,0.719169617,-0.004570679,0.009444945,0.958148241
8.598595,2.105392456,-0.508911133,0.948051453,-0.001274780,0.004440062,0.973895311
8.599221,2.006210327,-0.356323242,0.497917175,0.002631470,0.006881468,0.986346483
8.599846,2.059616089,-0.180847168,0.955680847,0.002509399,0.005294554,0.998553514
8.600472,1.998580933,-0.325805664,0.856498718,0.002631470,0.005782835,1.009661913
8.601097,2.036727905,-0.470764160,0.635246277,0.003241821,0.005050413,1.021502733
8.601722,1.754440308,-0.188476562,0.917533875,0.003363892,0.009689085,1.033343554
8.602348,1.800216675,-0.348693848,0.787834167,0.002875610,0.004195921,1.044329882
8.602975,1.708663940,-0.333435059,0.894645691,0.008490845,0.004317991,1.054217577
8.603602,1.281417847,-0.211364746,0.856498718,0.009223267,0.004806273,1.068866014
8.604229,1.571334839,0.124328613,0.696281433,0.012152954,0.002120726,1.078753710
8.604854,1.777328491,-0.013000488,0.619987488,0.012519165,0.001266234,1.088519335
8.605481,1.708663940,0.330322266,0.490287781,0.013129517,0.001754515,1.095599413
8.606107,1.395858765,0.467651367,0.436882019,0.009345337,-0.001541384,1.102679491
8.606734,1.502670288,0.467651367,0.604728699,0.010810181,0.000533812,1.105975389
8.607360,1.113571167,0.360839844,0.604728699,0.009467407,-0.002273805,1.109759569
8.607987,1.060165405,0.604980469,0.505546570,0.013861938,-0.000198610,1.110491991
8.608612,0.625289917,0.360839844,0.597099304,0.014350220,-0.000076540,1.107562304
8.609237,0.472702026,0.307434082,0.772575378,0.014716431,-0.005813845,1.110247850
8.609864,0.457443237,0.414245605,0.513175964,0.011542602,-0.003128298,1.103778124
8.610490,0.075973511,0.192993164,0.635246277,0.012885376,-0.001297243,1.099017382
8.611115,0.014938354,0.086181641,0.757316589,0.008857056,-0.003738649,1.090350389
8.611740,-0.313125610,0.254028320,0.528434753,0.009345337,-0.003494509,1.078509569
8.612366,-0.343643188,0.368469238,0.635246277,0.006049438,-0.001785524,1.072650194
8.612991,-0.732742310,0.093811035,0.719169617,0.003852173,-0.000808962,1.056414843
8.613618,-0.831924438,-0.096923828,0.589469910,0.000067993,0.000655882,1.044085741
8.614244,-0.839553833,-0.020629883,0.520805359,0.000312134,0.001022093,1.029193163
8.614870,-0.931106567,-0.386840820,0.772575378,-0.001763062,0.001876585,1.015399218
8.615496,-1.091323853,-0.531799316,0.589469910,0.001166626,0.000533812,1.002215624
8.616122,-0.938735962,-0.196105957,0.459770203,0.000556274,-0.000076540,0.984759569
8.616748,-0.778518677,-0.089294434,0.497917175,0.005194946,-0.001297243,0.971942186
8.617373,-0.686965942,-0.104553223,0.650505066,0.002021118,-0.003250368,0.958148241
8.617998,-0.648818970,-0.119812012,0.398735046,0.003119751,-0.001907595,0.943621874
8.618625,-0.625930786,0.040405273,0.566581726,0.005683227,-0.003128298,0.932269335
8.619250,-0.595413208,-0.035888672,0.772575378,0.006049438,-0.000076540,0.920062304
8.619875,-0.656448364,0.254028320,0.696281433,0.008368774,-0.002762087,0.913836718
8.620502,-0.358901978,0.261657715,0.749687195,0.005683227,-0.001541384,0.907977343
8.621127,-0.381790161,0.223510742,1.108268738,0.008979126,0.000045530,0.899920702
8.621753,-0.046096802,0.482910156,0.948051453,0.008857056,-0.001663454,0.903460741
8.622379,-0.198684692,0.582092285,1.001457214,0.009711548,-0.001419313,0.900531054
8.623004,0.098861694,0.887268066,1.337150574,0.010321899,-0.003738649,0.903338671
8.623629,0.381149292,1.032226562,1.062492371,0.004584595,-0.006302126,0.905902147
8.624256,0.548995972,1.398437500,1.283744812,0.001166626,-0.004349001,0.909442186
8.624882,0.785507202,1.421325684,1.176933289,-0.001396851,-0.006424196,0.916888475
8.625509,0.831283569,1.543395996,1.199821472,-0.003472046,-0.003982790,0.923602343
8.638108,0.411666870,0.872009277,1.230339050,0.010321899,-0.024734743,1.074237108
8.638820,0.320114136,0.513427734,1.527885437,0.007148071,-0.026321657,1.071429491
8.639446,0.312484741,0.559204102,1.672843933,0.010566040,-0.026809938,1.068011522
8.640072,0.213302612,0.490539551,1.741508484,0.011542602,-0.026199587,1.064593554
8.640698,0.510848999,0.261657715,1.710990906,0.006781860,-0.026687868,1.058612108
8.641325,0.297225952,0.246398926,1.924613953,0.005439087,-0.022415407,1.050311327
8.641950,0.289596558,0.093811035,2.000907898,0.001410767,-0.021805055,1.039447069
8.642575,0.266708374,-0.081665039,1.932243347,0.000556274,-0.023636110,1.030780077
8.643200,0.114120483,-0.188476562,1.733879089,-0.004814819,-0.024124391,1.018084764
8.643826,-0.122390747,-0.280029297,2.122978210,-0.003960327,-0.023880251,1.004412889
8.644452,-0.252090454,-0.394470215,2.130607605,-0.005669312,-0.023636110,0.993182421
8.645079,-0.213943481,-0.486022949,1.794914246,-0.004204468,-0.027908571,0.980853319
8.645704,-0.244461060,-0.524169922,1.978019714,-0.001518921,-0.024368532,0.973407030
8.646329,-0.152908325,-0.508911133,2.252677917,-0.000908569,-0.026199587,0.961077929
8.646954,0.053085327,-0.493652344,2.206901550,0.000067993,-0.030960329,0.951434374
8.647580,0.106491089,-0.463134766,2.245048523,0.000312134,-0.030227907,0.939349413
8.648207,0.014938354,-0.325805664,2.367118835,0.000434204,-0.029129274,0.933734179
8.648834,0.083602905,-0.173217773,2.390007019,0.001044556,-0.030594118,0.926409960
8.649459,0.182785034,-0.112182617,2.580741882,0.003974243,-0.030594118,0.922137499
8.650084,0.396408081,-0.196105957,2.939323425,0.005317017,-0.033890016,0.917132616
8.650709,0.343002319,-0.074035645,3.122428894,0.006049438,-0.033523805,0.912982225
8.651334,0.335372925,-0.104553223,3.130058289,0.003974243,-0.040115602,0.916888475
8.651959,0.495590210,0.337951660,3.450492859,0.005194946,-0.037796266,0.913836718
8.652585,0.571884155,0.200622559,3.625968933,0.006781860,-0.035110720,0.918353319
8.653210,0.800765991,0.475280762,3.633598328,0.006415649,-0.035354860,0.922503710
8.653836,1.121200562,0.650756836,3.755668640,0.002997681,-0.034012087,0.928485155
8.654463,1.075424194,0.536315918,3.931144714,0.001899048,-0.036819704,0.938128710
8.655088,0.892318726,0.833862305,4.030326843,-0.000298218,-0.038040407,0.941302538
8.655714,1.083053589,0.887268066,4.289726257,0.000922485,-0.040970095,0.954364061
8.656341,0.953353882,1.009338379,4.381278992,-0.000664429,-0.041336305,0.963641405
8.656968,0.793136597,0.994079590,4.587272644,-0.001274780,-0.044265993,0.977069139
8.657595,0.754989624,1.207702637,4.678825378,0.000800415,-0.047806032,0.988665819
8.658220,0.793136597,1.245849609,4.747489929,0.002631470,-0.048782595,0.996966600
8.658846,0.877059937,1.329772949,4.793266296,0.001899048,-0.049515016,1.010760546
8.659473,0.693954468,1.253479004,5.121330261,0.001288696,-0.047683962,1.023211718
8.660099,0.762619019,1.131408691,5.205253601,-0.003227905,-0.050125368,1.033221483
8.660725,0.816024780,1.100891113,5.464653015,-0.002007202,-0.051101930,1.044085741
8.661350,0.610031128,0.833862305,5.487541199,-0.000298218,-0.051712282,1.050311327
8.661975,0.724472046,0.826232910,5.647758484,0.001776977,-0.051346071,1.056414843
8.662600,0.518478394,0.650756836,5.716423035,0.001044556,-0.051101930,1.064837694
8.663225,0.426925659,0.597351074,6.090263367,-0.001518921,-0.052200563,1.065203905
8.663850,0.548995972,0.711791992,5.945304871,-0.000176148,-0.050857790,1.075091600
8.664477,0.327743530,0.482910156,6.143669128,0.001288696,-0.054275759,1.077777147
8.671640,0.312484741,-0.440246582,7.585624695,-0.005669312,-0.044632204,1.010272264
8.672265,0.228561401,-0.539428711,7.631401062,-0.006523804,-0.037918337,0.996722460
8.672890,0.449813843,-0.325805664,7.959465027,-0.005913452,-0.033645876,0.986468554
8.673515,0.243820190,-0.508911133,7.822135925,-0.005547241,-0.031570680,0.978656054
8.674140,0.533737183,-0.661499023,7.959465027,-0.005058960,-0.031814821,0.969866991
8.674766,0.541366577,-0.432617188,8.089164734,-0.002861694,-0.027542360,0.956439257
8.687388,0.907577515,0.353210449,9.431938171,-0.000542358,-0.015823610,0.996234179
8.688083,0.785507202,0.002258301,9.752372742,-0.001152710,-0.012771852,1.003070116
8.688710,0.945724487,0.093811035,9.531120300,-0.001518921,-0.011184938,1.010760546
8.689337,1.067794800,-0.020629883,9.615043640,-0.000420288,-0.011673220,1.020892382
8.689964,0.884689331,-0.325805664,9.660820007,-0.000786499,-0.011184938,1.024432421
8.690590,0.640548706,-0.424987793,9.721855164,-0.000054077,-0.012039430,1.030047655
8.691216,0.442184448,-0.295288086,9.767631531,0.003363892,-0.013992555,1.037493944
8.691842,0.571884155,-0.295288086,9.843925476,0.006171509,-0.014847048,1.042620897
8.692467,0.503219604,-0.257141113,9.767631531,0.005927368,-0.011917360,1.042010546
8.693092,0.426925659,-0.287658691,9.790519714,0.005439087,-0.013015993,1.049456835
8.694800,0.617660522,-0.486022949,9.714225769,0.002387329,-0.010330446,1.046771288
8.695425,0.495590210,-0.417358398,9.889701843,0.005439087,-0.006180055,1.047137499
8.696051,0.274337769,-0.943786621,9.897331238,0.007392212,-0.008133180,1.046527147
8.696676,0.419296265,-0.943786621,9.760002136,0.003363892,-0.010208376,1.046649218
8.697302,0.297225952,-0.890380859,9.744743347,0.003974243,-0.007278688,1.035907030
8.697927,0.663436890,-1.012451172,9.752372742,0.006537720,-0.009475954,1.033953905
8.698552,0.518478394,-1.012451172,9.836296082,0.004340454,-0.009353884,1.030291796
8.699178,0.838912964,-0.981933594,9.859184265,0.003363892,-0.014114626,1.027606249
8.699804,0.922836304,-0.592834473,9.836296082,0.004950806,-0.011795290,1.019061327
8.700430,0.968612671,-0.722534180,9.668449402,0.005317017,-0.009353884,1.015033007
8.701055,0.877059937,-0.775939941,9.897331238,0.003241821,-0.007400759,1.008441210
8.701681,0.854171753,-0.661499023,9.828666687,0.003119751,-0.005447634,1.003192186
8.702307,0.816024780,-0.516540527,9.904960632,0.002143188,-0.006668337,1.000628710
8.702933,0.922836304,-0.692016602,9.935478210,0.003608032,-0.007156618,0.996722460
8.703558,1.113571167,-0.562316895,9.950737000,-0.001640991,-0.006057985,0.995013475
8.704183,1.197494507,-0.493652344,9.866813660,-0.002373413,-0.009720095,0.989886522
8.704810,1.327194214,-0.264770508,10.057548523,-0.005058960,-0.009598024,0.983905077
8.705435,1.166976929,-0.600463867,10.019401550,-0.006523804,-0.005691774,0.980487108
8.706061,0.831283569,-0.455505371,10.088066101,-0.005669312,-0.006668337,0.980487108
8.706686,0.793136597,-0.623352051,10.233024597,-0.003349976,-0.008133180,0.975482225
8.707311,1.113571167,-0.379211426,10.164360046,-0.007744507,-0.005813845,0.971942186
8.707937,0.892318726,-0.424987793,10.156730652,-0.004692749,-0.007522829,0.975116014
8.708562,0.754989624,-0.432617188,10.194877625,-0.006157593,-0.008743532,0.970355272
8.709187,0.640548706,-0.318176270,10.210136414,-0.005181030,-0.008011110,0.974749804
8.709812,0.671066284,-0.203735352,10.339836121,-0.005425171,-0.009353884,0.973284960
8.710439,0.709213257,-0.226623535,10.370353699,-0.003594116,-0.014358766,0.975726366
8.711065,0.793136597,0.002258301,10.446647644,-0.004814819,-0.014969118,0.973040819
8.711692,0.442184448,-0.119812012,10.439018250,0.000434204,-0.019607790,0.978533983
8.712318,0.442184448,-0.035888672,10.835746765,0.001044556,-0.019241579,0.981463671
8.712944,0.327743530,0.223510742,10.866264343,-0.000298218,-0.020584352,0.981463671
8.713571,0.228561401,0.116699219,10.782341003,0.001288696,-0.019241579,0.986712694
8.714198,0.159896851,0.284545898,11.240104675,0.000067993,-0.020706423,0.991473436
8.714823,0.075973511,0.719421387,11.110404968,-0.000786499,-0.026687868,0.995623827
8.715449,0.228561401,0.650756836,11.133293152,-0.002495483,-0.023758180,0.998065233
8.716075,0.182785034,0.818603516,11.407951355,-0.004692749,-0.023636110,1.000872850
8.716702,0.121749878,0.566833496,11.331657410,-0.006890015,-0.021682985,1.004412889
8.717329,-0.038467407,0.635498047,11.339286804,-0.011162476,-0.024612673,1.006854296
8.717954,-0.183425903,0.559204102,11.484245300,-0.010185913,-0.030838259,1.009295702
8.718579,-0.130020142,0.368469238,11.934379578,-0.007744507,-0.032913454,1.011126757
8.731213,1.235641479,0.521057129,13.597587585,-0.012871460,-0.031814821,1.016497850
8.731986,0.976242065,0.543945312,13.971427917,-0.012749390,-0.033645876,1.010760546
8.732613,0.983871460,0.246398926,13.963798523,-0.015068726,-0.031204470,1.009295702
8.733240,0.732101440,0.391357422,14.192680359,-0.016655639,-0.032547243,1.001483202
8.733866,0.930465698,0.170104980,14.032463074,-0.018364623,-0.033890016,0.998431444
8.734491,0.945724487,0.070922852,14.276603699,-0.018852904,-0.032547243,0.995257616
8.735117,0.777877808,-0.081665039,14.291862488,-0.022515014,-0.029983766,0.989764452
8.735742,0.686325073,-0.119812012,14.429191589,-0.021172240,-0.026443727,0.984027147
8.736367,0.518478394,-0.394470215,14.749626160,-0.019097045,-0.029251345,0.978045702
8.736994,0.205673218,-0.020629883,14.825920105,-0.015557007,-0.031204470,0.979632616
8.737621,0.220932007,-0.157958984,14.803031921,-0.010307983,-0.033890016,0.976824999
8.738246,0.098861694,-0.104553223,14.925102234,-0.008354858,-0.039139040,0.973040819
8.738872,0.236190796,0.315063477,14.909843445,-0.004692749,-0.037918337,0.972918749
8.739498,0.236190796,0.437133789,15.298942566,-0.003716187,-0.041946657,0.973773241
8.740125,0.297225952,0.521057129,15.344718933,-0.004814819,-0.042312868,0.975726366
8.740751,0.388778687,0.635498047,15.619377136,-0.002129273,-0.044754274,0.971209764
8.741378,0.587142944,0.849121094,15.802482605,-0.004448608,-0.045608766,0.973773241
8.742003,0.358261108,0.833862305,16.183952332,-0.001030640,-0.044143923,0.972796679
8.742629,0.480331421,0.879638672,16.267875671,-0.003105835,-0.046097048,0.978656054
8.743254,0.472702026,0.925415039,16.733268738,-0.008598999,-0.045730837,0.976336718
8.743880,0.625289917,1.039855957,16.916374207,-0.011772827,-0.045852907,0.979998827
8.744506,0.541366577,0.879638672,16.908744812,-0.014214233,-0.043289430,0.981707811
8.745132,0.556625366,0.933044434,17.221549988,-0.018730834,-0.041092165,0.982318163
8.745759,0.472702026,1.062744141,17.335990906,-0.019585326,-0.037063845,0.987567186
8.746385,0.671066284,0.772827148,17.534355164,-0.017388061,-0.038650759,0.989398241
8.747012,0.632919312,0.780456543,17.603019714,-0.018364623,-0.042434938,0.992449999
8.747638,0.678695679,0.681274414,17.686943054,-0.020317748,-0.045974977,0.999652147
8.748263,0.861801147,0.849121094,17.686943054,-0.015801147,-0.052444704,0.999285936
8.748889,0.747360229,0.681274414,17.747978210,-0.019341186,-0.053909548,1.001361132
8.749515,0.663436890,0.612609863,18.098930359,-0.021416381,-0.052810915,0.999408007
8.750140,0.541366577,0.536315918,18.297294617,-0.021904662,-0.047806032,1.002581835
8.750765,0.426925659,0.002258301,18.472770691,-0.021172240,-0.044265993,1.003558397
8.751391,0.503219604,-0.180847168,18.587211609,-0.015434937,-0.040237673,1.005511522
8.752016,0.678695679,-0.280029297,18.716911316,-0.010185913,-0.040481813,1.004901171
8.752643,0.983871460,-0.630981445,18.953422546,-0.007744507,-0.042923220,1.008197069
8.753270,1.289047241,-0.630981445,19.174674988,-0.007256226,-0.041702516,1.005267382
8.753895,1.487411499,-0.402099609,19.189933777,-0.008598999,-0.043167360,1.005145311
8.754520,1.510299683,-0.348693848,19.426445007,-0.008721069,-0.043167360,1.003192186
8.755146,1.510299683,-0.203735352,19.388298035,-0.009209351,-0.027908571,1.001361132
8.755772,1.647628784,-0.074035645,19.472221375,-0.008721069,-0.022781618,1.005633593
8.756397,1.533187866,-0.028259277,19.540885925,-0.004570679,-0.024612673,1.007586718
8.757029,1.746810913,-0.295288086,19.823173523,0.000312134,-0.023514040,1.009051561
8.757655,2.036727905,-0.112182617,19.853691101,0.004584595,-0.022415407,1.013812304
8.758280,2.067245483,0.147216797,20.021537781,0.005072876,-0.022903688,1.012835741
8.758906,2.212203979,0.048034668,20.044425964,0.003241821,-0.020340212,1.012469530
8.759533,1.853622437,-0.013000488,20.113090515,0.004706665,-0.017044313,1.015399218
8.760158,1.845993042,0.177734375,20.227531433,0.004950806,-0.014480837,1.011981249
8.760784,1.952804565,0.162475586,20.502189636,0.002509399,-0.011917360,1.013201952
8.761411,1.868881226,0.162475586,20.311454773,0.002143188,-0.012527712,1.011981249
8.774007,-0.068984985,0.109069824,20.517448425,-0.007012085,0.006393187,0.980120897
8.774704,-0.137649536,0.414245605,20.525077820,-0.006279663,0.006637327,0.979876757
8.775329,0.060714722,0.635498047,20.349601746,-0.006767944,0.007858030,0.978411913
8.775956,0.266708374,0.566833496,20.151237488,-0.011284546,0.010665648,0.974261522
8.776583,0.175155640,0.643127441,20.395378113,-0.006767944,0.003585570,0.977435350
8.777208,0.152267456,0.482910156,20.219902039,-0.004082398,-0.004349001,0.977801561
8.777833,0.075973511,0.612609863,20.364860535,0.000922485,-0.010574587,0.979632616
8.778460,0.358261108,0.780456543,20.486930847,0.005561157,-0.011184938,0.980975389
8.779085,-0.023208618,1.055114746,20.403007507,0.004218384,-0.006546266,0.985369921
8.779712,0.152267456,0.940673828,20.441154480,0.006659790,-0.007034548,0.990252733
8.780338,0.159896851,0.963562012,20.654777527,0.009589477,-0.014847048,0.993914843
8.780963,0.518478394,1.200073242,20.631889343,0.006781860,-0.021316774,0.995379686
8.781588,0.602401733,1.276367188,20.921806335,-0.002251343,-0.025345095,0.996844530
8.782214,0.411666870,1.261108398,20.898918152,-0.000908569,-0.023758180,0.998187304
8.782840,0.381149292,1.123779297,21.143058777,-0.012016968,-0.020584352,1.000506639
8.783466,0.007308960,1.024597168,21.066764832,-0.018120483,-0.010330446,1.000262499
8.784093,-0.107131958,0.589721680,21.104911804,-0.018852904,-0.001541384,1.000628710
8.784718,0.251449585,0.070922852,20.845512390,-0.015923217,0.012374632,1.000262499
8.785343,1.311935425,-0.409729004,20.738700867,-0.008232788,0.027755491,1.001483202
8.785969,2.494491577,-0.959045410,20.624259949,-0.008843140,0.040694945,0.999774218
8.786596,3.616012573,-1.821166992,20.120719910,-0.011650757,0.045821898,0.997576952
8.787221,4.363693237,-2.225524902,19.746879578,-0.014824585,0.059982054,0.985858202
8.787847,4.844345093,-2.576477051,19.220451355,-0.015801147,0.070235960,0.984027147
8.788473,5.027450562,-3.041870117,19.373039246,-0.012139038,0.090865843,0.980853319
8.789099,4.905380249,-3.141052246,18.419364929,-0.006645874,0.114059202,0.977557421
8.789726,4.722274780,-3.347045898,18.030265808,0.006781860,0.134933233,0.975726366
8.790353,5.317367554,-3.659851074,17.625907898,0.022162721,0.155441046,0.974627733
8.790979,6.286300659,-3.636962891,16.946891785,0.036322877,0.180953741,0.974627733
8.791605,7.743515015,-3.781921387,15.848258972,0.045111939,0.214401007,0.972674608
8.792232,9.315170288,-4.262573242,14.841178894,0.044989869,0.252853155,0.970599413
8.792859,10.764755249,-5.178100586,13.948539734,0.048041627,0.292892218,0.963641405
8.793486,12.176193237,-5.811340332,13.010124207,0.054633424,0.327926397,0.959124804
8.795154,14.259017944,-6.917602539,9.126762390,0.059882447,0.431197882,0.952655077
8.795781,14.266647339,-7.062561035,7.349113464,0.072333619,0.464645147,0.952899218
8.796406,14.487899780,-6.726867676,5.479911804,0.089911744,0.497115850,0.965228319
8.797032,15.174545288,-5.956298828,3.946403503,0.106269166,0.529098272,0.970355272
8.797659,15.891708374,-5.406982422,1.695732117,0.112128541,0.563033819,0.973284960
8.798284,16.074813843,-5.063659668,-0.867744446,0.109931275,0.596847296,0.978289843
8.798910,16.379989624,-5.117065430,-3.034492493,0.104560181,0.624191046,0.983416796
8.799535,15.952743530,-5.452758789,-5.155464172,0.106513306,0.637008429,0.987811327
8.800160,14.854110718,-5.086547852,-7.413764954,0.108344361,0.631759405,0.996966600
8.800785,13.419784546,-5.040771484,-9.542366028,0.114692017,0.618331671,1.003192186
8.801412,11.848129272,-4.300720215,-11.892219543,0.117743775,0.600875616,1.012469530
8.802037,9.925521851,-2.950317383,-14.257331848,0.127875611,0.585494757,1.026263475
8.802662,8.361495972,-2.027160645,-16.637702942,0.131293580,0.587203741,1.034564257
8.803287,6.728805542,-1.294738770,-18.888374329,0.134589478,0.588302374,1.040423632
8.803912,5.576766968,-0.554687500,-20.971199036,0.140082642,0.585494757,1.042010546
8.804538,4.508651733,-0.333435059,-22.802253723,0.147528931,0.574874640,1.052508593
8.805164,3.791488647,-0.379211426,-24.221321106,0.151801392,0.561202765,1.056048632
8.818624,-14.160476685,6.090515137,-41.021247864,-0.015923217,0.001022093,0.982684374
8.819392,-12.886367798,5.205505371,-40.754219055,-0.015312866,-0.006912477,0.976458788
8.820019,-11.047683716,4.465454102,-40.876289368,-0.015434937,-0.027176149,0.975360155
8.820644,-9.445510864,3.885620117,-40.449043274,-0.016533569,-0.058548220,0.971087694
8.821271,-7.690750122,3.855102539,-40.479560852,-0.021660522,-0.088699587,0.963275194
8.821896,-6.790481567,3.549926758,-40.403266907,-0.032158569,-0.111770876,0.955950975
8.822522,-6.050430298,3.603332520,-39.861579895,-0.039971069,-0.130935907,0.952777147
8.823148,-5.577407837,3.771179199,-39.289375305,-0.042168334,-0.149124384,0.948870897
8.823774,-5.127273560,3.877990723,-38.541694641,-0.038872436,-0.163284540,0.951556444
8.824400,-4.310928345,3.671997070,-37.938972473,-0.038872436,-0.177322626,0.950213671
8.825031,-3.372512817,3.359191895,-37.351509094,-0.035210326,-0.218582392,0.953021288
8.825656,-2.060256958,3.664367676,-36.596199036,-0.033867553,-0.270340204,0.959857225
8.826282,-0.915847778,3.626220703,-35.818000793,-0.041924194,-0.321121454,0.966082811
8.826907,-0.496231079,4.228942871,-35.032173157,-0.048027709,-0.350784540,0.971087694
8.827532,-0.175796509,4.198425293,-34.047981262,-0.058525756,-0.347122431,0.968890429
8.828157,-0.450454712,3.618591309,-32.674690247,-0.058891967,-0.329056025,0.973773241
8.828783,-0.427566528,3.183715820,-30.897041321,-0.056450561,-0.308548212,0.981463671
8.829409,-0.259719849,2.367370605,-29.439826965,-0.045342162,-0.307937860,0.986102343
8.830034,0.167526245,1.726501465,-27.913948059,-0.029717162,-0.332473993,0.997454882
8.830659,1.266159058,2.008789062,-26.998420715,-0.022637084,-0.361648798,1.011859179
8.831286,2.372421265,2.931945801,-26.166816711,-0.018364623,-0.384475946,1.027362108
8.831911,3.509201050,3.687255859,-24.984260559,-0.024101928,-0.378372431,1.040179491
8.832537,4.607833862,4.389160156,-24.381538391,-0.032036498,-0.342483759,1.043963671
8.833162,5.454696655,3.908508301,-23.420234680,-0.036186889,-0.286819696,1.050799608
8.833787,6.118453979,3.099792480,-22.046943665,-0.025078490,-0.227493525,1.065814257
8.834413,7.110275269,1.978271484,-20.864387512,-0.002861694,-0.182327509,1.083270311
8.835039,8.636154175,1.444213867,-20.162483215,0.018378541,-0.144363642,1.101458788
8.835664,9.788192749,0.910156250,-19.315620422,0.026313111,-0.113479860,1.114276171
8.836289,10.360397339,1.276367188,-19.224067688,0.020209596,-0.086868532,1.124530077
8.836915,10.291732788,1.856201172,-18.804450989,0.010932251,-0.073074587,1.131243944
8.837542,9.643234253,2.825134277,-18.484016418,0.003119751,-0.076614626,1.143817186
8.838169,7.804550171,4.312866211,-18.331428528,0.006049438,-0.084915407,1.155291796
8.838794,6.148971558,6.052368164,-18.102546692,0.010688110,-0.095291384,1.167254686
8.839419,4.386581421,8.173339844,-17.988105774,0.020819947,-0.099441774,1.187152147
8.840044,3.272689819,10.103576660,-17.629524231,0.035590455,-0.106399782,1.207659960
8.840671,2.143539429,11.881225586,-17.240425110,0.051703736,-0.113601930,1.231951952
8.841297,1.670516968,13.033264160,-16.858955383,0.061591431,-0.126175165,1.252581835
8.841924,1.136459351,13.658874512,-15.989204407,0.072821900,-0.137405634,1.275653124
8.842549,1.289047241,14.383666992,-15.279670715,0.077582642,-0.142776728,1.293109179
8.843174,1.464523315,14.795654297,-14.547248840,0.075019166,-0.139724970,1.302142382
8.843800,1.197494507,15.161865234,-13.440986633,0.062690064,-0.131302118,1.306658983
8.844426,0.465072632,15.016906738,-12.296577454,0.050727174,-0.124222048,1.312762499
8.845052,-0.839553833,14.887207031,-11.693855286,0.035102174,-0.111526735,1.311297655
8.845678,-2.319656372,15.108459473,-10.618110657,0.035590455,-0.107986696,1.313616991
8.846305,-3.700576782,16.237609863,-9.878059387,0.038520142,-0.105301149,1.318866014
8.846931,-4.974685669,17.481201172,-9.298225403,0.042426392,-0.102737673,1.326556444
8.847556,-5.646072388,19.342773438,-9.153266907,0.044989869,-0.090652712,1.333026171
8.848190,-6.630264282,21.578186035,-8.901496887,0.035590455,-0.064651735,1.336566210
8.860812,-8.858047485,33.113830566,-6.223579407,0.024482056,-0.110183962,1.101336718
8.861536,-5.531631470,30.718200684,-5.704780579,-0.001152710,-0.095901735,1.088153124
8.862161,-2.586685181,28.726928711,-5.742927551,-0.030815795,-0.076126345,1.069110155
8.862786,0.465072632,27.933471680,-5.788703918,-0.058403686,-0.062698610,1.052142382
8.863412,2.700485229,27.910583496,-6.040473938,-0.076958373,-0.039871462,1.035540819
8.864037,4.752792358,28.002136230,-6.864448547,-0.092095092,-0.017776735,1.023089647
8.864662,5.874313354,28.269165039,-8.039375305,-0.101860717,-0.002151735,1.009173632
8.865287,6.629623413,28.528564453,-9.290596008,-0.095390990,0.007125609,1.007952929
8.865913,7.613815308,29.100769043,-10.038276672,-0.076225951,0.008956663,1.011248827
8.866540,8.445419312,29.741638184,-10.808845520,-0.045586303,0.001022093,1.016131639
8.867166,9.132064819,30.359619141,-11.098762512,-0.016411498,-0.010574587,1.027728319
8.867793,9.627975464,30.619018555,-11.396308899,-0.001885132,-0.025345095,1.028216600
8.868419,9.666122437,30.588500977,-11.503120422,0.012030884,-0.048782595,1.028216600
8.869044,9.490646362,29.878967285,-11.335273743,0.023627564,-0.066116579,1.021136522
8.869671,9.116806030,29.466979980,-10.549446106,0.033026978,-0.082474001,1.016741991
8.870296,8.834518433,29.024475098,-9.702583313,0.035590455,-0.094314821,1.008197069
8.870922,8.666671753,28.833740234,-8.672615051,0.035224244,-0.096878298,0.997821093
8.871548,8.445419312,28.490417480,-7.650276184,0.020575806,-0.088089235,0.983660936
8.872173,7.690109253,28.414123535,-7.200141907,-0.003227905,-0.071243532,0.960101366
8.872799,6.469406128,28.047912598,-6.772895813,-0.029228881,-0.056473024,0.938494921
8.873425,5.164779663,27.582519531,-6.254096985,-0.046318725,-0.047683962,0.912493944
8.874050,3.677047729,27.666442871,-5.834480286,-0.063164428,-0.037307985,0.895159960
8.874675,2.250350952,27.399414062,-5.483528137,-0.070976928,-0.036209352,0.878802538
8.875301,0.739730835,27.811401367,-5.597969055,-0.071465209,-0.033401735,0.865985155
8.875927,0.060714722,28.200500488,-5.704780579,-0.075371459,-0.038284548,0.854876757
8.876552,-0.953994751,28.444641113,-5.712409973,-0.080254272,-0.042801149,0.840716600
8.877177,-1.808486938,28.681152344,-5.674263000,-0.085015014,-0.046707399,0.824603319
8.877802,-2.930007935,27.811401367,-5.453010559,-0.089653686,-0.056473024,0.804705858
8.878429,-4.150711060,27.315490723,-5.262275696,-0.087212279,-0.062210329,0.792376757
8.879054,-5.379043579,25.995605469,-4.606147766,-0.081474975,-0.074295290,0.778949022
8.879681,-6.386123657,25.324218750,-3.858467102,-0.068291381,-0.079300173,0.766009569
8.880308,-7.294021606,24.507873535,-3.171821594,-0.063042358,-0.085281618,0.750506639
8.880934,-8.323989868,23.882263184,-2.500434875,-0.058525756,-0.085403688,0.739276171
8.881560,-9.163223267,23.172729492,-2.385993958,-0.052300170,-0.086990602,0.725360155
8.882187,-9.704910278,22.943847656,-1.508613586,-0.047051147,-0.103958376,0.714129686
8.882812,-9.788833618,23.279541016,-0.799079895,-0.047905639,-0.119705446,0.705584764
8.883438,-9.224258423,23.447387695,-0.387092590,-0.055718139,-0.123977907,0.695941210
8.884063,-9.018264771,23.477905273,-0.028511047,-0.073540404,-0.118973024,0.685443163
8.884689,-8.659683228,22.669189453,0.299552917,-0.091850951,-0.108841188,0.675067186
8.885315,-7.896743774,21.776550293,0.619987488,-0.108208373,-0.101883180,0.669085741
8.885941,-7.095657349,20.616882324,1.100639343,-0.119682983,-0.088211305,0.660784960
8.886566,-6.325088501,18.381469727,1.367668152,-0.132988647,-0.070877321,0.657855272
8.887192,-5.836807251,16.313903809,1.627067566,-0.142265990,-0.057205446,0.651019335
8.887819,-5.005203247,14.368408203,1.825431824,-0.146294311,-0.045852907,0.644915819
8.888444,-4.013381958,12.667053223,1.886466980,-0.148857787,-0.040603884,0.643084764
8.889069,-2.701126099,11.103027344,1.909355164,-0.152641967,-0.038162477,0.642596483
8.889694,-1.442276001,9.683959961,1.390556335,-0.158501342,-0.038650759,0.633319139
8.890319,-0.526748657,8.653991699,1.131156921,-0.158257201,-0.040603884,0.628436327
8.904062,5.050338745,-13.127929688,-2.187629700,-0.095024779,0.065597288,0.785418749
8.904898,3.806747437,-14.028198242,-2.401252747,-0.084404662,0.058761351,0.790423632
8.905524,2.860702515,-14.241821289,-2.370735168,-0.079033569,0.046066038,0.799578905
8.906151,1.784957886,-14.516479492,-2.241035461,-0.071587279,0.038741820,0.800433397
8.906776,0.838912964,-14.951354980,-2.424140930,-0.068413451,0.036788695,0.805316210
8.907401,0.053085327,-15.218383789,-2.324958801,-0.062554076,0.029952757,0.808001757
8.908030,-0.572525024,-15.683776855,-2.241035461,-0.052056029,0.022628538,0.814227343
8.908657,-0.732742310,-15.821105957,-2.157112122,-0.049492553,0.016647093,0.821063280
8.909283,-0.931106567,-16.004211426,-2.019783020,-0.049980834,0.013961546,0.823626757
8.909908,-1.472793579,-16.385681152,-2.088447571,-0.054497436,0.010299437,0.828265429
8.910534,-2.037368774,-17.057067871,-1.989265442,-0.065239623,0.007491820,0.826068163
8.911159,-2.533279419,-17.568237305,-1.859565735,-0.070488647,0.007125609,0.824481249
8.911786,-3.479324341,-18.521911621,-1.401802063,-0.077324584,0.005050413,0.826922655
8.912412,-4.295669556,-19.040710449,-1.134773254,-0.075493529,0.006026976,0.828875780
8.913038,-4.646621704,-19.773132324,-1.195808411,-0.076103881,0.004073851,0.829730272
8.913663,-5.264602661,-20.421630859,-1.111885071,-0.078423217,0.000411741,0.831927538
8.914290,-6.042800903,-20.818359375,-0.852485657,-0.075371459,-0.015579470,0.835711718
8.914916,-6.447158813,-20.810729980,-0.554939270,-0.081230834,-0.048294313,0.838397264
8.922079,-10.750137329,-23.778564453,6.708244324,-0.087090209,-0.320633173,0.890521288
8.922706,-10.078750610,-23.969299316,7.608512878,-0.100151733,-0.315628290,0.881488085
8.923332,-9.399734497,-25.441772461,8.104423523,-0.119805053,-0.294021845,0.870501757
8.923958,-8.919082642,-27.356750488,8.844474792,-0.137749389,-0.275100946,0.853167772
8.924583,-8.423171997,-29.393798828,9.683708191,-0.143364623,-0.253738642,0.838153124
8.925209,-7.767044067,-31.453735352,10.522941589,-0.140190795,-0.242264032,0.826312304
8.925836,-6.981216431,-33.048278809,11.331657410,-0.137139037,-0.229568720,0.813372850
8.926462,-5.981765747,-34.612304688,11.766532898,-0.133232787,-0.219558954,0.792376757
8.927087,-5.554519653,-35.848266602,12.117485046,-0.130425170,-0.211746454,0.771868944
8.927712,-4.852615356,-36.565429688,12.300590515,-0.125908569,-0.205276728,0.754046679
8.928338,-4.303298950,-37.625915527,12.559989929,-0.115044311,-0.208450556,0.735858202
8.928963,-3.189407349,-38.335449219,13.124565125,-0.101250365,-0.215408564,0.721942186
8.929589,-1.907669067,-38.709289551,13.673881531,-0.088188842,-0.217972040,0.708026171
8.930215,-0.351272583,-39.342529297,14.070610046,-0.080742553,-0.218216181,0.698260546
8.930842,1.044906616,-40.143615723,14.734367371,-0.069634154,-0.218582392,0.691180468
8.931469,2.181686401,-40.418273926,15.337089539,-0.054131225,-0.221023798,0.693255663
8.932095,3.280319214,-40.685302734,15.901664734,-0.041924194,-0.230179071,0.702410936
8.932722,4.523910522,-40.631896973,16.962150574,-0.024346069,-0.233108759,0.714617968
8.933349,5.881942749,-40.212280273,17.488578796,-0.016167358,-0.233719110,0.727923632
8.933975,7.392562866,-39.914733887,17.984489441,-0.012871460,-0.224807978,0.746722460
8.934601,8.544601440,-39.929992676,19.052604675,-0.017754272,-0.216263056,0.764300585
8.935226,9.811080933,-40.143615723,19.807914734,-0.032646850,-0.200271845,0.776019335
8.935851,10.291732788,-40.685302734,20.448783875,-0.046074584,-0.190140009,0.796405077
8.936478,10.085739136,-41.722900391,21.082023621,-0.060112670,-0.171707392,0.815692186
8.937103,8.414901733,-42.676574707,22.661308289,-0.079033569,-0.146438837,0.852557421
8.937728,7.583297729,-43.820983887,23.065666199,-0.087700561,-0.127151728,0.872332811
8.938355,6.148971558,-45.308715820,22.432426453,-0.079277709,-0.190140009,0.901995897
8.938982,6.675399780,-43.981201172,21.600822449,0.041449830,-0.424759150,0.995867968
8.939608,11.619247437,-36.954528809,21.112541199,0.187201783,-0.674637079,1.132220507
8.952270,37.147201538,15.779846191,24.080375671,0.500312150,0.163009405,2.518695116
8.952975,28.571762085,12.636535645,27.513603210,0.435858995,0.185592413,2.540057421
8.953600,19.477523804,8.798950195,30.031303406,0.323432237,0.189986944,2.509783983
8.954226,9.750045776,5.739562988,31.862358093,0.164496705,0.204635382,2.428607225
8.954852,-0.465713501,3.137939453,32.533744812,-0.014458374,0.235030890,2.282611132
8.955478,-11.429153442,0.933044434,31.549552917,-0.161431029,0.252975225,2.111590624
8.956104,-22.079788208,0.147216797,30.283073425,-0.277031630,0.289352179,1.921649218
8.956730,-32.303176880,-0.859863281,28.406242371,-0.353569716,0.324020147,1.703143358
8.957357,-41.138015747,-1.958496094,26.292900085,-0.361016005,0.321822882,1.477435350
8.957982,-48.057876587,-3.163940430,24.538139343,-0.330864638,0.309371710,1.254901171
8.958607,-52.925430298,-4.888183594,22.890190125,-0.285210341,0.317184210,1.061908007
8.959233,-57.075820923,-7.833129883,22.035697937,-0.191582397,0.250289679,0.908587694
8.959858,-58.037124634,-9.595520020,21.387199402,-0.081230834,0.084518187,0.727557421
