Time (s),Gyroscope X (deg/s),Gyroscope Y (deg/s),Gyroscope Z (deg/s),Accelerometer X (g),Accelerometer Y (g),Accelerometer Z (g)
4.43,0.00,-0.00,-0.00,-0.01,-0.00,1.03
4.43,0.00,0.00,-0.00,-0.00,-0.02,1.02
4.44,-0.00,0.00,-0.00,0.01,0.00,1.02
4.45,-0.00,0.00,-0.00,0.01,0.00,1.01
4.46,-0.00,0.00,-0.00,0.02,0.01,1.02
4.47,-0.00,0.00,-0.00,0.01,0.02,1.02
4.47,0.00,0.00,0.00,0.02,-0.02,1.02
4.48,0.00,-0.00,-0.00,-0.00,-0.01,1.02
4.49,-0.00,-0.00,-0.00,0.00,0.01,1.02
4.50,0.00,-0.00,0.00,-0.01,-0.00,1.02
4.51,0.00,0.00,-0.00,-0.01,-0.01,1.04
4.51,0.00,0.00,0.00,0.01,-0.01,1.01
4.52,-0.00,0.00,0.00,0.00,-0.01,1.03
4.53,0.00,0.00,0.00,-0.00,-0.02,1.03
4.54,0.00,-0.00,0.00,0.02,0.01,1.01
4.55,0.00,0.00,0.00,0.00,0.00,1.01
4.55,-0.00,0.00,-0.00,0.01,-0.01,1.01
4.56,-0.00,0.00,-0.00,-0.01,-0.01,1.01
4.57,-0.00,-0.00,-0.00,-0.01,-0.01,1.02
4.58,-0.00,-0.00,-0.00,0.00,0.00,1.02
4.59,-0.00,0.00,-0.00,0.01,0.01,1.01
4.59,-0.00,0.00,-0.00,0.00,0.00,1.00
4.60,-0.00,0.00,-0.00,0.00,-0.00,1.00
4.61,-0.00,0.00,-0.00,0.01,0.00,1.03
4.62,-0.00,-0.00,-0.00,0.00,0.00,1.02
4.62,-0.00,0.00,-0.00,0.01,-0.01,1.02
4.63,0.00,-0.00,-0.00,-0.01,-0.00,1.01
4.64,-0.00,0.00,-0.00,-0.01,-0.01,1.01
4.65,-0.00,0.00,-0.00,0.00,-0.01,1.02
4.66,-0.00,0.00,-0.00,-0.01,-0.02,1.02
4.66,-0.00,0.00,0.00,-0.00,-0.00,1.00
4.67,-0.00,-0.00,-0.00,0.00,0.00,1.03
4.68,0.00,-0.00,-0.00,0.01,-0.00,1.03
4.69,0.00,0.00,0.00,0.00,-0.00,1.02
4.70,-0.00,0.00,-0.00,-0.01,0.01,1.02
4.70,-0.00,-0.00,0.00,0.00,-0.01,1.02
4.71,-0.00,0.00,0.00,0.01,0.00,1.02
4.72,-0.00,0.00,0.00,0.02,0.01,1.01
4.73,0.00,-0.00,0.00,0.01,0.01,1.02
4.74,-0.00,0.00,0.00,0.01,-0.01,1.02
4.74,-0.00,0.00,0.00,0.01,0.00,1.03
4.75,-0.00,0.00,0.00,-0.01,0.00,1.04
4.76,-0.00,0.00,-0.00,-0.00,0.00,1.04
4.77,-0.00,0.00,-0.00,-0.01,0.01,1.03
4.78,-0.00,-0.00,0.00,-0.00,-0.01,1.03
4.78,-0.00,-0.00,-0.00,-0.01,0.01,1.02
4.79,0.00,0.00,-0.00,-0.01,-0.00,1.00
4.80,-0.00,0.00,0.00,-0.02,0.02,1.01
4.81,-0.00,0.00,-0.00,-0.00,0.00,0.99
4.82,0.00,-0.00,-0.00,-0.00,-0.01,1.00
4.82,-0.00,0.00,0.00,0.01,-0.00,0.99
4.83,-0.00,0.00,-0.00,-0.00,0.01,1.01
4.84,-0.00,0.00,-0.00,0.00,0.00,1.03
4.85,-0.00,0.00,-0.00,-0.00,-0.01,1.01
4.86,-0.00,0.00,-0.00,0.00,0.00,1.04
4.86,-0.00,0.00,0.00,0.01,0.02,1.03
4.87,-0.00,0.00,0.00,0.02,0.01,1.01
4.88,-0.00,0.00,0.00,0.01,0.01,1.02
4.89,-0.00,0.00,0.00,-0.00,-0.01,1.00
4.90,-0.00,-0.00,0.00,0.00,-0.00,1.01
4.91,-0.00,-0.00,0.00,-0.02,0.00,1.02
4.91,-0.00,-0.00,0.00,-0.02,-0.01,1.00
4.92,0.00,0.00,-0.00,-0.00,-0.01,1.02
4.93,0.00,-0.00,0.00,0.00,-0.01,1.01
4.94,0.00,0.00,-0.00,-0.01,0.00,1.01
4.95,-0.00,0.00,-0.00,0.00,0.01,1.05
4.95,0.00,-0.00,-0.00,0.00,0.02,1.03
4.96,0.00,0.00,-0.00,-0.00,-0.00,1.04
4.97,-0.00,-0.00,-0.00,0.02,-0.00,1.03
4.98,-0.00,0.00,-0.00,0.03,0.01,1.03
4.99,-0.00,0.00,-0.00,0.01,0.01,1.01
4.99,0.00,0.00,-0.00,-0.01,-0.00,1.01
5.00,0.00,0.00,-0.00,-0.02,-0.00,1.02
5.01,0.00,0.00,0.00,-0.03,-0.00,1.03
5.02,-0.00,0.00,0.00,-0.01,0.00,1.01
5.03,-0.00,0.00,0.00,0.00,-0.01,1.02
5.03,-0.00,0.00,-0.00,-0.01,-0.01,1.02
5.04,0.00,0.00,0.00,0.00,-0.02,1.02
5.05,0.00,0.00,-0.00,0.02,-0.02,1.03
5.06,0.00,-0.00,-0.00,0.01,-0.02,1.04
5.07,0.00,0.00,0.00,0.01,-0.01,1.03
5.07,-0.00,0.00,0.00,0.01,-0.02,1.01
5.08,-0.00,0.00,0.00,0.01,-0.01,1.02
5.09,-0.00,-0.00,0.00,0.01,0.01,1.03
5.10,-0.00,-0.00,0.00,0.00,0.01,1.02
5.11,0.00,0.00,0.00,0.01,0.01,1.03
5.11,-0.00,0.00,0.00,-0.01,0.00,1.02
5.12,-0.00,0.00,0.00,0.01,0.01,1.01
5.13,-0.00,0.00,0.00,0.00,-0.00,1.03
5.14,-0.00,0.00,-0.00,-0.01,0.00,1.03
5.14,-0.00,0.00,-0.00,-0.01,-0.01,1.01
5.15,-0.00,0.00,-0.00,-0.00,0.01,1.02
5.16,0.00,0.00,-0.00,0.01,0.02,1.03
5.17,0.00,0.00,-0.00,0.01,0.01,1.02
5.18,0.00,-0.00,-0.00,0.01,0.01,1.02
5.18,-0.00,-0.00,-0.00,0.01,0.01,1.01
5.19,0.00,-0.00,0.00,0.01,-0.00,1.02
5.20,-0.00,-0.00,0.00,0.00,0.00,1.03
5.21,-0.00,-0.00,0.00,-0.00,0.01,1.01
5.22,-0.00,-0.00,-0.00,-0.00,-0.00,1.01
5.22,-0.00,-0.00,-0.00,0.01,-0.01,1.01
5.23,0.00,0.00,-0.00,-0.00,0.01,1.01
5.24,0.00,-0.00,-0.00,-0.00,0.02,1.03
5.25,0.00,-0.00,-0.00,0.00,0.00,1.02
5.26,-0.00,0.00,0.00,0.01,0.01,1.02
5.26,-0.00,0.00,0.00,0.01,-0.00,1.01
5.27,-0.00,0.00,0.00,0.00,0.00,1.03
5.28,-0.00,0.00,0.00,0.01,0.00,1.02
5.29,0.00,0.00,-0.00,-0.00,0.01,1.02
5.30,-0.00,0.00,-0.00,0.01,-0.02,1.02
5.30,-0.00,-0.00,-0.00,0.00,-0.02,1.01
5.31,-0.00,-0.00,-0.00,-0.00,-0.01,1.02
5.32,-0.00,0.00,-0.00,0.01,-0.01,1.02
5.33,0.00,-0.00,0.00,-0.01,0.01,1.02
5.34,-0.00,0.00,-0.00,-0.01,0.01,1.02
5.34,-0.00,0.00,-0.00,0.02,0.00,1.01
5.35,0.00,0.00,-0.00,0.01,-0.01,1.02
5.36,-0.00,-0.00,-0.00,-0.00,-0.00,1.03
5.37,0.00,0.00,-0.00,-0.00,0.00,1.02
5.38,-0.00,0.00,-0.00,-0.01,0.02,1.01
5.39,-0.00,0.00,0.00,0.01,0.02,1.01
5.39,0.00,-0.00,0.00,-0.00,0.01,1.01
5.40,0.00,-0.00,0.00,0.00,-0.01,1.01
5.41,0.00,-0.00,0.00,0.02,-0.00,1.04
5.42,0.00,-0.00,0.00,0.01,0.00,1.04
5.43,0.00,-0.00,0.00,0.01,0.00,1.03
5.43,0.00,-0.00,0.00,0.00,-0.00,1.04
5.44,0.00,-0.00,0.00,-0.00,0.02,1.03
5.45,0.00,-0.00,0.00,-0.00,-0.00,1.04
5.46,0.00,-0.00,-0.00,0.00,-0.01,1.03
5.47,0.00,-0.00,-0.00,-0.01,-0.00,1.02
5.47,0.00,-0.00,0.00,0.01,0.01,1.03
5.48,0.00,-0.00,-0.00,0.01,0.01,1.00
5.49,0.00,-0.00,-0.00,0.01,0.00,1.02
5.50,0.00,-0.00,-0.00,0.01,-0.00,1.02
5.51,0.00,-0.00,-0.00,0.02,-0.01,1.03
5.51,0.00,-0.00,-0.00,-0.00,-0.01,1.01
5.52,-0.00,-0.00,-0.00,-0.01,0.01,1.01
5.53,0.00,-0.00,-0.00,0.01,0.00,1.02
5.54,0.00,-0.00,0.00,-0.00,-0.00,1.03
5.55,0.00,0.00,0.00,0.00,-0.01,1.01
5.55,0.00,-0.00,0.00,-0.01,-0.01,1.02
5.56,-0.00,-0.00,0.00,-0.03,0.00,1.04
5.57,0.00,-0.00,0.00,-0.01,0.01,1.03
5.58,-0.00,-0.00,0.00,0.00,-0.00,1.02
5.59,-0.00,-0.00,0.00,-0.01,0.01,1.00
5.59,0.00,-0.00,0.00,-0.01,0.01,1.02
5.60,0.00,-0.00,0.00,0.01,0.01,1.02
5.61,0.00,-0.00,0.00,0.03,-0.01,0.99
5.62,0.00,-0.00,0.00,0.01,-0.01,1.01
5.62,-0.00,0.00,0.00,-0.01,-0.01,1.02
5.63,-0.00,0.00,0.00,-0.02,0.00,1.03
5.64,-0.00,0.00,0.00,-0.01,-0.00,1.04
5.65,0.00,-0.00,0.00,0.00,-0.01,1.03
5.66,0.00,-0.00,-0.00,-0.00,-0.02,1.02
5.66,-0.00,0.00,-0.00,0.00,-0.01,1.02
5.67,-0.00,0.00,-0.00,0.02,-0.00,1.02
5.68,-0.00,0.00,-0.00,0.00,0.02,1.01
5.69,0.00,0.00,0.00,0.03,0.02,1.02
5.70,-0.00,0.00,0.00,0.03,-0.02,1.04
5.70,0.00,0.00,0.00,0.01,0.00,1.02
5.71,0.00,-0.00,0.00,0.02,-0.02,1.03
5.72,0.00,-0.00,-0.00,0.01,-0.01,1.02
5.73,0.00,-0.00,-0.00,-0.01,-0.02,1.02
5.74,-0.00,0.00,-0.00,-0.03,-0.00,1.02
5.74,-0.00,0.00,-0.00,-0.02,-0.00,1.02
5.75,-0.00,0.00,0.00,0.00,0.01,1.02
5.76,-0.00,0.00,0.00,-0.02,0.00,1.02
5.77,-0.00,0.00,0.00,0.02,0.02,1.03
5.78,0.00,0.00,-0.00,0.02,0.01,1.03
5.78,0.00,-0.00,0.00,0.02,0.02,1.01
5.79,0.00,0.00,0.00,0.02,-0.00,1.02
5.80,0.00,-0.00,0.00,-0.01,0.00,1.02
5.81,-0.00,-0.00,0.00,-0.00,-0.01,1.02
5.82,-0.00,-0.00,0.00,0.02,-0.01,1.03
5.82,-0.00,0.00,0.00,-0.03,-0.00,1.04
5.83,0.00,-0.00,0.00,-0.00,0.00,1.02
5.84,-0.00,0.00,-0.00,-0.00,0.02,1.01
5.85,-0.00,0.00,-0.00,0.02,0.02,1.01
5.86,-0.00,0.00,-0.00,0.03,0.01,1.02
5.86,-0.00,0.00,-0.00,0.03,-0.01,1.04
5.87,-0.00,0.00,-0.00,0.03,0.01,1.04
5.88,-0.00,0.00,-0.00,0.01,0.01,1.03
5.89,0.00,-0.00,0.00,0.01,-0.02,1.01
5.90,-0.00,0.00,-0.00,0.02,-0.01,1.02
5.91,0.00,0.00,-0.00,0.01,-0.01,1.04
5.91,-0.00,0.00,-0.00,0.01,-0.00,1.03
5.92,-0.00,0.00,-0.00,0.01,0.01,1.03
5.93,-0.00,-0.00,-0.00,0.02,0.00,1.04
5.94,-0.00,0.00,-0.00,-0.00,-0.01,1.05
5.95,0.00,0.00,0.00,0.01,-0.01,1.06
5.95,0.00,-0.00,0.00,0.01,-0.01,1.04
5.96,0.00,-0.00,0.00,0.02,-0.01,1.00
5.97,-0.00,-0.00,-0.00,0.01,-0.00,1.01
5.98,-0.00,-0.00,-0.00,-0.01,0.00,1.02
5.99,0.00,-0.00,-0.00,0.02,-0.00,1.01
5.99,0.00,0.00,-0.00,0.02,-0.01,1.02
6.00,-0.00,0.00,-0.00,0.01,0.01,1.03
6.01,-0.00,0.00,-0.00,0.02,0.00,1.00
6.02,0.00,-0.00,-0.00,0.01,-0.00,1.01
6.03,-0.00,-0.00,-0.00,-0.00,0.00,1.01
6.03,0.00,0.00,-0.00,0.01,0.02,1.02
6.04,0.00,0.00,-0.00,0.02,0.01,1.02
6.05,0.00,0.00,-0.00,0.02,0.01,1.00
6.06,-0.00,0.00,0.00,0.01,-0.00,1.02
6.07,-0.00,-0.00,0.00,0.02,-0.01,1.03
6.07,-0.00,-0.00,0.00,0.02,-0.01,1.01
6.08,0.00,0.00,0.00,0.01,-0.02,1.03
6.09,0.00,0.00,-0.00,0.01,0.01,1.01
6.10,-0.00,-0.00,-0.00,0.00,-0.00,1.00
6.11,0.00,0.00,0.00,-0.01,-0.01,1.01
6.11,-0.00,-0.00,0.00,0.00,-0.00,1.00
6.12,-0.00,0.00,-0.00,0.02,-0.01,1.01
6.13,-0.00,0.00,-0.00,0.01,0.02,1.03
6.14,0.00,0.00,-0.00,0.02,0.00,1.02
6.14,0.00,0.00,-0.00,0.01,-0.00,1.03
6.15,0.00,0.00,-0.00,0.04,-0.00,1.01
6.16,0.00,0.00,0.00,0.03,0.01,1.02
6.17,0.00,0.00,-0.00,0.01,-0.01,1.02
6.18,0.00,0.00,0.00,-0.00,-0.01,1.01
6.18,0.00,0.00,0.00,0.00,-0.02,1.02
6.19,-0.00,0.00,-0.00,0.02,-0.00,1.03
6.20,-0.00,0.00,-0.00,0.01,-0.01,1.01
6.21,0.00,0.00,0.00,0.01,-0.00,1.01
6.22,-0.00,-0.00,0.00,0.01,-0.01,1.02
6.22,-0.00,0.00,-0.00,-0.01,-0.01,1.03
6.23,-0.00,0.00,0.00,0.01,0.01,1.02
6.24,0.00,0.00,0.00,0.02,0.00,1.01
6.25,-0.00,-0.00,0.00,0.01,-0.01,1.01
6.26,0.00,0.00,0.00,0.01,0.00,0.99
6.26,0.00,0.00,-0.00,0.01,0.01,1.03
6.27,-0.00,0.00,0.00,0.02,-0.00,1.03
6.28,0.00,-0.00,-0.00,0.01,0.00,1.02
6.29,0.00,0.00,0.00,0.01,0.00,1.02
6.30,-0.01,-0.02,0.00,-0.04,0.02,1.15
6.30,-0.02,-0.05,0.00,-0.02,0.02,1.11
6.31,-0.02,-0.05,0.00,0.01,-0.00,1.02
6.32,-0.02,-0.05,0.00,0.01,-0.02,1.00
6.33,-0.01,-0.04,0.00,0.00,-0.01,1.04
6.34,-0.02,-0.05,0.00,-0.01,-0.01,1.08
6.34,-0.02,-0.06,0.00,0.02,-0.01,1.05
6.35,-0.02,-0.07,0.00,0.01,-0.01,1.09
6.36,-0.02,-0.06,0.00,0.09,-0.02,0.94
6.37,-0.01,-0.03,-0.00,0.16,-0.05,0.79
6.38,0.04,0.11,-0.00,0.42,-0.16,0.09
6.39,0.09,0.24,-0.01,-0.01,-0.04,1.10
6.39,0.03,0.08,-0.00,-0.11,0.06,1.40
6.40,0.02,0.04,-0.00,-0.06,0.03,1.18
6.41,0.01,0.01,-0.00,0.01,-0.01,1.01
6.42,0.00,0.01,-0.00,-0.02,0.01,1.05
6.43,0.00,0.00,0.00,0.01,0.01,1.04
6.43,0.00,0.00,0.00,0.01,0.01,1.02
6.44,-0.00,0.00,0.00,0.00,0.01,1.05
6.45,-0.00,0.00,0.00,0.00,0.00,1.05
6.46,-0.00,0.00,-0.00,0.01,0.01,1.04
6.47,-0.00,0.00,-0.00,0.01,-0.00,1.03
6.47,0.00,0.00,0.00,-0.01,0.01,1.03
6.48,-0.00,0.00,0.00,-0.00,-0.01,1.03
6.49,-0.00,-0.00,-0.00,0.02,0.00,1.03
6.50,-0.00,0.00,-0.00,0.01,-0.00,1.03
6.51,-0.00,0.00,0.00,0.01,-0.01,1.04
6.51,-0.00,0.00,0.00,-0.02,-0.00,1.01
6.52,0.00,0.00,-0.00,0.02,0.01,1.03
6.53,0.00,-0.00,-0.00,0.01,0.00,1.03
6.54,0.00,0.00,0.00,0.00,0.01,1.01
6.55,-0.00,-0.00,-0.00,0.01,-0.01,1.03
6.55,0.00,0.00,-0.00,0.02,-0.01,1.01
6.56,-0.00,0.00,0.00,0.02,-0.00,1.01
6.57,-0.00,0.00,0.00,-0.00,-0.01,1.01
6.58,0.00,0.00,-0.00,0.00,0.01,1.04
6.59,-0.00,0.00,0.00,0.02,0.01,1.03
6.59,0.00,-0.00,0.00,0.01,0.00,1.03
6.60,0.00,-0.00,0.00,-0.00,0.00,1.01
6.61,-0.00,-0.00,0.00,0.00,-0.01,1.01
6.62,-0.00,-0.00,0.00,0.01,-0.01,1.01
6.62,-0.00,-0.00,0.00,0.00,0.01,1.06
6.63,-0.01,-0.03,0.00,-0.04,0.01,1.20
6.64,-0.02,-0.04,0.00,0.06,-0.02,0.91
6.65,-0.00,-0.01,0.00,0.05,0.03,0.95
6.66,-0.00,-0.00,0.04,-0.08,0.27,1.11
6.66,-0.01,-0.03,0.08,-0.06,0.17,1.06
6.67,-0.01,-0.02,0.13,-0.03,0.16,0.99
6.68,-0.01,-0.01,0.14,0.02,-0.05,0.99
6.69,-0.01,-0.01,0.12,0.06,-0.16,1.02
6.70,-0.00,0.00,0.09,0.08,-0.12,0.98
6.70,0.00,0.01,0.08,0.04,-0.02,1.06
6.71,-0.00,0.00,0.09,0.04,0.16,1.05
6.72,-0.00,-0.00,0.16,0.04,0.42,1.09
6.73,-0.01,-0.02,0.30,0.23,0.50,1.03
6.74,-0.02,-0.02,0.44,0.17,0.46,1.02
6.74,-0.02,-0.02,0.58,0.31,0.36,1.07
6.75,-0.02,-0.03,0.68,0.00,0.14,1.02
6.76,-0.02,-0.02,0.74,-0.24,0.09,1.01
6.77,-0.02,-0.02,0.77,-0.23,0.03,1.18
6.78,-0.04,-0.08,0.76,-0.33,-0.03,1.23
6.78,-0.04,-0.09,0.73,-0.37,0.03,0.96
6.79,-0.03,-0.07,0.72,-0.61,0.01,1.03
6.80,-0.03,-0.07,0.68,-1.12,-0.39,0.94
6.81,-0.02,-0.06,0.56,-1.34,-0.60,0.95
6.82,-0.01,-0.04,0.43,-1.33,-0.95,1.03
6.82,-0.01,-0.04,0.19,-1.10,-1.36,0.93
6.83,-0.00,-0.01,-0.06,-1.07,-1.25,1.01
6.84,0.00,-0.01,-0.23,-0.70,-0.92,1.00
6.85,0.00,-0.00,-0.28,0.07,-0.44,1.01
6.86,0.00,0.00,-0.20,0.41,-0.09,1.01
6.86,-0.00,-0.01,-0.10,0.23,-0.10,1.05
6.87,-0.00,-0.01,-0.03,0.00,-0.13,0.93
6.88,0.00,0.00,0.01,-0.02,-0.14,1.03
6.89,-0.00,-0.00,0.04,-0.15,-0.20,0.94
6.90,0.00,0.01,0.07,-0.36,-0.15,1.00
6.91,-0.00,0.00,0.10,-0.38,-0.18,1.00
6.91,-0.00,0.01,0.14,-0.46,-0.28,1.09
6.92,-0.00,-0.01,0.18,-0.52,-0.58,1.01
6.93,-0.00,0.00,0.19,-0.71,-0.82,1.06
6.94,-0.00,-0.00,0.16,-0.83,-0.90,1.05
6.95,-0.00,0.00,0.13,-0.85,-0.77,0.98
6.95,0.00,0.01,0.11,-0.93,-0.52,1.08
6.96,-0.00,-0.00,0.12,-0.89,-0.36,1.07
6.97,0.00,0.00,0.12,-0.77,-0.31,0.94
6.98,-0.00,0.00,0.13,-0.80,-0.27,1.09
6.99,0.00,0.01,0.13,-0.65,-0.28,0.96
6.99,0.00,0.01,0.15,-0.60,-0.29,0.95
7.00,0.00,0.00,0.17,-0.93,-0.37,1.09
7.01,0.00,-0.01,0.13,-1.15,-0.63,0.98
7.02,0.00,-0.00,0.05,-1.05,-0.68,0.96
7.03,0.00,0.00,-0.02,-0.77,-0.52,1.05
7.03,0.00,0.01,-0.04,-0.53,-0.38,1.04
7.04,0.00,0.00,-0.03,-0.24,-0.26,0.94
7.05,0.00,0.00,0.02,0.11,-0.16,1.04
7.06,0.00,-0.00,0.10,0.05,-0.22,1.04
7.07,-0.00,-0.01,0.15,-0.11,-0.39,0.96
7.07,0.00,0.01,0.15,-0.25,-0.51,1.00
7.08,-0.00,0.00,0.14,-0.53,-0.56,1.18
7.09,-0.00,-0.02,0.11,-0.67,-0.59,1.03
7.10,-0.00,-0.01,0.07,-0.60,-0.52,1.00
7.11,-0.00,-0.00,0.04,-0.44,-0.36,1.03
7.11,-0.00,-0.01,0.03,-0.39,-0.29,1.03
7.12,-0.00,0.00,0.04,-0.49,-0.38,1.04
7.13,0.00,-0.00,0.01,-0.57,-0.41,1.02
7.14,-0.00,0.00,-0.01,-0.46,-0.26,1.00
7.14,0.00,0.01,-0.02,-0.24,-0.10,1.02
7.15,0.00,0.01,-0.03,-0.27,-0.03,1.01
7.16,0.00,0.01,-0.04,-0.21,0.04,1.03
7.17,0.00,0.01,-0.04,-0.09,0.16,1.04
7.18,0.00,0.01,-0.02,0.05,0.23,1.04
7.18,0.00,0.01,0.02,0.17,0.24,1.03
7.19,-0.00,0.01,0.08,0.14,0.21,1.09
7.20,-0.00,0.01,0.13,0.00,0.18,1.01
7.21,-0.00,0.01,0.15,0.03,0.07,1.01
7.22,-0.00,0.01,0.19,-0.09,0.06,1.04
7.22,-0.01,0.01,0.21,-0.40,-0.09,1.05
7.23,-0.00,0.01,0.18,-0.57,-0.31,1.02
7.24,-0.00,0.01,0.14,-0.48,-0.40,1.04
7.25,0.00,0.02,0.09,-0.20,-0.50,0.99
7.26,0.00,0.02,0.04,-0.12,-0.39,1.02
7.26,0.00,0.01,-0.01,-0.13,-0.31,1.06
7.27,-0.00,-0.00,-0.03,0.02,-0.09,1.01
7.28,-0.00,-0.00,-0.04,-0.23,-0.01,1.08
7.29,-0.00,-0.02,-0.04,-0.43,0.03,1.04
7.30,-0.00,-0.02,-0.04,-0.52,-0.04,1.05
7.30,-0.00,-0.02,-0.04,-0.52,0.07,0.97
7.31,0.00,0.01,-0.06,-0.61,0.00,0.83
7.32,0.00,0.02,-0.11,-0.55,-0.12,1.03
7.33,0.00,0.01,-0.12,-0.16,0.09,1.07
7.34,0.00,0.01,-0.09,0.08,0.43,0.99
7.34,0.00,0.00,-0.05,-0.13,0.40,0.98
7.35,0.01,0.01,-0.03,-0.04,0.24,1.02
7.36,0.00,0.00,0.00,0.04,0.18,1.12
7.37,0.00,0.00,0.05,0.18,0.23,1.08
7.38,0.00,0.00,0.09,0.27,0.41,1.01
7.39,0.00,-0.01,0.14,0.31,0.37,1.10
7.39,0.00,-0.01,0.19,0.21,0.30,1.10
7.40,0.00,-0.01,0.19,-0.01,0.13,1.06
7.41,-0.00,-0.01,0.17,0.08,0.14,1.01
7.42,-0.00,-0.02,0.17,-0.04,0.07,0.98
7.43,-0.00,-0.00,0.19,0.12,0.24,0.88
7.43,-0.01,0.00,0.22,0.07,0.34,1.08
7.44,-0.01,-0.00,0.25,0.05,0.32,1.05
7.45,-0.01,0.01,0.26,0.02,0.28,0.92
7.46,-0.00,0.02,0.23,-0.08,0.14,1.04
7.47,-0.01,0.02,0.18,-0.09,0.01,1.04
7.47,-0.00,0.02,0.12,-0.18,-0.30,0.97
7.48,-0.00,0.02,0.03,-0.27,-0.24,1.02
7.49,0.00,0.03,-0.07,-0.17,-0.24,0.98
7.50,0.01,0.03,-0.15,0.15,-0.13,0.99
7.51,0.01,0.03,-0.21,0.38,0.11,1.03
7.51,0.01,0.04,-0.21,0.88,0.19,0.97
7.52,0.01,0.02,-0.12,0.89,0.26,1.12
7.53,0.00,0.01,-0.03,0.56,0.43,0.98
7.54,0.00,0.02,-0.02,0.26,0.39,1.03
7.55,0.01,0.02,-0.06,0.08,0.30,0.94
7.55,0.01,0.02,-0.13,0.11,0.33,1.03
7.56,0.01,0.02,-0.21,0.19,0.30,1.03
7.57,0.01,0.01,-0.22,0.60,0.48,1.04
7.58,0.00,-0.00,-0.16,0.70,0.60,1.03
7.59,0.01,0.00,-0.08,0.38,0.62,1.04
7.59,0.00,-0.01,-0.05,-0.06,0.21,1.10
7.60,-0.00,-0.01,-0.07,-0.24,-0.04,1.02
7.61,-0.00,-0.02,-0.08,-0.37,0.03,1.01
7.62,-0.00,-0.01,-0.12,-0.52,0.09,0.92
7.62,-0.00,-0.01,-0.14,-0.26,0.26,1.06
7.63,-0.01,-0.01,-0.12,0.13,0.39,1.11
7.64,-0.01,-0.01,-0.08,0.14,0.45,1.11
7.65,-0.02,-0.02,-0.03,0.35,0.36,1.12
7.66,-0.03,-0.02,0.06,0.61,0.33,1.10
7.66,-0.03,-0.01,0.17,0.67,0.35,1.01
7.67,-0.04,-0.00,0.27,0.70,0.60,1.00
7.68,-0.04,0.00,0.37,0.56,0.63,1.00
7.69,-0.04,0.01,0.43,0.39,0.55,0.96
7.70,-0.03,0.03,0.44,0.18,0.39,0.86
7.70,-0.02,0.05,0.41,0.07,0.33,0.91
7.71,-0.02,0.07,0.38,0.15,0.28,0.98
7.72,-0.01,0.08,0.36,0.03,0.17,0.93
7.73,-0.00,0.09,0.35,-0.11,-0.03,1.02
7.74,0.01,0.09,0.32,-0.08,-0.28,0.95
7.74,0.01,0.10,0.26,-0.43,-0.42,0.97
7.75,0.02,0.10,0.21,-0.39,-0.31,1.02
7.76,0.03,0.09,0.21,-0.33,-0.10,1.03
7.77,0.03,0.08,0.26,-0.18,0.07,1.12
7.78,0.03,0.08,0.32,-0.04,0.15,1.00
7.78,0.03,0.07,0.37,0.13,0.13,1.05
7.79,0.03,0.06,0.39,0.10,0.05,1.02
7.80,0.03,0.05,0.35,-0.01,0.03,1.11
7.81,0.04,0.01,0.27,0.17,0.18,1.20
7.82,0.03,-0.02,0.23,0.67,0.44,1.12
7.82,0.03,-0.03,0.23,0.81,0.59,1.08
7.83,0.02,-0.04,0.24,0.65,0.58,1.14
7.84,0.01,-0.06,0.26,0.84,0.61,1.09
7.85,0.00,-0.07,0.27,0.87,0.49,1.06
7.86,-0.00,-0.08,0.27,0.88,0.37,1.04
7.86,-0.01,-0.09,0.26,0.75,0.15,1.03
7.87,-0.01,-0.09,0.23,0.99,0.01,0.98
7.88,-0.01,-0.07,0.21,1.12,-0.00,0.97
7.89,-0.01,-0.06,0.20,0.80,0.12,0.93
7.90,-0.01,-0.05,0.17,0.48,0.15,0.94
7.91,-0.00,-0.03,0.14,0.39,0.15,0.97
7.91,-0.00,-0.02,0.08,0.50,0.17,0.97
7.92,-0.00,-0.02,0.06,0.52,0.29,1.00
7.93,-0.00,-0.01,0.05,0.50,0.28,1.00
7.94,-0.00,-0.01,0.04,0.38,0.29,1.05
7.95,-0.00,-0.01,0.04,0.52,0.22,0.97
7.95,-0.00,-0.00,0.04,0.64,0.17,0.98
7.96,-0.00,0.00,0.05,0.73,0.06,0.99
7.97,-0.00,-0.00,0.07,0.72,0.01,1.07
7.98,-0.00,-0.00,0.08,0.85,0.14,1.03
7.99,-0.00,-0.00,0.09,0.85,0.18,1.03
7.99,-0.00,-0.00,0.09,0.77,0.15,1.01
8.00,-0.00,-0.00,0.09,0.87,0.11,1.03
8.01,-0.00,-0.00,0.09,1.03,0.11,1.04
8.02,-0.00,-0.00,0.10,1.00,0.10,0.99
8.02,-0.00,-0.00,0.10,0.83,0.05,1.03
8.03,-0.00,-0.01,0.09,0.73,-0.02,1.03
8.04,-0.00,0.00,0.06,0.79,-0.26,0.99
8.05,-0.00,0.00,0.03,0.80,-0.33,1.05
8.06,0.00,0.00,-0.02,0.77,-0.37,1.07
8.06,-0.00,0.00,-0.04,0.83,-0.28,1.03
8.07,0.00,0.00,-0.05,0.77,-0.25,1.08
8.08,0.00,0.00,-0.05,0.98,-0.21,1.01
8.09,-0.00,-0.00,-0.04,0.96,-0.27,1.03
8.10,-0.00,-0.01,-0.04,0.95,-0.36,1.01
8.10,-0.00,-0.01,-0.05,0.66,-0.42,1.04
8.11,-0.00,-0.01,-0.07,0.68,-0.31,1.01
8.12,-0.00,-0.01,-0.08,0.67,-0.34,1.03
8.13,-0.00,-0.01,-0.07,0.78,-0.38,1.00
8.14,-0.00,-0.00,-0.06,0.58,-0.36,1.00
8.15,-0.00,-0.00,-0.05,0.58,-0.47,0.99
8.15,-0.00,-0.00,-0.04,0.46,-0.29,1.00
8.16,0.00,0.00,-0.02,0.42,-0.35,1.02
8.17,0.00,0.00,-0.01,0.27,-0.43,1.02
8.18,0.00,0.00,-0.00,0.15,-0.26,1.03
8.19,0.00,0.01,-0.00,0.08,-0.11,1.03
8.19,0.00,0.01,0.00,0.09,-0.03,1.05
8.20,0.00,0.01,0.00,0.18,0.00,1.03
8.21,0.00,0.01,0.02,0.45,0.08,1.07
8.22,-0.00,-0.00,0.05,0.66,0.11,1.02
8.23,-0.00,-0.00,0.09,0.66,-0.07,1.02
8.23,0.00,-0.00,0.11,0.85,-0.23,1.00
8.24,-0.00,0.00,0.14,1.01,-0.28,1.04
8.25,-0.00,0.00,0.13,0.83,-0.39,1.02
8.26,0.00,0.00,0.09,0.66,-0.45,1.06
8.27,0.00,0.00,0.05,0.95,-0.41,1.09
8.27,0.00,0.00,0.03,0.98,-0.31,1.08
8.28,0.00,-0.00,-0.00,0.85,-0.24,1.01
8.29,0.00,-0.00,-0.03,0.73,-0.13,1.04
8.30,0.00,0.00,-0.03,0.76,-0.00,1.04
8.31,0.00,0.00,-0.03,0.77,-0.07,1.02
8.31,0.00,-0.00,-0.04,0.75,-0.05,1.01
8.32,0.00,-0.00,-0.03,0.77,0.04,0.99
8.33,0.00,0.00,-0.04,0.74,0.01,1.03
8.34,0.00,0.00,-0.02,0.67,0.09,1.03
8.35,0.00,0.00,-0.02,0.93,0.11,1.02
8.35,0.00,0.00,-0.00,1.01,0.05,1.05
8.36,0.00,-0.00,0.00,1.13,0.06,1.01
8.37,0.00,-0.00,0.02,1.09,0.10,1.01
8.38,-0.00,-0.00,0.02,1.00,0.03,1.04
8.39,0.00,0.00,-0.01,0.99,0.01,1.00
8.39,0.00,0.00,-0.03,1.09,0.09,1.01
8.40,0.00,0.01,-0.02,1.03,0.13,1.06
8.41,0.00,0.01,0.00,1.18,0.22,0.98
8.42,0.00,0.01,0.04,1.16,0.24,1.05
8.43,-0.00,0.01,0.06,1.21,0.29,0.97
8.43,0.00,0.01,0.06,0.99,0.13,1.02
8.44,-0.00,0.02,0.04,1.02,0.06,1.01
8.45,0.00,0.02,0.03,0.95,0.06,0.95
8.46,0.00,0.03,0.01,0.65,0.01,1.03
8.47,0.00,0.04,-0.00,0.63,0.01,0.93
8.47,0.00,0.05,0.01,0.60,0.01,1.02
8.48,-0.00,0.05,0.02,0.43,-0.04,1.03
8.49,-0.01,0.04,-0.01,0.24,-0.19,1.04
8.50,-0.01,0.04,-0.06,0.11,-0.32,1.00
8.51,-0.01,0.05,-0.13,0.34,-0.27,0.94
8.51,-0.01,0.06,-0.18,0.32,-0.16,1.02
8.52,-0.01,0.06,-0.23,0.52,-0.02,1.01
8.53,-0.02,0.07,-0.23,0.65,0.15,0.99
8.54,-0.02,0.07,-0.23,0.61,0.24,1.07
8.55,-0.03,0.06,-0.23,0.38,0.09,1.09
8.55,-0.03,0.04,-0.25,0.08,0.01,1.05
8.56,-0.02,-0.00,-0.25,-0.15,-0.05,1.26
8.57,-0.03,-0.05,-0.19,0.24,-0.07,1.15
8.58,-0.03,-0.07,-0.10,0.52,-0.08,1.09
8.59,-0.02,-0.08,-0.03,0.52,-0.08,1.09
8.59,-0.02,-0.09,-0.00,0.39,0.03,1.02
8.60,-0.02,-0.09,-0.00,0.35,0.02,0.96
8.61,-0.01,-0.10,-0.01,0.54,0.04,0.98
8.62,-0.00,-0.10,0.01,0.79,0.14,0.92
8.63,0.01,-0.09,0.03,0.57,0.23,0.96
8.63,0.01,-0.08,0.03,0.34,0.22,0.95
8.64,0.02,-0.07,0.02,0.45,0.10,0.95
8.65,0.02,-0.06,0.02,0.45,0.08,0.92
8.66,0.03,-0.04,0.01,0.28,0.03,1.00
8.66,0.03,-0.03,-0.01,0.16,-0.06,1.03
8.67,0.03,-0.02,-0.01,-0.01,-0.08,1.06
8.68,0.03,-0.01,-0.01,0.13,-0.06,0.89
8.69,0.02,0.01,0.01,0.04,0.09,1.11
8.70,0.01,0.00,0.03,0.07,0.10,1.04
8.70,0.01,0.01,0.05,0.28,0.01,0.95
8.71,0.00,0.01,0.05,0.16,-0.10,1.16
8.72,0.00,0.01,0.05,0.00,-0.04,1.54
8.73,-0.00,0.00,0.04,0.12,-0.00,0.98
8.74,-0.00,0.00,0.03,-0.12,-0.04,1.05
8.74,-0.01,-0.00,0.03,0.08,-0.04,0.96
8.75,-0.00,0.01,0.05,0.20,0.05,1.05
8.76,-0.00,0.01,0.08,0.05,0.11,1.04
8.77,-0.00,0.00,0.08,0.14,0.04,1.03
8.78,-0.00,0.00,0.07,0.14,-0.12,1.08
8.78,-0.00,-0.01,0.04,0.08,-0.35,1.01
8.79,-0.00,-0.01,-0.02,-0.08,-0.42,1.03
8.80,-0.00,-0.01,-0.08,-0.20,-0.32,1.02
8.81,-0.00,-0.01,-0.12,-0.27,-0.20,0.99
8.82,-0.00,-0.02,-0.11,-0.07,-0.15,1.02
8.82,0.00,-0.00,-0.10,-0.19,-0.07,1.10
8.83,-0.00,-0.03,-0.06,-0.41,-0.04,1.10
8.84,-0.00,-0.03,-0.05,-0.13,-0.15,0.74
8.85,-0.00,-0.03,-0.03,-0.17,-0.18,0.87
8.86,0.00,-0.02,0.00,-0.26,-0.14,1.11
8.86,0.00,-0.02,0.07,0.07,-0.00,0.99
8.87,0.00,-0.02,0.15,0.25,0.00,0.86
8.88,0.00,-0.01,0.22,0.40,0.08,1.03
8.89,0.00,0.02,0.26,0.36,0.01,0.95
8.90,0.00,0.01,0.25,0.28,0.12,0.98
8.90,0.00,0.01,0.24,0.47,0.10,0.97
8.91,0.01,0.02,0.23,0.70,0.08,0.91
8.92,0.01,0.03,0.20,0.43,0.07,0.96
8.93,0.00,0.03,0.14,-0.06,0.06,1.08
8.94,0.00,0.03,0.05,-0.47,-0.14,1.10
8.94,0.00,0.02,-0.03,-0.52,-0.25,1.08
8.95,-0.00,0.01,-0.10,-0.41,-0.40,1.15
8.96,-0.00,-0.00,-0.15,-0.33,-0.41,1.00
8.97,-0.00,-0.01,-0.19,-0.36,-0.37,0.99
8.98,0.00,0.01,-0.22,0.13,-0.31,0.87
8.98,-0.00,0.00,-0.22,0.19,-0.19,1.09
8.99,-0.00,-0.01,-0.21,0.23,-0.01,1.11
9.00,-0.00,-0.01,-0.20,0.49,0.11,1.00
9.01,-0.00,-0.00,-0.19,0.71,0.34,1.02
9.02,0.00,0.01,-0.19,0.66,0.60,1.08
9.02,0.00,0.01,-0.20,0.80,0.56,1.03
9.03,0.00,0.01,-0.19,0.88,0.55,1.11
9.04,0.00,-0.01,-0.13,1.04,0.48,0.99
9.05,0.00,-0.01,-0.01,1.09,0.55,1.04
9.06,-0.00,-0.02,0.08,0.51,0.45,1.09
9.06,-0.01,-0.03,0.13,0.20,-0.08,1.05
9.07,-0.00,-0.02,0.20,0.17,-0.28,1.06
9.08,-0.01,-0.03,0.18,-0.70,-0.17,1.07
9.09,-0.00,-0.03,0.06,-1.06,-0.39,1.03
9.10,-0.00,-0.02,-0.06,-0.97,-0.40,0.97
9.10,0.00,-0.02,-0.14,-0.63,-0.20,0.97
9.11,0.01,-0.01,-0.11,-0.08,0.21,0.97
9.12,0.01,-0.01,-0.03,-0.24,0.54,1.02
9.13,0.01,-0.00,0.01,-0.33,0.39,0.96
9.14,0.01,0.01,0.02,-0.28,0.26,0.95
9.15,0.01,0.02,0.03,0.05,0.32,0.95
9.15,0.01,0.03,0.04,0.42,0.45,0.97
9.16,0.01,0.03,0.06,0.53,0.40,1.02
9.17,0.01,0.02,0.06,0.56,0.10,1.09
9.18,0.00,0.01,0.07,0.52,-0.01,1.06
9.19,-0.00,0.01,0.04,0.10,0.12,1.04
9.19,-0.01,-0.00,-0.05,-0.23,0.05,1.04
9.20,-0.00,0.00,-0.16,-0.08,0.16,0.96
9.21,-0.00,0.01,-0.21,0.22,0.24,0.97
9.22,0.00,0.01,-0.22,0.40,0.31,0.99
9.23,0.00,0.02,-0.20,0.49,0.34,1.00
9.23,0.00,0.01,-0.17,0.29,0.35,1.05
9.24,-0.00,0.01,-0.17,0.12,0.34,1.07
9.25,-0.00,0.01,-0.19,0.07,0.32,1.06
9.26,-0.00,0.00,-0.23,0.05,0.18,1.01
9.27,-0.00,0.01,-0.27,-0.04,0.04,1.03
9.27,-0.00,0.00,-0.32,-0.15,-0.11,1.02
9.28,-0.00,-0.00,-0.36,-0.11,-0.11,1.01
9.29,0.00,-0.00,-0.38,-0.08,0.01,1.05
9.30,-0.00,-0.01,-0.38,-0.07,0.10,1.07
9.31,-0.00,-0.01,-0.38,0.11,0.16,0.96
9.31,0.00,-0.01,-0.36,0.30,0.21,1.00
9.32,0.00,-0.00,-0.35,0.48,0.16,0.97
9.33,0.00,-0.00,-0.35,0.52,0.14,1.04
9.34,-0.00,-0.02,-0.38,0.59,0.35,1.03
9.35,0.00,-0.01,-0.38,0.86,0.17,1.01
9.35,0.00,-0.00,-0.28,1.20,0.20,0.99
9.36,0.00,0.00,-0.14,0.92,0.30,1.02
9.37,0.00,0.00,-0.04,0.45,0.28,1.06
9.38,-0.00,0.00,0.04,0.09,0.19,1.01
9.39,0.00,0.01,0.08,-0.40,0.10,0.99
9.39,0.00,0.01,0.09,-0.58,-0.08,1.00
9.40,0.00,0.02,0.08,-0.83,-0.16,0.99
9.41,0.00,0.02,0.05,-0.96,-0.13,0.99
9.42,0.00,0.02,0.01,-1.14,-0.11,0.97
9.43,0.00,0.02,-0.02,-1.23,-0.07,0.98
9.43,0.01,0.02,-0.03,-1.08,0.03,1.02
9.44,0.01,0.02,-0.02,-1.14,0.14,1.08
9.45,-0.00,0.00,-0.02,-1.05,0.07,1.06
9.46,-0.00,0.00,-0.04,-0.61,0.05,1.04
9.47,-0.00,0.00,-0.03,-0.25,0.11,1.05
9.47,-0.00,-0.00,-0.00,-0.07,0.16,1.07
9.48,-0.00,-0.01,0.02,0.01,0.17,1.01
9.49,-0.00,-0.01,0.04,-0.04,0.07,1.06
9.50,-0.00,-0.01,0.03,-0.07,0.05,1.00
9.51,-0.00,-0.01,0.02,-0.06,0.02,1.01
9.51,-0.00,-0.00,0.01,-0.08,-0.04,1.01
9.52,0.00,0.00,0.00,0.02,-0.11,1.01
9.53,0.00,0.00,-0.00,0.00,-0.04,1.00
9.54,0.01,0.00,-0.03,-0.29,0.04,1.01
9.55,0.01,0.01,-0.07,-0.56,0.24,0.98
9.55,0.01,0.01,-0.11,-0.74,0.35,1.03
9.56,0.01,0.01,-0.13,-0.78,0.28,1.02
9.57,0.01,-0.00,-0.16,-0.76,0.09,1.01
9.58,0.01,-0.00,-0.20,-0.60,-0.14,1.03
9.59,0.00,-0.01,-0.20,-0.34,-0.20,1.06
9.59,0.01,-0.01,-0.15,-0.22,-0.10,1.06
9.60,0.00,-0.02,-0.07,-0.29,0.12,1.08
9.61,0.00,-0.02,-0.02,-0.46,0.20,1.02
9.62,0.00,-0.03,0.00,-0.68,0.26,1.04
9.63,0.00,-0.03,0.00,-0.74,0.20,0.99
9.63,0.01,-0.02,-0.01,-0.62,0.20,1.02
9.64,0.01,-0.03,-0.01,-0.50,0.15,1.04
9.65,0.01,-0.03,-0.02,-0.41,0.16,1.02
9.66,0.01,-0.03,-0.03,-0.55,0.13,1.05
9.66,0.01,-0.03,-0.05,-0.68,0.10,0.97
9.67,0.01,-0.02,-0.06,-0.85,0.21,0.94
9.68,0.01,-0.01,-0.05,-1.02,0.38,1.03
9.69,0.01,-0.00,0.01,-1.12,0.43,1.02
9.70,0.01,-0.00,0.07,-1.12,0.32,0.98
9.70,0.01,0.01,0.11,-1.10,0.17,0.97
9.71,0.01,0.01,0.12,-1.18,0.18,1.03
9.72,0.01,0.01,0.13,-1.10,0.32,1.05
9.73,0.00,0.01,0.16,-1.07,0.43,0.98
9.74,0.00,0.01,0.20,-1.23,0.42,1.04
9.74,0.00,0.01,0.22,-1.18,0.44,1.01
9.75,0.00,0.01,0.23,-0.99,0.38,1.04
9.76,-0.00,0.02,0.23,-0.80,0.26,0.97
9.77,0.00,0.02,0.22,-0.68,0.12,1.01
9.78,0.00,0.02,0.20,-0.52,0.11,1.02
9.78,0.00,0.02,0.20,-0.46,0.09,0.99
9.79,0.00,0.03,0.22,-0.59,0.11,1.04
9.80,-0.00,0.02,0.27,-0.65,0.23,1.06
9.81,-0.00,0.01,0.34,-0.53,0.34,1.02
9.82,-0.00,0.01,0.42,-0.48,0.28,0.97
9.82,-0.00,0.02,0.47,-0.53,0.20,0.97
9.83,-0.00,0.03,0.49,-0.58,0.19,0.97
9.84,-0.00,0.03,0.47,-0.56,0.17,1.03
9.85,-0.00,0.03,0.44,-0.45,0.07,1.02
9.86,-0.00,0.03,0.40,-0.40,-0.06,1.01
9.86,-0.00,0.03,0.36,-0.29,0.04,1.05
9.87,-0.01,0.02,0.33,-0.18,0.05,1.06
9.88,-0.01,0.01,0.32,-0.17,0.11,1.01
9.89,-0.01,0.01,0.29,-0.16,0.06,1.01
9.90,-0.00,0.02,0.25,-0.24,0.02,0.98
9.90,-0.00,0.02,0.22,-0.29,-0.04,1.02
9.91,-0.00,0.03,0.21,-0.21,-0.01,0.99
9.92,0.00,0.03,0.21,-0.16,0.17,1.03
9.93,-0.00,0.03,0.21,-0.03,0.24,1.01
9.94,-0.00,0.03,0.22,-0.06,0.13,0.97
9.94,0.00,0.04,0.22,-0.22,0.05,1.02
9.95,0.00,0.03,0.22,-0.24,0.07,1.06
9.96,-0.00,0.03,0.23,-0.22,0.03,1.04
9.97,-0.00,0.02,0.22,-0.23,-0.05,1.02
9.98,-0.00,0.02,0.19,-0.22,-0.05,1.04
9.98,-0.00,0.01,0.15,-0.16,0.09,1.01
9.99,-0.00,0.01,0.13,-0.13,0.13,1.02
10.00,-0.00,0.01,0.12,-0.12,0.16,1.03
10.01,-0.01,-0.00,0.14,-0.14,0.31,1.07
10.02,-0.01,-0.01,0.17,-0.16,0.36,1.04
10.02,-0.01,-0.01,0.21,-0.18,0.39,1.04
10.03,-0.02,-0.02,0.23,-0.16,0.26,1.06
10.04,-0.01,-0.01,0.26,-0.19,0.08,0.99
10.05,-0.01,0.01,0.24,-0.39,-0.08,0.98
10.06,-0.00,0.02,0.21,-0.39,-0.13,1.00
10.06,0.00,0.02,0.19,-0.38,-0.15,1.02
10.07,0.00,0.02,0.17,-0.35,-0.12,1.01
10.08,0.01,0.03,0.15,-0.29,-0.03,0.97
10.09,0.01,0.03,0.12,-0.22,0.06,1.03
10.10,0.01,0.03,0.07,0.01,0.15,1.05
10.10,0.01,0.02,0.04,0.24,0.21,1.09
10.11,0.00,0.01,0.02,0.37,0.28,1.08
10.12,-0.01,-0.01,0.03,0.27,0.40,1.09
10.13,-0.01,-0.02,0.07,0.08,0.42,1.06
10.14,-0.01,-0.03,0.11,-0.13,0.35,0.99
10.15,-0.01,-0.02,0.15,-0.32,0.35,0.98
10.15,-0.01,-0.02,0.20,-0.55,0.15,0.98
10.16,-0.01,-0.01,0.23,-0.66,0.11,0.96
10.17,-0.00,-0.00,0.25,-0.66,0.12,1.01
10.18,-0.00,0.00,0.23,-0.67,-0.01,1.01
10.19,0.00,0.01,0.18,-0.74,-0.16,1.00
10.19,0.00,0.01,0.11,-0.56,-0.15,0.98
10.20,0.01,0.02,0.06,-0.25,0.00,0.99
10.21,0.01,0.02,0.04,-0.04,0.12,0.98
10.22,0.01,0.02,0.02,0.05,0.29,1.09
10.23,0.00,0.01,0.03,0.29,0.40,1.05
10.23,-0.00,-0.00,0.08,0.32,0.33,1.07
10.24,-0.01,-0.01,0.13,0.12,0.30,1.13
10.25,-0.01,-0.03,0.19,0.06,0.20,1.06
10.26,-0.02,-0.03,0.24,-0.15,0.03,0.98
10.27,-0.01,-0.03,0.27,-0.42,-0.07,0.96
10.27,-0.01,-0.02,0.28,-0.60,-0.03,0.98
10.28,-0.01,-0.01,0.26,-0.75,-0.08,1.00
10.29,-0.00,-0.00,0.22,-0.76,-0.15,0.90
10.30,0.00,0.02,0.19,-0.72,-0.18,0.90
10.31,0.01,0.04,0.15,-0.58,-0.21,0.98
10.31,0.02,0.06,0.12,-0.25,-0.28,0.96
10.32,0.01,0.05,0.08,-0.10,-0.29,1.07
10.33,0.01,0.04,0.05,0.29,-0.17,1.05
10.34,0.00,0.03,0.03,0.54,-0.09,1.10
10.35,-0.00,0.02,0.03,0.60,-0.12,1.08
10.35,-0.01,0.01,0.03,0.52,-0.08,1.06
10.36,-0.01,0.00,0.07,0.33,-0.09,1.10
10.37,-0.01,-0.01,0.10,0.09,-0.11,1.09
10.38,-0.02,-0.03,0.13,-0.15,-0.10,1.06
10.39,-0.02,-0.03,0.15,-0.33,-0.12,1.04
10.39,-0.01,-0.02,0.15,-0.62,-0.08,1.03
10.40,-0.01,-0.02,0.13,-0.71,-0.10,1.02
10.41,-0.01,-0.02,0.09,-0.55,-0.10,1.00
10.42,-0.01,-0.01,0.07,-0.33,-0.15,0.94
10.43,-0.01,-0.00,0.05,-0.03,-0.24,1.00
10.43,-0.00,0.00,0.05,0.24,-0.31,1.01
10.44,-0.00,-0.00,0.05,0.27,-0.18,1.10
10.45,-0.01,-0.01,0.06,0.16,-0.07,1.09
10.46,-0.01,-0.02,0.04,0.09,-0.01,1.03
10.47,-0.01,-0.02,0.03,0.01,-0.02,1.01
10.47,-0.01,-0.02,0.03,0.09,0.09,0.96
10.48,-0.00,-0.01,0.06,0.13,-0.03,0.95
10.49,-0.00,-0.01,0.09,-0.16,0.04,1.00
10.50,-0.00,-0.01,0.11,-0.25,0.10,1.03
10.51,-0.01,-0.01,0.13,-0.25,-0.02,0.96
10.51,-0.00,0.00,0.14,-0.46,-0.07,1.00
10.52,-0.00,0.00,0.14,-0.42,-0.07,1.01
10.53,-0.00,0.01,0.12,-0.43,-0.10,1.00
10.54,0.00,0.01,0.08,-0.36,-0.04,0.98
10.55,0.00,0.03,0.04,-0.30,0.21,0.98
10.55,0.00,0.02,0.00,-0.13,0.18,1.02
10.56,0.00,0.02,0.02,0.12,0.17,0.99
10.57,0.00,0.01,0.08,0.12,0.26,1.06
10.58,-0.00,0.01,0.15,-0.01,0.27,1.06
10.59,-0.01,0.00,0.19,-0.17,0.13,1.06
10.59,-0.01,0.00,0.19,-0.31,-0.10,1.01
10.60,-0.01,0.00,0.19,-0.20,-0.28,0.99
10.61,-0.01,0.01,0.19,-0.11,-0.13,1.05
10.62,-0.01,0.00,0.19,-0.00,-0.15,0.99
10.63,-0.01,-0.00,0.19,0.17,-0.17,1.01
10.63,-0.00,0.00,0.16,0.07,-0.05,0.97
10.64,-0.00,0.00,0.12,0.04,0.05,1.00
10.65,-0.00,0.00,0.09,-0.01,-0.00,1.07
10.66,-0.00,0.00,0.10,0.04,-0.02,1.02
10.66,-0.01,-0.00,0.10,-0.01,-0.00,1.01
10.67,-0.00,0.00,0.09,-0.18,0.05,1.01
10.68,-0.00,0.00,0.08,-0.26,0.03,1.02
10.69,-0.00,0.01,0.08,-0.19,0.00,1.00
10.70,-0.00,0.01,0.09,-0.14,0.03,1.05
10.70,-0.00,0.01,0.10,-0.06,-0.11,1.02
10.71,-0.00,0.00,0.12,0.01,-0.11,1.06
10.72,-0.00,0.00,0.14,0.06,-0.17,1.06
10.73,-0.01,0.00,0.15,0.03,-0.14,1.05
10.74,-0.01,-0.00,0.16,-0.06,-0.10,1.05
10.74,-0.01,-0.00,0.17,-0.21,-0.12,1.06
10.75,-0.01,-0.00,0.17,-0.27,-0.07,1.06
10.76,-0.01,-0.00,0.19,-0.20,-0.05,0.99
10.77,-0.01,0.00,0.22,-0.29,-0.10,1.03
10.78,-0.00,0.01,0.23,-0.27,-0.15,1.00
10.78,-0.00,0.01,0.22,-0.30,-0.24,1.08
10.79,-0.00,0.02,0.20,-0.29,-0.34,0.96
10.80,0.00,0.02,0.18,-0.23,-0.25,1.02
10.81,-0.00,0.02,0.19,-0.16,-0.31,0.99
10.82,0.00,0.02,0.21,-0.02,-0.40,1.04
10.82,0.00,0.02,0.21,0.07,-0.29,1.02
10.83,0.00,0.02,0.19,0.04,-0.24,0.99
10.84,0.00,0.02,0.16,0.11,-0.21,0.99
10.85,0.00,0.02,0.15,0.16,-0.12,1.04
10.86,-0.00,0.01,0.16,0.04,-0.06,1.11
10.86,-0.01,-0.00,0.17,-0.01,-0.25,1.03
10.87,-0.00,0.01,0.18,0.11,-0.46,0.97
10.88,0.00,0.02,0.22,0.15,-0.32,0.99
10.89,-0.00,0.02,0.26,-0.02,-0.19,1.09
10.90,-0.00,0.01,0.31,-0.07,-0.18,1.01
10.90,-0.00,0.02,0.33,-0.18,-0.10,0.98
10.91,0.00,0.03,0.35,-0.33,-0.18,1.01
10.92,0.00,0.04,0.34,-0.41,-0.21,0.95
10.93,0.01,0.04,0.34,-0.31,-0.19,0.95
10.94,0.01,0.06,0.37,-0.29,-0.40,1.04
10.94,0.01,0.04,0.39,-0.35,-0.38,1.12
10.95,-0.00,0.02,0.41,-0.30,-0.18,1.04
10.96,-0.01,0.01,0.41,-0.48,-0.21,1.07
10.97,-0.01,0.01,0.37,-0.63,-0.33,0.97
10.98,0.00,0.01,0.30,-0.75,-0.44,1.05
10.98,-0.01,-0.01,0.24,-0.49,-0.26,1.12
10.99,-0.01,-0.03,0.21,-0.17,-0.15,1.11
11.00,-0.01,-0.03,0.18,-0.08,-0.15,1.05
11.01,-0.01,-0.04,0.14,-0.02,-0.27,1.03
11.02,-0.01,-0.04,0.10,-0.10,-0.43,1.03
11.02,-0.01,-0.04,0.06,-0.20,-0.35,1.06
11.03,-0.01,-0.04,0.01,-0.28,-0.23,1.02
11.04,-0.02,-0.04,-0.01,-0.33,-0.29,1.04
11.05,-0.02,-0.05,-0.02,-0.34,-0.37,1.06
11.06,-0.02,-0.06,-0.01,-0.35,-0.47,1.03
11.06,-0.01,-0.04,0.01,-0.30,-0.35,0.87
11.07,-0.01,-0.02,0.03,-0.36,-0.09,0.94
11.08,-0.01,-0.01,0.02,-0.54,-0.00,1.06
11.09,-0.01,-0.01,-0.03,-0.46,-0.09,0.94
11.10,-0.01,-0.01,-0.05,-0.21,-0.07,0.99
11.10,-0.01,-0.02,-0.03,0.16,-0.11,1.01
11.11,-0.01,-0.01,0.05,0.45,-0.10,1.07
11.12,-0.01,-0.01,0.14,0.52,-0.18,1.00
11.13,-0.01,-0.00,0.21,0.19,-0.27,1.00
11.14,-0.01,0.00,0.21,-0.39,-0.42,1.01
11.15,-0.00,0.01,0.15,-0.71,-0.46,1.02
11.15,-0.00,0.01,0.08,-0.50,-0.41,1.00
11.16,-0.00,0.01,0.06,-0.16,-0.25,1.02
11.17,0.00,0.02,0.08,0.11,-0.25,1.03
11.18,0.00,0.02,0.12,0.34,-0.28,1.02
11.19,-0.00,0.01,0.17,0.36,-0.39,1.10
11.19,-0.00,0.01,0.20,0.28,-0.42,1.07
11.20,-0.01,0.00,0.19,-0.03,-0.42,1.04
11.21,-0.01,0.00,0.15,-0.21,-0.28,1.04
11.22,-0.00,0.00,0.08,-0.41,-0.33,0.99
11.23,-0.00,0.01,0.01,-0.68,-0.36,1.00
11.23,0.00,0.01,-0.06,-0.80,-0.33,1.05
11.24,0.00,-0.00,-0.14,-0.69,-0.31,1.02
11.25,0.00,0.00,-0.19,-0.24,-0.08,0.99
11.26,0.00,-0.00,-0.16,0.16,0.09,1.03
11.27,-0.00,-0.01,-0.10,0.33,-0.00,1.04
11.27,-0.00,-0.01,-0.03,0.53,-0.16,1.00
11.28,-0.00,-0.01,0.04,0.68,-0.16,1.12
11.29,-0.00,-0.03,0.12,0.79,-0.07,1.01
11.30,-0.01,-0.02,0.18,0.72,-0.10,1.03
11.31,-0.01,-0.02,0.22,0.71,-0.09,0.96
11.31,-0.00,-0.02,0.24,0.63,-0.15,1.02
11.32,-0.00,-0.01,0.24,0.35,-0.28,1.00
11.33,-0.00,-0.01,0.23,0.18,-0.37,1.00
11.34,-0.01,-0.02,0.22,-0.23,-0.41,0.96
11.35,-0.00,-0.01,0.17,-0.90,-0.55,1.00
11.35,-0.00,-0.02,0.07,-0.82,-0.49,1.05
11.36,-0.00,-0.02,-0.02,-0.53,-0.43,1.00
11.37,-0.00,-0.02,-0.06,0.15,-0.32,1.04
11.38,-0.00,-0.02,-0.04,0.25,-0.25,1.02
11.39,-0.00,-0.02,-0.02,0.03,-0.24,1.05
11.39,-0.01,-0.03,-0.01,0.44,-0.29,0.97
11.40,-0.00,-0.02,0.01,0.68,-0.32,1.03
11.41,-0.00,-0.01,0.03,0.61,-0.32,0.99
11.42,-0.00,-0.01,0.05,0.68,-0.19,0.98
11.43,-0.00,-0.00,0.08,0.69,-0.24,1.03
11.43,-0.00,0.00,0.10,0.43,-0.34,1.07
11.44,-0.00,0.00,0.10,0.25,-0.32,1.05
11.45,0.00,0.00,0.08,0.24,-0.31,1.03
11.46,0.00,0.01,0.08,0.34,-0.24,1.03
11.47,-0.00,0.00,0.09,0.36,-0.22,1.07
11.47,-0.00,0.01,0.10,0.20,-0.26,1.01
11.48,-0.00,0.00,0.10,0.11,-0.22,1.08
11.49,-0.00,-0.00,0.10,0.05,-0.26,0.99
11.50,-0.00,-0.00,0.10,0.10,-0.29,1.03
11.51,0.00,0.01,0.09,0.17,-0.35,0.98
11.51,-0.00,0.01,0.09,0.42,-0.28,1.02
11.52,-0.00,0.01,0.09,0.41,-0.28,1.03
11.53,-0.00,0.00,0.08,0.31,-0.32,1.02
11.54,-0.00,0.00,0.07,0.31,-0.30,1.02
11.55,-0.00,0.00,0.05,0.03,-0.29,1.04
11.55,-0.00,0.00,0.03,-0.16,-0.28,1.02
11.56,-0.00,0.00,-0.01,-0.21,-0.26,1.04
11.57,0.00,-0.00,-0.04,-0.00,-0.23,1.03
11.58,0.00,-0.00,-0.03,0.33,-0.25,1.02
11.59,-0.00,-0.00,0.03,0.64,-0.24,1.01
11.59,-0.00,-0.00,0.09,0.71,-0.18,1.03
11.60,-0.00,-0.00,0.13,0.48,-0.14,1.06
11.61,-0.00,-0.01,0.15,0.17,-0.21,1.05
11.62,-0.00,-0.01,0.14,0.01,-0.29,1.00
11.63,-0.00,-0.00,0.13,-0.02,-0.29,1.01
11.63,-0.00,0.00,0.11,-0.05,-0.26,1.00
11.64,-0.00,0.00,0.08,-0.09,-0.24,0.98
11.65,-0.00,0.00,0.03,-0.11,-0.25,1.08
11.66,-0.00,0.01,-0.01,0.03,-0.27,1.03
11.66,0.00,0.00,-0.05,0.08,-0.28,1.13
11.67,-0.00,-0.00,-0.06,0.15,-0.37,1.02
11.68,-0.00,0.00,-0.08,0.25,-0.25,1.06
11.69,-0.00,-0.00,-0.09,0.29,-0.19,1.04
11.70,-0.00,-0.01,-0.08,0.42,-0.14,1.04
11.70,-0.00,-0.00,-0.08,0.12,-0.31,1.00
11.71,0.00,0.00,-0.10,0.10,-0.26,1.00
11.72,0.00,-0.00,-0.11,0.16,-0.21,1.03
11.73,0.00,0.00,-0.10,0.25,-0.13,1.02
11.74,0.00,0.00,-0.08,0.16,-0.22,1.02
11.74,-0.00,-0.00,-0.04,-0.06,-0.35,1.00
11.75,0.00,-0.01,-0.03,-0.19,-0.40,1.06
11.76,0.00,-0.00,-0.06,-0.30,-0.45,1.08
11.77,0.00,0.00,-0.08,-0.05,-0.31,1.04
11.78,0.00,0.00,-0.09,0.18,-0.07,1.00
11.78,0.00,0.01,-0.08,0.35,-0.02,1.00
11.79,0.00,0.01,-0.07,0.50,0.04,1.07
11.80,0.00,0.01,-0.07,0.70,0.15,1.14
11.81,0.00,0.01,-0.03,0.58,-0.04,0.98
11.82,0.00,0.01,-0.00,0.47,-0.08,1.09
11.82,0.00,0.00,0.04,0.24,-0.08,1.09
11.83,0.00,-0.00,0.05,0.01,-0.17,1.08
11.84,0.00,-0.00,0.06,-0.04,-0.12,1.06
11.85,-0.00,-0.00,0.10,0.40,0.14,1.03
11.86,-0.00,-0.01,0.15,-0.33,-0.26,0.98
11.86,0.00,0.01,0.06,-0.81,-0.67,0.93
11.87,0.00,0.01,0.01,-0.23,-0.17,1.04
11.88,0.00,0.01,0.05,0.45,0.20,1.02
11.89,0.00,0.01,0.11,0.47,0.17,0.99
11.90,0.00,0.02,0.12,0.53,0.09,0.91
11.90,0.00,0.01,0.13,0.45,0.05,1.12
11.91,-0.00,0.01,0.13,0.32,-0.11,1.08
11.92,-0.00,-0.00,0.11,0.21,-0.22,1.03
11.93,-0.00,0.00,0.11,0.21,-0.19,1.01
11.94,-0.00,0.00,0.12,0.34,-0.14,1.08
11.94,-0.00,0.01,0.13,0.52,-0.06,1.06
11.95,0.00,0.01,0.15,0.53,-0.08,1.03
11.96,-0.00,0.00,0.17,0.23,-0.21,1.07
11.97,-0.00,-0.01,0.17,-0.09,-0.39,1.00
11.98,-0.00,-0.00,0.15,-0.31,-0.43,1.07
11.98,-0.00,-0.01,0.12,-0.20,-0.30,0.97
11.99,-0.00,-0.01,0.08,-0.16,-0.28,1.02
12.00,-0.00,-0.00,0.04,0.12,-0.05,1.01
12.01,-0.00,0.00,0.04,0.31,-0.04,0.99
12.02,-0.00,-0.00,0.06,0.30,-0.02,0.99
12.02,-0.00,0.00,0.06,0.31,0.04,1.08
12.03,-0.00,-0.00,0.04,0.19,-0.08,1.07
12.04,-0.00,-0.00,0.02,0.23,-0.13,1.04
12.05,0.00,0.00,0.01,0.28,-0.26,1.02
12.06,-0.00,0.00,0.05,0.18,-0.26,0.99
12.06,-0.00,-0.00,0.11,0.29,-0.24,0.98
12.07,-0.00,0.00,0.14,0.38,-0.19,1.05
12.08,-0.00,0.00,0.14,0.27,-0.12,1.00
12.09,-0.00,0.01,0.12,0.21,-0.16,1.06
12.10,-0.00,0.00,0.10,0.20,-0.25,0.94
12.10,-0.00,0.00,0.04,0.11,-0.19,1.04
12.11,-0.00,0.00,-0.02,-0.05,-0.41,0.99
12.12,0.00,0.00,-0.08,0.07,-0.39,1.05
12.13,0.00,-0.01,-0.11,0.32,-0.24,1.03
12.14,0.00,-0.00,-0.13,0.37,-0.29,0.99
12.15,0.00,0.00,-0.14,0.31,-0.25,1.01
12.15,0.00,0.00,-0.15,0.50,-0.20,1.00
12.16,0.00,0.00,-0.14,0.34,-0.31,1.04
12.17,0.00,0.00,-0.13,0.27,-0.49,1.02
12.18,0.00,0.00,-0.10,0.18,-0.45,1.05
12.19,-0.00,0.00,-0.09,0.13,-0.23,1.00
12.19,0.00,0.01,-0.09,0.22,-0.19,1.01
12.20,0.00,0.00,-0.07,0.28,-0.14,1.06
12.21,-0.00,0.00,-0.05,0.37,-0.21,1.01
12.22,0.00,0.00,-0.05,0.15,-0.19,1.02
12.23,0.00,0.01,-0.05,0.01,-0.46,1.01
12.23,0.00,0.01,-0.04,-0.17,-0.50,1.01
12.24,0.00,0.01,-0.04,-0.23,-0.38,1.03
12.25,0.00,0.00,-0.05,-0.15,-0.35,1.02
12.26,0.00,0.00,-0.05,0.04,-0.24,1.03
12.27,0.00,0.00,-0.06,0.13,-0.11,1.02
12.27,0.00,0.00,-0.08,0.15,-0.36,0.98
12.28,0.00,0.01,-0.11,0.18,-0.39,1.02
12.29,0.00,0.00,-0.14,0.08,-0.46,1.07
12.30,0.00,0.00,-0.18,0.01,-0.55,0.99
12.31,0.00,0.01,-0.22,0.01,-0.44,1.01
12.31,0.00,0.01,-0.21,-0.00,-0.49,1.05
12.32,0.00,0.00,-0.16,-0.05,-0.51,1.00
12.33,0.00,0.00,-0.12,-0.16,-0.46,1.01
12.34,0.00,0.00,-0.08,0.09,-0.26,1.02
12.35,-0.00,0.00,-0.05,0.22,-0.14,0.96
12.35,-0.00,0.00,-0.04,0.17,-0.24,0.97
12.36,0.00,0.00,-0.07,0.20,-0.20,1.02
12.37,0.00,0.00,-0.10,0.30,-0.20,1.02
12.38,0.00,0.00,-0.15,0.21,-0.14,1.00
12.39,0.00,0.00,-0.18,0.15,-0.22,1.05
12.39,0.00,-0.00,-0.17,-0.07,-0.38,0.99
12.40,0.00,0.00,-0.16,-0.39,-0.57,1.00
12.41,0.00,0.00,-0.16,-0.64,-0.59,1.01
12.42,0.00,0.00,-0.16,-0.49,-0.52,1.03
12.43,0.00,0.01,-0.15,-0.14,-0.12,1.04
12.43,0.00,0.01,-0.13,0.17,0.21,1.05
12.44,0.00,0.01,-0.12,0.29,0.08,0.98
12.45,0.00,0.01,-0.14,0.06,-0.20,1.02
12.46,0.00,0.01,-0.20,-0.09,-0.30,1.07
12.47,0.00,0.01,-0.27,-0.01,-0.24,0.98
12.47,0.01,0.01,-0.32,0.16,-0.08,1.03
12.48,0.01,0.01,-0.32,0.34,-0.32,1.00
12.49,0.01,0.01,-0.31,0.21,-0.65,1.04
12.50,0.00,0.01,-0.29,0.06,-0.64,0.99
12.51,0.00,0.01,-0.28,0.12,-0.34,1.09
12.51,0.00,0.00,-0.27,0.26,-0.21,1.00
12.52,0.00,0.00,-0.26,0.16,-0.15,1.09
12.53,0.00,0.00,-0.25,0.18,-0.07,1.01
12.54,0.00,-0.00,-0.25,0.31,0.01,0.99
12.55,0.00,-0.01,-0.25,0.39,-0.16,1.01
12.55,0.00,0.01,-0.28,0.32,-0.34,0.89
12.56,0.01,0.01,-0.30,0.27,-0.10,1.04
12.57,0.01,0.02,-0.31,0.44,0.06,1.05
12.58,0.01,0.01,-0.29,0.61,0.07,1.06
12.59,0.01,0.01,-0.25,0.59,-0.14,1.04
12.59,0.00,0.00,-0.21,0.50,-0.18,1.07
12.60,0.00,0.00,-0.17,0.53,-0.23,0.96
12.61,0.00,-0.00,-0.13,0.42,-0.23,1.07
12.62,-0.00,0.00,-0.11,0.32,-0.42,1.00
12.63,-0.00,0.00,-0.10,0.25,-0.30,1.03
12.63,-0.00,0.00,-0.07,0.28,-0.05,1.05
12.64,0.00,0.00,-0.05,0.32,-0.02,0.98
12.65,0.00,0.01,-0.03,0.30,0.09,1.02
12.66,-0.00,-0.00,-0.03,0.20,-0.02,1.01
12.66,0.00,-0.00,-0.06,0.03,-0.07,1.03
12.67,0.00,0.00,-0.11,0.00,-0.10,0.98
12.68,0.00,0.01,-0.15,0.08,0.04,0.99
12.69,0.00,0.00,-0.15,0.26,0.19,1.03
12.70,0.00,0.00,-0.12,0.47,0.21,1.07
12.70,0.00,0.00,-0.07,0.45,0.10,1.06
12.71,0.00,0.00,-0.03,0.41,0.01,1.06
12.72,0.00,0.00,0.01,0.32,-0.08,1.01
12.73,0.00,0.01,0.03,0.22,-0.11,1.04
12.74,0.00,-0.01,0.02,0.26,-0.09,1.06
12.74,-0.00,-0.01,-0.00,0.39,0.03,0.94
12.75,0.00,-0.00,-0.02,0.60,0.25,1.06
12.76,-0.00,-0.01,0.00,0.80,0.47,1.07
12.77,-0.00,-0.01,0.04,0.85,0.29,0.98
12.78,-0.00,-0.00,0.06,0.82,0.20,1.01
12.78,0.00,0.01,0.07,0.82,0.22,1.02
12.79,0.00,0.00,0.10,0.69,0.14,1.02
12.80,0.00,0.01,0.12,0.49,0.08,1.03
12.81,-0.00,0.00,0.12,0.34,0.03,0.98
12.82,-0.00,0.01,0.11,0.32,0.15,1.02
12.82,0.00,0.01,0.10,0.47,0.34,0.97
12.83,0.00,0.02,0.10,0.41,0.25,0.97
12.84,0.01,0.03,0.07,0.28,0.21,0.91
12.85,0.01,0.04,0.03,0.33,0.25,1.05
12.86,0.00,0.01,0.02,0.54,0.19,1.13
12.86,0.00,0.02,0.04,0.76,0.43,0.95
12.87,-0.00,0.00,0.09,0.84,0.56,1.14
12.88,-0.00,0.00,0.16,0.86,0.53,0.97
12.89,-0.00,0.01,0.21,0.77,0.80,1.08
12.90,-0.00,0.00,0.24,0.80,0.82,1.05
12.90,-0.00,0.01,0.26,0.69,0.47,0.96
12.91,-0.00,0.02,0.25,0.53,0.29,1.02
12.92,0.00,0.01,0.26,0.71,0.23,1.02
12.93,-0.00,0.01,0.30,0.75,0.13,1.09
12.94,-0.00,0.00,0.32,0.65,-0.05,1.05
12.94,-0.01,-0.00,0.31,0.71,-0.24,1.00
12.95,-0.01,-0.00,0.27,0.64,-0.17,1.05
12.96,-0.00,-0.00,0.20,0.26,0.04,1.07
12.97,-0.00,-0.00,0.09,-0.20,0.18,0.99
12.98,-0.00,-0.01,-0.01,0.05,0.18,1.07
12.98,-0.00,-0.02,-0.07,-0.14,0.17,1.02
12.99,0.00,0.00,-0.14,0.00,-0.04,0.91
13.00,0.01,0.01,-0.18,0.30,0.00,0.97
13.01,0.01,0.03,-0.21,0.17,0.10,1.03
13.02,0.01,0.02,-0.22,0.33,0.20,1.06
13.02,0.01,0.01,-0.20,0.40,0.28,1.01
13.03,0.01,0.01,-0.17,0.35,0.33,1.02
13.04,0.01,0.01,-0.16,0.25,0.33,1.04
13.05,-0.00,-0.00,-0.15,0.25,0.48,1.09
13.06,0.00,0.00,-0.12,0.26,0.45,0.98
13.06,0.00,0.00,-0.12,0.12,0.42,1.07
13.07,0.00,0.00,-0.14,0.15,0.26,0.99
13.08,-0.00,-0.00,-0.17,0.23,0.44,1.03
13.09,-0.00,-0.00,-0.17,0.24,0.36,1.02
13.10,-0.00,0.00,-0.16,0.13,0.28,1.01
13.10,-0.00,-0.00,-0.16,0.07,0.28,1.03
13.11,-0.00,-0.01,-0.16,0.04,0.26,0.97
13.12,-0.00,-0.01,-0.15,0.15,0.42,1.01
13.13,-0.00,-0.01,-0.10,0.30,0.52,0.99
13.14,-0.00,-0.01,-0.04,0.30,0.57,1.00
13.15,-0.00,0.00,0.01,0.19,0.65,1.01
13.15,-0.00,0.01,0.06,0.36,0.51,0.96
13.16,-0.00,0.00,0.11,0.26,0.20,1.03
13.17,-0.01,-0.02,0.10,0.08,0.04,1.07
13.18,-0.01,-0.03,0.05,-0.05,0.05,0.92
13.19,-0.00,0.00,0.02,0.30,0.12,0.99
13.19,-0.00,-0.01,0.02,0.45,0.11,1.05
13.20,-0.01,-0.01,0.04,0.52,0.20,1.09
13.21,-0.01,-0.00,0.08,0.53,0.19,0.95
13.22,-0.00,0.01,0.08,0.64,0.10,0.89
13.23,0.01,0.02,0.11,0.60,0.17,0.99
13.23,0.01,0.02,0.10,0.26,0.04,1.00
13.24,0.01,0.02,0.02,0.00,0.11,1.03
13.25,0.01,0.01,-0.05,0.25,0.32,1.04
13.26,0.00,0.00,-0.07,0.59,0.37,1.03
13.27,0.01,0.01,-0.05,0.82,0.17,1.03
13.27,0.01,0.01,-0.02,1.02,0.22,1.06
13.28,0.00,0.00,0.02,1.22,0.32,1.05
13.29,0.00,-0.00,0.06,1.03,0.33,1.08
13.30,-0.00,-0.01,0.09,0.71,0.29,1.05
13.31,-0.00,-0.01,0.07,0.16,0.20,1.04
13.31,-0.00,-0.01,0.05,0.02,0.19,1.04
13.32,-0.00,-0.01,0.07,0.04,0.27,1.03
13.33,-0.00,-0.01,0.11,-0.01,0.34,0.96
13.34,-0.00,-0.01,0.15,0.04,0.43,0.99
13.35,-0.00,-0.01,0.18,0.06,0.32,1.02
13.35,0.00,-0.00,0.15,0.01,0.24,1.00
13.36,0.00,-0.00,0.08,-0.10,0.26,0.96
13.37,0.00,-0.00,0.00,-0.31,0.33,1.02
13.38,0.00,-0.01,-0.06,-0.35,0.30,1.00
13.39,0.01,0.00,-0.11,-0.42,0.22,0.97
13.39,0.01,0.01,-0.15,-0.40,0.18,0.98
13.40,0.01,0.01,-0.16,-0.23,0.22,1.07
13.41,0.01,0.01,-0.13,0.16,0.37,1.03
13.42,0.00,0.01,-0.08,0.20,0.39,1.06
13.43,0.00,0.01,-0.06,0.09,0.27,1.01
13.43,0.00,0.01,-0.06,0.04,0.30,1.03
13.44,0.00,0.01,-0.06,-0.06,0.33,0.99
13.45,0.00,0.01,-0.07,-0.17,0.30,1.00
13.46,-0.00,0.01,-0.07,-0.26,0.28,0.98
13.47,0.00,0.01,-0.08,-0.30,0.27,0.97
13.47,0.00,0.01,-0.07,-0.30,0.33,1.01
13.48,0.00,0.01,-0.06,-0.22,0.30,1.03
13.49,-0.00,0.01,-0.03,-0.18,0.31,1.05
13.50,-0.00,0.01,0.01,-0.17,0.23,1.00
13.51,-0.00,0.01,0.04,-0.16,0.21,1.02
13.51,-0.00,0.01,0.08,-0.10,0.29,1.05
13.52,-0.00,0.01,0.14,-0.04,0.32,1.04
13.53,-0.01,0.00,0.19,0.05,0.29,1.03
13.54,-0.01,0.01,0.21,-0.00,0.10,1.04
13.55,-0.01,0.01,0.16,-0.17,0.00,1.02
13.55,-0.00,0.00,0.07,-0.24,0.09,1.03
13.56,-0.00,0.01,-0.04,-0.20,0.17,0.99
13.57,0.00,0.01,-0.12,-0.17,0.15,1.01
13.58,0.00,0.00,-0.17,-0.21,0.05,1.02
13.59,0.00,0.01,-0.20,-0.33,-0.02,1.01
13.59,0.00,0.01,-0.24,-0.50,-0.07,1.03
13.60,0.00,0.00,-0.27,-0.31,-0.14,1.00
13.61,0.01,0.01,-0.29,-0.04,-0.09,1.03
13.62,0.01,0.01,-0.27,0.18,0.01,1.00
13.63,0.01,0.00,-0.26,0.18,0.02,1.05
13.63,0.00,-0.00,-0.26,0.24,0.12,1.06
13.64,0.00,-0.00,-0.25,0.31,0.20,1.07
13.65,-0.00,-0.01,-0.22,0.33,0.30,1.05
13.66,-0.00,-0.01,-0.19,0.28,0.30,1.03
13.66,-0.00,-0.01,-0.17,0.13,0.14,0.98
13.67,-0.00,-0.01,-0.16,0.07,0.16,1.02
13.68,-0.00,-0.01,-0.14,0.11,0.23,0.98
13.69,-0.00,-0.01,-0.10,0.17,0.30,0.98
13.70,0.00,-0.00,-0.08,0.11,0.29,1.02
13.70,0.00,-0.00,-0.06,0.13,0.20,0.98
13.71,0.00,-0.00,-0.06,0.05,0.24,1.05
13.72,0.00,-0.00,-0.07,-0.06,0.20,1.00
13.73,0.00,-0.00,-0.09,-0.17,0.14,0.97
13.74,0.00,0.00,-0.09,-0.32,0.30,1.03
13.74,0.00,0.00,-0.07,-0.14,0.35,1.01
13.75,0.00,0.00,-0.04,0.07,0.34,0.96
13.76,0.00,0.00,-0.03,0.18,0.28,1.04
13.77,0.00,0.01,-0.03,0.34,0.19,1.06
13.78,0.00,0.01,-0.02,0.45,0.11,1.03
13.78,0.00,0.01,-0.02,0.29,0.07,0.99
13.79,0.00,0.01,-0.05,0.18,0.09,1.01
13.80,0.00,0.01,-0.05,0.13,0.18,1.02
13.81,-0.00,0.00,-0.04,-0.04,0.31,1.16
13.82,-0.00,0.00,-0.01,0.25,0.25,0.98
13.82,-0.00,0.00,0.04,-0.09,0.08,1.04
13.83,-0.00,-0.00,0.05,-0.29,0.04,1.03
13.84,-0.00,-0.00,0.02,-0.42,-0.01,1.00
13.85,-0.00,-0.00,-0.01,-0.13,0.02,0.94
13.86,-0.00,-0.00,-0.03,0.14,0.06,1.00
13.86,0.00,0.00,-0.03,0.12,0.02,1.06
13.87,-0.00,-0.00,-0.04,0.02,0.02,1.02
13.88,-0.00,-0.00,-0.05,0.04,0.06,1.01
13.89,-0.00,-0.01,-0.05,0.15,0.10,1.01
13.90,-0.00,-0.00,-0.04,0.18,0.10,1.02
13.90,-0.00,-0.01,-0.04,0.13,0.07,1.01
13.91,0.00,-0.00,-0.05,0.09,0.01,1.04
13.92,0.00,-0.01,-0.06,-0.00,-0.05,1.00
13.93,0.00,-0.00,-0.08,-0.07,-0.06,1.00
13.94,0.01,0.00,-0.10,-0.18,-0.01,1.03
13.94,0.01,0.00,-0.12,-0.14,0.03,1.00
13.95,0.01,0.00,-0.12,-0.11,0.03,1.03
13.96,0.00,0.00,-0.12,-0.10,0.02,1.02
13.97,0.00,-0.00,-0.11,-0.10,0.06,1.03
13.98,0.00,-0.01,-0.08,-0.21,0.11,1.03
13.98,0.00,-0.01,-0.07,-0.35,0.05,1.03
13.99,0.00,-0.00,-0.08,-0.41,0.07,0.96
14.00,0.00,-0.01,-0.09,-0.52,0.12,1.01
14.01,0.00,-0.01,-0.09,-0.67,0.18,1.03
14.02,0.00,-0.01,-0.08,-0.95,0.21,1.02
14.02,0.00,-0.01,-0.08,-1.16,0.29,1.01
14.03,0.00,-0.01,-0.08,-1.14,0.43,0.99
14.04,-0.00,-0.02,-0.06,-0.82,0.48,0.97
14.05,0.00,-0.00,-0.02,-0.83,0.43,0.98
14.06,0.00,-0.01,0.01,-1.17,0.27,1.07
14.06,0.00,-0.01,0.01,-1.29,0.06,0.97
14.07,0.00,-0.00,0.00,-1.27,-0.08,1.03
14.08,0.00,-0.00,0.01,-1.03,-0.11,1.02
14.09,0.00,0.00,0.02,-0.79,-0.06,1.06
14.10,0.00,-0.00,0.02,-0.60,-0.12,0.98
14.10,0.00,0.00,0.02,-0.55,-0.22,1.10
14.11,0.00,-0.00,0.01,-0.44,-0.26,1.00
14.12,0.00,-0.01,0.00,-0.37,-0.25,1.03
14.13,0.00,-0.01,-0.00,-0.19,-0.21,1.00
14.14,0.00,-0.00,-0.01,-0.05,-0.11,1.00
14.15,0.00,0.00,-0.02,0.02,0.02,1.02
14.15,0.00,0.00,-0.02,0.10,0.03,1.05
14.16,0.00,-0.00,-0.02,0.08,0.14,1.03
14.17,0.00,-0.00,-0.02,0.28,0.09,0.98
14.18,0.00,-0.00,0.01,0.21,0.04,1.04
14.19,0.00,0.00,0.05,0.05,-0.05,1.01
14.19,0.00,-0.00,0.08,-0.11,-0.01,1.02
14.20,-0.00,-0.00,0.10,-0.24,-0.09,1.02
14.21,-0.00,0.00,0.13,-0.27,-0.24,1.02
14.22,-0.00,-0.00,0.16,-0.36,-0.30,1.07
14.23,-0.00,-0.00,0.16,-0.58,-0.33,1.04
14.23,-0.00,-0.01,0.13,-0.68,-0.42,1.05
14.24,-0.01,-0.01,0.10,-0.64,-0.54,1.02
14.25,-0.00,-0.01,0.08,-0.51,-0.53,1.02
14.26,-0.00,-0.00,0.05,-0.51,-0.40,1.00
14.27,0.00,-0.00,-0.01,-0.53,-0.30,1.02
14.27,0.00,-0.01,-0.06,-0.61,-0.31,1.01
14.28,0.00,-0.01,-0.11,-0.47,-0.32,1.01
14.29,0.00,-0.00,-0.12,-0.39,-0.35,1.04
14.30,0.00,-0.00,-0.08,-0.39,-0.43,1.08
14.31,-0.00,-0.01,-0.04,-0.67,-0.56,1.07
14.31,-0.00,-0.01,-0.05,-0.91,-0.59,1.04
14.32,-0.00,-0.00,-0.08,-0.70,-0.37,1.02
14.33,-0.00,-0.01,-0.08,-0.58,-0.29,1.02
14.34,-0.00,-0.01,-0.06,-0.60,-0.24,1.03
14.35,-0.00,-0.01,-0.05,-0.70,-0.27,1.01
14.35,-0.00,-0.01,-0.05,-0.63,-0.18,1.04
14.36,-0.00,-0.00,-0.03,-0.79,-0.33,1.01
14.37,-0.00,0.00,-0.01,-0.32,-0.18,0.99
14.38,0.00,0.00,-0.00,-0.09,-0.08,1.03
14.39,0.00,0.00,0.00,-0.00,-0.03,1.00
14.39,0.00,0.01,0.00,0.04,-0.01,1.01
14.40,0.00,0.01,0.00,0.03,0.01,1.03
14.41,0.00,0.00,0.00,-0.00,-0.01,1.04
14.42,-0.00,-0.01,0.00,0.01,0.00,1.03
14.43,-0.00,-0.01,0.00,0.03,-0.01,1.01
14.43,-0.00,-0.01,0.00,0.03,-0.00,1.00
14.44,-0.00,-0.01,0.00,0.05,-0.01,0.99
14.45,-0.00,-0.00,0.00,0.03,-0.02,1.00
14.46,-0.00,-0.00,0.00,0.04,-0.01,1.01
14.47,-0.00,0.00,0.00,0.03,-0.01,1.01
14.47,-0.00,0.00,-0.00,0.03,-0.00,1.01
14.48,0.00,0.00,-0.00,0.01,-0.01,1.02
14.49,0.00,0.00,-0.00,0.04,-0.01,1.02
14.50,0.00,0.01,-0.00,0.04,0.00,0.98
14.51,0.02,0.04,-0.00,0.09,-0.02,0.86
14.51,0.02,0.05,-0.00,0.00,0.01,1.03
14.52,0.02,0.04,0.01,0.17,0.04,1.03
14.53,0.02,0.04,0.06,0.30,0.10,0.99
14.54,0.02,0.04,0.11,0.23,0.19,1.06
14.55,0.01,0.03,0.20,0.35,0.18,1.08
14.55,0.00,0.02,0.30,0.44,0.07,1.08
14.56,-0.01,-0.00,0.38,0.23,-0.04,1.07
14.57,-0.01,-0.01,0.39,-0.03,-0.09,0.99
14.58,-0.01,-0.01,0.34,-0.26,-0.12,0.99
14.59,-0.01,-0.00,0.26,-0.41,-0.08,0.99
14.59,-0.00,-0.00,0.17,-0.33,-0.05,1.02
14.60,-0.00,-0.00,0.11,-0.23,-0.05,1.01
14.61,-0.00,-0.00,0.07,-0.17,-0.04,1.02
14.62,-0.00,-0.01,0.04,-0.17,-0.02,1.02
14.63,-0.00,-0.01,0.02,-0.07,-0.01,1.02
14.63,-0.00,-0.00,0.01,-0.02,-0.01,0.99
14.64,-0.00,-0.00,0.00,0.01,-0.01,1.01
14.65,-0.00,-0.00,0.00,-0.00,-0.01,1.02
14.66,-0.00,-0.00,0.00,0.00,-0.01,1.01
14.66,-0.00,0.00,0.00,0.01,-0.01,1.02
14.67,-0.00,-0.00,0.00,0.01,0.00,1.03
14.68,-0.00,0.00,0.00,0.01,0.01,1.03
14.69,-0.00,0.00,0.00,0.02,-0.00,1.00
14.70,-0.00,0.00,0.00,0.02,-0.01,1.01
14.70,-0.00,0.00,0.00,0.03,0.00,1.03
14.71,-0.00,0.00,0.00,0.02,-0.01,1.00
14.72,-0.00,0.00,0.00,0.00,0.01,1.00
14.73,-0.00,0.00,0.00,0.02,0.01,1.01
14.74,0.00,-0.00,0.00,0.02,-0.00,1.03
14.74,-0.00,0.00,0.00,0.03,-0.00,1.03
14.75,-0.00,0.00,-0.00,0.01,0.00,1.00
14.76,-0.00,0.00,0.00,0.01,-0.00,1.01
14.77,-0.00,0.00,-0.00,0.01,-0.01,1.02
14.78,0.00,0.00,-0.00,0.02,-0.01,1.03
14.78,0.00,0.00,-0.00,0.02,0.01,1.02
14.79,-0.00,0.00,-0.00,0.02,0.02,1.01
14.80,0.00,0.00,0.00,0.01,0.00,1.01
14.81,0.00,0.00,0.00,0.03,0.03,1.01
14.82,0.00,0.00,-0.00,0.02,0.02,1.03
14.82,-0.00,0.00,-0.00,0.00,0.00,1.02
14.83,0.00,0.00,-0.00,0.01,-0.01,0.99
14.84,-0.00,0.00,0.00,0.00,-0.00,1.04
14.85,-0.00,0.00,0.00,0.01,0.00,1.02
14.86,0.00,0.00,0.00,0.02,0.00,1.00
14.86,-0.00,0.00,0.00,0.02,-0.00,1.02
14.87,0.00,0.00,0.00,0.01,0.00,1.01
14.88,0.00,0.00,0.00,0.01,-0.00,1.01
14.89,0.00,0.00,0.00,0.02,-0.01,1.01
14.90,0.00,0.00,-0.00,0.02,0.00,1.01
14.90,-0.00,0.00,0.00,0.01,0.01,1.01
14.91,0.00,0.00,-0.00,0.01,-0.01,1.00
14.92,-0.00,0.00,0.00,0.02,-0.01,1.03
14.93,-0.00,0.00,0.00,0.01,-0.02,1.01
14.94,-0.00,0.00,0.00,0.01,-0.01,1.01
14.94,-0.00,0.00,0.00,0.01,0.00,0.98
14.95,-0.00,-0.00,0.00,0.02,0.01,0.99
14.96,-0.00,0.00,-0.00,0.01,0.00,1.02
14.97,0.00,0.00,-0.00,0.01,-0.00,1.01
14.98,-0.00,-0.00,-0.00,0.02,0.00,1.02
14.98,-0.00,-0.00,-0.00,0.02,0.00,1.02
14.99,-0.00,-0.00,-0.00,0.03,0.00,0.99
15.00,-0.00,0.00,-0.00,0.03,0.01,1.00
15.01,-0.00,0.00,-0.00,0.01,0.00,1.05
15.02,0.00,-0.00,-0.00,0.03,-0.00,1.03
15.02,-0.00,0.00,-0.00,0.02,-0.00,1.00
15.03,0.00,0.00,0.00,0.02,-0.01,1.01
15.04,0.00,0.00,0.00,0.01,-0.01,1.00
15.05,0.00,0.00,0.00,0.02,-0.01,0.99
15.06,-0.00,0.00,0.00,0.02,-0.00,1.00
15.06,-0.00,0.00,0.00,0.02,-0.02,1.01
15.07,-0.00,0.00,0.00,0.01,-0.01,1.02
15.08,-0.00,0.00,0.00,0.01,-0.01,1.01
15.09,-0.00,0.00,0.00,0.00,0.01,1.04
15.10,-0.00,0.00,-0.00,0.02,0.01,1.03
15.10,0.00,0.00,-0.00,0.03,0.00,1.01
15.11,-0.00,0.00,-0.00,0.03,-0.02,1.01
15.12,-0.00,0.00,-0.00,0.04,0.01,0.99
15.13,-0.00,0.00,-0.00,0.03,0.00,1.00
15.14,-0.00,0.00,-0.00,0.03,-0.01,1.03
15.15,-0.00,0.00,-0.00,0.02,-0.00,1.02
15.15,0.00,0.00,-0.00,0.02,0.01,1.02
15.16,-0.00,0.00,-0.00,0.01,0.02,1.01
15.17,-0.00,0.00,0.00,0.01,0.00,1.01
15.18,-0.00,0.00,-0.00,0.01,0.00,1.01
15.19,0.00,0.00,0.00,0.00,0.01,1.01
15.19,-0.00,0.00,0.00,0.01,0.01,1.00
15.20,-0.00,0.00,0.00,0.00,0.01,1.03
15.21,-0.00,0.00,-0.00,0.00,0.02,1.01
15.22,-0.00,-0.00,-0.00,0.01,0.00,1.02
15.23,0.00,0.00,-0.00,0.00,0.01,1.02
15.23,0.00,0.00,0.00,0.01,0.00,1.02
15.24,-0.00,0.00,-0.00,0.02,0.02,1.00
15.25,-0.00,0.00,0.00,0.02,0.00,1.01
15.26,-0.00,0.00,0.00,0.03,0.01,1.01
15.27,-0.00,0.00,0.00,0.01,0.00,1.02
15.27,0.00,0.00,-0.00,0.02,-0.01,1.00
15.28,0.00,0.00,-0.00,0.02,-0.00,1.00
15.29,0.00,0.00,-0.00,-0.00,-0.00,1.00
15.30,0.00,0.00,-0.00,0.00,-0.00,1.00
15.31,0.00,0.00,-0.00,0.02,0.02,1.02
15.31,0.00,0.00,-0.00,0.02,0.02,1.02
15.32,0.00,0.00,-0.00,0.01,-0.01,1.03
15.33,-0.00,0.00,-0.00,0.02,-0.00,1.02
15.34,-0.00,0.00,-0.00,0.02,-0.01,1.03
15.35,-0.00,0.00,-0.00,0.02,-0.01,1.00
15.35,0.00,0.00,0.00,0.03,0.01,0.98
15.36,-0.00,0.00,0.00,0.01,0.01,0.99
15.37,0.00,0.00,0.00,0.02,-0.00,1.00
15.38,-0.00,0.00,0.00,0.01,-0.01,1.01
15.39,-0.00,0.00,0.00,0.02,0.01,1.02
15.39,-0.00,0.00,-0.00,0.03,0.00,1.02
15.40,-0.00,-0.00,0.00,0.04,-0.01,1.03
15.41,-0.00,0.00,-0.00,0.02,-0.02,1.02
15.42,0.00,0.00,0.00,0.01,-0.02,1.02
15.43,-0.00,0.00,0.00,0.00,-0.01,1.02
15.43,-0.00,0.00,0.00,0.01,0.00,1.01
15.44,-0.00,0.00,0.00,0.00,-0.00,1.01
15.45,-0.00,0.00,0.00,-0.01,-0.02,1.03
15.46,-0.00,0.00,0.00,-0.00,-0.01,1.03
15.47,0.00,0.00,0.00,0.01,-0.01,1.01
15.47,-0.00,0.00,0.00,0.02,0.00,1.01
15.48,0.00,0.00,-0.00,0.01,-0.01,1.02
15.49,-0.00,0.00,-0.00,0.02,-0.00,1.02
15.50,-0.00,0.00,-0.00,0.01,0.01,1.02
15.51,0.00,0.00,-0.00,0.02,0.02,1.01
15.51,-0.00,0.00,0.00,0.01,0.01,1.03
15.52,-0.00,0.00,0.00,0.01,0.01,1.02
15.53,-0.00,0.00,0.00,0.02,-0.00,1.02
15.54,0.00,0.00,-0.00,0.02,0.00,1.02
15.55,0.00,0.00,0.00,0.01,0.00,1.01
15.55,-0.00,0.00,0.00,0.01,-0.00,1.00
15.56,0.00,0.00,-0.00,0.01,-0.00,1.01
15.57,0.00,0.00,0.00,0.02,-0.01,1.01
15.58,-0.00,0.00,0.00,0.01,-0.01,1.03
15.59,-0.00,0.00,0.00,0.00,-0.04,1.04
15.59,-0.00,0.00,0.00,0.01,-0.01,1.04
15.60,0.00,0.00,0.00,0.01,0.01,1.03
15.61,-0.00,0.00,0.00,-0.00,0.00,0.98
15.62,-0.00,0.00,0.00,-0.01,-0.01,1.01
15.63,-0.00,0.00,-0.00,0.00,0.01,1.02
15.63,-0.00,0.00,-0.00,0.00,-0.00,1.03
15.64,-0.00,0.00,-0.00,0.01,-0.00,1.06
15.65,-0.00,0.00,0.00,0.01,-0.00,1.02
15.66,-0.00,0.00,0.00,0.01,-0.02,1.00
15.66,-0.00,-0.00,-0.00,0.02,0.01,1.01
15.67,0.00,-0.00,-0.00,0.04,0.02,1.00
15.68,-0.00,0.00,0.00,0.03,0.03,1.03
15.69,-0.00,0.00,0.00,0.05,0.00,1.00
15.70,-0.00,0.00,0.00,0.03,0.01,1.01
15.70,0.00,0.00,0.00,0.01,0.01,1.01
15.71,0.00,0.00,0.00,-0.01,0.00,1.01
15.72,0.00,0.00,0.00,-0.01,-0.02,1.00
15.73,-0.00,0.00,0.00,-0.04,-0.02,1.02
15.74,0.00,-0.00,0.00,-0.01,0.01,1.02
15.74,0.00,0.00,0.00,0.00,-0.01,1.02
15.75,0.00,0.00,-0.00,0.01,-0.01,1.00
15.76,0.00,0.00,-0.00,0.01,0.01,1.01
15.77,-0.00,0.00,-0.00,0.03,0.02,1.00
15.78,0.00,0.00,0.00,0.04,0.01,0.98
15.78,0.00,0.00,0.00,0.04,0.02,1.00
15.79,-0.00,0.00,0.00,0.03,0.01,1.02
15.80,0.00,0.00,0.00,0.01,0.02,1.02
15.81,0.00,0.00,0.00,0.01,0.00,1.05
15.82,0.00,0.00,0.00,0.01,0.01,1.03
15.82,0.00,0.00,-0.00,-0.01,0.01,1.01
15.83,0.00,0.00,-0.00,-0.02,-0.01,1.03
15.84,-0.00,0.00,-0.00,-0.01,-0.01,1.00
15.85,-0.00,-0.00,-0.00,-0.01,-0.02,1.01
15.86,-0.00,0.00,-0.00,0.03,-0.02,1.02
15.86,-0.00,0.00,-0.00,0.04,0.01,1.00
15.87,0.00,0.00,0.00,0.05,-0.00,1.00
15.88,-0.00,0.00,0.00,0.05,0.01,1.02
15.89,-0.00,0.00,0.00,0.04,0.02,1.02
15.90,0.00,0.00,0.00,0.03,0.02,1.00
15.90,0.00,0.00,0.00,0.02,0.02,1.02
15.91,-0.00,0.00,0.00,0.03,0.03,1.02
15.92,-0.00,0.00,0.00,0.02,-0.01,1.03
15.93,-0.00,0.00,0.00,-0.00,-0.02,1.02
15.94,0.00,0.00,-0.00,-0.00,-0.01,1.01
15.94,-0.00,-0.00,-0.00,0.01,-0.00,1.01