time,gyro x,gyro y,gyro z,accel x,accel y,accel z
78.313899,0.220920563,2.040180206,-1.105972290,0.023908019,-0.014575318,0.974658847
78.352485,1.495029449,1.826557159,-0.762649536,0.007916809,-0.034716919,1.002612948
78.366834,1.311923981,3.733905792,-0.434585571,-0.002459168,-0.011767700,1.002857089
78.382351,1.548435211,2.139362335,-0.198074341,0.054059386,-0.017871216,1.006030917
78.420777,1.479770660,-5.245891571,-2.677627563,0.013532043,-0.016772583,1.013477206
78.421670,1.479770660,-5.245891571,-2.677627563,0.013532043,-0.016772583,1.013477206
78.422398,1.479770660,-5.245891571,-2.677627563,0.013532043,-0.016772583,1.013477206
78.423139,1.479770660,-5.245891571,-2.677627563,0.013532043,-0.016772583,1.013477206
78.423860,1.479770660,-5.245891571,-2.677627563,0.013532043,-0.016772583,1.013477206
78.424596,1.479770660,-5.245891571,-2.677627563,0.013532043,-0.016772583,1.013477206
78.425320,1.479770660,-5.245891571,-2.677627563,0.013532043,-0.016772583,1.013477206
78.426061,1.479770660,-5.245891571,-2.677627563,0.013532043,-0.016772583,1.013477206
78.426781,1.479770660,-5.245891571,-2.677627563,0.013532043,-0.016772583,1.013477206
78.427518,1.479770660,-5.245891571,-2.677627563,0.013532043,-0.016772583,1.013477206
78.428245,0.503208160,-5.924907684,-2.914138794,0.013776184,-0.024829224,1.011646152
78.428986,0.503208160,-5.924907684,-2.914138794,0.013776184,-0.024829224,1.011646152
78.429707,0.503208160,-5.924907684,-2.914138794,0.013776184,-0.024829224,1.011646152
78.430450,0.503208160,-5.924907684,-2.914138794,0.013776184,-0.024829224,1.011646152
78.431171,0.503208160,-5.924907684,-2.914138794,0.013776184,-0.024829224,1.011646152
78.469423,0.503208160,-10.914531708,-2.464004517,0.019147277,-0.038623169,1.025562167
78.483747,0.419284821,-9.228435516,-2.418228149,-0.005144714,-0.033740357,1.028858066
78.499251,-0.107143402,-4.894939423,-4.417129517,0.037335753,-0.053881958,1.006885409
78.537677,1.174594879,-4.322734833,0.564865112,0.055890441,-0.030810669,0.950610995
78.576137,3.310825348,-0.004497528,-0.320144653,-0.031267762,-0.075244263,0.951587558
78.590447,2.608921051,6.701740265,-1.983352661,0.010846497,-0.039599732,0.951343417
78.605956,3.493930817,6.900104523,-2.196975708,0.038190246,-0.028613403,0.950366855
78.644381,6.148960114,2.627643585,-3.600784302,0.014508606,-0.019946411,0.981738925
78.682809,-0.122402191,12.492450714,-0.022598267,0.023175597,-0.157031372,0.928882480
78.697145,6.072666168,7.121356964,-1.350112915,-0.011736511,-0.074878052,0.934375644
78.712651,6.728794098,6.480487823,-2.937026978,-0.014788269,-0.136035278,0.951465487
78.751080,9.650852203,12.660297394,-0.968643188,0.020856261,-0.056811646,0.928638339
78.751974,9.650852203,12.660297394,-0.968643188,0.020856261,-0.056811646,0.928638339
78.752686,9.650852203,12.660297394,-0.968643188,0.020856261,-0.056811646,0.928638339
78.753428,9.650852203,12.660297394,-0.968643188,0.020856261,-0.056811646,0.928638339
78.754146,9.650852203,12.660297394,-0.968643188,0.020856261,-0.056811646,0.928638339
78.754879,9.650852203,12.660297394,-0.968643188,0.020856261,-0.056811646,0.928638339
78.755590,9.650852203,12.660297394,-0.968643188,0.020856261,-0.056811646,0.928638339
78.756329,9.444858551,10.752948761,-0.137039185,0.034894347,-0.098803833,0.948291659
78.757039,9.444858551,10.752948761,-0.137039185,0.034894347,-0.098803833,0.948291659
78.757769,9.444858551,10.752948761,-0.137039185,0.034894347,-0.098803833,0.948291659
78.758476,9.444858551,10.752948761,-0.137039185,0.034894347,-0.098803833,0.948291659
78.759214,9.444858551,10.752948761,-0.137039185,0.034894347,-0.098803833,0.948291659
78.759920,9.444858551,10.752948761,-0.137039185,0.034894347,-0.098803833,0.948291659
78.760654,9.444858551,10.752948761,-0.137039185,0.034894347,-0.098803833,0.948291659
78.761374,9.444858551,10.752948761,-0.137039185,0.034894347,-0.098803833,0.948291659
78.799648,8.918430328,0.651630402,-1.373001099,-0.025042176,-0.125293091,0.972339511
78.813966,7.247592926,1.078876495,-2.120681763,-0.039812684,-0.090747193,0.975391269
78.829481,9.223606110,3.306659698,-2.563186646,-0.028093934,-0.047778443,0.995410800
78.867944,5.294467926,-5.161968231,-3.745742798,0.007916809,-0.021777466,1.023975253
78.924974,1.929904938,-4.994121552,-3.982254028,0.008527161,-0.078540161,1.057056308
78.939357,0.182773590,-1.522747040,-2.303787231,0.020734191,-0.042895630,1.050586581
78.954859,0.404026031,0.361713409,-2.517410278,0.020001769,-0.069506958,1.049243808
78.993306,-4.013393402,9.608539581,2.762130737,0.076764464,-0.086352661,1.048389316
79.045121,-2.937648773,-1.141277313,0.427536011,0.020123839,-0.167773560,1.033008456
79.059511,-4.196498871,0.880512238,0.374130249,0.032819152,-0.150683716,1.028735995
79.075013,-4.341457367,1.239093781,2.884201050,0.082257628,-0.140429810,1.021655917
79.113459,0.312473297,-10.967937469,-0.068374634,0.046613097,-0.066088989,0.999317050
79.151886,0.579502106,-0.080791473,0.915817261,0.012067200,-0.110522583,1.009570956
79.166229,-2.975795746,0.903400421,-0.220962524,0.047223449,-0.153735474,1.037280917
79.181702,-5.432460785,0.102313995,0.366500854,0.054913878,-0.095874146,1.031299472
79.220157,-3.837917328,-10.472026825,2.731613159,0.058087707,-0.060595825,1.019824862
79.258579,-4.234645844,-19.749370575,-2.128311157,-0.042742372,-0.119799927,1.010181308
79.272927,-3.769252777,-9.434429169,-1.167007446,-0.067278504,-0.089282349,1.005786777
79.288398,-3.326747894,-3.308025360,0.397018433,-0.062151551,-0.083178833,1.010547519
79.326851,-4.127834320,10.928424835,-3.890701294,-0.037371278,-0.136767700,1.034839511
79.365290,-5.302761078,17.367633820,-1.594253540,0.053693175,-0.111377075,1.039844394
79.379648,-5.737636566,13.148578644,-0.716873169,0.063825011,-0.078296021,1.039844394
79.395137,-3.517482758,0.636371613,-5.981155396,0.058087707,-0.078051880,1.057422519
79.433582,-6.508205414,-9.602275848,-8.155532837,0.007550598,-0.080859497,1.046436191
79.472011,-5.699489594,-4.124370575,-8.285232544,-0.011126160,-0.075976685,1.036670566
79.486343,-6.569240570,-0.492778778,-6.477066040,-0.008196472,-0.099658325,1.035571933
79.501814,-6.531093597,6.732257843,-4.150100708,-0.005877136,-0.017138794,1.025684237
79.540255,-4.433010101,4.657062531,-2.975173950,0.026349425,-0.036547974,1.028125644
79.578683,-1.884792328,-5.711284637,-5.721755981,-0.026507020,-0.068408325,1.030567050
79.593032,-2.518032074,-6.603923798,-8.155532837,-0.028826356,-0.088183716,1.007373691
79.608504,-2.373073578,-7.038799286,-8.811660767,-0.016497254,-0.116748169,0.999317050
79.646960,-4.600856781,-2.918926239,-6.332107544,-0.016131043,-0.065112427,0.956836581
79.685388,-2.144191742,-4.719463348,-6.469436646,-0.005144714,-0.040210083,0.923145175
79.699714,-1.564357758,-5.116191864,-6.477066040,-0.014544128,-0.068286255,0.918262362
79.715196,-1.190517426,-2.613750458,-8.971878052,-0.028338075,-0.022021607,0.898364902
79.716071,-1.190517426,-2.613750458,-8.971878052,-0.028338075,-0.022021607,0.898364902
79.716791,-1.190517426,-2.613750458,-8.971878052,-0.028338075,-0.022021607,0.898364902
79.717528,-1.190517426,-2.613750458,-8.971878052,-0.028338075,-0.022021607,0.898364902
79.718245,-1.190517426,-2.613750458,-8.971878052,-0.028338075,-0.022021607,0.898364902
79.718978,-1.190517426,-2.613750458,-8.971878052,-0.028338075,-0.022021607,0.898364902
79.719690,-1.190517426,-2.613750458,-8.971878052,-0.028338075,-0.022021607,0.898364902
79.720430,0.587131500,0.651630402,-8.537002563,-0.014910339,0.011425659,0.891773105
79.721149,0.587131500,0.651630402,-8.537002563,-0.014910339,0.011425659,0.891773105
79.721887,0.587131500,0.651630402,-8.537002563,-0.014910339,0.011425659,0.891773105
79.722602,0.587131500,0.651630402,-8.537002563,-0.014910339,0.011425659,0.891773105
79.774573,1.754428864,-1.270977020,-5.660720825,0.030621886,-0.053149536,0.907031894
79.813071,0.083591461,-1.858440399,-5.302139282,-0.000139832,-0.041430786,0.885425448
79.827394,1.365329742,-1.705852509,-5.820938110,0.003278137,-0.060839966,0.891528964
79.842907,1.433994293,-2.300945282,-7.819839478,0.005231262,-0.073046997,0.907764316
79.881364,0.190402985,8.815082550,-6.347366333,0.021832824,-0.091845825,0.923267245
79.919794,3.265048981,11.019977570,-2.448745728,0.070905089,-0.092334107,0.955737948
79.949291,-0.305507660,16.581806183,0.793746948,0.028668761,-0.123828247,0.997119784
79.963694,-1.030300140,20.243915558,3.074935913,0.041608214,-0.092822388,1.006030917
80.002052,-0.328395844,3.390583038,3.074935913,0.085309386,-0.089892700,1.067066073
80.040478,0.487949371,-2.857891083,7.660202026,0.023541808,-0.027758911,1.063770175
80.054797,1.334812164,-4.261699677,7.866195679,0.012555481,-0.090625122,1.068408847
80.070315,1.945163727,-6.115642548,3.052047729,-0.016131043,-0.085498169,1.080005527
80.108754,-0.595424652,9.761127472,7.164291382,-0.010759949,0.014355347,1.062183261
80.147186,2.959873199,11.195453644,7.316879272,0.020978332,-0.018237427,1.054859042
80.161507,3.898288727,6.869586945,7.385543823,0.021222472,-0.005297974,1.062671542
80.177019,3.127719879,5.442890167,7.561019897,0.010724426,-0.051684693,1.065235019
80.215460,-0.145290375,-2.506938934,5.058578491,0.015729308,-0.044604614,1.042163730
80.253883,-3.616664886,1.551898956,4.921249390,0.002057434,0.086620972,0.996143222
80.268194,-0.221584320,4.000934601,7.934860229,0.045148253,0.012646362,0.974902987
80.283709,-0.076625824,0.651630402,7.637313843,0.059064269,-0.013842896,0.973194003
80.322159,0.770236969,-9.678569794,6.012252808,0.005231262,-0.046679810,0.963550448
80.323029,0.770236969,-9.678569794,6.012252808,0.005231262,-0.046679810,0.963550448
80.323744,0.770236969,-9.678569794,6.012252808,0.005231262,-0.046679810,0.963550448
80.324472,0.770236969,-9.678569794,6.012252808,0.005231262,-0.046679810,0.963550448
80.325191,0.770236969,-9.678569794,6.012252808,0.005231262,-0.046679810,0.963550448
80.325920,0.770236969,-9.678569794,6.012252808,0.005231262,-0.046679810,0.963550448
80.326642,0.632907867,-7.343975067,5.890182495,-0.002337097,-0.015185669,0.956470370
80.327381,0.632907867,-7.343975067,5.890182495,-0.002337097,-0.015185669,0.956470370
80.328092,0.632907867,-7.343975067,5.890182495,-0.002337097,-0.015185669,0.956470370
80.328834,0.632907867,-7.343975067,5.890182495,-0.002337097,-0.015185669,0.956470370
80.329554,0.632907867,-7.343975067,5.890182495,-0.002337097,-0.015185669,0.956470370
80.367805,-0.122402191,-5.467144012,5.775741577,0.009503723,-0.087329224,0.967212558
80.382126,-0.580165863,-4.650798798,5.691818237,0.000104309,-0.076342896,0.973682284
80.397607,-3.387783051,2.848896027,5.951217651,-0.011370300,-0.057299927,0.973316073
80.436040,-4.501674652,6.678852081,8.514694214,0.060407043,-0.112597778,0.983081698
80.488547,-5.554531097,-10.243144989,7.553390503,0.046979308,-0.056567505,0.976734042
80.502957,-3.715847015,-13.401714325,8.293441772,0.045148253,-0.072314575,0.984912753
80.518461,-5.203578949,-18.879619598,6.599716187,0.003400207,-0.132129028,0.996509433
80.556917,-5.127285004,-1.110759735,3.845504761,-0.079851747,-0.092944458,1.010913730
80.595337,-5.150173187,10.043415070,1.541427612,-0.019915223,-0.083422974,1.057910800
80.609660,-4.684780121,10.264667511,1.320175171,-0.032610536,-0.002490357,1.062183261
80.625159,-2.868984222,14.636310577,-0.350662231,-0.046892762,-0.005175903,1.066944003
80.626032,-2.868984222,14.636310577,-0.350662231,-0.046892762,-0.005175903,1.066944003
80.626747,-2.868984222,14.636310577,-0.350662231,-0.046892762,-0.005175903,1.066944003
80.627479,-2.868984222,14.636310577,-0.350662231,-0.046892762,-0.005175903,1.066944003
80.628190,-2.868984222,14.636310577,-0.350662231,-0.046892762,-0.005175903,1.066944003
80.628927,-2.868984222,14.636310577,-0.350662231,-0.046892762,-0.005175903,1.066944003
80.629639,-2.868984222,14.636310577,-0.350662231,-0.046892762,-0.005175903,1.066944003
80.630382,-2.868984222,14.636310577,-0.350662231,-0.046892762,-0.005175903,1.066944003
80.631094,-2.868984222,14.636310577,-0.350662231,-0.046892762,-0.005175903,1.066944003
80.631830,-2.868984222,14.636310577,-0.350662231,-0.046892762,-0.005175903,1.066944003
80.632545,-2.868984222,14.636310577,-0.350662231,-0.046892762,-0.005175903,1.066944003
80.633284,-2.868984222,14.636310577,-0.350662231,-0.046892762,-0.005175903,1.066944003
80.633991,-2.868984222,14.636310577,-0.350662231,-0.046892762,-0.005175903,1.066944003
80.634733,-2.624843597,17.581256866,1.198104858,-0.029680848,-0.011767700,1.076953769
80.688382,-5.462978363,5.252155304,0.023178101,0.002057434,-0.071948364,1.086841464
80.726865,-3.685329437,-11.715618134,0.099472046,-0.004046082,-0.052661255,1.023242831
80.741182,-4.715297699,-17.025676727,-1.167007446,-0.021135926,-0.038623169,1.011768222
80.756711,-0.519130707,-22.007671356,-4.974075317,-0.071795106,0.027661011,0.981250644
80.795166,0.640537262,-5.673137665,-1.647659302,-0.077288270,-0.035449341,0.951099277
80.833570,0.388767242,1.338275909,-3.638931274,-0.037615418,-0.060595825,0.945239902
80.847886,-0.458095551,3.100666046,-3.150650024,-0.024065614,-0.028247193,0.935840487
80.863371,0.678684235,3.443988800,-1.060195923,0.015241028,-0.021655396,0.925708652
80.901804,-1.289699554,-6.092754364,-4.340835571,0.027448058,-0.054858521,0.918140292
80.902688,-1.907680511,-7.885662079,-3.547378540,0.026227355,-0.049243286,0.907642245
80.903394,-1.907680511,-7.885662079,-3.547378540,0.026227355,-0.049243286,0.907642245
80.904120,-1.907680511,-7.885662079,-3.547378540,0.026227355,-0.049243286,0.907642245
80.904805,-1.907680511,-7.885662079,-3.547378540,0.026227355,-0.049243286,0.907642245
80.905532,-1.907680511,-7.885662079,-3.547378540,0.026227355,-0.049243286,0.907642245
80.906232,-1.907680511,-7.885662079,-3.547378540,0.026227355,-0.049243286,0.907642245
80.906956,-1.907680511,-7.885662079,-3.547378540,0.026227355,-0.049243286,0.907642245
80.907651,-1.907680511,-7.885662079,-3.547378540,0.026227355,-0.049243286,0.907642245
80.945916,-0.320766449,-10.044780731,-0.915237427,0.016461730,-0.099292114,0.876636386
80.960249,-0.877712250,-11.418071747,-0.907608032,0.005109192,-0.113330200,0.873340487
80.975740,1.945163727,-10.678020477,-5.744644165,-0.032854676,-0.108691528,0.862842441
81.014190,5.347873688,12.507709503,0.427536011,-0.014177918,-0.061450318,0.879932284
81.052603,4.821445465,14.819416046,-0.388809204,-0.007464050,-0.117236450,0.933643222
81.066936,5.218173981,15.574726105,-0.953384399,-0.018816590,-0.104174927,0.932788730
81.082421,6.469394684,19.274982452,0.625900269,0.000714661,-0.093554810,0.950488925
81.120866,7.072116852,15.628131866,4.196456909,0.016095519,-0.102954224,0.999194980
81.159295,4.203464508,7.380756378,0.328353882,-0.052019715,-0.041186646,1.015918612
81.173630,6.499912262,8.502277374,0.496200562,-0.035051942,-0.012622193,1.030811191
81.203248,6.858493805,7.754596710,2.777389526,-0.019426942,-0.077563599,1.075488925
81.241794,3.471042633,2.459796906,-1.380630493,-0.035784364,-0.070361450,1.055713534
81.280245,6.690647125,-5.367961884,1.068405151,0.018292785,0.023876831,1.076831698
81.294563,7.445957184,-13.569561005,-0.022598267,-0.014422058,0.044262573,1.059985995
81.310068,8.666660309,-15.545574188,-0.480361938,-0.042742372,0.034130737,1.051807284
81.348509,9.658481598,-5.520549774,-4.615493774,-0.055925965,-0.005175903,1.064990878
81.386939,8.567478180,7.678302765,-4.630752563,-0.022112489,0.124584839,0.990405917
81.401271,9.055759430,15.872272491,-3.387161255,0.010480286,0.020580932,0.970996737
81.416772,9.116794586,17.543109894,-2.113052368,0.039166808,0.005078003,0.967456698
81.455249,6.667758942,5.709918976,0.892929077,0.100568175,-0.027758911,0.957691073
81.493680,6.744052887,-3.994670868,3.021530151,0.053326964,0.032910034,0.928760409
81.508009,8.498813629,-5.078044891,4.471115112,0.062482238,0.018749878,0.937793612
81.523511,6.683017731,-11.753765106,5.241683960,0.066388488,-0.014941528,0.981616855
81.561966,2.494480133,-10.723796844,3.616622925,-0.015276550,-0.018725708,0.992359042
81.562858,2.494480133,-10.723796844,3.616622925,-0.015276550,-0.018725708,0.992359042
81.563562,2.494480133,-10.723796844,3.616622925,-0.015276550,-0.018725708,0.992359042
81.564300,2.494480133,-10.723796844,3.616622925,-0.015276550,-0.018725708,0.992359042
81.565007,2.494480133,-10.723796844,3.616622925,-0.015276550,-0.018725708,0.992359042
81.565741,2.494480133,-10.723796844,3.616622925,-0.015276550,-0.018725708,0.992359042
81.566447,2.494480133,-10.723796844,3.616622925,-0.015276550,-0.018725708,0.992359042
81.567190,2.494480133,-10.723796844,3.616622925,-0.015276550,-0.018725708,0.992359042
81.619466,-1.755092621,8.235248566,6.973556519,-0.014299988,-0.031421021,1.020435214
81.633880,-1.320217133,10.211261749,6.874374390,-0.024065614,-0.018725708,1.029468417
81.649387,-2.205226898,12.271198273,9.109786987,-0.028216004,-0.030078247,1.052051425
81.687848,-1.526210785,-7.679668427,3.784469604,-0.070940614,-0.048388794,1.090869784
81.726272,-1.884792328,-16.827312469,-3.280349731,-0.125017762,-0.006152466,1.119068027
81.740639,-4.494045258,-10.624614716,-6.194778442,-0.120134950,-0.010302857,1.094653964
81.756137,-4.371974945,-4.528728485,-2.509780884,-0.097429872,0.030712768,1.085864902
81.794573,-2.098415375,6.701740265,-1.990982056,-0.033220887,0.033398315,1.115650058
81.833001,-2.220485687,0.491413116,-2.280899048,0.012311340,0.097485229,1.051441073
81.847346,-0.274990082,0.285419464,-1.022048950,0.001080872,0.076244995,1.050708652
81.876999,-0.671718597,-1.385417938,0.335983276,0.021588683,0.000927612,1.083179355
81.915493,-5.798671722,-9.823528290,0.114730835,-0.004534363,0.054882690,1.003955722
81.953950,-0.885341644,3.161701202,1.869491577,-0.067278504,0.033520386,0.971485019
81.968269,-4.356716156,4.695209503,1.694015503,-0.008562683,-0.042285278,0.964527011
81.983751,-3.746364594,2.703937531,3.166488647,-0.014544128,0.061352417,0.950122714
82.022202,-2.479885101,-3.086772919,-0.861831665,-0.020281434,-0.099536255,0.957569003
82.060635,-5.821559906,-4.307476044,0.168136597,-0.002337097,0.024853393,0.858081698
82.074966,-2.579067230,-2.018657684,0.717453003,-0.034319520,0.001782104,0.851123691
82.090458,1.968051910,7.037433624,0.046066284,-0.053484559,-0.057299927,0.892261386
82.128909,-5.722377777,13.522418976,3.090194702,0.055524230,-0.029223755,0.893360019
82.167351,2.784397125,6.488117218,4.310897827,-0.005388855,-0.132861450,0.950977206
82.181672,0.838901520,4.435810089,3.235153198,-0.008684753,-0.116259888,0.973926425
82.197184,-1.312587738,-0.027385712,5.111984253,0.024396300,-0.100024536,0.971851230
82.235608,3.348972321,3.848346710,7.644943237,-0.076311707,-0.018969849,1.023364902
82.274039,-3.639553070,7.930072784,4.120162964,-0.009295105,0.011303589,1.046680331
82.288358,-2.090785980,7.823261261,7.232955933,-0.016131043,0.089550659,1.035449862
82.303858,2.357151031,6.800922394,6.004623413,-0.028338075,0.026074097,1.052539706
82.342298,-2.022121429,-3.452983856,4.486373901,0.009869934,0.081249878,1.037769198
82.380734,13.953830719,-9.175029755,6.317428589,-0.092791200,0.062817261,1.036304355
82.395068,9.536411285,-5.566326141,1.388839722,-0.111101747,-0.052783325,1.074390292
82.410568,6.866123199,-1.995769501,-0.281997681,-0.103777528,-0.045092896,1.067676425
82.449009,9.658481598,21.891864777,3.105453491,-0.064470887,0.122997925,1.030078769
82.502956,2.319004059,-1.255718231,-2.067276001,0.037946105,0.049023315,0.982227206
82.517352,5.027439117,-3.475872040,-0.213333130,0.019757628,0.025829956,0.971118808
82.532851,3.333713531,-6.039348602,-0.785537720,-0.000261902,-0.084887818,0.978687167
82.571301,-2.060268402,-7.763591766,-0.625320435,0.010724426,-0.069629028,0.940479159
82.609753,0.808383942,3.909381866,1.861862183,-0.039934754,-0.106860474,0.958667636
82.624063,-3.380153656,6.388935089,0.862411499,0.001447082,-0.063647583,0.966846347
82.639524,-4.143093109,5.893024445,1.205734253,0.022076964,-0.042041138,0.957202792
82.677985,1.189853668,6.396564484,4.631332397,-0.016497254,-0.098315552,1.009082675
82.716422,-8.896205902,-5.573955536,3.555587769,0.026715636,-0.057666138,1.019214511
82.730744,-7.370326996,-9.007183075,3.898910522,0.000592590,0.015453979,1.006030917
82.746221,-1.098964691,-10.060039520,3.807357788,-0.070452332,-0.058398560,1.069019198
82.784662,-12.245510101,0.087055206,-0.938125610,-0.058733582,-0.008838013,1.098804355
82.823104,-3.929470062,8.303913116,2.533248901,-0.043718934,0.006542847,1.109912753
82.837448,-5.707118988,7.365497589,0.244430542,-0.032122254,-0.050219849,1.139575839
82.852926,-12.497280121,0.109943390,-2.502151489,0.009137512,-0.066211060,1.133472323
82.891378,0.327732086,-10.159221649,1.594833374,-0.010759949,0.150952026,0.991748691
82.945593,-4.181240082,-9.358135223,1.945785522,0.001447082,-0.015918091,1.020923495
82.959985,-0.862453461,-11.143413544,4.860214233,-0.021257997,0.077343628,0.983692050
82.975508,1.357700348,-10.906902313,6.058029175,-0.043230653,0.048901245,0.988208652
83.013953,-2.922389984,-16.201702118,3.364852905,-0.056048036,0.019970581,0.944385409
83.052381,5.691196442,-17.208782196,0.450424194,-0.140520692,-0.084033325,0.929370761
83.066723,2.242710114,-14.172283173,-2.456375122,-0.145403504,-0.145922974,0.948779941
83.082228,-5.562160492,-5.688396454,-2.830215454,-0.116350770,-0.096484497,0.919849277
83.120658,0.182773590,0.018390656,-4.005142212,-0.076433778,-0.031543091,0.866992831
83.175057,-7.347438812,4.298480988,-3.547378540,0.021466613,-0.018725708,0.889697909
83.189463,-0.717494965,-1.797405243,-3.699966431,0.020001769,0.008862182,0.893970370
83.204967,1.777317047,-4.101482391,-3.287979126,0.001935364,-0.069506958,0.928638339
83.243416,-5.920742035,-0.927654266,-3.486343384,0.015973449,-0.063159302,0.979419589
83.281854,0.930454254,2.543720245,2.426437378,0.009503723,-0.133715943,1.050830722
83.296156,-3.639553070,2.780231476,0.572494507,0.009625793,-0.190356568,1.083789706
83.311624,-10.940883636,3.634723663,0.709823608,0.040997863,-0.033618286,1.076709628
83.350079,2.822544098,4.298480988,8.552841187,0.035382628,0.022167847,1.058154941
83.388499,-9.781215668,-3.384319305,1.961044312,-0.001604675,-0.148730591,1.131275058
83.402854,-11.772487640,-3.735271454,2.022079468,0.011578918,-0.037036255,1.082324862
83.418347,-3.807399750,0.949176788,6.401351929,0.005841614,0.159130737,1.005664706
83.456790,-2.312038422,6.907733917,7.179550171,-0.025164247,-0.130908325,1.116504550
83.457676,-2.312038422,6.907733917,7.179550171,-0.025164247,-0.130908325,1.116504550
83.458396,-2.312038422,6.907733917,7.179550171,-0.025164247,-0.130908325,1.116504550
83.459131,-2.312038422,6.907733917,7.179550171,-0.025164247,-0.130908325,1.116504550
83.459844,-2.312038422,6.907733917,7.179550171,-0.025164247,-0.130908325,1.116504550
83.460571,-2.312038422,6.907733917,7.179550171,-0.025164247,-0.130908325,1.116504550
83.461280,-2.312038422,6.907733917,7.179550171,-0.025164247,-0.130908325,1.116504550
83.462010,-2.312038422,6.907733917,7.179550171,-0.025164247,-0.130908325,1.116504550
83.462712,-2.312038422,6.907733917,7.179550171,-0.025164247,-0.130908325,1.116504550
83.463446,-2.312038422,6.907733917,7.179550171,-0.025164247,-0.130908325,1.116504550
83.464164,-2.312038422,6.907733917,7.179550171,-0.025164247,-0.130908325,1.116504550
83.464900,-2.312038422,6.907733917,7.179550171,-0.025164247,-0.130908325,1.116504550
83.465610,-2.312038422,6.907733917,7.179550171,-0.025164247,-0.130908325,1.116504550
83.466351,-2.312038422,6.907733917,7.179550171,-0.025164247,-0.130908325,1.116504550
83.467059,-6.370876312,4.855426788,4.562667847,-0.019304872,-0.109668091,1.093189120
83.467786,-6.370876312,4.855426788,4.562667847,-0.019304872,-0.109668091,1.093189120
83.468486,-6.370876312,4.855426788,4.562667847,-0.019304872,-0.109668091,1.093189120
83.506753,0.762607574,13.110431671,6.126693726,-0.023089051,0.214184448,0.953296542
83.521073,4.874851227,16.131671906,7.889083862,-0.010882019,0.121533081,0.967578769
83.536543,2.669956207,11.027606964,6.958297729,0.026349425,-0.022143677,0.994800448
83.574997,-0.816677094,-12.417522430,1.999191284,0.028668761,-0.067187622,0.921680331
83.613417,5.172397614,-14.340129852,3.059677124,-0.112810731,-0.122363403,0.894580722
83.627736,0.777866364,-5.154338837,2.273849487,-0.109636903,-0.135546997,0.916065097
83.643206,-1.121852875,-1.789775848,1.838973999,-0.089739442,-0.129809693,0.913623691
83.681629,-0.175807953,6.121906281,0.870040894,-0.067034364,-0.037768677,0.888721347
83.720041,-3.212306976,8.044513702,-0.167556763,-0.006365418,-0.073901489,0.931445956
83.734359,-2.724025726,4.740985870,-1.289077759,0.005109192,-0.092212036,0.934375644
83.749836,-3.006313324,-0.141826630,-1.220413208,-0.012224793,-0.076953247,0.949024081
83.788281,-6.050441742,-0.134197235,-1.784988403,-0.046526551,-0.130175903,1.007007480
83.857587,0.106479645,1.277240753,-8.529373169,-0.079119325,-0.043017700,1.063037753
83.871975,0.121738434,3.741535187,-9.673782349,-0.059466004,-0.080859497,1.087695956
83.887446,-2.601955414,7.594379425,-8.758255005,0.002911926,-0.111255005,1.122608066
83.925891,-1.617763519,4.863056183,-3.883071899,0.021832824,0.080395386,1.063892245
83.964342,0.175144196,-2.094951630,-2.807327271,0.054181457,-0.056323364,1.127246737
83.978663,-2.312038422,-4.482952118,-1.807876587,0.056989074,-0.022631958,1.110156894
83.994136,-0.282619476,-9.327617645,1.259140015,0.032330871,0.050854370,1.070484042
84.032573,-1.434658051,-14.858928680,-1.052566528,-0.019915223,-0.051928833,1.054248691
84.070994,-0.427577972,-7.588115692,0.953964233,-0.055925965,0.033276245,0.938159823
84.085320,2.166416168,-0.126567841,2.655319214,-0.092913270,-0.058032349,0.948047519
84.100788,-0.099514008,2.589496613,0.557235718,-0.092547059,-0.121386841,0.953296542
84.139246,-2.655361176,2.726825714,-3.959365845,-0.027849793,-0.057788208,0.870532870
84.177664,-0.656459808,-0.637737274,-3.867813110,-0.034563661,-0.177172974,0.884570956
84.191987,-2.006862640,-1.415935516,-4.806228638,-0.030657411,-0.172412232,0.887744784
84.207458,-3.891323090,-2.735820770,-5.836196899,-0.007341980,-0.134814575,0.884082675
84.245913,0.617649078,-4.368511200,-3.257461548,-0.015276550,-0.116137818,0.921069980
84.284339,-7.461879730,-2.537456512,-2.731033325,0.016339660,-0.089282349,0.954883456
84.298662,-6.546352386,-2.812114716,-1.212783813,0.018658996,-0.065844849,0.938037753
84.314136,1.502658844,-2.094951630,0.656417847,-0.018328309,-0.032885864,0.975513339
84.352578,-8.522365570,0.506671906,-2.402969360,0.025983214,-0.082812622,1.080371737
84.390999,1.800205231,4.168781281,4.585556030,0.044904113,-0.044116333,1.057178378
84.405318,0.983860016,3.962787628,3.052047729,0.040997863,-0.156543091,1.086109042
84.420785,-5.180690765,1.727375031,3.769210815,0.060529113,-0.099414185,1.090625644
84.459244,2.792026520,-3.308025360,1.724533081,0.039533019,0.173657104,0.993091464
84.497646,8.033420563,2.223285675,5.470565796,0.030988097,-0.112963989,1.090991855
84.511967,3.570224762,-1.606670380,1.320175171,0.036237121,-0.118701294,1.066333652
84.539264,3.356601715,-0.599590302,0.053695679,0.027936339,0.014477417,1.022876620
84.577786,3.730442047,9.967121124,3.540328979,0.090436339,-0.015307739,1.022144198
84.616193,4.859592438,-6.870952606,5.462936401,0.066754699,-0.040454224,0.957080722
84.630498,2.746250153,-6.977764130,5.920700073,0.021832824,-0.181567505,0.970752597
84.645986,-0.191066742,-5.154338837,6.386093140,0.010724426,-0.154712036,0.968677402
84.684425,-0.969264984,0.674518585,6.706527710,-0.012468933,-0.028247193,0.917529941
84.722830,-3.174160004,11.210712433,5.417160034,-0.021135926,-0.126880005,0.982837558
84.737153,-5.623195648,13.201984406,5.661300659,-0.007586121,-0.121753052,0.981006503
84.752656,-7.805202484,11.279376984,5.226425171,0.026471496,-0.115283325,0.956348300
84.791088,-6.935451508,3.062519073,4.616073608,-0.012591003,-0.139575318,0.982471347
84.829474,-6.920192719,-4.849163055,3.174118042,-0.021257997,-0.086963013,0.976734042
84.843792,-5.180690765,-8.358684540,1.320175171,-0.035174012,-0.081591919,0.990405917
84.859302,-4.852626801,-8.999553680,-1.311965942,-0.083757997,-0.121264771,1.030444980
84.860180,-4.852626801,-8.999553680,-1.311965942,-0.083757997,-0.121264771,1.030444980
84.860927,-4.852626801,-8.999553680,-1.311965942,-0.083757997,-0.121264771,1.030444980
84.861671,-4.852626801,-8.999553680,-1.311965942,-0.083757997,-0.121264771,1.030444980
84.862404,-4.852626801,-8.999553680,-1.311965942,-0.083757997,-0.121264771,1.030444980
84.863159,-4.852626801,-8.999553680,-1.311965942,-0.083757997,-0.121264771,1.030444980
84.863887,-4.852626801,-8.999553680,-1.311965942,-0.083757997,-0.121264771,1.030444980
84.902193,-8.324001312,5.748065948,-3.532119751,-0.014910339,-0.089282349,1.007495761
84.940587,1.121189117,-0.996318817,-2.891250610,0.043805480,-0.174121216,1.010425448
84.954898,-0.480983734,-5.856243134,-3.341384888,0.052106261,-0.196704224,1.027759433
84.994567,3.631259918,-15.309062958,-0.724502563,0.028058410,0.040112182,0.968555331
85.033096,7.728244781,-3.826824188,4.494003296,-0.036028504,-0.092212036,1.057544589
85.071523,5.866672516,-0.302043915,3.128341675,-0.031511903,0.091747925,0.982105136
85.085857,8.887912750,0.178607941,3.708175659,-0.036272645,0.067944214,0.973926425
85.101347,11.893894196,3.772052765,2.914718628,-0.067766786,0.006542847,1.001392245
85.102232,11.893894196,3.772052765,2.914718628,-0.067766786,0.006542847,1.001392245
85.102972,11.893894196,3.772052765,2.914718628,-0.067766786,0.006542847,1.001392245
85.103713,11.893894196,3.772052765,2.914718628,-0.067766786,0.006542847,1.001392245
85.104444,11.893894196,3.772052765,2.914718628,-0.067766786,0.006542847,1.001392245
85.105193,11.893894196,3.772052765,2.914718628,-0.067766786,0.006542847,1.001392245
85.105924,11.893894196,3.772052765,2.914718628,-0.067766786,0.006542847,1.001392245
85.106670,10.184909821,6.533893585,3.471664429,-0.069719911,-0.055102661,1.018482089
85.107403,10.184909821,6.533893585,3.471664429,-0.069719911,-0.055102661,1.018482089
85.108151,10.184909821,6.533893585,3.471664429,-0.069719911,-0.055102661,1.018482089
85.108885,10.184909821,6.533893585,3.471664429,-0.069719911,-0.055102661,1.018482089
85.109636,10.184909821,6.533893585,3.471664429,-0.069719911,-0.055102661,1.018482089
85.110377,10.184909821,6.533893585,3.471664429,-0.069719911,-0.055102661,1.018482089
85.111128,10.184909821,6.533893585,3.471664429,-0.069719911,-0.055102661,1.018482089
85.111860,10.184909821,6.533893585,3.471664429,-0.069719911,-0.055102661,1.018482089
85.112604,10.184909821,6.533893585,3.471664429,-0.069719911,-0.055102661,1.018482089
85.150879,4.790927887,7.952960968,2.884201050,-0.035051942,-0.091845825,0.978320956
85.189324,0.648166656,-9.136882782,-2.181716919,-0.066424012,-0.148608521,0.963062167
85.203649,-1.137111664,-9.846416473,-3.226943970,-0.082659364,-0.154223755,0.955860019
85.219148,-2.800319672,-6.619182587,-4.928298950,-0.089129090,-0.101977661,0.939502597
85.257580,-4.440639496,0.445636749,-4.768081665,-0.059343934,-0.053515747,0.927417636
85.309533,-6.912563324,-2.804485321,-6.072708130,-0.005388855,-0.107592896,0.950000644
85.323928,-7.072780609,-3.735271454,-5.660720825,0.001080872,-0.095874146,0.941944003
85.339409,-3.166530609,-3.872600555,-4.417129517,-0.023577332,-0.065478638,0.950610995
85.377852,-4.089687347,5.030902863,-5.477615356,-0.023577332,-0.103686646,1.001514316
85.416275,-1.465175629,10.379108429,-1.159378052,0.049176574,-0.013598755,1.006275058
85.430595,0.739719391,9.097370148,-0.121780396,0.056867003,-0.060839966,1.018970370
85.446069,0.518466949,2.169879913,0.305465698,0.063092589,-0.146899536,1.053150058
85.484505,0.220920563,-19.406047821,-2.280899048,0.051007628,0.039623901,0.995899081
85.522962,11.176731110,-14.424053192,-2.036758423,-0.026262879,0.018994018,0.997485995
85.537285,10.802890778,-2.056804657,-0.816055298,-0.043108582,-0.050830200,1.015064120
85.552757,9.170200348,4.275592804,-2.242752075,-0.034075379,-0.053881958,1.007373691
85.591207,15.487339020,27.003559113,-2.700515747,0.027203918,0.059643432,1.007861972
85.629642,9.841587067,18.138202667,-0.632949829,0.159528136,-0.042651489,0.984180331
85.643973,11.459018707,-0.576702118,2.594284058,0.145612121,-0.037890747,0.942432284
85.659459,13.091709137,-7.504192352,2.922348022,0.102521300,-0.044238403,0.939014316
85.697916,8.659030914,-11.357036591,4.272750854,0.004010559,-0.079028443,0.947559237
85.698771,8.659030914,-11.357036591,4.272750854,0.004010559,-0.079028443,0.947559237
85.737001,7.484104156,2.505573273,6.965927124,-0.045427918,-0.079516724,0.964649081
85.751319,6.431247711,5.793842316,6.576828003,-0.052752137,-0.113086060,0.985645175
85.766779,0.228549957,9.478839874,3.738693237,-0.037737489,-0.141406372,1.010913730
85.767661,0.228549957,9.478839874,3.738693237,-0.037737489,-0.141406372,1.010913730
85.768396,0.228549957,9.478839874,3.738693237,-0.037737489,-0.141406372,1.010913730
85.769145,0.228549957,9.478839874,3.738693237,-0.037737489,-0.141406372,1.010913730
85.821276,-1.488063812,3.833087921,3.006271362,-0.014299988,-0.047900513,0.990283847
85.859769,-7.370326996,-8.122173309,-2.166458130,-0.020891786,-0.085009888,0.998706698
85.874076,-3.837917328,-9.648052216,-1.853652954,-0.048601747,-0.041430786,1.000293612
85.889542,-2.022121429,-7.855144501,-1.945205688,-0.068865418,-0.063525513,1.026904941
85.941942,-13.305995941,9.890827179,-8.041091919,0.013165832,0.002758667,1.069385409
85.980480,1.014377594,15.010150909,-4.111953735,0.023297668,0.129223511,1.052173495
85.994801,1.990940094,15.597614288,-2.464004517,0.046246886,0.003613159,1.132251620
86.010306,-0.229213715,13.667377472,-2.570816040,0.060651183,-0.029467896,1.148731112
86.048759,0.457431793,-0.233379364,0.786117554,0.061749816,0.031811401,1.067066073
86.087213,2.639438629,-10.212627411,2.487472534,-0.019304872,-0.132983521,1.062793612
86.101534,-1.762722015,-10.929790497,4.013351440,-0.036638856,-0.089282349,1.028613925
86.117030,-2.228115082,-12.081829071,4.143051147,-0.043230653,-0.047656372,0.998462558
86.155467,3.150608063,-13.142314911,1.434616089,-0.123064637,-0.011889771,0.956226230
86.193962,-1.533840179,3.726276398,-1.128860474,-0.125383973,-0.018847778,0.930225253
86.208276,-1.007411957,7.029804230,-2.387710571,-0.105364442,-0.037768677,0.917896152
86.223758,-1.518581390,10.340961456,-2.937026978,-0.066301942,-0.063891724,0.915088534
86.262214,-3.677700043,8.593830109,-5.065628052,-0.013689636,-0.105517700,0.915332675
86.300652,-5.562160492,-2.117839813,-2.479263306,0.025494933,-0.106860474,0.921802402
86.314979,-5.462978363,-5.856243134,-2.441116333,0.011823059,-0.098437622,0.923389316
86.330463,-4.570339203,-10.639873505,-3.364273071,-0.007708191,-0.129809693,0.944629550
86.368906,-7.889125824,-11.494365692,1.373580933,-0.019793153,-0.050708130,0.941455722
86.407354,2.898838043,-8.213726044,-0.648208618,-0.111834168,-0.132129028,1.035938144
86.421671,-4.860256195,2.108844757,-3.265090942,-0.116228700,-0.196215943,1.123706698
86.437152,-9.849880219,9.249958038,-2.486892700,-0.095232606,-0.142993286,1.126026034
86.438011,-12.008998871,15.368732452,0.351242065,-0.055437684,-0.055102661,1.104907870
86.438758,-12.008998871,15.368732452,0.351242065,-0.055437684,-0.055102661,1.104907870
86.477048,-4.249904633,17.222675323,2.022079468,0.008283020,-0.038623169,1.080860019
86.515493,-3.837917328,-1.606670380,-1.258560181,-0.000750183,-0.047290161,1.112720370
86.529841,-1.800868988,-7.969585419,-2.822586060,-0.006487488,0.085278198,1.068775058
86.559504,5.210544586,-6.504741669,1.526168823,-0.036028504,0.015576050,1.047290683
86.598027,0.220920563,-1.423564911,-6.255813599,-0.056048036,-0.136889771,1.055713534
86.636466,-5.066249847,11.935504913,-2.906509399,0.040387511,0.022411987,0.947070956
86.650788,1.243259430,11.897357941,-1.884170532,0.076886535,0.069164917,0.898975253
86.666318,3.455783844,9.150775909,-2.692886353,0.108502746,0.042797729,0.897998691
86.704761,2.845432281,-17.422405243,-3.051467896,0.104352355,-0.104663208,0.844776034
86.743198,8.330966949,-8.869853973,5.325607300,0.025494933,-0.154223755,0.846485019
86.757510,4.424716949,-3.758159637,6.248764038,0.020978332,-0.152514771,0.885303378
86.773015,3.638889313,-2.812114716,5.859664917,0.022443175,-0.125659302,0.895191073
86.811458,1.426364899,-1.690593719,4.066757202,0.002789856,-0.119921997,0.906055331
86.849900,-2.380702972,3.230365753,4.425338745,0.032941222,-0.134082153,0.923145175
86.864235,-2.106044769,2.314838409,4.196456909,0.030377746,-0.079272583,0.924365878
86.879715,0.594760895,-0.111309052,2.052597046,0.017438293,-0.067431763,0.947070956
86.918164,0.304843903,-7.855144501,3.479293823,0.020490050,-0.143237427,1.027881503
86.956585,0.236179352,-19.009319305,-5.866714478,-0.032854676,-0.032641724,1.064258456
86.970915,1.525547028,-16.239849091,-5.027481079,-0.025408387,-0.012011841,1.076831698
86.986400,-0.351284027,-11.112895966,-5.279251099,0.000226379,-0.059130982,1.097217441
87.024853,2.090122223,-2.339092255,-3.852554321,0.054791808,0.018627807,1.064624667
87.063281,7.018711090,-4.856792450,-3.043838501,0.077252746,0.054638550,1.072681308
87.094396,9.719516754,-15.125957489,-0.571914673,0.043317199,-0.045703247,1.074512362
87.108793,9.208347321,-15.927043915,-0.648208618,0.022199035,-0.076464966,1.075610995
87.147158,3.928806305,-1.530376434,-1.464553833,-0.021624207,0.013622925,1.008960605
87.185576,6.766941071,11.004718781,2.609542847,0.034894347,-0.003100708,0.970020175
87.216952,5.347873688,-0.485149384,-1.014419556,0.048688293,-0.073169068,0.971607089
87.231334,4.638339996,-5.268779755,-2.120681763,0.050397277,-0.083911255,0.971851230
87.269680,-0.580165863,-12.310710907,-2.807327271,0.014508606,-0.069629028,0.932300448
87.308156,-3.830287933,-2.964702606,-5.775161743,0.003522278,-0.088061646,0.915698886
87.322472,-4.768703461,4.618915558,-4.699417114,0.036115050,-0.101733521,0.918750644
87.337938,-5.745265961,8.021625519,-3.455825806,0.049908996,-0.089038208,0.919971347
87.376374,-5.539272308,10.524066925,-0.014968872,0.098248839,-0.104174927,0.957202792
87.414805,-3.830287933,-7.137981415,2.807907104,0.095685363,-0.032275513,0.980518222
87.429131,-1.137111664,-8.610454559,3.608993530,0.072125793,-0.041674927,0.998340487
87.444615,-0.755641937,-8.663860321,2.762130737,0.038312316,-0.118457153,1.058521152
87.483057,-6.401393890,-0.469890594,3.700546265,0.064679503,-0.012988403,1.071094394
87.521471,0.915195465,6.511005402,6.279281616,0.070538878,-0.185839966,1.108936191
87.535790,-1.678798676,5.519184113,5.478195190,0.081891418,-0.165576294,1.118579745
87.551264,-3.639553070,0.880512238,4.921249390,0.103375793,-0.047900513,1.090991855
87.589700,4.501010895,2.002033234,7.683090210,0.066022277,0.094311401,1.050952792
87.590563,4.501010895,2.002033234,7.683090210,0.066022277,0.094311401,1.050952792
87.591266,6.477024078,5.198749542,8.774093628,0.055158019,0.043041870,1.065723300
87.591994,6.477024078,5.198749542,8.774093628,0.055158019,0.043041870,1.065723300
87.592688,6.477024078,5.198749542,8.774093628,0.055158019,0.043041870,1.065723300
87.593418,6.477024078,5.198749542,8.774093628,0.055158019,0.043041870,1.065723300
87.594118,6.477024078,5.198749542,8.774093628,0.055158019,0.043041870,1.065723300
87.594851,6.477024078,5.198749542,8.774093628,0.055158019,0.043041870,1.065723300
87.595545,6.477024078,5.198749542,8.774093628,0.055158019,0.043041870,1.065723300
87.596274,6.477024078,5.198749542,8.774093628,0.055158019,0.043041870,1.065723300
87.596981,6.477024078,5.198749542,8.774093628,0.055158019,0.043041870,1.065723300
87.597708,6.477024078,5.198749542,8.774093628,0.055158019,0.043041870,1.065723300
87.635928,-1.953456879,11.981281281,7.446578979,0.067365050,-0.056689575,1.074024081
87.650251,-3.296230316,10.943683624,5.508712769,0.078351378,-0.001880005,1.048023105
87.665722,-1.091335297,10.226520538,4.745773315,0.080182433,0.128735229,0.992481112
87.704181,3.509189606,6.869586945,7.149032593,0.130353332,0.014721557,0.963184237
87.742589,5.447055817,-14.874187469,7.103256226,0.044659972,-0.054248169,0.903369784
87.756918,5.904819489,-16.598430634,6.630233765,0.012921692,-0.094531372,0.909839511
87.772375,2.105381012,-12.997356415,5.836776733,-0.028338075,-0.106616333,0.914111972
87.810827,1.174594879,4.901203156,8.117965698,-0.052385926,-0.045947388,0.898242831
87.865212,-4.516933441,16.810688019,3.883651733,-0.033342957,-0.104541138,0.931323886
87.879606,-4.394863129,17.276081085,4.013351440,-0.003801941,-0.078540161,0.936328769
87.895133,-4.257534027,15.719684601,4.753402710,0.003156067,-0.075732544,0.947070956
87.933582,-4.631374359,-3.300395966,1.800827026,-0.031267762,-0.086596802,0.971973300
87.972011,-2.037380219,-11.700359344,-4.234024048,-0.084734559,-0.021533325,1.005786777
87.986335,-0.854824066,-8.663860321,-3.081985474,-0.097063661,-0.019458130,1.017627597
88.001804,-0.282619476,-2.957073212,-6.538101196,-0.106096864,-0.081347778,1.044971347
88.040253,-3.204677582,6.182941437,-11.359878540,-0.004290222,-0.077197388,1.060108066
88.078669,2.029087067,3.634723663,-8.582778931,0.053693175,-0.033374146,1.054492831
88.092982,3.158237457,0.277790070,-9.719558716,0.063458800,-0.013354614,1.062061191
88.124628,4.119541168,-4.330364227,-6.293960571,0.074078918,-0.010424927,1.062305331
88.163141,4.623081207,-7.031169891,-3.127761841,0.046491027,-0.024463013,1.052295566
88.201583,6.415988922,-7.626262665,-0.091262817,0.001691223,0.023266479,1.005542636
88.215908,6.972934723,-7.061687469,0.023178101,-0.016375184,-0.005542114,1.011279941
88.231380,3.959323883,-3.979412079,-0.945755005,-0.041765809,-0.100634888,1.026172519
88.269811,-4.074428558,5.282672882,-0.686355591,-0.053240418,-0.048510864,0.947315097
88.308262,-4.112575531,5.526813507,-3.745742798,-0.044329286,-0.109179810,0.930835605
88.322589,-4.768703461,3.993305206,-5.134292603,-0.038714051,-0.110766724,0.931568027
88.338064,-7.332180023,0.933917999,-6.286331177,-0.021624207,-0.116870239,0.921924472
88.338932,-7.332180023,0.933917999,-6.286331177,-0.021624207,-0.116870239,0.921924472
88.339652,-7.332180023,0.933917999,-6.286331177,-0.021624207,-0.116870239,0.921924472
88.340383,-7.332180023,0.933917999,-6.286331177,-0.021624207,-0.116870239,0.921924472
88.341084,-7.332180023,0.933917999,-6.286331177,-0.021624207,-0.116870239,0.921924472
88.341810,-7.332180023,0.933917999,-6.286331177,-0.021624207,-0.116870239,0.921924472
88.342513,-7.332180023,0.933917999,-6.286331177,-0.021624207,-0.116870239,0.921924472
88.343249,-7.332180023,0.933917999,-6.286331177,-0.021624207,-0.116870239,0.921924472
88.343947,-7.332180023,0.933917999,-6.286331177,-0.021624207,-0.116870239,0.921924472
88.344677,-7.332180023,0.933917999,-6.286331177,-0.021624207,-0.116870239,0.921924472
88.345386,-7.332180023,0.933917999,-6.286331177,-0.021624207,-0.116870239,0.921924472
88.346122,-7.751796722,-0.393596649,-6.339736938,-0.019060731,-0.089648560,0.913867831
88.384357,-5.783412933,-2.896038055,-7.949539185,-0.037249207,-0.135058716,0.928516269
88.422794,-10.269496918,-0.866619110,-7.125564575,0.014630676,-0.092944458,0.930469394
88.437137,-6.691310883,-2.247539520,-5.012222290,0.010114075,-0.038867310,0.921314120
88.452621,-3.120754242,-3.536907196,-4.890151978,0.002667786,-0.060839966,0.941577792
88.491068,-4.684780121,-5.100933075,-7.743545532,0.000592590,-0.164721802,1.078174472
88.541062,-2.167079926,8.036884308,-1.441665649,0.044782043,-0.028125122,1.091846347
88.555455,-1.610134125,5.023273468,-2.769180298,0.059918761,-0.148730591,1.143726230
88.570961,-3.998134613,1.170429230,-4.661270142,0.076642394,-0.145312622,1.153369784
88.609417,0.663425446,-8.000102997,-5.599685669,0.073224425,0.078686401,1.082691073
88.647857,-1.411769867,-1.148906708,0.656417847,0.078229308,-0.138598755,1.120288730
88.662166,-4.135463715,-0.012126923,0.229171753,0.063214660,-0.127002075,1.105762362
88.677631,-7.240627289,6.327899933,-0.846572876,0.040387511,-0.023486450,1.047168612
88.716074,-1.228664398,28.765949249,2.266220093,0.087018371,0.079418823,0.970874667
88.754551,-3.044460297,12.362751007,4.082015991,0.177350402,-0.104296997,0.951587558
88.768877,-3.227565765,4.710468292,4.822067261,0.155011535,-0.102099732,0.927905917
88.784325,-1.755092621,-2.850261688,6.355575562,0.094708800,-0.148608521,0.905078769
88.822758,-4.379604340,-4.070964813,8.018783569,0.048200011,-0.131884888,0.903735995
88.861196,-6.470058441,2.932819366,7.499984741,0.010846497,-0.102099732,0.891162753
88.875505,-6.622646332,6.221088409,6.943038940,0.005963684,-0.132251099,0.898975253
88.890975,-7.042263031,7.266315460,6.096176147,0.011578918,-0.138598755,0.908252597
88.929426,-9.422634125,4.115375519,8.049301147,0.023419738,-0.118090943,0.930957675
88.967845,-8.766506195,-7.794109344,2.205184937,-0.036760926,-0.147998169,0.973560214
88.982160,-10.467861176,-6.863323212,1.541427612,-0.044939637,-0.155200318,1.001148105
88.997645,-11.749599457,-4.383769989,2.113632202,-0.050066590,-0.131762818,1.006152987
88.998535,-11.749599457,-4.383769989,2.113632202,-0.050066590,-0.131762818,1.006152987
88.999269,-11.749599457,-4.383769989,2.113632202,-0.050066590,-0.131762818,1.006152987
89.000006,-11.749599457,-4.383769989,2.113632202,-0.050066590,-0.131762818,1.006152987
89.000719,-11.749599457,-4.383769989,2.113632202,-0.050066590,-0.131762818,1.006152987
89.050882,-10.246608734,14.018329620,-5.660720825,-0.063738465,-0.108081177,1.040698886
89.089378,-11.078212738,24.928363800,0.992111206,0.085065246,-0.078051880,1.032153964
89.103700,-7.568691254,13.720783234,1.747421265,0.115216613,-0.002124146,0.996265292
89.119202,-2.968166351,4.580768585,0.702194214,0.112897277,-0.026416138,0.982837558
89.157628,3.776218414,-14.874187469,6.286911011,0.058453918,-0.120288208,0.984180331
89.158500,3.776218414,-14.874187469,6.286911011,0.058453918,-0.120288208,0.984180331
89.159209,3.776218414,-14.874187469,6.286911011,0.058453918,-0.120288208,0.984180331
89.159935,3.776218414,-14.874187469,6.286911011,0.058453918,-0.120288208,0.984180331
89.160629,3.776218414,-14.874187469,6.286911011,0.058453918,-0.120288208,0.984180331
89.161358,3.844882965,-16.491619110,9.018234253,0.031964660,-0.138354614,0.976367831
89.162056,3.844882965,-16.491619110,9.018234253,0.031964660,-0.138354614,0.976367831
89.162784,3.844882965,-16.491619110,9.018234253,0.031964660,-0.138354614,0.976367831
89.163481,3.844882965,-16.491619110,9.018234253,0.031964660,-0.138354614,0.976367831
89.164215,3.844882965,-16.491619110,9.018234253,0.031964660,-0.138354614,0.976367831
89.164920,3.844882965,-16.491619110,9.018234253,0.031964660,-0.138354614,0.976367831
89.215245,7.606174469,-21.046367645,2.685836792,-0.103411317,-0.090747193,0.933032870
89.229660,8.384372711,-15.644756317,3.799728394,-0.118914247,-0.034838989,0.914356112
89.245150,12.687351227,-0.706401825,8.148483276,-0.135393739,-0.045581177,0.903003573
89.283590,10.352756500,9.593280792,5.424789429,-0.106463075,-0.139575318,0.948047519
89.322007,5.759860992,3.436359406,-2.135940552,-0.072405457,-0.131030396,0.931934237
89.336325,4.851963043,3.672870636,-0.671096802,-0.062517762,-0.101611450,0.931323886
89.351800,2.647068024,0.468524933,-0.289627075,-0.053240418,-0.200122193,0.954395175
89.390261,-6.813381195,-9.350505829,-8.277603149,-0.047014832,-0.109668091,0.918262362
89.428680,-5.958889008,-0.477519989,-4.798599243,-0.023577332,-0.025073364,0.902637362
89.443005,-5.226467133,2.177509308,-5.347915649,0.006574036,-0.060839966,0.925952792
89.458463,-6.164882660,2.703937531,-4.920669556,0.023908019,-0.076587036,0.930469394
89.496917,-0.213954926,-0.614849091,1.907638550,0.059796691,-0.125903443,0.926196933
89.535321,-5.974147797,-9.518352509,4.326156616,0.039655089,-0.222583130,0.997852206
89.549651,-2.289150238,-11.913982391,4.577926636,0.017194152,-0.117602661,0.979663730
89.565141,0.396396637,-10.845867157,5.501083374,-0.001604675,-0.099170044,0.979175448
89.603577,6.438877106,2.726825714,5.668930054,-0.037981629,-0.232959107,1.065967441
89.641986,9.772922516,5.358966827,8.804611206,0.020734191,0.069775268,1.049365878
89.656308,14.411594391,3.245624542,7.820419312,0.011090637,0.018994018,1.060352206
89.671793,15.365268707,1.033100128,5.417160034,-0.009783386,-0.097216919,1.106738925
89.672686,15.365268707,1.033100128,5.417160034,-0.009783386,-0.097216919,1.106738925
89.710954,6.309177399,6.869586945,6.027511597,-0.019060731,-0.142016724,1.077930331
89.749352,8.002902985,8.693012238,-0.564285278,0.008527161,0.036816284,1.032886386
89.763669,8.025791168,10.531696320,0.824264526,0.024518371,0.026928589,1.032276034
89.779157,6.293918610,9.669574738,3.708175659,0.059796691,-0.034228638,1.002857089
89.817593,6.736423492,-8.312908173,2.304367065,0.028912902,-0.153491333,0.988208652
89.818476,6.736423492,-8.312908173,2.304367065,0.028912902,-0.153491333,0.988208652
89.819181,6.736423492,-8.312908173,2.304367065,0.028912902,-0.153491333,0.988208652
89.819905,6.736423492,-8.312908173,2.304367065,0.028912902,-0.153491333,0.988208652
89.820605,6.736423492,-8.312908173,2.304367065,0.028912902,-0.153491333,0.988208652
89.821339,6.736423492,-8.312908173,2.304367065,0.028912902,-0.153491333,0.988208652
89.822040,6.736423492,-8.312908173,2.304367065,0.028912902,-0.153491333,0.988208652
89.822763,6.736423492,-8.312908173,2.304367065,0.028912902,-0.153491333,0.988208652
89.823469,6.736423492,-8.312908173,2.304367065,0.028912902,-0.153491333,0.988208652
89.824199,6.736423492,-8.312908173,2.304367065,0.028912902,-0.153491333,0.988208652
89.874598,-7.149074554,1.193317413,7.431320190,-0.029070497,-0.089892700,0.930835605
89.889001,-4.440639496,7.388385773,7.087997437,-0.050066590,-0.095263794,0.906787753
89.904512,-3.998134613,9.211811066,5.371383667,-0.049090028,-0.137133911,0.912769198
89.942964,-7.004116058,8.914264679,2.342514038,-0.000994324,-0.118823364,0.912525058
89.981353,-2.334926605,-3.681865692,3.967575073,-0.017717957,-0.116259888,0.922656894
90.010402,-0.603054047,-15.751567841,0.320724487,-0.082537293,-0.137255982,0.961109042
90.024799,0.251438141,-16.911235809,-2.227493286,-0.103655457,-0.148608521,0.975269198
90.063148,3.722812653,-3.475872040,-5.904861450,-0.162371278,-0.095141724,1.048511386
90.101547,-0.351284027,15.605243683,-9.086318970,-0.055925965,-0.132373169,1.142505527
90.115876,-3.799770355,12.141498566,-8.384414673,0.002301575,-0.132617310,1.156543612
90.131351,-5.241725922,8.158954620,-8.483596802,0.015973449,-0.104419068,1.150440097
90.169799,-1.282070160,-11.814800262,-11.481948853,0.022687316,0.008495972,1.089404941
90.208235,6.339694977,-6.687847137,-4.722305298,-0.008074402,-0.001147583,1.032764316
90.222551,8.262302399,-4.673686981,-3.562637329,-0.010637878,-0.067065552,1.037647128
90.238029,6.827976227,-5.268779755,-4.401870728,-0.014299988,-0.127124146,1.051807284
90.276471,5.233432770,-5.993572235,-5.904861450,-0.029314637,-0.042407349,1.009326816
90.314919,1.495029449,-0.073162079,-5.172439575,-0.037615418,-0.082812622,0.980640292
90.329247,0.129367828,-0.302043915,-6.774612427,-0.032610536,-0.105517700,0.972583652
90.344718,-2.868984222,-0.241008759,-7.987686157,-0.011370300,-0.080371216,0.948535800
90.383157,-5.600307465,0.254901886,-7.125564575,0.004010559,-0.138354614,0.920215487
90.421573,-7.927272797,-6.382671356,-10.482498169,0.028668761,-0.122241333,0.902759433
90.435906,-8.224819183,-7.458415985,-9.795852661,0.036603332,-0.105273560,0.891895175
90.451380,-7.644985199,-5.528179169,-7.751174927,0.030743957,-0.109179810,0.889087558
90.489836,-6.370876312,2.528461456,-3.944107056,0.030377746,-0.174243286,0.918140292
90.528260,-5.096767426,0.369342804,-1.105972290,0.035016418,-0.094043091,0.946094394
90.542581,-2.380702972,0.285419464,-0.213333130,0.018414855,-0.152636841,0.985767245
90.558058,-2.701137543,0.491413116,-0.381179810,0.012311340,-0.147509888,1.005054355
90.596499,-1.320217133,-0.561443329,-0.327774048,0.036115050,-0.094653443,1.055835605
90.634936,0.785495758,-6.382671356,0.923446655,0.003644348,-0.254809678,1.112842441
90.649251,-1.854274750,-9.770122528,-1.739212036,0.006574036,-0.236987427,1.111011386
90.664721,-2.914760590,-12.936321259,-7.423110962,0.017072082,-0.032641724,1.074024081
90.665604,-2.914760590,-12.936321259,-7.423110962,0.017072082,-0.032641724,1.074024081
90.666356,-2.914760590,-12.936321259,-7.423110962,0.017072082,-0.032641724,1.074024081
90.667102,-2.914760590,-12.936321259,-7.423110962,0.017072082,-0.032641724,1.074024081
90.667837,-2.914760590,-12.936321259,-7.423110962,0.017072082,-0.032641724,1.074024081
90.706147,4.134799957,10.569843292,4.074386597,0.033063293,-0.096240357,1.069873691
90.758397,-3.555629730,3.215106964,-6.507583618,0.071027160,0.043774292,1.002002597
90.772789,0.671054840,12.088092804,-0.495620728,0.084210753,0.142285034,0.958911777
90.788281,3.989841461,15.620502472,2.563766479,0.099225402,0.098339722,0.954151034
90.826768,5.218173981,-7.343975067,0.084213257,0.125104308,-0.141650513,0.923633456
90.865208,6.515171051,-12.486186981,7.271102905,0.021954894,-0.124438599,0.879688144
90.879524,6.438877106,-10.006633759,9.048751831,0.005597473,-0.130053833,0.888721347
90.894995,5.012180328,-7.855144501,8.613876343,-0.022966981,-0.138476685,0.915088534
90.933441,2.257968903,-0.996318817,2.937606812,-0.050676942,-0.081225708,0.912647128
90.971884,-0.351284027,12.744220734,6.607345581,0.005353332,-0.169726685,0.984058261
90.986193,-2.067897797,9.089740753,5.768112183,0.020123839,-0.171923950,0.996143222
91.001656,-3.158901215,-0.225749969,2.609542847,0.008038879,-0.129443482,1.014942050
91.040079,-7.767055511,1.864704132,3.395370483,-0.060076356,-0.194751099,1.075977206
91.092437,-7.156703949,7.151874542,-4.974075317,-0.070818543,-0.029223755,1.053394198
91.106850,-5.585048676,11.225971222,-5.416580200,-0.055803895,-0.021777466,1.064868808
91.122355,-4.684780121,18.061908722,-2.052017212,0.007062317,-0.110034302,1.092334628
91.160798,-9.743068695,-2.911296844,-2.784439087,0.047467589,-0.153491333,1.057544589
91.199256,0.877048492,-10.693279266,-4.668899536,-0.010759949,-0.008715943,0.974048495
91.213597,2.082492828,-6.222454071,-0.762649536,-0.007341980,-0.041552857,0.976856112
91.229094,2.364780426,-3.185955048,2.189926147,0.005353332,-0.081958130,0.979297519
91.267550,3.799106598,-12.509075165,-5.454727173,-0.016863465,-0.094897583,0.935474277
91.305996,6.026889801,-0.157085419,1.068405151,0.009747864,-0.025073364,0.909717441
91.320333,6.370212555,0.804218292,3.708175659,0.028058410,-0.093554810,0.923633456
91.335804,5.729343414,-2.850261688,2.205184937,0.024152160,-0.101855591,0.925830722
91.388462,4.325534821,3.451618195,1.983932495,0.000714661,-0.081469849,0.895435214
91.426995,0.442173004,-2.842632294,-2.288528442,0.022565246,-0.186816528,0.927295566
91.441321,-0.603054047,-5.848613739,-4.462905884,0.021954894,-0.174609497,0.923755527
91.456788,-0.809047699,-4.643169403,-2.235122681,0.028790832,-0.106616333,0.916431308
91.495240,-1.068447113,0.811847687,2.830795288,0.030743957,-0.173144653,0.946948886
91.533669,-3.143642426,-5.589214325,-0.228591919,0.021222472,-0.165576294,0.974170566
91.548003,-3.204677582,-1.629558563,2.029708862,0.007428528,-0.141040161,0.985889316
91.563462,-2.823207855,1.712116241,4.356674194,0.004010559,-0.184497193,0.999439120
91.601906,-8.987758636,4.168781281,2.373031616,0.029401183,-0.159472778,1.003955722
91.640365,0.190402985,7.426532745,8.514694214,0.005353332,-0.141772583,0.979053378
91.654690,1.144077301,5.091938019,6.157211304,0.006940247,-0.177172974,1.000171542
91.670161,0.060703278,-1.370159149,2.983383179,0.019025207,-0.156543091,1.016528964
91.724087,11.039402008,1.605304718,3.479293823,0.007184387,-0.129321411,1.065967441
91.762624,-0.305507660,5.702289581,1.930526733,0.019757628,-0.085620239,1.036426425
91.776971,1.372959137,8.288654327,1.014999390,0.025372863,0.110668823,0.964893222
91.792458,5.378391266,10.722431183,2.098373413,0.028546691,0.150707886,0.951343417
91.830951,11.298801422,5.229267120,3.624252319,0.064801574,-0.053515747,0.945361972
91.869349,10.963108063,-18.383708954,0.473312378,0.015729308,-0.087817505,0.900684237
91.883696,12.534763336,-17.460552216,1.442245483,-0.040056825,-0.085742310,0.907520175
91.899198,12.008335114,-14.523235321,2.609542847,-0.058855653,-0.089404419,0.923755527
91.937634,3.608371735,-1.934734344,-2.776809692,-0.075213075,-0.136767700,0.960864902
91.976071,2.906467438,20.274433136,-1.586624146,-0.019304872,-0.051318482,0.948291659
91.990439,3.051425934,22.784503937,-1.578994751,0.010480286,-0.050708130,0.963306308
92.005931,2.685214996,19.831928253,0.297836304,0.068341613,-0.113086060,1.001758456
92.060164,-3.006313324,-7.092205048,-2.013870239,0.055158019,-0.085131958,1.061450839
92.098671,-1.633022308,-7.992473602,-1.571365356,0.014996887,0.008373901,1.080737948
92.112994,0.198032379,-3.422466278,-1.868911743,-0.005022644,-0.021533325,1.102710605
92.128466,-0.366542816,-0.805583954,-2.280899048,-0.005510925,-0.052295044,1.112964511
92.166902,-0.076625824,5.557331085,-1.212783813,0.022199035,-0.107592896,1.123950839
92.205370,-0.915859222,-0.294414520,1.518539429,0.004865051,-0.049243286,1.103443027
92.219696,0.831272125,-2.987590790,0.007919312,-0.004900574,-0.049487427,1.096973300
92.235162,1.662876129,-6.146160126,-0.732131958,-0.021746278,-0.157153443,1.096973300
92.236025,1.662876129,-6.146160126,-0.732131958,-0.021746278,-0.157153443,1.096973300
92.236740,1.662876129,-6.146160126,-0.732131958,-0.021746278,-0.157153443,1.096973300
92.237481,1.662876129,-6.146160126,-0.732131958,-0.021746278,-0.157153443,1.096973300
92.238195,1.662876129,-6.146160126,-0.732131958,-0.021746278,-0.157153443,1.096973300
92.238935,1.662876129,-6.146160126,-0.732131958,-0.021746278,-0.157153443,1.096973300
92.293209,-4.753444672,4.138263702,-4.340835571,-0.034807801,0.017529175,0.985767245
92.331723,2.662326813,15.780719757,0.862411499,0.035626769,0.017040893,0.941089511
92.346055,3.547336578,14.735492706,2.220443726,0.046246886,-0.025317505,0.948413730
92.361538,2.860691071,6.350788116,1.411727905,0.057721496,-0.112963989,0.959400058
92.399990,-0.839565277,-8.862224579,-1.617141724,0.038800597,-0.149096802,0.936206698
92.438418,-0.610683441,-5.169597626,1.220993042,-0.012713074,-0.096606568,0.903369784
92.452728,-2.479885101,-2.781597137,-0.098892212,-0.011004089,-0.169116333,0.925342441
92.468209,-4.165981293,-3.102031708,-1.136489868,-0.006121277,-0.177661255,0.925830722
92.506629,-6.447170258,-2.316204071,-1.273818970,0.007672668,-0.111377075,0.924121737
92.545065,-6.538722992,-7.199016571,-0.732131958,0.046735168,-0.114795044,0.961963534
92.559378,-6.668422699,-11.883464813,-0.205703735,0.057843566,-0.115039185,0.966968417
92.574859,-3.143642426,-21.923748016,1.739791870,0.030499816,-0.075488403,1.000537753
92.613300,-10.681484222,-24.044719696,-4.913040161,-0.055315614,-0.187671021,1.095020175
92.651757,-3.845546722,-0.958171844,-1.739212036,-0.022722840,-0.023974732,1.024219394
92.666074,-0.114772797,4.168781281,-1.304336548,-0.008928894,-0.167773560,1.055713534
92.681544,-6.637905121,8.151325226,-7.278152466,0.045636535,-0.314013779,1.102588534
92.736204,2.113010406,25.477680206,3.364852905,0.189923644,0.053661987,1.007617831
92.774723,-4.463527679,1.483234406,7.606796265,0.200421691,-0.192065552,1.037647128
92.789039,-4.021022797,-11.929241180,3.029159546,0.119489074,0.014965698,0.944873691
92.804513,0.419284821,-11.379924774,3.227523804,0.095685363,0.083813354,0.913623691
92.842960,6.789829254,5.763324738,12.123397827,0.088727355,-0.027392700,0.892871737
92.881404,10.657932281,-5.833354950,12.146286011,0.020856261,-0.125537232,0.886279941
92.895741,10.383274078,-5.795207977,12.108139038,-0.003679871,-0.132739380,0.900195956
92.911241,7.491733551,-1.949993134,14.786056519,-0.043474793,-0.158496216,0.932056308
92.949681,-0.412319183,5.931171417,9.392074585,-0.105120301,-0.093554810,0.930957675
92.988165,-7.744167328,26.362689972,6.202987671,-0.075823426,-0.082690552,0.935474277
93.002481,-8.278224945,27.705463409,5.783370972,-0.037249207,-0.111010864,0.923511386
93.017978,-7.484767914,23.745807648,5.440048218,-0.001360535,-0.073291138,0.912158847
93.056430,-5.333278656,7.266315460,3.814987183,0.004987122,-0.141040161,0.948291659
93.094873,-3.433559418,-7.382122040,0.374130249,0.007062317,-0.163379028,0.976367831
93.109190,-1.854274750,-8.656230927,1.686386108,-0.023699403,-0.123339966,0.998340487
93.124700,-0.740383148,-5.779949188,2.556137085,-0.046160340,-0.112109497,1.012866855
93.163159,0.396396637,9.143146515,2.151779175,-0.016375184,-0.174853638,1.073413730
93.201597,3.646518707,-0.439373016,3.082565308,-0.023943543,-0.140185669,1.071826816
93.215921,6.538059235,-5.146709442,1.137069702,-0.047991395,-0.043994263,1.082202792
93.231398,7.712985992,-6.336894989,2.144149780,-0.045427918,-0.067797974,1.085864902
93.232278,7.712985992,-6.336894989,2.144149780,-0.045427918,-0.067797974,1.085864902
93.232998,7.712985992,-6.336894989,2.144149780,-0.045427918,-0.067797974,1.085864902
93.233735,7.712985992,-6.336894989,2.144149780,-0.045427918,-0.067797974,1.085864902
93.234454,7.712985992,-6.336894989,2.144149780,-0.045427918,-0.067797974,1.085864902
93.235194,7.712985992,-6.336894989,2.144149780,-0.045427918,-0.067797974,1.085864902
93.235912,7.781650543,-7.908550262,2.106002808,-0.042864442,-0.064868286,1.090503573
93.236650,7.781650543,-7.908550262,2.106002808,-0.042864442,-0.064868286,1.090503573
93.237372,7.781650543,-7.908550262,2.106002808,-0.042864442,-0.064868286,1.090503573
93.238113,7.781650543,-7.908550262,2.106002808,-0.042864442,-0.064868286,1.090503573
93.276362,9.162570953,-9.525981903,2.197555542,-0.098772645,-0.084643677,1.078052402
93.314798,3.097202301,-0.561443329,-0.808425903,-0.103167176,-0.043261841,1.020069003
93.341904,6.293918610,2.444538116,-1.281448364,-0.092791200,0.031567261,0.984912753
93.369293,5.027439117,6.144794464,-3.539749146,-0.076677918,-0.135180786,1.010059237
93.407768,-0.786159515,-0.439373016,-5.225845337,-0.013323425,-0.070971802,0.897266269
93.446222,3.410007477,-6.695476532,-8.842178345,-0.032610536,-0.194506958,0.930835605
93.460545,0.434543610,-6.314006805,-9.673782349,-0.022112489,-0.194384888,0.944995761
93.476027,-4.806850433,-3.536907196,-8.300491333,0.008038879,-0.188647583,0.928882480
93.476899,-4.806850433,-3.536907196,-8.300491333,0.008038879,-0.188647583,0.928882480
93.477622,-4.806850433,-3.536907196,-8.300491333,0.008038879,-0.188647583,0.928882480
93.478361,-4.806850433,-3.536907196,-8.300491333,0.008038879,-0.188647583,0.928882480
93.479073,-4.806850433,-3.536907196,-8.300491333,0.008038879,-0.188647583,0.928882480
93.479809,-4.806850433,-3.536907196,-8.300491333,0.008038879,-0.188647583,0.928882480
93.480525,-4.806850433,-3.536907196,-8.300491333,0.008038879,-0.188647583,0.928882480
93.481271,-4.806850433,-3.536907196,-8.300491333,0.008038879,-0.188647583,0.928882480
93.481978,-4.806850433,-3.536907196,-8.300491333,0.008038879,-0.188647583,0.928882480
93.482716,-4.806850433,-3.536907196,-8.300491333,0.008038879,-0.188647583,0.928882480
93.483435,-4.806850433,-3.536907196,-8.300491333,0.008038879,-0.188647583,0.928882480
93.484179,-5.615566254,-2.148357391,-7.919021606,0.020367980,-0.131030396,0.915820956
93.484892,-5.615566254,-2.148357391,-7.919021606,0.020367980,-0.131030396,0.915820956
93.485627,-5.615566254,-2.148357391,-7.919021606,0.020367980,-0.131030396,0.915820956
93.486337,-5.615566254,-2.148357391,-7.919021606,0.020367980,-0.131030396,0.915820956
93.487059,-5.615566254,-2.148357391,-7.919021606,0.020367980,-0.131030396,0.915820956
93.525352,-4.852626801,2.894672394,-2.464004517,0.036847472,-0.167163208,0.962207675
93.563787,-7.553432465,-5.978313446,-1.563735962,0.026959777,-0.050097778,0.920215487
93.578113,-2.884243011,-5.535808563,0.122360229,0.003766418,-0.025683716,0.923877597
93.593590,0.259067535,-0.881877899,3.448776245,-0.029924989,-0.180835083,0.990527987
93.632029,-7.599208832,-0.912395477,0.328353882,-0.014177918,-0.177172974,1.054126620
93.670465,1.182224274,-3.590312958,1.747421265,-0.031511903,-0.030322388,0.997363925
93.684790,3.043796539,-1.187053680,1.434616089,-0.046038270,-0.173388794,1.044971347
93.700289,2.593662262,-1.675334930,-0.388809204,-0.042498231,-0.160205200,1.063281894
93.738759,4.928256989,-7.595745087,-4.058547974,-0.037981629,0.091625854,1.007984042
93.777210,10.123874664,3.367694855,-3.417678833,-0.042864442,-0.147876099,1.062671542
93.791542,7.636692047,4.016193390,-5.790420532,-0.027605653,-0.159838989,1.057300448
93.807039,6.553318024,6.610187531,-9.452529907,-0.019182801,0.024365112,1.009448886
93.807919,6.553318024,6.610187531,-9.452529907,-0.019182801,0.024365112,1.009448886
93.808643,6.553318024,6.610187531,-9.452529907,-0.019182801,0.024365112,1.009448886
93.809372,6.553318024,6.610187531,-9.452529907,-0.019182801,0.024365112,1.009448886
93.810080,6.553318024,6.610187531,-9.452529907,-0.019182801,0.024365112,1.009448886
93.810805,6.553318024,6.610187531,-9.452529907,-0.019182801,0.024365112,1.009448886
93.811516,6.553318024,6.610187531,-9.452529907,-0.019182801,0.024365112,1.009448886
93.812252,10.787631989,11.279376984,-9.612747192,-0.012468933,0.106884643,1.004077792
93.812967,10.787631989,11.279376984,-9.612747192,-0.012468933,0.106884643,1.004077792
93.813705,10.787631989,11.279376984,-9.612747192,-0.012468933,0.106884643,1.004077792
93.814428,10.787631989,11.279376984,-9.612747192,-0.012468933,0.106884643,1.004077792
93.815172,10.787631989,11.279376984,-9.612747192,-0.012468933,0.106884643,1.004077792
93.815899,10.787631989,11.279376984,-9.612747192,-0.012468933,0.106884643,1.004077792
93.816643,10.787631989,11.279376984,-9.612747192,-0.012468933,0.106884643,1.004077792
93.817368,10.787631989,11.279376984,-9.612747192,-0.012468933,0.106884643,1.004077792
93.818109,10.787631989,11.279376984,-9.612747192,-0.012468933,0.106884643,1.004077792
93.818835,10.787631989,11.279376984,-9.612747192,-0.012468933,0.106884643,1.004077792
93.869189,4.867221832,20.625385284,-2.593704224,0.158917785,-0.120898560,1.055957675
93.907704,3.493930817,-13.844219208,-1.388259888,0.095441222,-0.168628052,0.991504550
93.922034,-2.739284515,-21.504131317,0.320724487,0.059674621,-0.193408325,0.974414706
93.937525,-5.783412933,-22.083965302,1.686386108,0.036359191,-0.159106568,0.943530917
93.975980,-2.281520844,-4.185405731,3.456405640,-0.054583192,-0.104174927,0.882861972
94.026581,-5.890224457,20.983966827,2.914718628,0.015118957,-0.107959107,0.902149081
94.040981,-3.540370941,18.649372101,4.806808472,0.038190246,-0.097949341,0.917285800
94.056501,-2.983425140,14.773639679,4.356674194,0.044293761,-0.116870239,0.935474277
94.094964,-1.686428070,-14.881816864,1.396469116,0.025861144,-0.127246216,0.979175448
94.133410,0.541355133,-22.801128387,-4.073806763,-0.108538270,-0.152270630,1.026660800
94.147738,0.190402985,-17.285076141,-5.233474731,-0.126360536,-0.166430786,1.038379550
94.163230,-1.816127777,-1.721111298,-6.484695435,-0.101946473,-0.155566528,1.054370761
94.201662,0.976230621,13.629230499,-7.484146118,-0.022478700,-0.125781372,1.059375644
94.202543,0.976230621,13.629230499,-7.484146118,-0.022478700,-0.125781372,1.059375644
94.203265,0.976230621,13.629230499,-7.484146118,-0.022478700,-0.125781372,1.059375644
94.241545,2.257968903,3.207477570,-7.110305786,0.064557433,0.047436401,1.004810214
94.255871,5.668308258,1.384052277,-4.646011353,0.066876769,0.093578979,0.996265292
94.271330,11.474277496,-1.667705536,-2.135940552,0.061261535,-0.027636841,1.021900058
94.309775,7.796909332,-9.579387665,1.434616089,0.039410949,-0.064746216,1.031909823
94.348241,12.496616364,-9.007183075,4.539779663,-0.050799012,0.014599487,1.000293612
94.362555,11.634494781,-4.215923309,4.356674194,-0.078508973,-0.069506958,1.011768222
94.378025,4.478122711,7.899555206,4.165939331,-0.106829286,-0.100756958,1.011279941
94.416468,-1.823757172,23.577960968,4.829696655,-0.112444520,-0.090380982,0.942920566
94.454880,-2.884243011,26.675495148,-2.052017212,-0.133440614,-0.084033325,0.897510409
94.469200,-4.143093109,19.625934601,-5.927749634,-0.084490418,-0.097949341,0.893604159
94.484698,-4.394863129,13.720783234,-6.728836060,-0.058123231,-0.080859497,0.891040683
94.523167,-2.327297211,-7.908550262,-7.919021606,-0.067156434,-0.096118286,0.888965487
94.524040,-2.327297211,-7.908550262,-7.919021606,-0.067156434,-0.096118286,0.888965487
94.524742,-2.327297211,-7.908550262,-7.919021606,-0.067156434,-0.096118286,0.888965487
94.525473,-2.327297211,-7.908550262,-7.919021606,-0.067156434,-0.096118286,0.888965487
94.526177,-2.327297211,-7.908550262,-7.919021606,-0.067156434,-0.096118286,0.888965487
94.526902,-2.327297211,-7.908550262,-7.919021606,-0.067156434,-0.096118286,0.888965487
94.527595,-2.708766937,-10.128704071,-8.758255005,-0.074236512,-0.128711060,0.897144198
94.528331,-2.708766937,-10.128704071,-8.758255005,-0.074236512,-0.128711060,0.897144198
94.529045,-2.708766937,-10.128704071,-8.758255005,-0.074236512,-0.128711060,0.897144198
94.529770,-2.708766937,-10.128704071,-8.758255005,-0.074236512,-0.128711060,0.897144198
94.530484,-2.708766937,-10.128704071,-8.758255005,-0.074236512,-0.128711060,0.897144198
94.531218,-2.708766937,-10.128704071,-8.758255005,-0.074236512,-0.128711060,0.897144198
94.531932,-2.708766937,-10.128704071,-8.758255005,-0.074236512,-0.128711060,0.897144198
94.532661,-2.708766937,-10.128704071,-8.758255005,-0.074236512,-0.128711060,0.897144198
94.533384,-2.708766937,-10.128704071,-8.758255005,-0.074236512,-0.128711060,0.897144198
94.571672,-2.945278168,-10.281291962,-7.705398560,-0.054583192,-0.076953247,0.901782870
94.585998,0.335361481,-8.129802704,-7.026382446,-0.072039247,-0.015796021,0.914234042
94.601459,5.302097321,1.643451691,-5.004592896,-0.087053895,-0.152880982,0.993823886
94.653399,-5.394313812,8.265766144,-3.463455200,0.065533996,-0.122973755,1.082324862
94.691928,5.630161285,-1.400676727,3.364852905,0.087506652,-0.070727661,1.125049472
94.706248,1.922275543,-21.404949188,-0.144668579,0.106427550,-0.196826294,1.151538730
94.735548,0.983860016,-42.668071747,-2.433486938,0.059064269,-0.045703247,1.093921542
94.774065,12.588169098,-24.403301239,0.419906616,-0.081926942,-0.058154419,1.113330722
94.812507,2.036716461,9.562763214,-1.823135376,-0.024675965,-0.112109497,1.105884433
94.826856,1.517917633,16.719135284,-6.553359985,0.014142395,0.001049682,1.074512362
94.842326,1.212741852,21.640094757,-6.416030884,0.038556457,0.025585815,1.062305331
94.880768,0.365879059,30.780109406,1.045516968,0.151227355,0.024975464,0.974414706
94.919221,2.700473785,-2.758708954,5.317977905,0.131207824,-0.109790161,0.913867831
94.933538,2.654697418,-10.815349579,5.638412476,0.102521300,-0.133838013,0.911792636
94.949013,-0.145290375,-22.640911102,5.630783081,0.056012511,-0.167041138,0.901050448
94.987467,-0.671718597,-19.764629364,4.745773315,-0.073382020,-0.106128052,0.860156894
95.025963,-3.006313324,8.914264679,2.960494995,-0.064592957,-0.153857544,0.902637362
95.040288,-5.905483246,16.452106476,3.746322632,-0.050066590,-0.139453247,0.902515292
95.055771,-5.447719574,26.934894562,6.401351929,-0.013201355,-0.084033325,0.903003573
95.056661,-5.447719574,26.934894562,6.401351929,-0.013201355,-0.084033325,0.903003573
95.057403,-5.447719574,26.934894562,6.401351929,-0.013201355,-0.084033325,0.903003573
95.058146,-5.447719574,26.934894562,6.401351929,-0.013201355,-0.084033325,0.903003573
95.058870,-5.447719574,26.934894562,6.401351929,-0.013201355,-0.084033325,0.903003573
95.059608,-5.447719574,26.934894562,6.401351929,-0.013201355,-0.084033325,0.903003573
95.060327,-5.447719574,26.934894562,6.401351929,-0.013201355,-0.084033325,0.903003573
95.061069,-5.447719574,26.934894562,6.401351929,-0.013201355,-0.084033325,0.903003573
95.061782,-5.447719574,26.934894562,6.401351929,-0.013201355,-0.084033325,0.903003573
95.100077,-5.165431976,12.065204620,3.929428101,0.024274230,-0.123339966,0.968555331
95.138555,-4.646633148,-15.591350555,-0.426956177,-0.020159364,-0.057421997,1.006763339
95.152892,-3.853176117,-18.170085907,-1.708694458,-0.043108582,-0.050952271,1.010303378
95.168372,-3.746364594,-18.276897430,-4.111953735,-0.067156434,-0.032763794,1.016040683
95.206817,2.288486481,-12.028423309,-6.202407837,-0.084490418,-0.043139771,1.023120761
95.245267,1.868869781,-3.697124481,-8.804031372,-0.064470887,-0.084643677,1.070728183
95.259595,2.120639801,-2.918926239,-8.628555298,-0.042498231,-0.019458130,1.058521152
95.289002,10.154392242,-5.879131317,-4.958816528,-0.004900574,0.085644409,1.041797519
95.327511,9.399082184,-21.702495575,-10.772415161,-0.034075379,-0.122241333,1.076465487
95.365981,10.406162262,-12.440410614,-10.467239380,-0.069353700,0.062939331,0.998096347
95.380317,12.794162750,-5.421367645,-9.322830200,-0.076677918,0.044994995,1.009448886
95.395803,9.765293121,7.052692413,-9.330459595,-0.049700379,-0.075854614,1.043628573
95.434261,1.670505524,12.744220734,-8.208938599,0.030011535,-0.032763794,0.998706698
95.435147,1.670505524,12.744220734,-8.208938599,0.030011535,-0.032763794,0.998706698
95.435854,1.670505524,12.744220734,-8.208938599,0.030011535,-0.032763794,0.998706698
95.436582,1.670505524,12.744220734,-8.208938599,0.030011535,-0.032763794,0.998706698
95.437296,1.670505524,12.744220734,-8.208938599,0.030011535,-0.032763794,0.998706698
95.438021,1.670505524,12.744220734,-8.208938599,0.030011535,-0.032763794,0.998706698
95.438724,1.670505524,12.744220734,-8.208938599,0.030011535,-0.032763794,0.998706698
95.439456,1.670505524,12.744220734,-8.208938599,0.030011535,-0.032763794,0.998706698
95.440165,1.670505524,12.744220734,-8.208938599,0.030011535,-0.032763794,0.998706698
95.440894,1.670505524,12.744220734,-8.208938599,0.030011535,-0.032763794,0.998706698
95.479141,-0.839565277,2.261432648,-10.009475708,0.048810363,-0.135058716,0.984058261
95.493470,-6.210659027,-4.360881805,-11.542984009,0.061627746,-0.159838989,0.975391269
95.508959,-8.858058929,-6.367412567,-10.833450317,0.060895324,-0.145312622,0.956104159
95.547418,-9.781215668,-1.812664032,-9.002395630,0.039533019,-0.121142700,0.917285800
95.585868,-13.000820160,1.452716827,-6.797500610,0.078839660,-0.112475708,0.914111972
95.615673,-4.921291351,2.093585968,-5.851455688,0.079694152,-0.119921997,0.909351230
95.630072,-4.036281586,3.863605499,-3.555007935,0.089825988,-0.147387818,0.929126620
95.668413,-6.988857269,-1.736370087,0.976852417,0.118390441,-0.168261841,1.012378573
95.706855,0.358249664,-6.024089813,0.847152710,0.091168761,-0.000171021,0.996753573
95.721175,3.677036285,-2.629009247,6.492904663,0.090192199,-0.116870239,1.016406894
95.736660,4.882480621,-2.644268036,7.080368042,0.078595519,-0.141040161,1.031665683
95.775091,5.653049469,-8.373943329,-0.686355591,0.073468566,0.008618042,1.048999667
95.813549,15.494968414,7.746967316,9.437850952,0.083600402,0.073071167,1.065479159
95.827880,15.945102692,7.380756378,10.200790405,0.090070128,-0.007617310,1.096485019
95.843372,11.573459625,-2.255168915,4.783920288,0.087384582,-0.091113403,1.129077792
95.881812,6.133701324,-3.254619598,4.020980835,0.071881652,0.134838745,1.057178378
95.937818,0.060703278,-4.353252411,7.240585327,0.084943175,-0.123828247,1.015430331
95.952240,-1.610134125,-12.821880341,4.905990601,0.048932433,-0.065844849,0.941577792
95.967728,0.510837555,-13.752666473,4.158309937,0.025494933,-0.035083130,0.922901034
96.006177,-2.998683929,3.627094269,7.255844116,0.004987122,-0.131518677,0.951709628
96.044604,-10.109279633,14.582904816,5.104354858,0.043683410,-0.105517700,0.908130527
96.058934,-10.521266937,17.436298370,5.890182495,0.072369933,-0.092456177,0.895557284
96.074415,-10.063503265,17.787250519,6.920150757,0.088239074,-0.083300903,0.893115878
96.112875,-7.644985199,-0.530925751,10.063461304,0.096051574,-0.098925903,0.910816073
96.151349,-2.960536957,-14.950481415,7.179550171,0.003766418,-0.160937622,0.958057284
96.165668,-3.364894867,-15.309062958,4.936508179,-0.017107606,-0.161670044,0.978809237
96.181157,-5.791042328,-10.441509247,3.029159546,-0.035296082,-0.104296997,0.995899081
96.219596,-0.213954926,3.009113312,0.076583862,-0.017840028,-0.003955200,1.015186191
96.258041,1.670505524,-2.796855927,-3.249832153,0.030133605,-0.132251099,1.061328769
96.272362,0.541355133,-5.390850067,-3.524490356,0.035138488,-0.128711060,1.062427402
96.287846,-0.419948578,-8.679119110,-3.768630981,0.040021300,-0.009082153,1.024829745
96.326298,8.491184235,-1.248088837,3.120712280,0.002789856,-0.079638794,1.031299472
96.364749,4.851963043,-4.772869110,-0.930496216,-0.029680848,-0.057177857,0.998462558
96.379063,8.628513336,-3.430095673,-2.677627563,-0.038347840,0.030834839,0.953418612
96.394532,10.787631989,-0.172344208,-2.433486938,-0.042009950,0.067211792,0.941211581
96.432979,12.900974274,11.843952179,0.061325073,0.001935364,-0.034594849,0.983447909
96.471433,8.086826324,3.276142120,-3.081985474,0.042218566,-0.086596802,0.960254550
96.485755,5.492832184,1.719745636,-2.151199341,0.050885558,-0.054370239,0.951709628
96.501244,5.065586090,0.895771027,-0.785537720,0.055890441,-0.086474732,0.954028964
96.539692,-1.236293793,-5.123821259,-2.807327271,0.062238097,-0.079394653,0.936694980
96.593945,-3.136013031,-2.896038055,-0.167556763,0.086408019,-0.098437622,0.962085605
96.608340,-6.035182953,-4.063335419,1.800827026,0.085553527,-0.132006958,0.971485019
96.623819,-5.966518402,-3.460613251,2.991012573,0.075787902,-0.090380982,0.975025058
96.662264,-5.615566254,-0.111309052,4.806808472,0.052960753,-0.127612427,0.992359042
96.700695,-4.158351898,1.323017120,5.096725464,0.055524230,-0.067553833,1.027637362
96.715006,-3.288600922,-1.049724579,5.005172729,0.087384582,-0.017382935,1.037891269
96.730480,-2.319667816,-3.300395966,5.806259155,0.104230285,0.012890503,1.034107089
96.768916,8.315708160,-13.333049774,10.490707397,0.023663878,-0.197558716,1.106738925
96.807360,1.235630035,-10.204998016,-1.792617798,-0.015154480,0.101513550,1.078296542
96.821680,4.165317535,-0.004497528,1.838973999,-0.010271668,0.163647339,1.063892245
96.837162,8.597995758,20.098957062,9.399703979,0.019635558,0.032055542,1.084522128
96.875603,0.121738434,15.345844269,-0.686355591,0.109967589,-0.036303833,1.094653964
96.914055,4.813816071,5.732807159,2.510360718,0.137677550,0.033154175,0.997608066
96.945646,3.730442047,-7.389751434,5.165390015,0.133283019,-0.036181763,0.957691073
96.960058,3.837253571,-12.043682098,6.492904663,0.101300597,-0.049121216,0.935840487
96.998387,5.798007965,-15.598979950,7.103256226,0.002911926,-0.122241333,0.919360995
97.036847,-4.471157074,-0.035015106,10.567001343,-0.060198426,-0.123095825,0.927295566
97.051171,-5.035732269,4.885944366,9.346298218,-0.075213075,-0.104907349,0.919116855
97.066681,-7.751796722,16.917499542,7.736495972,-0.069353700,-0.138232544,0.915698886
97.105168,-10.002468109,34.541400909,9.422592163,-0.011736511,-0.056323364,0.899097323
97.143600,-6.164882660,17.764362335,8.575729370,0.019147277,-0.159838989,0.996753573
97.157935,-7.400844574,7.441791534,6.012252808,0.020245910,-0.150805786,1.010425448
97.173444,-8.064601898,-10.388103485,3.555587769,-0.019060731,-0.074633911,1.011402011
97.228004,-4.600856781,-13.050762177,-1.403518677,-0.146135926,0.016552612,1.099170566
97.266522,-6.119106293,6.152423859,-5.050369263,-0.141497254,-0.063037232,1.107227206
97.280856,-8.728359222,15.788349152,-8.292861938,-0.099749207,-0.053515747,1.097827792
97.296352,-9.048793793,19.397052765,-8.262344360,-0.063250184,0.011913940,1.075733066
97.334794,2.898838043,16.986164093,-0.068374634,0.015363098,0.004711792,1.033374667
97.335678,2.898838043,16.986164093,-0.068374634,0.015363098,0.004711792,1.033374667
97.336399,2.898838043,16.986164093,-0.068374634,0.015363098,0.004711792,1.033374667
97.337127,2.898838043,16.986164093,-0.068374634,0.015363098,0.004711792,1.033374667
97.337841,2.898838043,16.986164093,-0.068374634,0.015363098,0.004711792,1.033374667
97.338561,2.898838043,16.986164093,-0.068374634,0.015363098,0.004711792,1.033374667
97.339271,2.898838043,16.986164093,-0.068374634,0.015363098,0.004711792,1.033374667
97.339993,3.173496246,10.051044464,-0.846572876,0.019757628,-0.051562622,1.041065097
97.340697,3.173496246,10.051044464,-0.846572876,0.019757628,-0.051562622,1.041065097
97.378980,3.471042633,-13.012615204,-4.661270142,-0.004778503,-0.017871216,1.001880527
97.393301,7.659580231,-16.346660614,-3.509231567,-0.054583192,0.028271362,0.960132480
97.408765,10.413791656,-14.012065887,-2.891250610,-0.076799989,0.009106323,0.959644198
97.447209,4.462863922,4.145893097,-2.540298462,-0.083513856,-0.111499146,0.976489902
97.485649,3.944065094,12.713703156,-2.723403931,-0.029680848,-0.042529419,0.929248691
97.499979,1.739170074,9.043964386,-4.821487427,-0.001848816,-0.092578247,0.949024081
97.515462,0.098850250,6.144794464,-4.722305298,0.010724426,-0.100390747,0.954761386
97.553897,-6.332729340,-5.154338837,-6.393142700,0.016827941,-0.114062622,0.943652987
97.592355,-8.705471039,-2.079692841,-2.418228149,0.003766418,-0.113818482,0.930957675
97.606664,-9.079311371,-1.362529755,-1.655288696,-0.002337097,-0.125415161,0.934985995
97.622152,-9.758327484,-1.034465790,-2.921768188,-0.009661316,-0.135546997,0.941699862
97.623026,-9.758327484,-1.034465790,-2.921768188,-0.009661316,-0.135546997,0.941699862
97.623783,-9.758327484,-1.034465790,-2.921768188,-0.009661316,-0.135546997,0.941699862
97.624535,-9.758327484,-1.034465790,-2.921768188,-0.009661316,-0.135546997,0.941699862
97.625278,-9.758327484,-1.034465790,-2.921768188,-0.009661316,-0.135546997,0.941699862
97.626025,-9.758327484,-1.034465790,-2.921768188,-0.009661316,-0.135546997,0.941699862
97.626763,-9.758327484,-1.034465790,-2.921768188,-0.009661316,-0.135546997,0.941699862
97.627518,-9.758327484,-1.034465790,-2.921768188,-0.009661316,-0.135546997,0.941699862
97.628265,-10.078762054,-0.019756317,-2.196975708,-0.017107606,-0.093554810,0.943408847
97.629015,-10.078762054,-0.019756317,-2.196975708,-0.017107606,-0.093554810,0.943408847
97.629751,-10.078762054,-0.019756317,-2.196975708,-0.017107606,-0.093554810,0.943408847
97.630510,-10.078762054,-0.019756317,-2.196975708,-0.017107606,-0.093554810,0.943408847
97.631252,-10.078762054,-0.019756317,-2.196975708,-0.017107606,-0.093554810,0.943408847
97.632004,-10.078762054,-0.019756317,-2.196975708,-0.017107606,-0.093554810,0.943408847
97.632745,-10.078762054,-0.019756317,-2.196975708,-0.017107606,-0.093554810,0.943408847
97.682652,-8.789394379,1.887592316,-2.532669067,-0.014177918,-0.095141724,0.998096347
97.721195,2.647068024,8.876117706,-2.166458130,-0.012713074,0.075024292,1.012500644
97.735503,6.553318024,12.286457062,-1.098342896,-0.005144714,-0.045092896,1.059985995
97.751001,1.609470367,14.285358429,-2.105422974,0.036969543,-0.266406357,1.138721347
97.789445,4.546787262,5.984577179,2.868942261,0.070905089,0.220410034,1.029346347
97.827886,10.284091949,-13.127056122,-0.693984985,0.039533019,-0.178149536,1.143970370
97.842207,6.217624664,-17.620769501,-3.493972778,0.028546691,-0.169116333,1.133716464
97.869553,2.250339508,-9.518352509,-4.195877075,-0.007219910,0.077221557,1.009082675
97.908078,5.958225250,9.364398956,-0.945755005,0.025739074,-0.094653443,0.981616855
97.946552,3.425266266,2.688678741,-0.037857056,0.046735168,-0.082690552,0.889087558
97.960876,4.188205719,0.819477081,0.564865112,0.046491027,-0.079028443,0.883594394
97.976349,4.829074860,-4.620281219,0.534347534,0.042828918,-0.084521607,0.904590487
98.014795,-0.717494965,-11.471477509,-1.708694458,0.025861144,-0.082080200,0.904956698
98.053248,-2.693508148,5.023273468,-2.700515747,0.022809386,-0.081713989,0.905322909
98.067572,-6.332729340,15.826496124,1.678756714,0.084699035,-0.124072388,0.936328769
98.083063,-9.422634125,17.054828644,5.211166382,0.125470519,-0.123584107,0.941455722
98.121506,-8.705471039,-3.987041473,6.042770386,0.079450011,-0.072558716,0.937427402
98.159946,-8.591030121,-14.462200165,5.768112183,-0.007097839,-0.076464966,0.962451816
98.174264,-4.463527679,-12.112346649,3.639511108,-0.067156434,0.018994018,0.950366855
98.189740,-0.961635590,-7.687297821,2.708724976,-0.091204286,0.008007690,0.964649081
98.228200,2.685214996,13.819965363,5.340866089,-0.063372254,-0.076220825,1.037402987
98.266643,2.715732574,4.542621613,-2.250381470,-0.039446473,-0.043750122,1.087695956
98.280976,3.043796539,4.359516144,-2.662368774,-0.038225770,-0.002612427,1.078174472
98.296442,6.141330719,6.839069366,-0.159927368,-0.015398621,0.072582886,1.063159823
98.346904,7.903720856,-7.801738739,-0.098892212,-0.018572450,-0.009814575,1.055225253
98.385447,10.917331696,-3.330913544,2.586654663,-0.059466004,0.081127807,0.981860995
98.399783,11.619235992,1.231464386,4.516891479,-0.055193543,0.058544800,0.981494784
98.415291,9.925510406,4.824909210,5.722335815,-0.034807801,-0.004565552,0.986743808
98.453749,3.547336578,-5.650249481,-0.793167114,-0.016985536,-0.040942505,0.942188144
98.504461,0.716831207,-4.826274872,-1.105972290,-0.044939637,-0.177783325,0.903125644
98.518872,-1.228664398,-5.917278290,-2.975173950,-0.046160340,-0.177661255,0.907764316
98.534358,-5.440090179,-6.710735321,-5.370803833,-0.047869325,-0.155932739,0.899829745
98.572798,-3.708217621,7.663043976,-1.403518677,-0.042620301,-0.056689575,0.891040683
98.611261,-4.120204926,3.672870636,-0.991531372,0.009747864,-0.110400513,0.927417636
98.625577,-3.479335785,-5.100933075,-2.074905396,0.006085754,-0.118457153,0.932422519
98.641046,-1.869533539,-7.305828094,-0.198074341,-0.012591003,-0.074878052,0.942798495
98.679481,-2.090785980,-4.299846649,-1.334854126,-0.050921082,-0.160937622,1.035205722
98.717971,4.081394196,7.190021515,-0.617691040,0.000470520,0.049633667,1.068652987
98.732285,6.148960114,11.073383331,3.547958374,0.048566222,-0.065966919,1.133350253
98.747766,4.417087555,9.265216827,5.150131226,0.059552550,-0.076098755,1.158740878
98.786225,3.585483551,-9.854045868,-0.449844360,0.042584777,0.220654175,1.068897128
98.824666,14.251377106,-0.790325165,4.631332397,0.001080872,-0.075732544,1.151172519
98.838996,10.574008942,1.132282257,4.791549683,0.008283020,-0.167285278,1.167163730
98.854466,2.647068024,0.102313995,0.404647827,0.017926574,-0.166674927,1.135547519
98.892921,5.042697906,14.018329620,-2.181716919,0.027936339,0.077831909,1.052295566
98.931359,2.113010406,18.779071808,4.211715698,0.160992980,-0.008105591,1.042652011
98.945681,2.113010406,10.989459991,4.448226929,0.166486144,-0.030810669,1.024341464
98.961174,2.334262848,-6.466594696,5.440048218,0.135236144,-0.079516724,0.989307284
99.013201,-3.403041840,-15.614238739,6.897262573,0.005597473,-0.092700318,0.938403964
99.051713,-8.232448578,4.061969757,7.698348999,-0.036394715,-0.134448364,0.943775058
99.066057,-10.307643890,10.524066925,8.957199097,-0.033587098,-0.085131958,0.936206698
99.081538,-10.139797211,17.413410187,10.971359253,-0.015520691,-0.071215943,0.926441073
99.120000,-10.177944183,-0.889507294,6.668380737,-0.027117372,-0.080493286,0.963916659
99.172273,-6.088588715,-9.884563446,0.900558472,-0.120379090,-0.038745239,0.985156894
99.186668,-5.356166840,-7.389751434,-0.213333130,-0.136980653,-0.031421021,1.003345370
99.202171,-4.478786469,0.399860382,-2.044387817,-0.155657411,-0.044482544,1.042652011
99.240602,-4.890773773,18.054279327,-5.607315063,-0.061663270,-0.057910278,1.070606112
99.279059,-2.090785980,8.181842804,-5.859085083,0.016461730,-0.011889771,1.065235019
99.293385,0.022556305,2.948078156,-8.193679810,0.024030089,0.026562378,1.058887362
99.308859,4.523899078,-0.858989716,-5.538650513,0.043317199,0.044506714,1.056934237
99.347301,4.073764801,-2.400127411,4.196456909,0.033185363,-0.109546021,1.070606112
99.385748,1.517917633,-12.959209442,0.831893921,-0.029558778,-0.041430786,1.009204745
99.400079,2.448703766,-11.891094208,0.580123901,-0.062639832,0.003857300,0.957691073
99.415565,3.059055328,-9.243694305,2.495101929,-0.069719911,0.040478393,0.933765292
99.453998,7.285739899,-0.027385712,3.731063843,-0.104632020,-0.017505005,0.915088534
99.492443,5.843784332,1.612934113,-0.442214966,-0.092302918,-0.078540161,0.891895175
99.506765,4.867221832,2.352985382,-0.495620728,-0.082171082,-0.112841919,0.898242831
99.522238,3.318454742,1.460346222,-1.395889282,-0.073748231,-0.140796021,0.907886386
99.560685,-3.357265472,-9.800640106,-8.323379517,-0.055925965,-0.124438599,0.918018222
99.561566,-3.357265472,-9.800640106,-8.323379517,-0.055925965,-0.124438599,0.918018222
99.562286,-3.357265472,-9.800640106,-8.323379517,-0.055925965,-0.124438599,0.918018222
99.563006,-3.357265472,-9.800640106,-8.323379517,-0.055925965,-0.124438599,0.918018222
99.563715,-3.357265472,-9.800640106,-8.323379517,-0.055925965,-0.124438599,0.918018222
99.564438,-3.357265472,-9.800640106,-8.323379517,-0.055925965,-0.124438599,0.918018222
99.565153,-3.357265472,-9.800640106,-8.323379517,-0.055925965,-0.124438599,0.918018222
99.565883,-5.028102875,-10.204998016,-8.613296509,-0.056780457,-0.082202271,0.912280917
99.566596,-5.028102875,-10.204998016,-8.613296509,-0.056780457,-0.082202271,0.912280917
99.567328,-5.028102875,-10.204998016,-8.613296509,-0.056780457,-0.082202271,0.912280917
99.568053,-5.028102875,-10.204998016,-8.613296509,-0.056780457,-0.082202271,0.912280917
99.568779,-5.028102875,-10.204998016,-8.613296509,-0.056780457,-0.082202271,0.912280917
99.569497,-5.028102875,-10.204998016,-8.613296509,-0.056780457,-0.082202271,0.912280917
99.607777,-4.310939789,3.688129425,-5.523391724,-0.045305848,-0.089648560,0.941089511
99.622104,-5.348537445,6.022724152,-6.026931763,-0.022844911,-0.092578247,0.954883456
99.637577,-7.126186371,6.930622101,-3.295608521,0.026105285,-0.085986450,0.967944980
99.676023,-4.059169769,-6.153789520,-0.625320435,0.029279113,-0.116992310,0.992725253
99.714465,-3.120754242,-16.964641571,-2.639480591,0.023908019,-0.048266724,1.023853183
99.728793,-1.007411957,-16.087261200,-1.258560181,0.015363098,-0.029956177,1.031421542
99.744299,1.762058258,-12.783733368,0.641159058,0.005475403,-0.059985474,1.042163730
99.796722,7.217075348,10.295185089,2.167037964,0.000348450,0.177807495,1.032031894
99.835262,11.504795074,20.533832550,10.002426147,0.063702941,-0.070849732,1.136157870
99.849587,7.865573883,16.673358917,10.322860718,0.069318175,-0.118701294,1.141284823
99.865089,2.708103180,4.519733429,4.745773315,0.053326964,-0.079638794,1.110278964
99.903518,3.753330231,-2.079692841,2.693466187,0.019025207,0.133862182,1.020435214
99.941965,2.578403473,0.552448273,4.654220581,0.000592590,-0.049121216,0.978076816
99.956277,1.952793121,-2.751079559,1.877120972,-0.012346863,-0.067065552,0.927539706
99.985947,3.951694489,1.300128937,2.891830444,-0.030901551,-0.047656372,0.916431308
100.024471,2.372409821,5.862506866,3.753952026,-0.011126160,-0.022509888,0.921314120
100.062916,-0.213954926,2.894672394,1.617721558,0.034283996,-0.111987427,0.994800448
100.077253,-3.418300629,4.031452179,4.181198120,0.045636535,-0.119799927,1.008716464
100.092731,-9.193752289,2.566608429,7.690719604,0.040875793,-0.116381958,1.005176425
100.131183,-9.651515961,-8.686748505,1.671127319,-0.014788269,-0.083667114,0.969531894
100.169626,-9.926174164,-1.919475555,1.999191284,-0.058733582,-0.064868286,0.977100253
100.183963,-8.591030121,4.054340363,2.762130737,-0.070208192,-0.112963989,0.995654941
100.199420,-8.301113129,4.321369171,1.030258179,-0.073137879,-0.114306763,1.006885409
100.200296,-8.301113129,4.321369171,1.030258179,-0.073137879,-0.114306763,1.006885409
100.201017,-8.301113129,4.321369171,1.030258179,-0.073137879,-0.114306763,1.006885409
100.201744,-7.370326996,3.558429718,-1.464553833,-0.080706239,-0.109546021,1.018237948
100.202461,-7.370326996,3.558429718,-1.464553833,-0.080706239,-0.109546021,1.018237948
100.240751,-6.569240570,5.587848663,-9.330459595,-0.085344911,-0.069018677,1.042652011
100.279210,-3.471706390,17.520221710,-3.562637329,0.015241028,-0.075976685,1.076709628
100.293536,-4.356716156,6.091388702,-4.356094360,0.050275207,-0.101733521,1.076099277
100.309017,-3.998134613,-2.629009247,-6.591506958,0.053937316,-0.041064575,1.063403964
100.347468,5.393650055,-13.821331024,-5.248733521,0.004865051,0.068310425,1.036060214
100.385910,3.097202301,-5.627361298,2.075485229,-0.034685731,-0.140063599,1.076221347
100.400250,1.289035797,-8.167949677,-0.396438599,-0.045427918,-0.126757935,1.057056308
100.415734,0.632907867,-9.785381317,-4.752822876,-0.070940614,-0.033862427,1.006641269
100.469603,3.204013824,1.628192902,3.227523804,-0.065081239,0.007885620,0.936817050
100.508110,3.371860504,-11.929241180,-5.462356567,-0.120745301,-0.065966919,0.909351230
100.522453,1.815464020,-8.526531219,-6.568618774,-0.126604676,-0.076098755,0.904102206
100.537932,0.243808746,-5.779949188,-5.088516235,-0.120257020,-0.083667114,0.901050448
100.576371,-2.258632660,-3.887859344,-11.634536743,-0.112322450,-0.132373169,0.919483066
100.614827,-7.583950043,4.390033722,-12.527175903,-0.013079285,-0.049121216,0.919727206
100.629150,-7.347438812,4.290851593,-10.001846313,0.023053527,-0.070483521,0.914478183
100.644642,-6.759975433,3.009113312,-8.956619263,0.028180480,-0.067065552,0.915820956
100.683078,-5.951259613,-5.261150360,-7.301040649,0.030743957,-0.066577271,0.924732089
100.721554,-3.990505219,-3.430095673,-4.493423462,0.005353332,-0.193042114,0.982593417
100.735879,-5.066249847,-2.339092255,-4.737564087,0.002423645,-0.158496216,0.988452792
100.751349,-3.769252777,0.422748566,-4.874893188,0.009137512,-0.080249146,0.991260409
100.789797,3.440525055,4.451068878,-1.151748657,0.046735168,-0.139819458,1.044238925
100.828256,2.715732574,-6.367412567,-1.311965942,0.045758605,0.003491089,1.043262362
100.842582,6.057407379,-10.098186493,-3.371902466,0.030011535,0.074291870,1.041553378
100.858072,11.947299957,-12.142864227,-5.004592896,0.023419738,0.017162964,1.060718417
100.858952,11.947299957,-12.142864227,-5.004592896,0.023419738,0.017162964,1.060718417
100.859692,11.947299957,-12.142864227,-5.004592896,0.023419738,0.017162964,1.060718417
100.860430,11.947299957,-12.142864227,-5.004592896,0.023419738,0.017162964,1.060718417
100.861152,11.947299957,-12.142864227,-5.004592896,0.023419738,0.017162964,1.060718417
100.861898,11.947299957,-12.142864227,-5.004592896,0.023419738,0.017162964,1.060718417
100.862614,11.947299957,-12.142864227,-5.004592896,0.023419738,0.017162964,1.060718417
100.863359,11.947299957,-12.142864227,-5.004592896,0.023419738,0.017162964,1.060718417
100.864076,11.947299957,-12.142864227,-5.004592896,0.023419738,0.017162964,1.060718417
100.864807,11.947299957,-12.142864227,-5.004592896,0.023419738,0.017162964,1.060718417
100.865534,11.947299957,-12.142864227,-5.004592896,0.023419738,0.017162964,1.060718417
100.903828,6.972934723,-3.369060516,-0.419326782,-0.021257997,-0.145068482,1.086841464
100.957994,4.287387848,22.364887238,-5.347915649,0.084576964,0.082104370,1.038989902
100.972391,4.233982086,27.491840363,-2.326675415,0.118268371,0.054516479,1.021777987
100.987919,4.966403961,23.074420929,0.458053589,0.184674621,-0.022876099,1.000171542
101.026357,5.012180328,-5.589214325,1.999191284,0.146466613,-0.095996216,0.964160800
101.064791,1.464511871,-2.125469208,9.964279175,0.085065246,-0.060839966,0.940357089
101.096288,1.777317047,1.635822296,9.002975464,0.033429503,-0.076587036,0.954395175
101.110681,0.480319977,3.978046417,8.537582397,0.025006652,-0.150195435,0.966602206
101.149015,-6.470058441,13.133319855,13.595870972,0.034650207,-0.120166138,0.953296542
101.187484,-6.393764496,1.109394073,13.557723999,-0.042864442,-0.152880982,0.963184237
101.201841,-6.615016937,-3.720012665,10.490707397,-0.072649598,-0.156665161,0.981006503
101.217302,-9.994838715,-10.616985321,6.904891968,-0.111590028,-0.164477661,1.002490878
101.255750,-6.050441742,-9.953227997,-1.235671997,-0.198626161,0.032543823,0.991260409
101.294178,-6.096218109,4.603656769,-6.583877563,-0.180193543,-0.029345825,1.051685214
101.308504,-5.447719574,12.042316437,-6.538101196,-0.113054872,-0.055590943,1.049121737
101.323992,-5.562160492,12.011798859,-7.880874634,-0.083025575,-0.064502075,1.044971347
101.362435,0.945713043,3.894123077,-13.587661743,-0.011492371,-0.049121216,1.040088534
101.400878,7.362033844,4.229816437,-2.311416626,0.051862121,0.036694214,1.045825839
101.415205,8.628513336,-4.292217255,-2.738662720,0.057477355,-0.052050903,1.071094394
101.430706,8.124973297,-9.274211884,-3.875442505,0.046246886,-0.058032349,1.080860019
101.469161,2.792026520,-10.349956512,-1.220413208,-0.004900574,0.040966675,1.017017245
101.507592,6.454135895,3.169330597,4.837326050,-0.051165223,-0.040698364,0.990650058
101.521931,5.172397614,4.344257355,2.731613159,-0.058123231,-0.077441528,0.996753573
101.537401,0.701572418,5.564960480,0.404647827,-0.053850770,-0.111499146,0.983325839
101.575857,-2.609584808,11.912616730,4.051498413,-0.056414247,-0.069873169,0.909473300
101.614304,-2.907131195,-3.613201141,-6.118484497,-0.065081239,-0.136035278,0.922778964
101.628648,-5.745265961,-5.711284637,-7.064529419,-0.059099793,-0.160083130,0.923999667
101.644134,-8.926723480,-3.300395966,-6.202407837,-0.048113465,-0.066943482,0.897022128
101.682570,-9.521816254,4.061969757,-2.555557251,-0.020525575,-0.100879028,0.899341464
101.737140,-4.806850433,1.712116241,-1.846023560,-0.011126160,-0.058398560,0.925098300
101.751534,-4.555080414,5.069049835,0.061325073,-0.004046082,-0.099536255,0.941821933
101.767020,-4.852626801,8.151325226,1.655868530,0.022809386,-0.094287232,0.976367831
101.805458,2.219821930,0.941547394,5.592636108,0.043195128,-0.008471802,1.009204745
101.843891,0.686313629,-11.929241180,3.212265015,0.011700989,-0.140796021,1.041919589
101.858232,1.479770660,-13.516155243,2.052597046,0.007306457,-0.023730591,1.022022128
101.873706,10.200168610,-9.899822235,3.860763550,-0.002092957,0.194897339,1.012988925
101.912161,13.244297028,-3.132549286,7.683090210,-0.017962098,-0.080249146,1.135791659
101.950593,9.620334625,-4.933086395,-0.411697388,-0.038714051,0.038769409,1.113208652
101.964920,9.956027985,0.735553741,0.946334839,-0.036150575,0.001293823,1.117359042
101.980398,3.570224762,11.058124542,2.037338257,-0.008928894,-0.060717896,1.112598300
102.018847,-1.442287445,12.393268585,2.884201050,0.058331847,-0.002490357,1.038745761
102.057298,-0.130031586,-1.171794891,5.401901245,0.048322082,-0.088671997,0.976611972
102.071643,-2.350185394,-5.879131317,4.722885132,0.025128722,-0.132739380,0.965503573
102.087125,-3.853176117,-6.138530731,4.982284546,0.015241028,-0.137500122,0.955005527
102.125559,-6.325099945,5.549701691,9.002975464,-0.017229676,-0.073291138,0.924854159
102.126425,-6.325099945,5.549701691,9.002975464,-0.017229676,-0.073291138,0.924854159
102.127144,-6.325099945,5.549701691,9.002975464,-0.017229676,-0.073291138,0.924854159
102.127870,-6.325099945,5.549701691,9.002975464,-0.017229676,-0.073291138,0.924854159
102.177667,-6.805751801,8.181842804,7.721237183,-0.013811707,-0.109423950,0.932544589
102.192054,-7.225368500,3.588947296,8.217147827,-0.037737489,-0.075732544,0.937061191
102.207551,-6.203029633,1.254352570,7.889083862,-0.057024598,-0.104541138,0.947193027
102.245977,-7.698390961,-8.045879364,2.395919800,-0.128191590,-0.153857544,0.993091464
102.284391,-5.699489594,7.823261261,-5.996414185,-0.212420106,-0.039843872,1.059131503
102.298726,-8.491847992,25.981220245,-4.775711060,-0.158831239,-0.022265747,1.094287753
102.314235,-8.339260101,30.238422394,-4.142471313,-0.110613465,-0.048144653,1.103076816
102.364462,-7.805202484,-1.980510712,-11.329360962,-0.027117372,-0.050952271,1.054370761
102.402980,2.158786774,-3.857341766,-6.049819946,-0.021624207,0.026928589,1.032520175
102.417291,3.806735992,-2.316204071,-3.707595825,-0.013567566,-0.012866333,1.043018222
102.432762,3.074314117,-4.780498505,-0.526138306,-0.013201355,-0.110034302,1.060352206
102.471202,1.845981598,-17.666545868,-5.454727173,-0.067034364,0.021801636,0.996631503
102.509647,4.119541168,0.682147980,1.282028198,-0.084734559,-0.030444458,0.980396152
102.523983,3.074314117,2.482685089,1.060775757,-0.074236512,-0.038867310,0.973560214
102.539455,1.891757965,-0.126567841,-2.189346313,-0.065325379,-0.075854614,0.951221347
102.577889,-0.709865570,-2.300945282,-3.211685181,-0.076433778,-0.106494263,0.891406894
102.616356,-3.097866058,-9.640422821,-7.430740356,-0.076067567,-0.149463013,0.874927402
102.630678,-4.104946136,-10.708538055,-8.468338013,-0.085344911,-0.164965943,0.874683261
102.646160,-7.316921234,-6.664958954,-10.665603638,-0.095720887,-0.155810669,0.860034823
102.684592,-6.561611176,7.052692413,-8.079238892,-0.035906434,-0.023608521,0.828662753
102.723035,-1.732204437,3.741535187,-5.416580200,0.019513488,-0.141406372,0.885181308
102.737355,-1.518581390,-1.026836395,-7.835098267,0.018170714,-0.135058716,0.904712558
102.752842,-0.648830414,-0.584331512,-6.499954224,0.025494933,-0.133227661,0.916919589
102.791283,-1.427028656,2.093585968,0.282577515,0.056622863,-0.140429810,1.001636386
102.829757,1.060153961,-5.253520966,1.022628784,0.043317199,-0.074511841,1.056079745
102.844088,1.693393707,-6.031719208,2.678207397,0.037579894,-0.118823364,1.065357089
102.859550,0.846530914,-8.496013641,4.616073608,0.017560363,-0.208911255,1.071582675
102.897982,6.126071930,-16.659465790,-0.198074341,-0.033953309,0.048046753,1.022022128
102.936428,13.496067047,-6.191936493,3.540328979,-0.047869325,-0.045459107,1.091724277
102.950759,12.832309723,-4.254070282,2.807907104,-0.047869325,-0.077197388,1.106738925
102.966240,9.170200348,-3.720012665,-1.838394165,-0.050676942,-0.125659302,1.117969394
103.016629,5.340244293,14.857563019,-3.371902466,0.061139464,0.048046753,1.043506503
103.055198,1.174594879,8.525165558,2.678207397,0.148297668,-0.054980591,1.002368808
103.069508,0.678684235,-0.141826630,2.884201050,0.145490050,-0.066699341,0.978565097
103.084989,1.258518219,-13.348308563,3.639511108,0.090192199,-0.059008911,0.925220370
103.123427,3.081943512,-12.104717255,7.049850464,0.001569153,-0.094775513,0.901660800
103.161874,0.335361481,-1.454082489,7.919601440,-0.031756043,-0.121142700,0.899097323
103.176195,1.151706696,6.655963898,6.523422241,-0.045183778,-0.107592896,0.904346347
103.191671,0.304843903,10.890277863,6.485275269,-0.039934754,-0.115893677,0.911182284
103.230112,-0.732753754,14.270099640,8.659652710,-0.004046082,-0.102954224,0.945850253
103.268573,-1.961086273,-8.801189423,3.074935913,-0.054827332,-0.095507935,0.988819003
103.282900,-2.586696625,-11.753765106,1.434616089,-0.103655457,-0.096606568,1.000781894
103.298379,-2.090785980,-11.006084442,0.725082397,-0.123552918,-0.079760864,1.011279941
103.336817,-2.189968109,-1.614299774,-8.056350708,-0.145525575,-0.068530396,1.060718417
103.375271,-1.571987152,19.198688507,-8.414932251,-0.051409364,-0.136035278,1.088550448
103.389597,-3.029201508,20.571979523,-8.033462524,-0.011980652,-0.144824341,1.100757480
103.405108,-5.165431976,15.246662140,-6.477066040,0.040875793,-0.074633911,1.091113925
103.443578,1.029636383,-2.918926239,-5.782791138,0.061627746,0.008129761,1.072559237
103.494276,2.570774078,-9.060588837,-1.220413208,0.029523253,0.013256714,1.046558261
103.508661,3.692295074,-9.602275848,-1.296707153,0.020490050,0.023998901,1.038013339
103.524166,4.645969391,-9.670940399,0.297836304,0.000226379,0.042431518,1.015186191
103.562584,6.110813141,-5.589214325,3.998092651,-0.034441590,-0.034594849,0.982715487
103.601025,3.257419586,-5.787578583,1.167587280,-0.075335145,-0.093310669,0.952442050
103.630088,1.922275543,-0.881877899,-1.243301392,-0.082171082,-0.068530396,0.921680331
103.644476,1.525547028,1.353534698,-0.434585571,-0.075945497,-0.091113403,0.918262362
103.682818,-3.013942719,1.353534698,-4.661270142,-0.056780457,-0.113818482,0.919727206
103.721267,-3.319118500,1.811298370,-5.820938110,-0.029802918,-0.046069458,0.906055331
103.735581,-2.830837250,3.024372101,-5.500503540,-0.021135926,-0.047656372,0.911792636
103.751056,-2.846096039,4.153522491,-5.027481079,0.003522278,-0.075000122,0.929614902
103.789490,-2.113674164,-2.285686493,-1.792617798,0.021222472,-0.094775513,0.959522128
103.827953,-2.830837250,-8.122173309,-2.425857544,-0.003924011,-0.109423950,0.997241855
103.842268,-4.097316742,-4.620281219,-3.280349731,-0.012835144,-0.095752075,1.024341464
103.857739,-5.173061371,-0.622478485,-2.334304810,-0.005999207,-0.036792114,1.030689120
103.896186,-1.655910492,10.028156281,4.211715698,0.041852355,-0.050463989,1.050098300
103.934604,-2.357814789,-3.292766571,0.129989624,0.059430480,-0.137133911,1.064624667
103.948952,-0.381801605,-10.037151337,-0.411697388,0.055280089,0.031933472,1.026660800
103.964432,3.303195953,-11.028972626,0.038436890,0.049298644,0.080151245,1.012500644
104.002866,7.529880524,-7.076946259,5.836776733,0.016339660,-0.058276489,1.063892245
104.041296,6.530429840,-5.512920380,-2.151199341,-0.029192567,-0.052661255,1.055957675
104.055646,5.035068512,-0.271526337,-2.441116333,-0.017840028,-0.033374146,1.059741855
104.071129,2.883579254,12.538227081,0.557235718,0.041119933,0.056957886,1.052539706
104.109579,2.349521637,7.800373077,4.471115112,0.128278136,0.012890503,1.015186191
104.110437,2.349521637,7.800373077,4.471115112,0.128278136,0.012890503,1.015186191
104.111147,2.349521637,7.800373077,4.471115112,0.128278136,0.012890503,1.015186191
104.111869,2.349521637,7.800373077,4.471115112,0.128278136,0.012890503,1.015186191
104.150138,2.448703766,-12.806621552,4.959396362,0.073346496,-0.032763794,0.965381503
104.164470,2.380039215,-13.615337372,7.316879272,0.057965636,-0.042041138,0.957324862
104.179947,2.776767731,-14.134136200,8.613876343,0.012555481,-0.067553833,0.954273105
104.180830,2.776767731,-14.134136200,8.613876343,0.012555481,-0.067553833,0.954273105
104.181561,2.776767731,-14.134136200,8.613876343,0.012555481,-0.067553833,0.954273105
104.182300,2.776767731,-14.134136200,8.613876343,0.012555481,-0.067553833,0.954273105
104.220548,-1.945827484,-7.359233856,3.952316284,-0.054705262,-0.076953247,0.947315097
104.272780,-3.387783051,17.115863800,6.950668335,-0.037249207,-0.108203247,0.939014316
104.287181,-5.318019867,12.675556183,3.731063843,-0.012468933,-0.118701294,0.944263339
104.302716,-6.004665375,9.288105011,3.044418335,-0.006853699,-0.109179810,0.941577792
104.341169,-5.218837738,-1.721111298,3.586105347,-0.039568543,-0.047046021,0.946826816
104.379590,-4.280422211,-7.244792938,-5.988784790,-0.089495301,-0.087817505,1.002368808
104.393916,-4.974697113,-3.353801727,-7.400222778,-0.089983582,-0.040820435,1.006152987
104.409378,-3.952358246,10.943683624,-5.950637817,-0.076922059,-0.007983521,1.015796542
104.447819,-2.464626312,29.132160187,0.442794800,0.050885558,-0.118090943,1.072681308
104.486272,-4.906032562,0.163349152,-3.921218872,0.090314269,-0.073169068,1.060962558
104.500598,-3.929470062,-7.549968719,-5.401321411,0.077863097,-0.046435669,1.046924472
104.516095,-1.358364105,-13.409343719,-1.548477173,0.052838683,0.037548706,1.021777987
104.554570,1.769687653,-14.301982880,3.547958374,-0.016008973,-0.071215943,1.012500644
104.593021,0.648166656,-15.667644501,-2.341934204,-0.069964051,-0.072314575,0.968067050
104.622656,6.141330719,-0.767436981,1.716903687,-0.093279481,0.059277222,0.920337558
104.637060,10.032321930,6.434711456,3.540328979,-0.073992372,-0.004931763,0.939868808
104.675390,8.002902985,-4.658428192,-1.502700806,-0.057390809,-0.110034302,0.973926425
104.713828,2.509738922,-5.024639130,-5.256362915,-0.081072450,-0.094653443,0.952319980
104.728151,1.769687653,-2.339092255,-5.653091431,-0.073015809,-0.063281372,0.943652987
104.757795,2.738620758,4.550251007,-6.324478149,-0.039202332,-0.040820435,0.948047519
104.796337,-2.304409027,8.311542511,-7.186599731,0.027448058,-0.078662232,0.965991855
104.834796,-2.701137543,7.251056671,-2.814956665,0.071393371,-0.048266724,0.951465487
104.849120,-2.632472992,5.397113800,-2.067276001,0.073956847,-0.062548950,0.952686191
104.864600,-2.106044769,0.148090363,-1.334854126,0.072247863,-0.084887818,0.955737948
104.903042,-1.343105316,-6.931987762,2.006820679,0.049054503,-0.143847778,0.986011386
104.957014,-4.135463715,-0.134197235,3.570846558,-0.002581238,-0.036914185,1.009937167
104.971405,-3.044460297,2.887042999,4.410079956,0.002667786,0.016552612,1.006275058
104.986914,1.609470367,8.395465851,7.240585327,0.012921692,0.020092651,1.021655917
105.025371,2.425815582,-1.461711884,8.476547241,0.020245910,-0.187182739,1.070972323
105.063797,3.440525055,-18.124309540,2.716354370,-0.038469911,0.029492065,1.025928378
105.078115,7.377292633,-17.468181610,0.557235718,-0.052019715,0.017651245,1.029712558
105.093597,8.620883942,-9.014812469,0.717453003,-0.061052918,-0.053515747,1.063648105
105.094462,8.620883942,-9.014812469,0.717453003,-0.061052918,-0.053515747,1.063648105
105.095186,8.620883942,-9.014812469,0.717453003,-0.061052918,-0.053515747,1.063648105
105.133475,3.066684723,10.203632355,2.853683472,-0.012224793,-0.031543091,1.080982089
105.171920,-1.999233246,12.530597687,1.892379761,0.041242003,0.052685425,1.050342441
105.186238,-1.945827484,11.660846710,2.624801636,0.055402160,0.108715698,1.029590487
105.201716,0.342990875,6.770404816,4.822067261,0.069318175,0.120556518,0.982837558
105.240184,5.752231598,-12.768474579,3.319076538,0.033185363,-0.052172974,0.963428378
105.278607,3.959323883,-13.493267059,6.622604370,-0.023211122,-0.063525513,0.941944003
105.292930,4.851963043,-9.899822235,8.056930542,-0.068132997,-0.060595825,0.941944003
105.308401,5.546237946,-8.480754852,6.424240112,-0.083880067,-0.075854614,0.954028964
105.346837,-1.564357758,3.886493683,1.488021851,-0.099871278,-0.090258911,0.963672519
105.347694,-1.564357758,3.886493683,1.488021851,-0.099871278,-0.090258911,0.963672519
105.348393,-1.564357758,3.886493683,1.488021851,-0.099871278,-0.090258911,0.963672519
105.349109,-1.564357758,3.886493683,1.488021851,-0.099871278,-0.090258911,0.963672519
105.349800,-2.258632660,9.318622589,2.571395874,-0.095354676,-0.041552857,0.953052402
105.350521,-2.258632660,9.318622589,2.571395874,-0.095354676,-0.041552857,0.953052402
105.388738,-1.121852875,16.490253448,3.181747437,-0.057634950,-0.075854614,0.965381503
105.403052,-3.303859711,8.944782257,0.274948120,-0.038103700,-0.093921021,0.975269198
105.418509,-3.563259125,3.840717316,-2.097793579,-0.038469911,-0.071826294,0.971607089
105.419386,-3.097866058,-0.027385712,-4.142471313,-0.042742372,-0.064502075,0.969043612
105.420103,-3.097866058,-0.027385712,-4.142471313,-0.042742372,-0.064502075,0.969043612
105.420843,-3.097866058,-0.027385712,-4.142471313,-0.042742372,-0.064502075,0.969043612
105.421535,-3.097866058,-0.027385712,-4.142471313,-0.042742372,-0.064502075,0.969043612
105.422271,-3.097866058,-0.027385712,-4.142471313,-0.042742372,-0.064502075,0.969043612
105.422969,-3.097866058,-0.027385712,-4.142471313,-0.042742372,-0.064502075,0.969043612
105.423700,-3.097866058,-0.027385712,-4.142471313,-0.042742372,-0.064502075,0.969043612
105.424401,-3.097866058,-0.027385712,-4.142471313,-0.042742372,-0.064502075,0.969043612
105.425139,-3.097866058,-0.027385712,-4.142471313,-0.042742372,-0.064502075,0.969043612
105.425841,-3.097866058,-0.027385712,-4.142471313,-0.042742372,-0.064502075,0.969043612
105.426570,-3.097866058,-0.027385712,-4.142471313,-0.042742372,-0.064502075,0.969043612
105.480634,-4.112575531,-0.660625458,-3.356643677,-0.041277528,-0.105517700,0.995288730
105.519195,-4.730556488,-0.668254852,-10.635086060,-0.059466004,-0.051806763,1.026294589
105.533504,-5.684230804,5.625995636,-9.620376587,-0.048235536,-0.007617310,1.025195956
105.549014,-3.975246429,17.276081085,-5.546279907,-0.000628113,0.016674682,1.030078769
105.603415,-5.562160492,0.720294952,-5.119033813,0.057843566,-0.150561646,1.073047519
105.641922,-2.563808441,-20.245281219,-7.034011841,-0.020769715,-0.030566528,0.993701816
105.656247,-1.129482269,-20.436016083,-7.705398560,-0.044451356,-0.007861450,0.987110019
105.671740,1.578952789,-15.873638153,-6.751724243,-0.071306825,0.050976440,0.982227206
105.710181,5.706455231,4.702838898,-4.798599243,-0.084490418,-0.078296021,1.015430331
105.748624,-0.557277679,6.648334503,-7.079788208,-0.014422058,-0.020190552,1.003955722
105.762954,0.548984528,3.726276398,-7.415481567,-0.007341980,0.024731323,0.986743808
105.778433,3.501560211,-1.003948212,-9.704299927,0.003522278,0.022656128,0.986255527
105.816871,1.182224274,-2.842632294,-7.941909790,0.027936339,0.004589722,0.970630527
105.855348,1.975681305,-2.026287079,-5.485244751,0.032330871,-0.046801880,0.958423495
105.869666,0.793125153,-3.269878387,-6.362625122,0.033551574,-0.086108521,0.963550448
105.885141,-0.221584320,-3.689495087,-6.995864868,0.034650207,-0.093188599,0.958545566
105.923574,-2.456996918,4.863056183,-3.196426392,0.063458800,-0.056933716,0.952319980
105.924460,-2.456996918,4.863056183,-3.196426392,0.063458800,-0.056933716,0.952319980
105.925175,-2.456996918,4.863056183,-3.196426392,0.063458800,-0.056933716,0.952319980
105.925905,-2.945278168,7.266315460,-1.105972290,0.072858214,-0.041674927,0.950366855
105.926610,-2.945278168,7.266315460,-1.105972290,0.072858214,-0.041674927,0.950366855
105.927339,-2.945278168,7.266315460,-1.105972290,0.072858214,-0.041674927,0.950366855
105.928042,-2.945278168,7.266315460,-1.105972290,0.072858214,-0.041674927,0.950366855
105.928763,-2.945278168,7.266315460,-1.105972290,0.072858214,-0.041674927,0.950366855
105.967007,-3.364894867,0.430377960,0.603012085,0.080914855,-0.045092896,0.929614902
105.981324,-2.258632660,-3.109661102,0.770858765,0.072369933,-0.046923950,0.925586581
105.996791,-0.603054047,-6.886211395,1.297286987,0.039533019,-0.083789185,0.927173495
106.035238,-1.571987152,-1.507488251,6.408981323,0.008893372,-0.093554810,0.942432284
106.073675,0.960971832,-2.957073212,5.340866089,-0.017595887,-0.088916138,0.970630527
106.087996,0.236179352,-5.543437958,1.114181519,-0.023089051,-0.121508911,1.009082675
106.103456,-1.449916840,-5.093303680,0.641159058,-0.020403504,-0.090991333,1.015064120
106.141891,0.404026031,3.451618195,6.088546753,-0.015886903,-0.020556763,1.006030917
106.180336,-0.625942230,-8.457866669,0.870040894,-0.019793153,-0.130786255,1.037647128
106.194661,-1.114223480,-11.730876923,-0.716873169,-0.030535340,0.009594604,1.003467441
106.210139,1.533176422,-10.281291962,-0.106521606,-0.034929872,0.056103393,0.986621737
106.264786,4.058506012,4.298480988,-0.915237427,0.017804503,-0.061206177,1.038745761
106.303295,3.020908356,7.968219757,2.762130737,0.046613097,-0.048144653,1.047168612
106.317633,1.708652496,6.472858429,2.296737671,0.049298644,-0.028857544,1.046069980
106.333113,-0.038478851,2.269062042,0.145248413,0.055402160,0.044018432,1.020557284
106.371574,3.104831696,-0.538555145,2.571395874,0.047589660,0.079662964,0.972583652
106.409999,5.813266754,-6.489482880,3.090194702,0.003766418,-0.006640747,0.948413730
106.424322,7.133152008,-8.068767548,2.212814331,-0.021502137,-0.027270630,0.951709628
106.439788,6.911899567,-7.824626923,1.892379761,-0.030657411,-0.041919068,0.954517245
106.478240,5.630161285,-0.111309052,0.061325073,-0.053240418,-0.042529419,0.959766269
106.516654,4.447605133,8.448871613,-0.449844360,-0.016985536,-0.013842896,0.970264316
106.530984,4.737522125,8.197101593,-0.549026489,-0.009661316,-0.018115357,0.972949862
106.546465,4.745151520,4.557880402,-0.587173462,-0.002337097,-0.025561646,0.986255527
106.596497,2.395298004,-5.985942841,-4.142471313,-0.021502137,-0.030810669,0.998218417
106.634982,2.402927399,0.026020050,-4.897781372,-0.051165223,-0.015429810,1.002002597
106.649299,2.074863434,1.956256866,-5.866714478,-0.050799012,-0.027392700,1.008838534
106.664777,0.945713043,5.496295929,-7.384963989,-0.036028504,-0.015429810,1.024829745
106.665647,0.945713043,5.496295929,-7.384963989,-0.036028504,-0.015429810,1.024829745
106.666401,0.945713043,5.496295929,-7.384963989,-0.036028504,-0.015429810,1.024829745
106.667154,0.945713043,5.496295929,-7.384963989,-0.036028504,-0.015429810,1.024829745
106.667884,0.945713043,5.496295929,-7.384963989,-0.036028504,-0.015429810,1.024829745
106.668634,0.945713043,5.496295929,-7.384963989,-0.036028504,-0.015429810,1.024829745
106.669362,0.945713043,5.496295929,-7.384963989,-0.036028504,-0.015429810,1.024829745
106.670114,0.945713043,5.496295929,-7.384963989,-0.036028504,-0.015429810,1.024829745
106.708372,0.548984528,6.495746613,-8.514114380,0.013776184,0.052929565,1.073047519
106.746795,-3.662441254,5.786212921,-7.323928833,0.034650207,0.045727417,1.101367831
106.761126,-4.814479828,3.733905792,-5.126663208,0.028912902,-0.015185669,1.100635409
106.776606,-5.256984711,0.781330109,-5.607315063,0.018048644,-0.021289185,1.105152011
106.815039,-10.147426605,-11.105266571,-13.335891724,-0.022844911,-0.028125122,1.069019198
106.853473,-7.622097015,-2.827373505,-12.008377075,-0.018450379,0.109081909,1.007617831
106.867808,-7.095668793,-0.797954559,-10.261245728,-0.004656433,0.093823120,0.997241855
106.883301,-2.830837250,-2.300945282,-9.940811157,0.009503723,0.079662964,0.986377597
106.921764,-2.876613617,-14.790264130,-11.527725220,-0.006731628,-0.064502075,0.998096347
106.960207,-4.730556488,-6.527629852,-15.708633423,-0.046648622,0.033520386,0.940112948
106.974532,-4.188869476,-1.209941864,-15.533157349,-0.035784364,0.071118042,0.921069980
107.001791,0.678684235,13.377460480,-13.671585083,0.009503723,0.060864136,0.896533847
107.040334,6.431247711,9.074481964,-12.267776489,0.063825011,0.030346557,0.902759433
107.078747,5.195285797,-4.803386688,-12.206741333,0.064679503,-0.056323364,0.933032870
107.093071,5.706455231,-5.703655243,-12.054153442,0.050519347,-0.025195435,0.928394198
107.108567,6.339694977,-4.955974579,-11.443801880,0.054303527,-0.044360474,0.940235019
107.147003,4.630710602,-4.063335419,-11.748977661,0.056134582,-0.025317505,0.965137362
107.185408,4.737522125,3.123554230,-8.537002563,0.051495910,0.032543823,0.944019198
107.199736,5.859043121,2.566608429,-7.606216431,0.072247863,-0.002734497,0.958789706
107.215234,5.706455231,0.933917999,-7.407852173,0.076642394,-0.033618286,0.967822909
107.253660,5.477573395,-0.584331512,-6.675430298,0.033551574,-0.007861450,0.948902011
107.292058,7.995273590,-3.559795380,-5.927749634,0.054303527,-0.081469849,1.022632480
107.306384,6.835605621,-7.794109344,-7.072158813,0.047467589,-0.062793091,1.037036777
107.321863,4.157688141,-13.012615204,-7.949539185,0.009869934,-0.055713013,1.042529941
107.322739,4.157688141,-13.012615204,-7.949539185,0.009869934,-0.055713013,1.042529941
107.323460,4.157688141,-13.012615204,-7.949539185,0.009869934,-0.055713013,1.042529941
107.324198,4.157688141,-13.012615204,-7.949539185,0.009869934,-0.055713013,1.042529941
107.324910,4.157688141,-13.012615204,-7.949539185,0.009869934,-0.055713013,1.042529941
107.325649,4.157688141,-13.012615204,-7.949539185,0.009869934,-0.055713013,1.042529941
107.326364,4.157688141,-13.012615204,-7.949539185,0.009869934,-0.055713013,1.042529941
107.327102,2.891208649,-12.753215790,-8.041091919,-0.016008973,-0.033862427,1.033008456
107.327827,2.891208649,-12.753215790,-8.041091919,-0.016008973,-0.033862427,1.033008456
107.328567,2.891208649,-12.753215790,-8.041091919,-0.016008973,-0.033862427,1.033008456
