time,gyro x,gyro y,gyro z,accel x,accel y,accel z
5.527383,2.975616455,5.102561951,-0.051223755,0.047988892,-0.007263429,1.118382931
5.537054,0.808868408,6.262229919,-0.188552856,-0.048446655,-0.049621828,0.847264767
5.537680,2.365264893,5.682395935,-0.150405884,-0.056259155,-0.055237062,0.840428829
5.538306,3.914031982,4.797386169,-0.302993774,-0.058700562,-0.047790773,0.827123165
5.538932,5.363616943,4.087852478,-0.493728638,-0.055770874,-0.032409914,0.812596798
5.539558,6.408843994,3.767417908,-0.455581665,-0.057846069,-0.036194094,0.812474728
5.540183,7.927093506,3.134178162,-0.692092896,-0.062728882,-0.035827883,0.820897579
5.540809,8.735809326,2.493309021,-1.027786255,-0.062362671,-0.027282961,0.823338985
5.541434,9.292755127,1.943992615,-0.959121704,-0.059066772,-0.029724367,0.826268673
5.542061,9.819183350,1.104759216,-1.020156860,-0.048812866,-0.023742922,0.830419064
5.542687,10.368499756,0.479148865,-0.714981079,-0.041854858,-0.022033937,0.829564571
5.543312,10.574493408,-0.009132385,-0.859939575,-0.037826538,-0.016052492,0.836156368
5.543937,11.001739502,-0.321937561,-0.974380493,-0.038070679,0.000549071,0.839940548
5.544564,11.230621338,-0.749183655,-0.768386841,-0.039169312,0.012145750,0.847264767
5.545191,11.207733154,-1.466346741,-0.791275024,-0.041488647,0.017272703,0.860814571
5.545817,11.230621338,-1.824928284,-0.997268677,-0.043319702,0.023376219,0.876317501
5.546443,10.795745850,-2.198768616,-1.096450806,-0.039413452,0.016784422,0.885961056
5.547068,10.566864014,-2.656532288,-1.172744751,-0.032821655,0.011413328,0.892430782
5.547694,10.299835205,-2.954078674,-1.073562622,-0.029525757,0.003356688,0.903050900
5.548320,9.720001221,-3.381324768,-0.936233521,-0.024887085,0.003844969,0.916356564
5.548945,9.285125732,-3.984046936,-0.783645630,-0.022567749,0.010070555,0.928685665
5.549572,8.529815674,-4.121376038,-0.806533813,-0.017684937,0.017028563,0.939305782
5.550198,7.408294678,-4.098487854,-0.707351685,-0.015365601,0.018859617,0.954076290
5.550824,6.744537354,-4.418922424,-0.653945923,-0.013290405,0.019347899,0.965550900
5.551449,5.882415771,-4.373146057,-0.562393188,-0.007186890,0.027648680,0.971898556
5.552075,4.707489014,-4.235816956,-0.638687134,-0.002670288,0.034484617,0.966527462
5.552700,3.585968018,-4.319740295,-0.562393188,-0.003524780,0.025329344,0.967137814
5.553325,2.937469482,-4.502845764,-0.287734985,-0.009628296,0.015807860,0.976171017
5.553950,2.449188232,-4.670692444,-0.295364380,-0.007308960,0.001647703,0.978856564
5.554577,1.846466064,-4.678321838,-0.241958618,-0.009628296,-0.008117922,0.983129025
5.555202,1.739654541,-4.724098206,-0.127517700,-0.009872437,-0.016296633,0.988011837
5.555828,1.991424561,-4.808021545,-0.020706177,-0.008651733,-0.025573976,0.993382931
5.556453,1.922760010,-4.739356995,-0.310623169,-0.005722046,-0.023376711,0.990087032
5.557079,1.762542725,-4.235816956,-0.089370728,-0.001815796,-0.016906984,0.988744259
5.557706,1.358184814,-4.304481506,0.032699585,-0.000350952,-0.020935304,0.988378048
5.558332,1.266632080,-4.899574280,0.284469604,-0.004257202,-0.028503664,1.000096798
5.558957,1.495513916,-4.998756409,0.360763550,-0.011581421,-0.025329836,1.006566525
5.559583,1.632843018,-4.960609436,0.314987183,-0.007064819,-0.012390383,1.004003048
5.560210,1.777801514,-5.014015198,0.482833862,-0.000106812,-0.016784914,1.009496212
5.560835,1.663360596,-5.044532776,0.498092651,-0.004501343,-0.019348390,1.016820431
5.561462,1.869354248,-4.945350647,0.528610229,-0.006088257,-0.013611086,1.018407345
5.562087,1.541290283,-4.746986389,0.589645386,-0.004989624,-0.015808351,1.023534298
5.562713,1.541290283,-5.090309143,0.696456909,-0.007064819,-0.018249758,1.030980587
5.563338,1.259002686,-5.128456116,0.795639038,-0.002548218,-0.014221437,1.029149532
5.563965,1.220855713,-4.960609436,0.833786011,0.007339478,-0.015686281,1.028295040
5.564591,1.014862061,-4.891944885,1.047409058,0.008804321,-0.025818117,1.033177853
5.565218,1.159820557,-4.640174866,0.986373901,0.011001587,-0.021789797,1.033299923
5.565843,0.900421143,-4.464698792,1.299179077,0.014785767,-0.007507570,1.019505978
5.566469,0.145111084,-3.823829651,1.207626343,0.009780884,-0.002380617,1.011815548
5.579603,1.136932373,-6.410194397,3.343856812,-0.019149780,-0.033996828,0.966405392
5.580326,1.335296631,-6.814552307,3.191268921,-0.016830444,-0.036560304,0.957494259
5.580953,1.205596924,-6.997657776,3.328598022,-0.016952515,-0.038025148,0.955663204
5.581580,1.335296631,-7.211280823,3.473556519,-0.015609741,-0.039367922,0.958837032
5.582206,1.701507568,-6.799293518,3.649032593,-0.011581421,-0.036072023,0.959203243
5.582833,1.915130615,-7.043434143,3.618515015,-0.013534546,-0.031067140,0.958959103
5.583458,1.876983643,-7.134986877,3.687179565,-0.015365601,-0.026428469,0.960057735
5.584084,2.052459717,-7.234169006,3.748214722,-0.013290405,-0.020691164,0.962621212
5.584711,2.067718506,-7.203651428,3.923690796,-0.012191772,-0.019470461,0.966649532
5.585337,1.892242432,-7.264686584,3.969467163,-0.008285522,-0.016784914,0.967381954
5.585962,1.777801514,-7.310462952,3.786361694,-0.009262085,-0.014221437,0.967626095
5.586587,1.457366943,-7.226539612,3.954208374,-0.009872437,-0.016784914,0.971898556
5.587213,1.228485107,-7.272315979,4.061019897,-0.006454468,-0.025451906,0.977391720
5.587838,0.778350830,-7.402015686,4.122055054,-0.005722046,-0.026916750,0.975438595
5.588463,0.656280518,-7.447792053,4.305160522,0.000259399,-0.028381594,0.978734493
5.589089,0.488433838,-7.417274475,4.404342651,0.000503540,-0.029602297,0.978246212
5.589714,0.595245361,-7.478309631,4.503524780,-0.001815796,-0.028015383,0.977025509
5.590339,0.549468994,-7.402015686,4.671371460,-0.004745483,-0.027771242,0.975926876
5.590966,0.641021729,-7.653785706,4.724777222,-0.002914429,-0.027893312,0.976659298
5.591591,0.663909912,-7.638526917,4.686630249,0.002944946,-0.024475344,0.973607540
5.592218,0.351104736,-7.562232971,5.136764526,0.001358032,-0.018738039,0.968358517
5.592843,0.457916260,-7.539344788,4.846847534,0.006240845,-0.014465578,0.970067501
5.593468,0.373992920,-7.699562073,5.037582397,0.003311157,-0.014709719,0.966649532
5.594093,0.290069580,-7.608009338,4.999435425,0.004531860,-0.014587648,0.968968868
5.594718,0.450286865,-7.615638733,4.877365112,-0.000473022,-0.013977297,0.969823360
5.595344,0.518951416,-7.714820862,5.007064819,0.000137329,-0.018005617,0.969579220
5.595969,0.229034424,-7.997108459,5.075729370,-0.003158569,-0.022644289,0.970555782
5.596596,0.122222900,-7.737709045,5.190170288,-0.010971069,-0.021423586,0.972753048
5.597222,-0.205841064,-8.004737854,5.403793335,-0.006332397,-0.022644289,0.967259884
5.597847,-0.053253174,-7.859779358,5.274093628,-0.007431030,-0.023864992,0.970799923
5.598472,0.007781982,-7.852149963,5.464828491,-0.001815796,-0.015930422,0.968114376
5.599097,0.282440186,-7.951332092,5.243576050,-0.000228882,-0.014831789,0.969335079
5.599722,-0.083770752,-7.943702698,5.419052124,-0.002670288,-0.009216554,0.963963985
5.600347,0.084075928,-7.958961487,5.602157593,-0.009017944,-0.015075929,0.970067501
5.600972,0.084075928,-8.210731506,5.579269409,-0.010116577,-0.011535890,0.968724728
5.601598,0.229034424,-8.187843323,5.663192749,-0.003646851,-0.005554445,0.968602657
5.602224,0.084075928,-8.233619690,5.426681519,-0.005233765,-0.002868898,0.966893673
5.602849,-0.396575928,-8.210731506,5.678451538,-0.002304077,-0.011169679,0.969701290
5.603474,-0.373687744,-8.515907288,5.647933960,-0.002670288,-0.019836672,0.976537228
5.604100,-0.625457764,-8.714271545,5.663192749,0.001602173,-0.018493898,0.975682735
5.604726,-0.030364990,-8.943153381,5.838668823,0.005630493,-0.020691164,0.979466915
5.605351,0.267181396,-8.843971252,5.716598511,-0.007308960,-0.032898195,0.986913204
5.605976,0.785980225,-9.049964905,6.143844604,0.002944946,-0.025207765,0.981297970
5.606601,0.824127197,-8.981300354,5.747116089,0.024673462,-0.001159914,0.958470821
5.607226,0.610504150,-8.782936096,5.792892456,0.020889282,-0.000183351,0.963475704
5.607852,0.358734131,-8.760047913,5.922592163,0.005996704,0.005920164,0.974095821
5.608478,0.023040771,-8.943153381,6.082809448,0.003311157,0.011169188,0.969945431
5.609105,-0.526275635,-9.416175842,5.640304565,0.031631470,-0.010681398,0.966039181
5.609731,-1.632537842,-9.622169495,5.548751831,0.055068970,-0.000305422,0.956517696
5.624075,14.457855225,-15.008522034,6.967819214,0.570938110,0.259338140,0.894505978
5.624744,3.921661377,-0.863624573,7.265365601,0.624771118,0.324401617,0.846898556
5.625371,-5.203094482,5.361961365,9.866989136,0.077041626,0.198302984,1.065770626
5.625997,-12.039031982,-1.046730042,11.972702026,-0.313461304,0.268127203,1.103856564
5.626623,-22.071685791,-8.920265198,13.254440308,-0.256454468,0.402404547,0.960179806
5.627248,-28.320159912,-14.688087463,12.483871460,-0.131088257,0.228820562,0.963597775
5.627874,-26.603546143,-15.786720276,10.332382202,-0.055892944,-0.002746828,1.001317501
5.628501,-22.231903076,-11.163307190,7.234848022,0.019912720,-0.122131594,0.931981564
5.629126,-19.653167725,-6.036354065,6.021774292,0.028335571,-0.178528070,0.841771603
5.629752,-18.462982178,-5.578590393,7.089889526,-0.032211304,-0.226745844,0.760472775
5.630377,-17.280426025,-9.446693420,9.332931519,-0.109115601,-0.289734125,0.704564571
5.631004,-14.724578857,-14.199806213,11.293685913,-0.117416382,-0.314514399,0.688817501
5.631631,-11.085357666,-17.747474670,12.094772339,-0.071273804,-0.294128656,0.699315548
5.632256,-6.034698486,-19.013954163,11.980331421,-0.013534546,-0.258239985,0.727391720
5.632882,-0.205841064,-18.350196838,11.820114136,-0.007797241,-0.200378656,0.747655392
5.633507,4.860076904,-16.915870667,11.575973511,-0.038436890,-0.134460688,0.771092892
5.634132,8.026275635,-16.999794006,11.125839233,-0.081283569,-0.028869875,0.795629025
5.634758,8.728179932,-18.556190491,10.843551636,-0.090316772,0.076598875,0.818334103
5.635383,6.584320068,-20.776344299,10.828292847,-0.072738647,0.114440672,0.842748165
5.637082,2.784881592,-22.035194397,11.148727417,0.088272095,-0.094787844,1.005834103
5.637707,3.120574951,-20.410133362,11.446273804,0.060562134,-0.080383547,1.025731564
5.638332,2.617034912,-19.433570862,11.980331421,0.012588501,-0.049743898,1.045995235
5.638958,1.449737549,-19.738746643,12.453353882,-0.025253296,-0.015442140,1.039525509
5.639584,0.412139893,-20.043922424,12.583053589,-0.022079468,-0.004822023,1.031957150
5.640209,-0.976409912,-20.181251526,12.445724487,0.006973267,0.002135985,1.026586056
5.640835,-1.815643311,-20.249916077,12.560165405,0.031997681,0.006408446,1.017430782
5.641461,-2.952423096,-20.074440002,12.766159058,0.043350220,0.009582274,1.009740353
5.642087,-3.791656494,-19.387794495,12.964523315,0.036270142,0.000427000,1.005834103
5.642714,-4.630889893,-19.197059631,13.063705444,0.019302368,-0.008972414,1.007543087
5.643339,-4.752960205,-19.174171448,13.185775757,0.014663696,-0.026794679,1.014379025
5.643965,-4.325714111,-19.296241760,13.292587280,0.015518188,-0.039612062,1.025731564
5.644591,-3.814544678,-19.059730530,13.124740601,0.024307251,-0.047668703,1.031957150
5.645216,-3.959503174,-18.792701721,13.033187866,0.034927368,-0.043762453,1.026708126
5.645843,-4.585113525,-18.540931702,13.445175171,0.033096313,-0.033630617,1.013524532
5.646468,-5.653228760,-18.479896545,13.643539429,0.022354126,-0.031189211,1.015843868
5.647094,-6.736602783,-18.601966858,14.253890991,0.006484985,-0.021057375,1.018163204
5.647719,-7.728424072,-18.884254456,14.322555542,0.016128540,0.000793211,1.016088009
5.648344,-8.483734131,-18.922401428,14.421737671,0.024551392,0.018737547,1.011327267
5.648969,-9.109344482,-18.991065979,14.635360718,0.022598267,0.026672117,1.004979610
5.649594,-9.734954834,-18.769813538,14.665878296,0.015518188,0.015075438,1.002782345
5.650219,-9.910430908,-18.495155334,14.436996460,0.015151978,-0.006775148,1.008275509
5.650844,-9.895172119,-18.403602600,14.131820679,0.025894165,-0.029968508,1.011083126
5.651470,-9.620513916,-18.258644104,14.253890991,0.019546509,-0.047790773,1.004003048
5.652096,-9.483184814,-18.334938049,14.406478882,0.005264282,-0.055847414,0.991185665
5.652722,-9.376373291,-18.937660217,14.505661011,-0.003890991,-0.070251711,0.981297970
5.653347,-8.598175049,-19.563270569,15.207565308,-0.024398804,-0.102112062,0.995580196
5.653973,-7.247772217,-20.455909729,15.169418335,0.003677368,-0.081238039,0.962621212
5.654599,-7.591094971,-19.746376038,14.978683472,0.085098267,-0.028991945,0.898900509
5.667607,2.273712158,-26.193214417,14.879501343,-0.025009155,-0.113952883,0.903295040
5.668302,4.112396240,-27.093482971,14.932907104,0.070205688,-0.034851320,0.882421017
5.668928,4.860076904,-25.781227112,14.597213745,0.097427368,-0.001159914,0.946263790
5.669554,5.920562744,-24.186683655,14.276779175,0.045913696,-0.000183351,1.031713009
5.670179,6.164703369,-23.774696350,14.116561890,0.026748657,0.073425047,1.065160275
5.670805,3.677520752,-24.201942444,14.322555542,0.051528931,0.185485601,1.078588009
5.671431,-0.778045654,-24.064613342,14.383590698,0.049331665,0.202697515,1.109838009
5.672056,-4.875030518,-23.217750549,13.689315796,0.053359985,0.147399664,1.144872189
5.672682,-7.713165283,-21.653724670,13.086593628,0.070816040,0.117980711,1.149266720
5.673309,-10.047760010,-20.043922424,12.796676636,0.075820923,0.076354735,1.129003048
5.673934,-11.558380127,-19.433570862,13.193405151,0.059707642,0.001769774,1.105565548
5.674560,-11.329498291,-19.708229065,13.391769409,0.059219360,-0.043640383,1.071507931
5.675186,-10.162200928,-19.509864807,13.468063354,0.061294556,-0.048767336,1.029393673
5.675812,-9.139862061,-19.280982971,13.719833374,0.052871704,-0.042541750,1.002904415
5.676439,-8.178558350,-19.525123596,13.735092163,0.028457642,-0.047668703,0.989842892
5.677065,-6.660308838,-19.998146057,13.567245483,0.018692017,-0.045715578,0.987035275
5.677690,-5.485382080,-20.654273987,13.391769409,0.031265259,-0.032287844,0.996678829
5.678316,-3.906097412,-20.684791565,13.284957886,0.041519165,-0.029236086,1.019750118
5.678942,-2.403106689,-20.623756409,12.949264526,0.045547485,-0.015320070,1.030858517
5.679568,-1.212921143,-20.158363342,12.895858765,0.051162720,-0.001159914,1.051366329
5.680193,-0.724639893,-19.990516663,12.682235718,0.056777954,0.017272703,1.065892696
5.680820,-0.831451416,-19.265724182,12.422836304,0.056167603,0.029479735,1.076634884
5.681446,-1.792755127,-18.807960510,12.285507202,0.050064087,0.034850828,1.085301876
5.682072,-2.593841553,-18.952919006,12.346542358,0.051773071,0.031310789,1.089696407
5.682698,-3.364410400,-18.594337463,12.323654175,0.055801392,0.030334227,1.086278439
5.683324,-3.661956787,-18.327308655,12.605941772,0.055068970,0.021423094,1.077245235
5.683949,-3.883209229,-18.373085022,12.331283569,0.047744751,0.011535399,1.069066525
5.684574,-3.654327393,-18.098426819,12.193954468,0.040420532,-0.006653078,1.052831173
5.685201,-2.792205811,-18.212867737,12.232101440,0.039566040,-0.012878664,1.028172970
5.685827,-2.235260010,-18.327308655,12.132919312,0.053970337,0.004211180,1.015599728
5.686452,-1.586761475,-17.945838928,12.056625366,0.058853149,0.010558836,1.026097775
5.687079,-0.839080811,-17.472816467,11.644638062,0.055435181,0.001891844,1.042455196
5.687706,-0.205841064,-16.816688538,11.202133179,0.059341431,0.014220946,1.061254025
5.688331,-0.343170166,-16.404701233,10.927474976,0.058609009,0.030456297,1.073705196
5.688957,-0.938262939,-16.320777893,11.148727417,0.047622681,0.026672117,1.074437618
5.689584,-1.159515381,-16.168190002,10.935104370,0.049453735,0.010925047,1.061864376
5.690211,-0.640716553,-16.320777893,10.973251343,0.055313110,-0.001037844,1.054418087
5.690837,-0.358428955,-15.985084534,11.087692261,0.055313110,-0.012146242,1.050633907
5.691462,0.534210205,-15.878273010,10.881698608,0.045303345,-0.015686281,1.042577267
5.692087,1.617584229,-15.893531799,10.706222534,0.048721313,-0.010925539,1.031957150
5.692713,2.281341553,-15.901161194,10.675704956,0.057998657,0.011901610,1.032079220
5.693339,2.761993408,-15.367103577,10.309494019,0.065078735,0.031188719,1.044042110
5.693965,2.830657959,-15.039039612,10.187423706,0.061294556,0.041442625,1.064427853
5.694590,2.731475830,-14.962745667,9.989059448,0.062271118,0.054626219,1.080052853
5.695215,2.334747314,-14.375282288,9.683883667,0.063003540,0.058654539,1.085301876
5.695842,1.846466064,-14.031959534,9.660995483,0.063858032,0.047790281,1.092504025
5.696468,1.655731201,-13.757301331,9.401596069,0.069351196,0.035461180,1.093846798
5.697095,1.579437256,-13.200355530,9.073532104,0.070083618,0.022155516,1.090306759
5.709745,5.241546631,-5.876136780,6.799972534,0.078384399,0.012634031,1.106053829
5.710509,5.249176025,-5.258155823,6.975448608,0.073867798,0.015075438,1.107518673
5.711134,5.607757568,-5.136085510,6.738937378,0.078384399,0.008239500,1.108983517
5.711760,5.951080322,-4.632545471,6.410873413,0.078140259,0.010192625,1.107884884
5.712386,6.515655518,-4.075599670,6.471908569,0.082534790,0.008727781,1.108006954
5.713012,6.881866455,-3.358436584,6.326950073,0.078140259,0.009338133,1.112767696
5.713638,7.133636475,-3.045631409,6.067550659,0.078628540,0.010314696,1.117772579
5.714263,7.057342529,-2.626014709,6.296432495,0.077651978,0.011657469,1.118871212
5.714888,7.347259521,-2.137733459,6.052291870,0.080459595,0.012267821,1.120702267
5.715514,7.537994385,-1.847816467,5.831039429,0.080337524,0.015807860,1.123265743
5.716141,7.476959229,-1.298500061,5.968368530,0.079849243,0.021301024,1.126683712
5.716767,7.438812256,-0.802589417,5.792892456,0.082412720,0.030822508,1.134252071
5.717392,7.202301025,-0.276161194,5.502975464,0.082290649,0.033630125,1.132298946
5.718017,6.988677979,0.044273376,5.518234253,0.082656860,0.033630125,1.132054806
5.718644,6.820831299,0.830101013,5.335128784,0.081069946,0.033630125,1.132787228
5.719270,6.446990967,1.409934998,5.113876343,0.079971313,0.028014891,1.129369259
5.719897,6.698760986,1.669334412,5.022323608,0.081192017,0.025085203,1.126561642
5.720522,6.981048584,2.478050232,4.930770874,0.084121704,0.020324461,1.126805782
5.721149,6.950531006,2.729820251,4.991806030,0.082290649,0.017150633,1.120580196
5.721783,7.019195557,3.332542419,4.480636597,0.077774048,0.015197508,1.116551876
5.722408,7.064971924,3.706382751,4.541671753,0.075942993,0.013610594,1.116673946
5.723040,7.484588623,4.309104919,4.358566284,0.079483032,0.014587156,1.109838009
5.723667,7.675323486,4.606651306,4.198348999,0.078262329,0.015319578,1.109715939
5.724294,8.247528076,4.843162537,4.244125366,0.078140259,0.018737547,1.109838009
5.724920,8.346710205,5.285667419,4.022872925,0.076431274,0.022277586,1.108861446
5.725546,8.384857178,5.934165955,3.977096558,0.072647095,0.026916258,1.104955196
5.726172,8.453521729,6.018089294,3.755844116,0.074478149,0.028014891,1.105443478
5.726798,8.598480225,6.544517517,3.206527710,0.076309204,0.027404539,1.106786251
5.727423,8.880767822,7.048057556,3.603256226,0.076553345,0.028747313,1.105565548
5.728048,8.850250244,7.238792419,3.221786499,0.075210571,0.031188719,1.104344845
5.728674,8.743438721,7.643150330,2.992904663,0.074844360,0.029479735,1.109349728
5.729299,8.979949951,8.230613708,3.008163452,0.074111938,0.030700438,1.109471798
5.729924,9.056243896,8.581565857,2.855575562,0.069473267,0.041076414,1.108251095
5.730549,8.644256592,8.970664978,2.565658569,0.071792603,0.046081297,1.107884884
5.731175,8.217010498,9.481834412,2.550399780,0.074478149,0.047790281,1.101415157
5.731800,7.621917725,9.397911072,2.374923706,0.072158813,0.041808836,1.100194454
5.732425,7.652435303,9.855674744,2.199447632,0.068130493,0.026305906,1.101537228
5.733051,7.537994385,10.527061462,2.153671265,0.073257446,0.026672117,1.095189571
5.733676,7.705841064,10.710166931,2.016342163,0.077407837,0.030456297,1.085668087
5.734303,7.995758057,11.770652771,1.619613647,0.067276001,0.031799071,1.073827267
5.734929,7.995758057,11.770652771,1.619613647,0.067276001,0.031799071,1.073827267
5.735554,8.300933838,12.655662537,1.161849976,0.064468384,0.032287352,1.068578243
5.737280,8.674774170,12.968467712,1.077926636,0.062149048,0.024718992,1.071141720
5.737906,8.705291748,13.052391052,0.910079956,0.064468384,0.028625242,1.068944454
5.738532,8.537445068,13.548301697,0.719345093,0.066421509,0.029968016,1.071263790
5.739158,8.423004150,13.647483826,0.482833862,0.062026978,0.038268797,1.077001095
5.739784,8.262786865,14.166282654,0.376022339,0.063125610,0.039489500,1.079442501
5.740410,8.087310791,14.509605408,0.314987183,0.064834595,0.042663328,1.080052853
5.741038,7.682952881,14.776634216,0.368392944,0.064468384,0.043151610,1.081883907
5.741665,7.606658936,14.974998474,0.093734741,0.064468384,0.042052977,1.077977657
5.754283,3.540191650,20.681785583,-0.737869263,0.046524048,-0.014465578,1.051122189
5.754992,3.509674072,20.819114685,-0.585281372,0.051895142,-0.011535890,1.046117306
5.755619,3.532562256,21.040367126,-0.516616821,0.051651001,-0.006897219,1.042088985
5.756244,3.425750732,21.414207458,-0.447952271,0.047134399,-0.005920656,1.037572384
5.756869,3.456268311,21.513389587,-0.280105591,0.047500610,-0.005188234,1.033421993
5.757496,3.616485596,21.719383240,-0.524246216,0.043960571,-0.000671633,1.034154415
5.758121,3.364715576,21.719383240,-0.585281372,0.047622681,0.002380125,1.030614376
5.758746,3.486785889,21.986412048,-0.394546509,0.042984009,0.002868406,1.029637814
5.759373,3.341827393,22.154258728,-0.661575317,0.043228149,0.008605711,1.027440548
5.759998,3.433380127,21.902488708,-0.631057739,0.040176392,0.005553953,1.023900509
5.760625,3.021392822,22.093223572,-0.638687134,0.040786743,0.007873289,1.024022579
5.761252,2.975616455,22.039817810,-0.669204712,0.043594360,0.006164305,1.018773556
5.761879,2.967987061,22.161888123,-0.714981079,0.044692993,0.005920164,1.020360470
5.762505,3.135833740,22.627281189,-0.646316528,0.042007446,0.005065672,1.017430782
5.763130,3.151092529,22.634910583,-0.760757446,0.037612915,0.004211180,1.019017696
5.763756,2.945098877,22.871421814,-0.867568970,0.037490845,0.007507078,1.014989376
5.764382,2.929840088,22.589134216,-0.936233521,0.035293579,0.005798094,1.012547970
5.765009,3.082427979,22.985862732,-0.890457153,0.036270142,0.007629149,1.009862423
5.765634,3.090057373,22.810386658,-0.806533813,0.036026001,0.004333250,1.007054806
5.766260,3.158721924,22.741722107,-1.020156860,0.033706665,0.006896727,1.007054806
5.766886,3.235015869,22.932456970,-1.043045044,0.038467407,0.003844969,1.006566525
5.767511,3.334197998,22.970603943,-1.096450806,0.036758423,0.007140867,1.006688595
5.768136,3.341827393,22.718833923,-1.050674438,0.034683228,0.008971922,1.007665157
5.768761,3.372344971,22.840904236,-1.126968384,0.033096313,0.010192625,1.006078243
5.769388,3.563079834,23.130821228,-1.409255981,0.034194946,0.009948485,1.009862423
5.770014,3.662261963,22.741722107,-1.310073853,0.033828735,0.012023680,1.007054806
5.770640,3.555450439,22.909568787,-1.355850220,0.034194946,0.014831297,1.008641720
5.771266,3.532562256,23.039268494,-1.470291138,0.035293579,0.015075438,1.011083126
5.771893,3.372344971,23.230003357,-1.378738403,0.034439087,0.015685789,1.011205196
5.772518,3.524932861,22.879051208,-1.554214478,0.033218384,0.016174071,1.010594845
5.773144,3.509674072,23.230003357,-1.783096313,0.037979126,0.021178953,1.011693478
5.773770,3.242645264,23.161338806,-1.737319946,0.033218384,0.023254149,1.010961056
5.774397,3.189239502,23.207115173,-1.767837524,0.033096313,0.023864500,1.013036251
5.775023,2.967987061,23.443626404,-1.973831177,0.034561157,0.023620360,1.019017696
5.775649,2.761993408,23.367332458,-1.966201782,0.034561157,0.027038328,1.013768673
5.776274,2.388153076,23.298667908,-1.867019653,0.031997681,0.027892821,1.017186642
5.776900,2.182159424,23.397850037,-2.065383911,0.030776978,0.030456297,1.014867306
5.777525,1.747283936,23.588584900,-2.103530884,0.031265259,0.029601805,1.020726681
5.778150,1.541290283,23.580955505,-2.011978149,0.031875610,0.029968016,1.015843868
5.778777,1.297149658,23.825096130,-2.423965454,0.029434204,0.028014891,1.011083126
5.786012,1.892242432,23.542808533,-3.347122192,0.023330688,0.013000242,0.984471798
5.786637,2.082977295,23.390220642,-3.438674927,0.019424438,0.013122313,0.984471798
5.787262,2.159271240,23.565696716,-3.560745239,0.021011353,0.015441649,0.983739376
5.787889,2.617034912,23.405479431,-3.759109497,0.021011353,0.016662352,0.986424923
5.788514,2.411041260,23.443626404,-3.759109497,0.019180298,0.016174071,0.983617306
5.789140,2.792510986,23.382591248,-3.865921021,0.022720337,0.018859617,0.985326290
5.789766,2.708587646,23.321556091,-3.949844360,0.018447876,0.021178953,0.988133907
5.790392,2.586517334,23.603843689,-3.949844360,0.019668579,0.023010008,0.989354610
5.791018,2.540740967,23.275779724,-4.239761353,0.017959595,0.023254149,0.986791134
5.803713,0.579986572,22.711204529,-5.742752075,0.011734009,0.017272703,0.973973751
5.804454,0.389251709,22.390769958,-5.712234497,0.006851196,0.012389891,0.977880001
5.805080,0.221405029,22.230552673,-5.872451782,0.011856079,0.005676024,0.973119259
5.805706,0.373992920,22.451805115,-5.826675415,0.010147095,-0.000427492,0.973607540
5.806333,0.335845947,22.009300232,-5.613052368,0.012222290,-0.006286867,0.970555782
5.806960,0.450286865,22.116111755,-5.635940552,0.014175415,-0.012634523,0.973119259
5.807586,0.847015381,22.070335388,-5.696975708,0.012832642,-0.015686281,0.971166134
5.808212,1.419219971,22.047447205,-5.719863892,0.008316040,-0.020202883,0.965550900
5.808839,1.747283936,22.047447205,-5.933486938,0.009658813,-0.020813234,0.965184689
5.809464,1.838836670,21.933006287,-5.834304810,0.007339478,-0.017273195,0.965672970
5.810089,2.319488525,21.521018982,-5.689346313,0.005386353,-0.015930422,0.971044064
5.810714,2.357635498,21.643089294,-5.658828735,0.009536743,-0.014221437,0.972386837
5.811339,2.418670654,21.597312927,-5.712234497,0.007583618,-0.016784914,0.973363400
5.811965,2.784881592,21.498130798,-5.696975708,0.005752563,-0.016662844,0.975682735
5.812590,2.815399170,21.376060486,-5.559646606,0.005020142,-0.013000734,0.978734493
5.813215,2.761993408,21.543907166,-5.559646606,0.007339478,-0.008728273,0.977757931
5.813841,2.639923096,21.360801697,-5.521499634,0.003311157,-0.008972414,0.979222775
5.814468,2.510223389,21.444725037,-5.513870239,0.001602173,-0.008972414,0.977513790
5.815095,2.174530029,21.353172302,-5.422317505,0.003067017,-0.009338625,0.978856564
5.815721,1.930389404,21.047996521,-5.155288696,0.004776001,-0.009826906,0.981908321
5.816346,1.808319092,21.002220154,-5.391799927,0.007095337,-0.011291750,0.975804806
5.816972,1.815948486,21.253990173,-5.216323853,0.007461548,-0.014709719,0.980443478
5.817599,1.617584229,21.109031677,-5.162918091,0.007217407,-0.014221437,0.982152462
5.818224,1.632843018,20.887779236,-5.078994751,0.002822876,-0.015198000,0.980077267
5.818851,1.358184814,20.948814392,-4.949295044,0.001846313,-0.017273195,0.975072384
5.819476,1.220855713,20.918296814,-4.995071411,0.000747681,-0.012024172,0.971776485
5.820103,1.129302979,20.994590759,-4.697525024,-0.001693726,-0.014953859,0.968358517
5.820729,0.976715088,20.643638611,-4.728042603,-0.003280640,-0.016662844,0.967870235
5.821356,0.991973877,20.544456482,-4.613601685,-0.002792358,-0.022888429,0.966771603
5.821981,1.060638428,20.445274353,-4.529678345,-0.004501343,-0.027038820,0.968358517
5.822606,1.335296631,20.475791931,-4.659378052,-0.000839233,-0.031311281,0.963475704
5.823232,1.419219971,20.521568298,-4.605972290,-0.005111694,-0.033752687,0.960912228
5.823916,1.472625732,20.254539490,-4.255020142,-0.006088257,-0.026428469,0.962132931
5.824543,1.495513916,19.857810974,-4.338943481,-0.003890991,-0.028259523,0.960790157
5.825170,1.548919678,20.124839783,-4.110061646,-0.003890991,-0.022644289,0.960790157
5.825796,1.533660889,19.804405212,-4.110061646,-0.005599976,-0.022033937,0.960912228
5.826422,1.533660889,19.750999451,-3.987991333,-0.005111694,-0.018493898,0.961522579
5.827047,1.533660889,19.400047302,-3.850662231,-0.007675171,-0.016052492,0.960912228
5.827674,1.442108154,19.621299744,-3.865921021,-0.005844116,-0.014343508,0.959691525
5.828299,1.114044189,19.377159119,-3.942214966,-0.008041382,-0.009094484,0.959935665
5.828924,0.877532959,19.186424255,-3.858291626,-0.010726929,-0.011169679,0.957005978
5.829550,0.641021729,19.194053650,-3.720962524,-0.010971069,-0.013122804,0.955541134
5.830175,0.503692627,18.774436951,-3.644668579,-0.011703491,-0.012756594,0.957128048
5.830801,0.343475342,18.820213318,-3.476821899,-0.008407593,-0.013489015,0.952001095
5.831426,0.206146240,18.629478455,-3.614151001,-0.010116577,-0.017517336,0.953588009
5.832053,0.038299561,18.438743591,-3.507339478,-0.010116577,-0.016174562,0.950414181
5.832678,0.114593506,18.209861755,-3.484451294,-0.012313843,-0.017273195,0.948461056
5.833303,-0.251617432,18.003868103,-3.339492798,-0.014389038,-0.014587648,0.946507931
5.833928,-0.320281982,17.919944763,-3.263198853,-0.014511108,-0.012146242,0.944798946
5.847664,-1.243438721,11.877464294,-2.454483032,-0.028182983,-0.007873781,0.893041134
5.848376,-1.258697510,11.495994568,-2.637588501,-0.027206421,-0.003845461,0.894628048
5.849003,-1.136627197,11.129783630,-2.614700317,-0.030990601,-0.003235109,0.893285275
5.849628,-1.266326904,10.740684509,-2.622329712,-0.029525757,-0.006531008,0.893529415
5.850254,-1.128997803,10.313438416,-2.454483032,-0.032211304,-0.000671633,0.892430782
5.850879,-1.312103271,9.916709900,-2.515518188,-0.030136108,-0.003723390,0.890599728
5.851504,-1.411285400,9.558128357,-2.500259399,-0.036605835,-0.003723390,0.893895626
5.852129,-1.525726318,9.298728943,-2.683364868,-0.031845093,-0.001770265,0.890721798
5.852755,-1.540985107,9.191917419,-2.584182739,-0.034042358,0.000549071,0.892796993
5.853381,-1.495208740,8.375572205,-2.561294556,-0.036117554,-0.002990969,0.891454220
5.854006,-1.441802979,8.215354919,-2.546035767,-0.035140991,-0.005310304,0.889989376
5.854633,-1.769866943,7.566856384,-2.492630005,-0.033920288,-0.008972414,0.888646603
5.855259,-1.472320557,7.467674255,-2.485000610,-0.033187866,-0.009094484,0.887425900
5.855886,-1.571502686,6.933616638,-2.454483032,-0.035263062,-0.008362062,0.887425900
5.856512,-1.632537842,6.758140564,-2.446853638,-0.036972046,-0.004699953,0.883641720
5.857139,-1.678314209,6.300376892,-2.477371216,-0.035751343,-0.006531008,0.884130001
5.857766,-1.464691162,5.873130798,-2.446853638,-0.035507202,-0.008850344,0.883397579
5.858392,-1.540985107,5.247520447,-2.591812134,-0.039779663,-0.009948976,0.880956173
5.859019,-1.586761475,5.018638611,-2.340042114,-0.037948608,-0.012268312,0.880834103
5.859646,-1.434173584,4.515098572,-2.408706665,-0.040267944,-0.011902101,0.880467892
5.860273,-1.457061768,4.164146423,-2.401077271,-0.036727905,-0.011780031,0.882176876
5.860898,-1.396026611,3.683494568,-2.431594849,-0.039169312,-0.015930422,0.881444454
5.861523,-1.113739014,3.431724548,-2.538406372,-0.038803101,-0.017151125,0.881688595
5.862148,-1.098480225,2.836631775,-2.355300903,-0.038314819,-0.020202883,0.881078243
5.862774,-1.045074463,2.439903259,-2.271377563,-0.037948608,-0.020447023,0.880712032
5.863400,-1.060333252,2.211021423,-2.340042114,-0.039901733,-0.021667726,0.883763790
5.864025,-0.945892334,1.203941345,-2.011978149,-0.038558960,-0.026550539,0.888646603
5.864651,-0.945892334,1.203941345,-2.011978149,-0.038558960,-0.026550539,0.888646603
5.865276,-0.793304443,0.997947693,-2.164566040,-0.039291382,-0.025207765,0.890111446
5.865903,-0.663604736,0.502037048,-1.851760864,-0.038192749,-0.025207765,0.890965939
5.866528,-0.419464111,-0.306678772,-2.011978149,-0.034164429,-0.026672609,0.891820431
5.867154,-0.144805908,-0.627113342,-1.622879028,-0.034896851,-0.026916750,0.894261837
5.867779,-0.373687744,-0.955177307,-1.783096313,-0.035873413,-0.027160890,0.895238400
5.868405,-0.076141357,-1.351905823,-1.638137817,-0.037948608,-0.027649172,0.899632931
5.869040,-0.152435303,-1.847816467,-1.714431763,-0.033798218,-0.027160890,0.901586056
5.869665,0.000152588,-2.175880432,-1.302444458,-0.031112671,-0.028747804,0.902196407
5.870291,0.030670166,-2.381874084,-1.332962036,-0.030624390,-0.029114015,0.904881954
5.870918,-0.030364990,-2.641273499,-1.393997192,-0.033676147,-0.024963625,0.906590939
5.871543,0.145111084,-2.908302307,-1.088821411,-0.029769897,-0.025818117,0.909886837
5.872169,0.137481689,-3.388954163,-1.287185669,-0.028305054,-0.024719484,0.912694454
5.872794,0.229034424,-3.663612366,-1.035415649,-0.029891968,-0.024963625,0.918187618
5.873420,0.366363525,-3.747535706,-0.974380493,-0.031478882,-0.024963625,0.919896603
5.874045,0.351104736,-4.266334534,-0.982009888,-0.025619507,-0.023376711,0.924779415
5.874670,0.465545654,-4.571510315,-1.012527466,-0.027694702,-0.022522219,0.929173946
5.875297,0.396881104,-4.952980042,-0.692092896,-0.027572632,-0.020569094,0.927831173
5.875924,0.396881104,-5.181861877,-0.890457153,-0.024520874,-0.020691164,0.926000118
5.876549,0.320587158,-5.441261292,-0.829421997,-0.023788452,-0.017395265,0.929662228
5.877174,0.320587158,-5.464149475,-0.631057739,-0.023544312,-0.021423586,0.932225704
5.889768,1.472625732,-8.729530334,-0.692092896,0.005996704,-0.004822023,0.995824337
5.890468,1.442108154,-8.676124573,-0.646316528,0.003311157,-0.006286867,1.000218868
5.891093,1.266632080,-8.370948792,-0.875198364,0.006484985,-0.005676515,1.002660275
5.891719,1.251373291,-8.470130920,-0.631057739,0.005386353,-0.008728273,1.003880978
5.892345,1.075897217,-8.325172424,-0.646316528,0.005630493,-0.002990969,1.001195431
5.892972,1.068267822,-8.431983948,-0.760757446,0.006973267,-0.003845461,1.002049923
5.893599,0.869903564,-8.287025452,-0.394546509,0.010391235,-0.002502687,1.004247189
5.894226,0.961456299,-8.447242737,-0.585281372,0.009292603,-0.001159914,1.003148556
5.894852,0.900421143,-8.149696350,-0.570022583,0.007949829,-0.002258547,1.005101681
5.895478,0.557098389,-8.142066956,-0.394546509,0.008316040,-0.002990969,1.006688595
5.896104,0.572357178,-8.241249084,-0.608169556,0.008804321,-0.001281984,1.004735470
5.896731,0.450286865,-8.210731506,-0.631057739,0.009658813,0.001525633,1.007665157
5.897356,0.351104736,-8.126808167,-0.486099243,0.007095337,-0.001037844,1.005589962
5.897982,0.099334717,-8.058143616,-0.463211060,0.007217407,-0.000305422,1.007054806
5.898607,0.045928955,-7.821632385,-0.379287720,0.004776001,-0.000305422,1.006810665
5.899234,0.129852295,-7.775856018,-0.493728638,0.007583618,-0.001526125,1.005101681
5.899860,-0.175323486,-8.027626038,-0.516616821,0.005508423,-0.003479250,1.007543087
5.900486,-0.053253174,-8.058143616,-0.386917114,0.006118774,-0.002380617,1.006688595
5.901111,-0.045623779,-7.836891174,-0.638687134,0.006118774,-0.004333742,1.006688595
5.901738,-0.190582275,-7.966590881,-0.364028931,0.009780884,-0.006653078,1.005101681
5.902363,0.015411377,-7.974220276,-0.531875610,0.009292603,-0.008117922,1.004491329
5.902989,-0.099029541,-7.714820862,-0.417434692,0.009780884,-0.008117922,1.010106564
5.903615,0.084075928,-7.951332092,-0.470840454,0.008193970,-0.007385500,1.005712032
5.904241,0.114593506,-7.943702698,-0.493728638,0.010269165,-0.006286867,1.009618282
5.904867,0.023040771,-7.646156311,-0.402175903,0.012100220,-0.004333742,1.009984493
5.905492,0.412139893,-7.539344788,-0.486099243,0.012466431,-0.005310304,1.012547970
5.906119,0.267181396,-7.676673889,-0.539505005,0.013565063,-0.006653078,1.016088009
5.906746,0.404510498,-7.691932678,-0.463211060,0.012832642,-0.006164797,1.015233517
5.907371,0.122222900,-7.379127502,-0.287734985,0.014419556,-0.004455812,1.019017696
5.907997,0.267181396,-7.394386292,-0.417434692,0.013320923,-0.002136476,1.018773556
5.908624,0.007781982,-7.211280823,-0.341140747,0.014053345,-0.002746828,1.021459103
5.909250,-0.015106201,-7.165504456,-0.257217407,0.011978149,-0.000183351,1.024388790
5.909877,-0.366058350,-7.058692932,-0.356399536,0.016250610,0.001891844,1.021092892
5.910502,-0.419464111,-6.837440491,-0.280105591,0.013687134,0.001403563,1.023290157
5.911129,-0.610198975,-6.776405334,-0.432693481,0.011245728,0.000182860,1.022069454
5.911755,-0.671234131,-6.478858948,-0.417434692,0.013809204,-0.000061281,1.021459103
5.912380,-1.060333252,-6.509376526,-0.356399536,0.012954712,0.001281492,1.020238400
5.913007,-1.167144775,-6.570411682,-0.280105591,0.017715454,0.001037352,1.017430782
5.913633,-1.281585693,-6.150794983,-0.318252563,0.015518188,0.003722899,1.014012814
5.914258,-1.632537842,-6.288124084,-0.432693481,0.011001587,-0.000427492,1.010838985
5.914883,-1.487579346,-6.433082581,-0.318252563,0.013931274,0.003478758,1.009618282
5.915508,-1.647796631,-6.089759827,-0.333511353,0.013442993,0.002013914,1.010838985
5.916133,-1.777496338,-6.196571350,-0.295364380,0.011856079,0.000427000,1.006078243
5.916758,-2.021636963,-6.105018616,-0.241958618,0.011734009,0.002624266,1.005467892
5.917384,-2.181854248,-6.089759827,-0.257217407,0.011489868,0.002380125,1.003026485
5.918009,-2.082672119,-5.807472229,-0.501358032,0.012710571,-0.001159914,1.003270626
5.918636,-2.273406982,-6.143165588,-0.196182251,0.014663696,0.001891844,0.999974728
5.919263,-2.326812744,-5.860877991,-0.196182251,0.010513306,0.000915281,0.998509884
5.919888,-2.799835205,-5.769325256,-0.371658325,0.010513306,0.000671141,0.996434689
5.932454,-4.058685303,-7.836891174,-0.028335571,-0.002792358,-0.009216554,0.929784298
5.933145,-4.104461670,-7.974220276,-0.074111938,-0.003280640,-0.011047609,0.934911251
5.933770,-3.990020752,-8.248878479,0.063217163,-0.007186890,-0.007141359,0.936376095
5.934395,-4.279937744,-8.538795471,0.162399292,-0.003524780,-0.008484133,0.938085079
5.935022,-4.264678955,-8.477760315,0.009811401,-0.004135132,-0.011657961,0.938817501
5.935647,-4.295196533,-8.622718811,0.108993530,-0.001449585,-0.016662844,0.940404415
5.936272,-4.546966553,-8.836341858,0.124252319,-0.003768921,-0.019104250,0.946263790
5.936898,-4.623260498,-9.202552795,0.345504761,-0.002548218,-0.022278078,0.946752071
5.937523,-4.569854736,-9.194923401,0.231063843,-0.002182007,-0.021179445,0.950780392
5.938149,-4.386749268,-9.477210999,0.292098999,-0.002914429,-0.024231203,0.950902462
5.938776,-4.257049561,-9.492469788,0.452316284,-0.002426147,-0.025573976,0.953954220
5.939402,-4.340972900,-9.629798889,0.437057495,-0.001449585,-0.021057375,0.958348751
5.940029,-4.394378662,-9.652687073,0.551498413,-0.000717163,-0.020447023,0.958226681
5.940654,-4.318084717,-9.805274963,0.536239624,-0.002670288,-0.021545656,0.963719845
5.941279,-4.340972900,-10.034156799,0.627792358,0.002578735,-0.021179445,0.963963985
5.941904,-4.470672607,-10.110450745,0.536239624,-0.001083374,-0.021789797,0.967504025
5.942530,-4.501190186,-10.255409241,0.734603882,0.000625610,-0.022156008,0.967504025
5.943155,-4.485931396,-10.507179260,0.810897827,0.001113892,-0.021667726,0.969213009
5.943782,-4.760589600,-10.301185608,0.841415405,0.001480103,-0.019592531,0.971776485
5.944409,-4.806365967,-10.652137756,1.001632690,0.004287720,-0.022400148,0.971532345
5.945039,-4.897918701,-10.613990784,1.108444214,0.003433228,-0.020080812,0.972508907
5.945665,-4.974212646,-10.728431702,0.986373901,0.000137329,-0.018249758,0.973607540
5.946290,-5.042877197,-10.766578674,1.329696655,-0.000473022,-0.021179445,0.971532345
5.947978,-4.920806885,-11.071754456,1.344955444,0.000259399,-0.022522219,0.967748165
5.948603,-5.019989014,-11.216712952,1.474655151,0.002212524,-0.023010500,0.969701290
5.949228,-4.928436279,-11.354042053,1.299179077,0.002822876,-0.025207765,0.967870235
5.949853,-4.821624756,-11.361671448,1.421249390,0.003433228,-0.028381594,0.968358517
5.950478,-4.783477783,-11.491371155,1.604354858,-0.000228882,-0.027038820,0.964940548
5.951103,-4.600372314,-11.865211487,1.390731812,0.001968384,-0.022522219,0.970067501
5.951728,-4.684295654,-12.002540588,1.764572144,0.002456665,-0.029114015,0.971044064
5.952353,-4.379119873,-11.895729065,1.550949097,0.004409790,-0.027649172,0.969090939
5.952979,-4.485931396,-11.949134827,1.390731812,0.004531860,-0.026672609,0.969823360
5.953606,-4.234161377,-12.223793030,1.924789429,0.005874634,-0.022888429,0.972508907
5.954232,-4.325714111,-12.345863342,1.619613647,0.007095337,-0.019836672,0.972264767
5.954857,-3.951873779,-12.307716370,1.642501831,0.007705688,-0.020691164,0.975560665
5.955482,-4.096832275,-12.490821838,1.947677612,0.005264282,-0.019592531,0.977025509
5.956108,-3.967132568,-12.643409729,1.650131226,0.004653931,-0.022522219,0.977147579
5.956735,-3.791656494,-12.841773987,1.978195190,0.009414673,-0.020324953,0.977635860
5.957361,-3.837432861,-12.971473694,1.978195190,0.012222290,-0.022278078,0.979955196
5.957987,-3.753509521,-12.895179749,2.016342163,0.012222290,-0.022888429,0.983129025
5.958613,-3.684844971,-12.818885803,1.985824585,0.014785767,-0.024353273,0.986180782
5.959240,-3.616180420,-12.910438538,1.932418823,0.011489868,-0.024353273,0.986669064
5.959865,-3.593292236,-13.108802795,1.909530640,0.015151978,-0.024231203,0.986913204
5.960491,-3.387298584,-12.864662170,1.840866089,0.016128540,-0.018615969,0.987523556
5.961117,-3.311004639,-13.040138245,2.161300659,0.016860962,-0.016174562,0.987279415
5.961742,-3.166046143,-13.017250061,2.031600952,0.015518188,-0.020202883,0.987279415
5.962368,-3.326263428,-12.849403381,2.130783081,0.017105103,-0.014953859,0.988622189
5.962994,-3.021087646,-13.009620667,2.306259155,0.019546509,-0.018493898,0.993749142
5.975640,-1.083221436,-11.437965393,2.527511597,0.038223267,-0.001159914,1.056859493
5.976400,-1.220550537,-11.369300842,2.382553101,0.040542603,-0.003845461,1.058934689
5.977025,-1.357879639,-11.079383850,2.458847046,0.040664673,-0.002258547,1.061742306
5.977651,-1.388397217,-10.919166565,2.466476440,0.039199829,-0.002746828,1.064671993
5.978277,-1.357879639,-10.789466858,2.573287964,0.042129517,-0.002258547,1.068212032
5.978904,-1.449432373,-10.499549866,2.474105835,0.041152954,-0.004577883,1.066869259
5.979531,-1.373138428,-10.392738342,2.336776733,0.042373657,-0.003357179,1.068578243
5.980157,-1.388397217,-9.980751038,2.458847046,0.041275024,-0.003845461,1.070775509
5.980784,-1.548614502,-9.721351624,2.229965210,0.045913696,-0.004577883,1.070775509
5.981409,-1.403656006,-9.637428284,2.382553101,0.043350220,-0.001037844,1.070897579
5.982037,-1.289215088,-9.393287659,2.367294312,0.044815063,-0.000671633,1.069554806
5.982663,-1.190032959,-9.080482483,2.077377319,0.046035767,0.003112547,1.071263790
5.983289,-0.907745361,-8.882118225,2.115524292,0.042007446,0.005553953,1.067357540
5.983915,-0.953521729,-8.531166077,2.161300659,0.042007446,0.006408446,1.066258907
5.984540,-1.045074463,-8.348060608,1.833236694,0.045913696,0.009216063,1.066503048
5.985167,-0.861968994,-8.248878479,1.970565796,0.041885376,0.010436766,1.066014767
5.985793,-0.709381104,-7.859779358,2.054489136,0.043228149,0.008239500,1.061254025
5.986418,-0.617828369,-7.859779358,1.825607300,0.044692993,0.009216063,1.059422970
5.987043,-0.457611084,-7.676673889,1.573837280,0.041397095,0.006286375,1.057836056
5.987668,-0.282135010,-7.432533264,1.558578491,0.044815063,0.010314696,1.059545040
5.988293,0.076446533,-7.440162659,1.528060913,0.042007446,0.008483641,1.057347775
5.988919,0.320587158,-7.104469299,1.436508179,0.045059204,0.009704344,1.056737423
5.989545,0.396881104,-6.753517151,1.322067261,0.044692993,0.008727781,1.056127071
5.990170,0.671539307,-6.562782288,1.184738159,0.043716431,0.008239500,1.058812618
5.990796,1.037750244,-6.318641663,1.192367554,0.042739868,0.006408446,1.057225704
5.991421,1.098785400,-6.311012268,0.856674194,0.042007446,0.011657469,1.055150509
5.992047,1.411590576,-6.127906799,0.925338745,0.040908813,0.009826414,1.052831173
5.992672,1.533660889,-5.883766174,0.696456909,0.040542603,0.010436766,1.054173946
5.993298,1.770172119,-5.700660706,0.589645386,0.041397095,0.013244383,1.055638790
5.993925,2.258453369,-5.578590393,0.612533569,0.041641235,0.010192625,1.055272579
5.994552,2.288970947,-5.349708557,0.177658081,0.041397095,0.008239500,1.052220821
5.995179,2.136383057,-5.075050354,0.337875366,0.043594360,0.011169188,1.053319454
5.995805,2.411041260,-5.006385803,0.223434448,0.042861938,0.010925047,1.053807735
5.996432,2.662811279,-4.724098206,0.124252319,0.045913696,0.014831297,1.049779415
5.997059,2.700958252,-4.602027893,-0.013076782,0.040298462,0.010558836,1.051732540
5.997684,2.792510986,-4.350257874,-0.127517700,0.039566040,0.011779539,1.052587032
5.998309,2.708587646,-4.464698792,-0.203811646,0.042007446,0.007873289,1.050633907
5.998934,2.761993408,-4.197669983,-0.241958618,0.040420532,0.006530516,1.048680782
5.999561,2.708587646,-4.052711487,-0.432693481,0.043106079,0.002746336,1.047215939
6.000186,2.975616455,-3.709388733,-0.394546509,0.040908813,0.002990477,1.047338009
6.000813,2.685699463,-3.655982971,-0.402175903,0.039810181,0.001403563,1.047338009
6.001439,2.700958252,-3.373695374,-0.539505005,0.044204712,0.003234617,1.049046993
6.002065,2.617034912,-3.114295959,-0.440322876,0.039566040,0.000549071,1.050511837
6.002692,2.342376709,-2.862525940,-0.463211060,0.041885376,-0.000549562,1.049413204
6.003317,2.563629150,-2.595497131,-0.554763794,0.043594360,-0.003113039,1.051488400
6.003943,2.372894287,-2.381874084,-0.501358032,0.044815063,-0.000793703,1.052587032
6.004568,2.235565186,-2.122474670,-0.524246216,0.045059204,-0.000183351,1.053441525
6.005193,1.930389404,-1.672340393,-0.585281372,0.044448853,0.001647703,1.053563595
6.005818,1.602325439,-1.733375549,-0.646316528,0.041275024,-0.001159914,1.051610470
6.018433,0.671539307,2.081321716,-0.516616821,0.037246704,-0.004211672,1.031102657
6.019123,0.518951416,2.317832947,-0.562393188,0.038101196,-0.003357179,1.033910275
6.019749,0.503692627,2.371238708,-0.554763794,0.037734985,-0.003357179,1.033299923
6.020374,0.320587158,2.455162048,-0.676834106,0.032974243,-0.001648195,1.035863400
6.020999,0.312957764,2.607749939,-0.623428345,0.034072876,0.000793211,1.031713009
6.021625,-0.045623779,2.943443298,-0.516616821,0.037612915,-0.002380617,1.030736446
6.022250,-0.137176514,2.943443298,-0.585281372,0.038589478,-0.005188234,1.029393673
6.022876,-0.327911377,3.218101501,-0.562393188,0.037857056,-0.008117922,1.029271603
6.023503,-0.427093506,3.401206970,-0.776016235,0.035537720,-0.008484133,1.027928829
6.024128,-0.480499268,3.385948181,-0.592910767,0.034805298,-0.010315187,1.026097775
6.024753,-0.381317139,3.401206970,-0.577651978,0.031753540,-0.008606203,1.023656368
6.025378,-0.465240479,3.744529724,-0.791275024,0.035659790,-0.011169679,1.024755001
6.026005,-0.434722900,3.782676697,-0.699722290,0.034561157,-0.009948976,1.022557735
6.026631,-0.526275635,3.569053650,-0.615798950,0.033340454,-0.009826906,1.022191525
6.027257,-0.236358643,4.049705505,-0.692092896,0.036148071,-0.007629640,1.027684689
6.027884,-0.167694092,4.118370056,-0.669204712,0.039443970,-0.008117922,1.030858517
6.028510,-0.427093506,3.981040955,-0.600540161,0.033096313,-0.007385500,1.033421993
6.029210,-0.388946533,4.263328552,-0.676834106,0.034805298,-0.003723390,1.033544064
6.036424,-2.288665771,6.445335388,-0.707351685,0.043594360,-0.002502687,1.047093868
6.037051,-2.296295166,6.826805115,-0.821792603,0.039321899,0.000671141,1.046849728
6.037676,-2.487030029,6.796287537,-0.814163208,0.041519165,-0.000183351,1.045751095
6.038302,-2.578582764,7.055686951,-0.791275024,0.042984009,-0.003479250,1.044286251
6.038928,-2.464141846,7.345603943,-0.783645630,0.041152954,-0.005554445,1.044530392
6.039553,-2.410736084,7.711814880,-0.837051392,0.041152954,-0.004333742,1.043187618
6.040180,-2.624359131,7.650779724,-0.798904419,0.042129517,-0.004944094,1.043675900
6.040806,-2.380218506,7.894920349,-0.913345337,0.043594360,-0.007141359,1.046605587
6.041431,-2.372589111,7.955955505,-0.844680786,0.044692993,-0.004089601,1.044042110
6.042056,-2.441253662,8.238243103,-0.928604126,0.042495728,-0.002868898,1.046117306
6.042683,-2.212371826,8.589195251,-0.943862915,0.040786743,-0.000793703,1.049291134
6.043310,-1.846160889,8.627342224,-1.081192017,0.040908813,-0.002380617,1.049413204
6.043936,-2.075042725,8.879112244,-0.875198364,0.046524048,-0.000549562,1.048558712
6.044563,-1.914825439,9.077476501,-1.096450806,0.044082642,-0.001281984,1.051244259
6.045188,-1.960601807,9.077476501,-1.264297485,0.041030884,-0.000793703,1.052220821
6.045813,-1.907196045,9.519981384,-1.348220825,0.041397095,-0.000915773,1.054296017
6.046439,-1.846160889,9.855674744,-1.226150513,0.042495728,0.002746336,1.052831173
6.048143,-1.823272705,10.771202087,-1.256668091,0.042007446,0.009093992,1.053563595
6.048769,-1.861419678,10.878013611,-1.432144165,0.033462524,0.008971922,1.053075314
6.049394,-1.968231201,10.679649353,-1.554214478,0.036026001,-0.001892336,1.054173946
6.050021,-1.777496338,11.106895447,-1.569473267,0.042007446,-0.004577883,1.056005001
6.050646,-1.846160889,11.221336365,-1.714431763,0.044937134,-0.007629640,1.055028439
6.051272,-1.617279053,11.251853943,-1.859390259,0.042861938,-0.009094484,1.055516720
6.051899,-1.457061768,11.724876404,-1.622879028,0.042373657,-0.011413820,1.057958126
6.052525,-1.205291748,11.969017029,-1.737319946,0.043960571,-0.005066164,1.053441525
6.053150,-0.884857178,12.220787048,-1.744949341,0.045547485,-0.006653078,1.054051876
6.053775,-0.877227783,12.350486755,-1.905166626,0.042007446,-0.001648195,1.051976681
6.054400,-0.648345947,12.731956482,-1.867019653,0.038955688,0.000549071,1.056249142
6.055027,-0.587310791,12.770103455,-1.867019653,0.041030884,0.002990477,1.057591915
6.055654,-0.518646240,13.037132263,-2.164566040,0.041885376,-0.000183351,1.058812618
6.056280,-0.579681396,13.250755310,-2.042495728,0.042495728,-0.000305422,1.060643673
6.068991,1.350555420,18.171714783,-2.401077271,0.042007446,-0.013977297,1.067113400
6.069774,1.503143311,18.446372986,-2.301895142,0.038223267,-0.017761476,1.065038204
6.070401,1.625213623,18.888877869,-2.645217896,0.039077759,-0.019470461,1.065038204
6.071026,1.548919678,19.125389099,-2.240859985,0.040054321,-0.014099367,1.066503048
6.071652,1.701507568,19.255088806,-2.492630005,0.038833618,-0.017883547,1.059178829
6.072278,1.625213623,19.499229431,-2.752029419,0.037612915,-0.018982179,1.059422970
6.072904,1.892242432,19.918846130,-2.347671509,0.037368774,-0.018982179,1.057958126
6.073530,2.258453369,19.880699158,-2.408706665,0.034683228,-0.019470461,1.058690548
6.074157,2.281341553,20.109580994,-2.408706665,0.037857056,-0.022644289,1.056615353
6.074782,2.365264893,20.521568298,-2.500259399,0.039199829,-0.019836672,1.060521603
6.075408,2.906951904,20.567344666,-2.454483032,0.039199829,-0.018493898,1.062230587
6.076037,2.952728271,20.872520447,-2.385818481,0.041275024,-0.017029054,1.062596798
6.076663,2.723846436,21.383689880,-2.179824829,0.041275024,-0.015198000,1.060765743
6.077289,2.815399170,21.612571716,-2.408706665,0.043228149,-0.013122804,1.064061642
6.077915,2.594146729,21.864341736,-2.500259399,0.042007446,-0.009948976,1.068456173
6.078541,2.678070068,22.360252380,-2.530776978,0.041885376,-0.008117922,1.064794064
6.079168,2.350006104,22.764610291,-2.446853638,0.041641235,-0.002990969,1.065404415
6.079794,2.365264893,22.917198181,-2.584182739,0.040420532,-0.005432375,1.063817501
6.080421,2.288970947,23.298667908,-2.530776978,0.038467407,-0.008850344,1.065282345
6.081048,2.227935791,23.703025818,-2.370559692,0.037612915,-0.012146242,1.065282345
6.081674,2.342376709,23.756431580,-2.378189087,0.040176392,-0.018982179,1.069676876
6.082300,2.517852783,24.252342224,-2.393447876,0.043106079,-0.018005617,1.067235470
6.082926,2.594146729,24.641441345,-2.607070923,0.045547485,-0.022278078,1.074559689
6.083552,3.044281006,24.649070740,-2.477371216,0.049575806,-0.018493898,1.078465939
6.084179,3.555450439,25.396751404,-2.622329712,0.047012329,-0.022400148,1.087499142
6.084804,3.608856201,25.762962341,-2.515518188,0.049331665,-0.015198000,1.092748165
6.085430,3.761444092,26.350425720,-2.546035767,0.045547485,-0.012878664,1.095189571
6.086056,4.112396240,26.602195740,-2.774917603,0.052139282,-0.005920656,1.103368282
6.086681,3.753814697,27.357505798,-2.546035767,0.059951782,0.013244383,1.097508907
6.087306,3.662261963,27.685569763,-2.721511841,0.046035767,0.019714110,1.103734493
6.087931,3.280792236,28.021263123,-2.637588501,0.037857056,0.024963133,1.106664181
6.088558,2.777252197,28.532432556,-3.202163696,0.058364868,0.020690672,1.113500118
6.089184,2.777252197,28.532432556,-3.202163696,0.058364868,0.020690672,1.113500118
6.089810,2.639923096,29.638694763,-3.247940063,0.046035767,0.001647703,1.130712032
6.090437,2.990875244,30.126976013,-3.331863403,0.057876587,0.015685789,1.118871212
6.091063,2.395782471,30.851768494,-3.514968872,0.075210571,0.032287352,1.096532345
6.091688,2.021942139,31.446861267,-3.637039185,0.048233032,0.024474852,1.099584103
6.092313,1.876983643,31.462120056,-3.591262817,0.023208618,0.025085203,1.102025509
6.092940,2.159271240,31.149314880,-3.751480103,0.032119751,0.011047117,1.102269650
6.093565,2.624664307,31.515525818,-3.949844360,0.058486938,0.000182860,1.096166134
6.094191,4.127655029,31.996177673,-4.377090454,0.041885376,-0.041443117,1.128148556
6.094816,6.378326416,31.774925232,-4.461013794,0.062149048,-0.071716554,1.177709103
6.095443,9.452972412,32.766746521,-4.621231079,0.071792603,-0.125915766,1.195043087
6.096068,12.588653564,33.163475037,-5.078994751,0.076431274,-0.122131594,1.249852657
6.096694,16.983184814,33.605979919,-5.284988403,0.079116821,-0.185730219,1.299535275
6.097319,22.453460693,33.613609314,-5.399429321,0.054946899,-0.230285883,1.384496212
6.097945,29.594573975,33.209251404,-5.666458130,0.128799438,-0.241760492,1.427709103
6.098570,35.835418701,34.552024841,-6.131851196,0.169692993,-0.251770258,1.535497189
6.099196,43.007049561,35.475181580,-6.704055786,0.207412720,-0.166198969,1.613988400
6.111771,-174.369659424,118.719505310,2.931869507,-0.630477905,1.373229742,1.234715939
6.112485,-193.038787842,65.634178162,-3.217422485,-1.981185913,2.352477789,0.249242306
6.113110,-242.965545654,54.739402771,-5.239212036,-1.232406616,0.835265875,-0.377100468
6.113737,-225.166168213,42.387413025,-14.531814575,-1.381698608,-0.854187250,-0.492823124
6.114364,-189.979400635,37.802146912,-30.935012817,-0.865585327,-1.318786860,-0.974756718
6.114989,-149.871673584,33.583091736,-37.244522095,-0.759872437,-1.903015375,-1.369532108
6.115615,-111.381378174,28.433250427,-30.080520630,-0.437973022,-1.880310297,-1.800318241
6.116242,-82.733001709,20.376609802,-22.657119751,-0.248641968,-1.751648188,-2.349878788
6.116868,-51.444854736,7.437156677,-12.700759888,-0.386459351,-1.689514399,-2.376123905
6.117493,-13.999786377,-6.089759827,-6.055557251,-0.308700562,-1.476135492,-2.176050663
6.118118,24.749908447,-17.518592834,-5.368911743,-0.232406616,-1.184021235,-1.777857304
6.118744,59.089813232,-26.895118713,-6.154739380,-0.194564819,-0.736389399,-1.221338749
6.119370,83.084259033,-30.366493225,-8.443557739,-0.393539429,-0.397400141,-0.670923710
6.119995,100.753936768,-31.335426331,-14.646255493,-0.452499390,-0.048156984,-0.231592655
6.120620,112.198028564,-31.800819397,-21.169387817,-0.375350952,0.107482664,-0.135157108
6.121246,117.042694092,-32.617164612,-27.555191040,-0.462265015,0.040954344,0.209813595
6.121873,121.261749268,-37.416053772,-32.788955688,-0.316757202,-0.173156977,0.720921993
6.122498,126.007232666,-40.917945862,-33.864700317,0.004653931,-0.313293695,1.066747189
6.123123,130.058441162,-39.041114807,-31.964981079,0.306900024,-0.331604242,1.373754025
6.123749,129.593048096,-33.723426819,-27.173721313,0.448501587,-0.186950922,1.852025509
6.124374,122.772369385,-28.123451233,-22.062026978,0.392105103,0.079406492,2.222264767
6.124999,106.910858154,-22.172523499,-17.240249634,0.299942017,0.526305914,2.391698360
6.125625,81.375274658,-17.678810120,-15.516006470,0.059951782,0.788512945,2.538182735
6.126250,51.941070557,-16.381813049,-15.607559204,-0.051864624,0.927673101,2.651586056
6.126875,19.668731689,-14.680458069,-15.973770142,0.077163696,1.017516851,2.666112423
6.127500,-13.038482666,-10.049415588,-15.546524048,0.238540649,0.926940680,2.616185665
6.128125,-40.046539307,-3.327919006,-14.859878540,0.318008423,0.683898687,2.527928829
6.128750,-59.264984131,4.118370056,-13.784133911,0.335464478,0.477477789,2.384740353
6.129375,-73.173370361,11.221336365,-13.448440552,0.259658813,0.302184820,2.190160275
6.130001,-82.145538330,15.730308533,-12.311660767,0.135025024,0.098205321,2.026586056
6.130626,-87.081756592,18.316673279,-11.571609497,0.077407837,-0.091736086,1.832860470
6.131280,-87.829437256,20.407127380,-11.342727661,0.062881470,-0.267029047,1.615209103
6.131973,-85.868682861,22.299217224,-10.694229126,0.038589478,-0.410583735,1.397069454
6.132599,-81.626739502,22.489952087,-9.565078735,-0.023910522,-0.476745844,1.202855587
6.133224,-76.698150635,21.551536560,-8.634292603,-0.113998413,-0.434265375,1.013768673
6.133850,-73.577728271,19.178794861,-8.153640747,-0.223373413,-0.414245844,0.861546993
6.134475,-69.778289795,15.379356384,-7.894241333,-0.236801147,-0.422790766,0.730443478
6.135100,-64.994659424,11.648582458,-7.192337036,-0.152816772,-0.450378656,0.579686642
6.135726,-58.120574951,9.825157166,-6.223403931,-0.127792358,-0.515197992,0.491551876
6.136352,-49.774017334,8.284019470,-5.178176880,-0.118637085,-0.493713617,0.450536251
6.136979,-41.473236084,6.521629333,-4.064285278,-0.091415405,-0.477966547,0.398046017
6.137605,-32.569732666,5.522178650,-3.797256470,-0.138046265,-0.501770258,0.296605587
6.138232,-23.383941650,3.874229431,-3.606521606,-0.190170288,-0.501648188,0.241796017
6.138858,-15.128936768,1.051353455,-2.919876099,-0.205917358,-0.500183344,0.212743282
6.139485,-7.049407959,-1.687599182,-2.744400024,-0.198104858,-0.484802485,0.196630001
6.140110,0.145111084,-4.159523010,-1.912796021,-0.191879272,-0.442077875,0.196263790
6.140736,6.759796143,-6.539894104,-1.264297485,-0.186630249,-0.403259516,0.199193478
6.154506,-20.652618408,-30.808998108,-0.417434692,-0.007919312,0.003722899,0.871800900
6.155205,-21.217193604,-30.541969299,-0.470840454,0.003067017,-0.029724367,0.891332150
6.155831,-20.644989014,-30.511451721,-0.020706177,0.016616821,-0.050964601,0.918187618
6.156456,-18.997039795,-30.305458069,0.047958374,0.029800415,-0.059509523,0.945043087
6.157083,-16.982879639,-30.030799866,-0.142776489,0.041030884,-0.063293703,0.977025509
6.157709,-14.541473389,-29.885841370,-0.470840454,0.047622681,-0.063049562,1.014867306
6.158334,-12.199249268,-29.580665588,-0.547134399,0.055435181,-0.052185304,1.060277462
6.158960,-10.558929443,-28.939796448,-0.760757446,0.060073853,-0.042663820,1.114964962
6.159585,-9.139862061,-28.451515198,-1.043045044,0.067398071,-0.040100344,1.158788204
6.160212,-8.117523193,-27.680946350,-1.180374146,0.080459595,-0.034851320,1.206517696
6.160838,-7.537689209,-26.376319885,-1.203262329,0.091934204,-0.026672609,1.248265743
6.161465,-7.263031006,-25.003028870,-1.317703247,0.097183228,-0.015808351,1.284886837
6.162090,-7.354583740,-23.866249084,-1.226150513,0.099624634,-0.001159914,1.312352657
6.162717,-7.537689209,-22.584510803,-1.294815063,0.109390259,0.006286375,1.333470821
6.163344,-7.606353760,-21.371437073,-1.287185669,0.119522095,0.006774656,1.350926876
6.163969,-7.484283447,-20.410133362,-1.416885376,0.125991821,-0.008239992,1.369725704
6.164596,-7.049407959,-18.853736877,-1.554214478,0.129653931,-0.027527101,1.392552853
6.165223,-6.454315186,-17.289710999,-1.790725708,0.130752563,-0.040466554,1.404881954
6.165850,-6.278839111,-15.840126038,-1.691543579,0.127944946,-0.050598390,1.416112423
6.166475,-5.981292725,-14.398170471,-1.500808716,0.123428345,-0.058166750,1.414281368
6.167102,-5.691375732,-12.673927307,-1.538955688,0.118057251,-0.065002687,1.408910275
6.167729,-5.821075439,-11.415077209,-1.096450806,0.112319946,-0.072204836,1.396337032
6.168356,-5.668487549,-10.247779846,-0.920974731,0.111099243,-0.076599367,1.376073360
6.168983,-5.370941162,-8.805824280,-0.974380493,0.111099243,-0.086487062,1.350804806
6.169609,-4.539337158,-7.516456604,-0.837051392,0.104873657,-0.099914797,1.322362423
6.170234,-3.356781006,-6.249977112,-0.600540161,0.103652954,-0.106628664,1.295873165
6.170859,-1.685943604,-5.174232483,-0.402175903,0.098281860,-0.112121828,1.270116329
6.171485,0.015411377,-4.037452698,-0.417434692,0.086929321,-0.112610109,1.254003048
6.172110,1.846466064,-3.060890198,-0.325881958,0.078140259,-0.113830812,1.236669064
6.172735,3.631744385,-2.214027405,-0.371658325,0.065567017,-0.110656984,1.219335079
6.173361,4.776153564,-1.412940979,-0.219070435,0.058120728,-0.107849367,1.203099728
6.173986,5.920562744,-0.787330627,-0.020706177,0.041885376,-0.100647219,1.187474728
6.174611,6.286773682,-0.215126038,-0.028335571,0.036636353,-0.089050539,1.163793087
6.175237,6.775054932,0.303672791,0.368392944,0.034561157,-0.080261476,1.139867306
6.175863,7.354888916,0.791954041,0.253952026,0.028091431,-0.070862062,1.112401485
6.176490,7.797393799,1.089500427,0.269210815,0.020278931,-0.054626711,1.086278439
6.177116,8.438262939,1.455711365,0.566757202,0.019546509,-0.045715578,1.056493282
6.177741,8.873138428,1.676963806,0.391281128,0.010757446,-0.040222414,1.026586056
6.178368,9.758148193,1.661705017,0.299728394,0.004409790,-0.040954836,0.999974728
6.178993,10.742340088,1.585411072,0.192916870,-0.001937866,-0.048156984,0.979222775
6.179619,12.436065674,1.402305603,0.025070190,-0.013778687,-0.061340578,0.939794064
6.180244,13.214263916,1.310752869,-0.089370728,-0.019393921,-0.069885500,0.921849728
6.180870,14.137420654,1.051353455,-0.028335571,-0.023056030,-0.074890383,0.904271603
6.181495,15.022430420,0.570701599,0.093734741,-0.027084351,-0.079406984,0.889012814
6.182120,15.907440186,0.189231873,0.101364136,-0.024887085,-0.078674562,0.876439571
6.182746,17.372283936,-0.039649963,-0.074111938,-0.024520874,-0.074646242,0.869725704
6.183372,18.531951904,-0.543190002,-0.035964966,-0.020980835,-0.071106203,0.867528439
6.183998,19.508514404,-1.077247620,0.139511108,-0.018173218,-0.071350344,0.872655392
6.196583,6.584320068,-3.572059631,0.910079956,-0.005111694,0.042052977,0.977513790
6.197263,5.020294189,-3.579689026,1.207626343,-0.004135132,0.037170164,0.967504025
6.197888,3.723297119,-3.800941467,0.963485718,-0.008041382,0.033630125,0.954442501
6.198514,2.311859131,-3.831459045,1.024520874,-0.007797241,0.026427977,0.948949337
6.199140,1.518402100,-4.090858459,1.047409058,-0.008773804,0.014465086,0.938573360
6.199766,0.930938721,-4.182411194,0.810897827,-0.012557983,0.000549071,0.931005001
6.200392,0.373992920,-4.685951233,1.215255737,-0.013046265,-0.011413820,0.921849728
6.201018,0.023040771,-4.945350647,1.039779663,-0.014999390,-0.018249758,0.912450314
6.201644,0.038299561,-5.151344299,1.077926636,-0.013046265,-0.026672609,0.906713009
6.202270,0.106964111,-5.410743713,1.299179077,-0.014633179,-0.029236086,0.900975704
6.202895,0.404510498,-5.693031311,1.199996948,-0.017440796,-0.035461672,0.898046017
6.203520,0.457916260,-5.967689514,1.413619995,-0.020248413,-0.034363039,0.894505978
6.204147,0.763092041,-6.288124084,1.306808472,-0.017684937,-0.035705812,0.895848751
6.204773,1.487884521,-6.593299866,1.436508179,-0.017318726,-0.038513429,0.897923946
6.205400,1.953277588,-6.883216858,1.375473022,-0.015121460,-0.038513429,0.901219845
6.206026,2.327117920,-7.211280823,1.215255737,-0.011947632,-0.041931398,0.904881954
6.206651,2.662811279,-7.485939026,1.497543335,-0.007919312,-0.040466554,0.910375118
6.207278,3.135833740,-7.585121155,1.558578491,-0.009872437,-0.041809328,0.917455196
6.207904,3.242645264,-7.905555725,1.650131226,-0.016220093,-0.045105226,0.923802853
6.208530,3.334197998,-8.248878479,1.528060913,-0.012191772,-0.039612062,0.928929806
6.209155,3.486785889,-8.561683655,1.589096069,-0.014633179,-0.037292726,0.936254025
6.209782,3.021392822,-8.668495178,2.069747925,-0.014511108,-0.027893312,0.944188595
6.210407,2.960357666,-8.943153381,1.650131226,-0.010604858,-0.021911867,0.950536251
6.211040,2.647552490,-9.217811584,2.001083374,-0.011215210,-0.019104250,0.959203243
6.211665,2.319488525,-9.301734924,2.092636108,-0.005966187,-0.014465578,0.965550900
6.212291,1.861724854,-9.225440979,2.207077026,-0.002670288,-0.016296633,0.971044064
6.212916,1.442108154,-9.347511292,2.352035522,-0.002304077,-0.017151125,0.977147579
6.213541,1.205596924,-9.324623108,2.283370972,-0.002426147,-0.020324953,0.984593868
6.214167,0.679168701,-9.561134338,2.344406128,-0.002670288,-0.018738039,0.989110470
6.214792,-0.015106201,-9.522987366,2.245223999,-0.007308960,-0.012268312,0.991673946
6.215418,-0.938262939,-9.652687073,2.588546753,-0.015121460,-0.004333742,0.995336056
6.216045,-1.624908447,-10.209632874,2.588546753,-0.017562866,-0.004577883,0.986546993
6.216671,-2.830352783,-10.484291077,2.687728882,-0.013290405,-0.011169679,0.980809689
6.217296,-3.204193115,-10.659767151,2.641952515,-0.008285522,-0.015808351,0.975316525
6.217922,-3.654327393,-10.667396545,2.619064331,0.001846313,-0.023620851,0.969945431
6.218548,-3.845062256,-10.881019592,2.809799194,0.002822876,-0.028015383,0.963963985
6.219173,-3.745880127,-10.858131409,2.970016479,0.003433228,-0.027893312,0.958592892
6.219800,-3.448333740,-10.919166565,3.069198608,-0.002182007,-0.032898195,0.953221798
6.220425,-3.425445557,-10.972572327,2.901351929,-0.006942749,-0.037903078,0.946996212
6.221051,-3.440704346,-11.262489319,3.031051636,-0.009750366,-0.035949953,0.946996212
6.221678,-3.173675537,-11.582923889,2.985275269,-0.008041382,-0.036194094,0.945653439
6.222304,-3.013458252,-11.567665100,3.168380737,-0.002792358,-0.034851320,0.943089962
6.222930,-2.548065186,-11.560035706,3.061569214,-0.004745483,-0.034851320,0.938573360
6.223555,-2.578582764,-11.895729065,3.206527710,-0.010116577,-0.034851320,0.935277462
6.224182,-2.059783936,-11.964393616,3.298080444,-0.006210327,-0.031677492,0.933568478
6.224807,-2.029266357,-12.193275452,3.214157104,-0.002792358,-0.032898195,0.927587032
6.225434,-1.708831787,-12.391639709,3.237045288,-0.005599976,-0.027771242,0.926122189
6.226061,-1.396026611,-12.322975159,3.298080444,-0.004745483,-0.026794679,0.925145626
6.238692,-2.593841553,-15.550209045,3.168380737,0.017837524,0.007629149,1.002660275
6.239445,-2.868499756,-15.496803284,2.764022827,0.019302368,0.012023680,1.009252071
6.240072,-3.463592529,-15.557838440,3.053939819,0.025650024,0.013122313,1.020360470
6.240697,-3.768768311,-15.237403870,2.825057983,0.024429321,0.009093992,1.029881954
6.241324,-4.340972900,-15.237403870,2.771652222,0.028701782,0.012634031,1.037694454
6.241949,-4.852142334,-15.039039612,2.702987671,0.030654907,0.013976805,1.041234493
6.242575,-5.447235107,-15.222145081,2.924240112,0.036636353,0.013122313,1.051854610
6.243201,-5.866851807,-14.779640198,2.634323120,0.037002563,0.012145750,1.057713985
6.243827,-6.316986084,-14.398170471,2.542770386,0.036026001,0.010314696,1.059911251
6.244454,-6.759490967,-14.367652893,2.542770386,0.037368774,0.011291258,1.061620235
6.245081,-7.156219482,-13.871742249,2.504623413,0.040298462,0.011535399,1.065526485
6.245707,-7.049407959,-13.772560120,2.359664917,0.042129517,0.009338133,1.073827267
6.246333,-7.675018311,-13.337684631,2.229965210,0.044815063,0.012389891,1.073094845
6.246959,-7.636871338,-13.337684631,2.382553101,0.045669556,0.009704344,1.075902462
6.247584,-7.797088623,-12.902809143,2.252853394,0.047744751,0.009216063,1.080052853
6.248210,-7.949676514,-12.635780334,2.031600952,0.052627563,0.009216063,1.086034298
6.248837,-7.942047119,-12.170387268,2.107894897,0.054824829,0.004943602,1.090917110
6.249463,-8.041229248,-11.956764221,2.008712769,0.053115845,0.008605711,1.092259884
6.250090,-7.972564697,-11.231971741,1.863754272,0.052627563,0.010680906,1.099950314
6.250716,-8.201446533,-10.995460510,2.001083374,0.052871704,0.010192625,1.098607540
6.251341,-8.445587158,-10.919166565,1.856124878,0.052871704,0.008483641,1.103734493
6.251966,-8.399810791,-9.851051331,1.367843628,0.053115845,0.011535399,1.107274532
6.252592,-8.292999268,-9.584022522,1.673019409,0.055801392,0.014953367,1.106786251
6.253217,-8.399810791,-9.187294006,1.344955444,0.053237915,0.012023680,1.109715939
6.254917,-8.582916260,-8.218360901,1.123703003,0.053115845,0.011169188,1.112523556
6.255543,-8.560028076,-8.210731506,0.826156616,0.055068970,0.010925047,1.110692501
6.256169,-8.460845947,-7.554603577,0.986373901,0.056655884,0.014220946,1.112645626
6.256795,-8.483734131,-6.997657776,1.169479370,0.057754517,0.013610594,1.115087032
6.257422,-8.529510498,-6.730628967,0.704086304,0.053359985,0.013488524,1.117894650
6.258048,-8.735504150,-6.196571350,0.406539917,0.056533813,0.014953367,1.116185665
6.258673,-8.659210205,-5.937171936,0.520980835,0.058486938,0.016906492,1.120336056
6.259299,-8.720245361,-5.563331604,0.139511108,0.056167603,0.018615477,1.118871212
6.259925,-8.972015381,-5.227638245,0.147140503,0.058486938,0.019714110,1.118138790
6.260551,-8.819427490,-4.769874573,0.040328979,0.059707642,0.019836180,1.118505001
6.261178,-9.178009033,-4.296852112,-0.302993774,0.061172485,0.018371336,1.125463009
6.261805,-9.483184814,-3.991676331,-0.356399536,0.064468384,0.022155516,1.129979610
6.262430,-9.666290283,-3.038002014,-0.501358032,0.064834595,0.015441649,1.130101681
6.263056,-9.857025146,-2.740455627,-0.638687134,0.063125610,0.012878172,1.131566525
6.263681,-9.994354248,-2.458168030,-0.653945923,0.058486938,0.010314696,1.131444454
6.264306,-10.063018799,-1.870704651,-0.844680786,0.054580688,0.007751219,1.129979610
6.264932,-10.330047607,-1.390052795,-0.943862915,0.050186157,0.012023680,1.135472775
6.265557,-10.764923096,-1.489234924,-0.859939575,0.052627563,0.001891844,1.138768673
6.266183,-11.237945557,-1.008583069,-1.172744751,0.061660767,-0.010681398,1.132787228
6.266809,-11.192169189,-0.482154846,-1.218521118,0.064712524,-0.026794679,1.124974728
6.267435,-10.932769775,0.181602478,-1.203262329,0.064224243,-0.042175539,1.122167110
6.268060,-10.467376709,0.601219177,-0.806533813,0.061904907,-0.049011476,1.117894650
6.268686,-10.185089111,0.982688904,-1.058303833,0.055557251,-0.054626711,1.110814571
6.269312,-10.055389404,1.364158630,-0.829421997,0.055679321,-0.061462648,1.109471798
6.269939,-9.559478760,1.699851990,-0.844680786,0.050430298,-0.061706789,1.103002071
6.289175,8.491668701,10.801719666,-1.813613892,0.048477173,-0.018371828,1.091893673
6.289930,8.812103271,10.794090271,-1.653396606,0.049697876,-0.020569094,1.095433712
6.290557,8.987579346,11.030601501,-1.714431763,0.050430298,-0.016784914,1.099217892
6.291183,9.208831787,11.572288513,-2.073013306,0.050674438,-0.022644289,1.103246212
6.291809,9.552154541,12.014793396,-1.752578735,0.051162720,-0.021179445,1.104222775
6.292434,9.910736084,12.289451599,-2.034866333,0.049453735,-0.022766359,1.104955196
6.293061,10.185394287,12.792991638,-2.073013306,0.048599243,-0.025329836,1.105687618
6.293688,10.811004639,12.998985291,-2.164566040,0.049575806,-0.029358156,1.106297970
6.294314,11.490020752,13.250755310,-2.286636353,0.051773071,-0.035095461,1.103246212
6.294939,11.894378662,13.807701111,-2.217971802,0.054214478,-0.038879640,1.100560665
6.295565,12.550506592,14.036582947,-2.530776978,0.056167603,-0.041443117,1.102513790
6.296190,13.298187256,14.433311462,-2.607070923,0.052505493,-0.061340578,1.111791134
6.296815,14.907989502,15.036033630,-2.607070923,0.072769165,-0.059387453,1.097142696
6.297441,16.174468994,15.730308533,-2.706253052,0.075210571,-0.055481203,1.094090939
6.298066,17.234954834,16.310142517,-2.706253052,0.056167603,-0.046814211,1.103978634
6.298692,17.837677002,16.638206482,-2.568923950,0.053359985,-0.023010500,1.105077267
6.299318,18.158111572,16.928123474,-2.744400024,0.047622681,-0.014099367,1.112767696
6.299945,18.455657959,16.676353455,-2.866470337,0.051773071,-0.007019289,1.118382931
6.300572,18.707427979,17.408775330,-2.958023071,0.054214478,-0.007263429,1.124120235
6.301197,19.188079834,17.630027771,-3.400527954,0.063858032,-0.012756594,1.132909298
6.301823,19.806060791,18.438743591,-3.431045532,0.068374634,-0.020935304,1.136693478
6.302448,20.324859619,19.194053650,-3.553115845,0.071914673,-0.023620851,1.133885860
6.303073,21.026763916,20.048545837,-3.530227661,0.067520142,-0.020935304,1.133763790
6.303700,21.385345459,20.094322205,-3.423416138,0.059463501,-0.016784914,1.131932735
6.304326,21.515045166,20.796226501,-3.530227661,0.055923462,-0.013977297,1.132298946
6.304952,21.919403076,20.872520447,-3.568374634,0.066665649,-0.017273195,1.133031368
6.305577,22.430572510,21.719383240,-3.965103149,0.053726196,-0.020080812,1.137303829
6.306202,22.842559814,21.894859314,-3.896438599,0.050918579,-0.004699953,1.133885860
6.306827,23.231658936,21.971153259,-3.911697388,0.041519165,-0.013244875,1.129491329
6.307452,23.605499268,22.123741150,-4.018508911,0.071426392,-0.003479250,1.121800900
6.308077,23.857269287,23.046897888,-4.461013794,0.072647095,-0.010071047,1.125340939
6.308702,24.742279053,23.786949158,-4.583084106,0.067031860,-0.016540773,1.128758907
6.309328,25.436553955,24.664329529,-4.628860474,0.065567017,-0.014099367,1.124608517
6.309954,25.955352783,25.022911072,-4.789077759,0.058975220,-0.014099367,1.125585079
6.310579,26.489410400,25.221275330,-4.949295044,0.044937134,-0.012146242,1.131444454
6.311205,26.870880127,25.297569275,-4.804336548,0.047256470,-0.000061281,1.131566525
6.311830,26.855621338,25.701927185,-5.033218384,0.056411743,-0.001892336,1.133885860
6.312456,27.076873779,25.953697205,-5.361282349,0.065933228,-0.001526125,1.138280392
6.313081,27.656707764,26.823448181,-5.658828735,0.061904907,-0.002624758,1.142919064
6.313706,27.740631104,27.372764587,-5.460464478,0.060195923,0.007262938,1.144017696
6.314333,27.626190186,27.952598572,-5.712234497,0.073257446,0.007629149,1.143041134
6.314960,27.786407471,29.158042908,-6.131851196,0.067398071,0.008849852,1.148290157
6.315586,27.816925049,29.974388123,-6.047927856,0.059219360,0.011901610,1.153295040
6.316212,27.687225342,30.500816345,-6.307327271,0.054092407,0.014465086,1.148656368
6.316837,27.679595947,30.554222107,-6.345474243,0.056411743,0.013244383,1.148534298
6.317463,27.755889893,31.401084900,-6.414138794,0.058853149,0.007751219,1.145970821
6.318090,28.038177490,32.133506775,-6.589614868,0.073257446,0.009338133,1.144750118
6.318716,28.312835693,32.949851990,-6.955825806,0.062759399,0.009582274,1.151097775
6.331413,23.346099854,45.271324158,-12.265884399,0.078872681,0.070251219,1.141942501
6.332199,23.063812256,45.942710876,-12.616836548,0.089370728,0.073425047,1.142919064
6.332824,22.812042236,46.347068787,-12.891494751,0.095718384,0.071838133,1.143041134
6.333451,22.636566162,47.148155212,-13.341629028,0.099502563,0.077819578,1.142064571
6.334077,22.483978271,48.086570740,-13.433181763,0.098648071,0.096862547,1.138280392
6.334704,21.682891846,48.490928650,-13.906204224,0.078262329,0.103210203,1.146947384
6.335331,21.278533936,48.208641052,-13.860427856,0.058364868,0.098815672,1.158299923
6.335957,21.095428467,47.949241638,-13.883316040,0.049453735,0.086608641,1.167211056
6.336582,21.469268799,47.483848572,-14.211380005,0.034194946,0.066344969,1.183202267
6.337209,22.903594971,47.216819763,-14.486038208,0.036880493,0.064391844,1.179784298
6.337835,23.811492920,47.117637634,-15.012466431,0.058486938,0.102966063,1.143773556
6.338461,23.185882568,48.567222595,-15.790664673,0.063613892,0.114806883,1.126927853
6.339088,22.537384033,49.559043884,-16.744338989,0.140396118,0.224792242,1.060277462
6.339715,15.792999268,54.197715759,-17.812454224,0.226211548,0.286681890,1.002904415
6.340342,12.519989014,56.707786560,-18.033706665,0.150894165,0.184875250,1.083226681
6.340969,12.329254150,56.013511658,-18.247329712,0.099990845,0.091247313,1.118382931
6.341594,12.291107178,55.769371033,-18.041336060,0.017715454,-0.051819094,1.109593868
6.342220,12.718353271,56.646751404,-17.659866333,-0.109115601,-0.187317133,1.069066525
6.342845,12.100372314,55.113243103,-17.659866333,-0.204086304,-0.309021235,1.020726681
6.343472,11.444244385,52.221702576,-19.078933716,-0.237777710,-0.473449945,0.997289181
6.344098,16.311798096,47.132896423,-19.231521606,-0.381820679,-0.739929438,1.111669064
6.344724,30.174407959,37.992881775,-17.392837524,-0.259628296,-0.685364008,1.060887814
6.345350,40.138397217,33.842491150,-17.369949341,-0.097518921,-0.502136469,0.861424923
6.345976,46.295318604,32.331871033,-17.446243286,-0.030014038,-0.132263422,0.695287228
6.346603,45.707855225,31.866477966,-14.692031860,-0.093856812,0.399963140,0.507421017
6.347229,39.528045654,27.883934021,-9.984695435,-0.229721069,0.892272711,0.346410275
6.347855,28.793487549,17.935203552,-6.566726685,-0.252182007,1.193542242,0.196019650
6.348481,15.335235596,8.108543396,-6.284439087,-0.223373413,1.198302984,0.056371212
6.349108,3.090057373,2.767967224,-8.840286255,-0.194320679,0.934264898,-0.021509647
6.349734,-4.821624756,4.507469177,-12.822830200,-0.227890015,0.558654547,-0.074610233
6.350359,-8.964385986,10.992454529,-16.919815063,-0.318588257,0.224548101,-0.112696171
6.350986,-10.993804932,16.661094666,-20.734512329,-0.428573608,0.004577391,-0.158472538
6.351612,-11.291351318,18.919395447,-23.763381958,-0.473007202,-0.103821047,-0.212549686
6.352237,-9.521331787,16.020225525,-26.204788208,-0.451522827,-0.135315180,-0.250635624
6.352863,-5.180206299,9.603904724,-26.044570923,-0.344100952,-0.156433344,-0.245508671
6.353489,1.587066650,2.424644470,-23.893081665,-0.306259155,-0.213562250,-0.204126835
6.355142,32.142791748,-20.600868225,-19.933425903,-0.075790405,-0.375671625,0.032689571
6.355767,44.410858154,-21.661354065,-22.992813110,-0.039535522,-0.308044672,0.166844845
6.356392,54.748687744,-20.387245178,-24.076187134,-0.113021851,-0.063415773,0.278905392
6.357018,59.166107178,-19.456459045,-21.764480591,-0.236068726,0.007629149,0.483739376
6.357645,61.470184326,-20.455909729,-20.765029907,-0.193466187,0.055114500,0.619481564
6.358272,59.463653564,-21.256996155,-23.946487427,-0.144393921,0.061218016,0.749120235
6.358899,55.694732666,-21.546913147,-28.165542603,-0.073959351,0.082214110,0.849339962
6.359525,51.910552979,-19.563270569,-30.278884888,-0.008895874,0.127746344,0.973607540
6.360152,47.401580811,-16.801429749,-28.730117798,0.037612915,0.187682867,1.042333126
6.360778,41.343841553,-14.413429260,-26.136123657,0.061904907,0.183654547,1.094213009
6.361403,34.416351318,-14.321876526,-23.740493774,0.047012329,0.163024664,1.145238400
6.362037,25.085601807,-16.740394592,-22.863113403,0.025894165,0.112121336,1.163060665
6.374958,-42.381134033,11.167930603,-9.473526001,-0.175399780,-0.436218500,1.178441525
6.375653,-37.277069092,6.102012634,-8.443557739,-0.227279663,-0.527649164,1.162816525
6.376279,-30.418243408,0.830101013,-8.023941040,-0.268539429,-0.575134516,1.123998165
6.376905,-22.643890381,-4.228187561,-7.451736450,-0.285629272,-0.573059320,1.076756954
6.377530,-14.488067627,-8.996559143,-6.849014282,-0.271713257,-0.542419672,1.033910275
6.378155,-6.538238525,-13.406349182,-6.185256958,-0.254867554,-0.482727289,0.979711056
6.378781,0.389251709,-17.282081604,-6.223403931,-0.222274780,-0.396545649,0.918187618
6.379408,5.905303955,-20.211769104,-6.398880005,-0.184310913,-0.297790766,0.853978634
6.380039,10.093841553,-22.790504456,-6.665908813,-0.163925171,-0.216491938,0.795262814
6.380665,13.519439697,-25.209022522,-6.337844849,-0.134140015,-0.199890375,0.748021603
6.381291,17.151031494,-26.589942932,-6.559097290,-0.101425171,-0.224914789,0.699193478
6.381916,20.881805420,-26.368690491,-7.039749146,-0.080062866,-0.269592524,0.670995235
6.382543,24.910125732,-25.964332581,-7.367813110,-0.079696655,-0.310486078,0.655370235
6.383170,28.518829346,-25.353981018,-7.390701294,-0.088851929,-0.362732172,0.629247189
6.383796,32.638702393,-25.392127991,-7.390701294,-0.085189819,-0.378723383,0.606786251
6.384422,36.407623291,-25.743080139,-6.681167603,-0.080062866,-0.356140375,0.599706173
6.385048,39.894256592,-26.963783264,-5.590164185,-0.058212280,-0.314148188,0.607884884
6.385674,42.953643799,-27.604652405,-4.834854126,-0.018417358,-0.279236078,0.643651485
6.386301,45.326385498,-28.108192444,-4.003250122,0.014785767,-0.237121820,0.682836056
6.386927,47.668609619,-27.597023010,-3.164016724,0.051040649,-0.200744867,0.728612423
6.387552,49.194488525,-26.437355042,-2.332412720,0.052261353,-0.117981203,0.795751095
6.388177,48.751983643,-25.941444397,-1.722061157,0.045059204,-0.025451906,0.878514767
6.388803,46.631011963,-25.376869202,-1.264297485,0.048355103,0.056701414,0.962377071
6.389428,42.907867432,-24.194313049,-0.707351685,0.060562134,0.118346922,1.046483517
6.390055,37.925872803,-22.576881409,-0.005447388,0.069717407,0.157043219,1.123876095
6.390681,32.013092041,-20.371986389,0.665939331,0.073623657,0.190734625,1.192723751
6.391307,25.085601807,-18.479896545,0.582015991,0.079483032,0.208556890,1.261083126
6.391932,17.540130615,-16.442848206,0.810897827,0.115127563,0.194885015,1.319066525
6.392558,10.505828857,-14.077735901,0.971115112,0.156753540,0.145080328,1.382176876
6.393184,4.585418701,-9.957862854,1.085556030,0.195449829,0.086242430,1.444066525
6.393810,-0.335540771,-5.754066467,1.848495483,0.216445923,0.065856688,1.503148556
6.394435,-5.546417236,-2.038551331,2.382553101,0.234390259,0.069152586,1.552464962
6.395061,-10.825958252,1.493858337,3.160751343,0.243667603,0.071593992,1.589818478
6.395688,-15.983428955,4.469322205,3.618515015,0.243667603,0.083068602,1.615941525
6.396313,-19.965972900,6.399559021,4.373825073,0.224380493,0.112487547,1.636327267
6.396939,-24.040069580,7.719444275,5.541122437,0.208633423,0.124206297,1.648534298
6.397566,-27.107086182,9.565757751,6.044662476,0.199966431,0.095885985,1.653172970
6.398191,-28.899993896,11.717247009,5.701339722,0.194229126,0.065368406,1.647313595
6.398816,-29.746856689,14.387535095,5.266464233,0.161026001,0.024108641,1.630467892
6.399442,-30.074920654,17.233299255,5.083358765,0.134414673,0.001403563,1.609227657
6.400069,-29.785003662,19.606040955,4.884994507,0.105850220,-0.016784914,1.586034298
6.400696,-29.403533936,21.261619568,4.564559937,0.095474243,-0.068786867,1.549901485
6.401322,-27.953948975,22.261070251,4.030502319,0.085586548,-0.110412844,1.518651485
6.401948,-26.061859131,22.764610291,3.908432007,0.079238892,-0.122497804,1.475438595
6.402575,-23.345794678,22.550987244,3.999984741,0.070327759,-0.132385492,1.430028439
6.403200,-20.370330811,21.940635681,4.289901733,0.047866821,-0.129577875,1.377660275
6.403825,-17.440643311,20.666526794,4.877365112,0.028579712,-0.115051515,1.325292110
6.404451,-14.640655518,19.071983337,5.258834839,0.021255493,-0.108215578,1.264256954
6.417109,18.005523682,0.959800720,-1.828872681,-0.211044312,0.480285406,0.693089962
6.417797,9.117279053,-2.976966858,-1.622879028,-0.184555054,0.385802984,0.606297970
6.418423,1.114044189,-3.541542053,-1.493179321,-0.146469116,0.228088140,0.523900509
6.419050,-5.744781494,-1.069618225,-2.355300903,-0.110824585,0.089538328,0.437108517
6.419676,-11.161651611,2.600120544,-2.828323364,-0.099472046,0.009216063,0.346654415
6.420303,-14.999237061,5.575584412,-2.927505493,-0.099227905,0.003844969,0.259130001
6.420929,-16.830291748,5.316184998,-1.424514771,-0.131332397,0.045348875,0.229588985
6.421554,-16.815032959,2.706932068,0.391281128,-0.033676147,-0.007873781,0.193089962
6.422180,-15.121307373,0.143455505,0.269210815,-0.003402710,-0.050964601,0.174779415
6.422806,-11.672821045,-2.397132874,0.314987183,0.013442993,-0.089172609,0.186498165
6.423432,-6.347503662,-3.724647522,1.268661499,-0.009384155,-0.094177492,0.206517696
6.424057,-0.503387451,-3.755165100,2.077377319,-0.045516968,-0.094055422,0.239720821
6.424683,4.417572021,-3.419471741,1.871383667,-0.071273804,-0.071106203,0.294042110
6.425308,7.972869873,-2.549720764,1.116073608,-0.094955444,-0.066589601,0.385106564
6.425934,10.467681885,-1.237464905,0.368392944,-0.108505249,-0.035583742,0.492772579
6.426559,11.200103760,-0.299049377,-0.455581665,-0.102767944,0.034118406,0.623143673
6.427186,10.711822510,0.830101013,-1.332962036,-0.056137085,0.066344969,0.751439571
6.427811,9.636077881,2.027915955,-2.240859985,-0.015487671,0.098815672,0.884740353
6.428436,8.026275635,2.623008728,-2.736770630,0.000869751,0.153259039,1.014134884
6.429061,5.500946045,2.058433533,-2.729141235,-0.008285522,0.200622320,1.147191525
6.429688,1.785430908,0.646995544,-1.638137817,0.006607056,0.193420172,1.259007931
6.430315,-2.128448486,-0.672889709,-1.775466919,0.038467407,0.147887945,1.350438595
6.430941,-6.088104248,-1.206947327,-2.134048462,0.045669556,0.100402586,1.422826290
6.431566,-10.314788818,-0.787330627,-1.973831177,0.031875610,0.066344969,1.470677853
6.432191,-13.847198486,-0.657630920,-1.424514771,0.021621704,0.046935789,1.492406368
6.432818,-17.295684814,-0.909400940,-0.493728638,0.003311157,0.052428953,1.493260860
6.433444,-20.278778076,-1.199317932,-0.097000122,-0.007186890,0.067199461,1.463353634
6.434069,-23.040618896,-2.046180725,-0.280105591,-0.025375366,0.081969969,1.410497189
6.434694,-24.444427490,-3.366065979,-0.447952271,-0.032699585,0.074401610,1.353856564
6.435320,-25.329437256,-3.961158752,-0.226699829,-0.028915405,0.024474852,1.287206173
6.435946,-24.986114502,-4.182411194,-0.180923462,-0.019638062,-0.034363039,1.209935665
6.436571,-24.040069580,-3.778053284,-0.516616821,-0.018295288,-0.092224367,1.133763790
6.437196,-22.926177979,-3.655982971,-1.012527466,-0.013656616,-0.143738031,1.060643673
6.437822,-20.599212646,-2.999855042,-1.226150513,-0.008773804,-0.175842524,0.985326290
6.438452,-14.037933350,-3.305030823,-0.356399536,0.003311157,-0.200500727,0.872777462
6.439078,-9.239044189,-4.045082092,0.177658081,0.009658813,-0.210876703,0.831517696
6.439703,-3.951873779,-5.235267639,0.612533569,0.005020142,-0.211120844,0.805394650
6.440330,2.060089111,-6.555152893,0.887191772,-0.016952515,-0.194885492,0.785008907
6.440955,7.599029541,-8.088661194,1.146591187,-0.037216187,-0.167907953,0.780004025
6.441580,12.428436279,-8.973670959,0.963485718,-0.065170288,-0.134826899,0.783177853
6.442206,16.395721436,-9.851051331,0.894821167,-0.085067749,-0.105774172,0.792455196
6.442832,19.210968018,-10.171485901,0.582015991,-0.095077515,-0.076477297,0.815038204
6.443457,20.935211182,-10.613990784,-0.035964966,-0.098983765,-0.041565187,0.837255001
6.444082,21.248016357,-10.903907776,-0.425064087,-0.090682983,-0.008850344,0.866307735
6.444709,20.645294189,-11.308265686,-0.920974731,-0.082260132,0.028991453,0.889501095
6.445336,19.371185303,-11.888099670,-0.913345337,-0.067611694,0.063293211,0.910375118
6.445961,17.700347900,-12.696815491,-1.020156860,-0.056381226,0.093444578,0.927831173
6.446587,15.266571045,-13.421607971,-0.905715942,-0.043441772,0.106994383,0.938329220
6.460303,-2.288665771,-0.833106995,1.222885132,-0.009262085,0.008361571,1.404759884
6.460990,-4.112091064,-0.985694885,1.077926636,-0.002670288,0.016662352,1.408299923
6.461616,-5.508270264,-0.421119690,0.887191772,0.021743774,0.022033446,1.401097775
6.462241,-6.805267334,-0.238014221,0.597274780,0.040176392,0.022643797,1.390599728
6.462867,-7.682647705,0.006126404,0.719345093,0.059097290,0.013976805,1.363500118
6.463493,-7.751312256,0.059532166,0.818527222,0.073257446,0.006774656,1.330785275
6.464118,-7.575836182,-0.024391174,0.696456909,0.075576782,-0.008117922,1.288182735
6.464745,-6.332244873,0.379966736,0.688827515,0.082901001,-0.027893312,1.245580196
6.465370,-5.050506592,1.013206482,1.138961792,0.083389282,-0.044128664,1.209081173
6.465996,-3.066864014,1.974510193,1.123703003,0.084732056,-0.055725344,1.176366329
6.466622,-1.006927490,2.722190857,0.932968140,0.081069946,-0.057068117,1.146214962
6.467249,1.274261475,3.752159119,0.955856323,0.079360962,-0.056701906,1.123998165
6.467876,4.104766846,4.431175232,0.749862671,0.079360962,-0.048645265,1.112645626
6.468503,6.828460693,5.453514099,0.383651733,0.073379517,-0.047302492,1.108495235
6.469128,10.002288818,5.972312927,0.200546265,0.066665649,-0.037170656,1.113011837
6.469754,12.710723877,6.857322693,-0.058853149,0.063491821,-0.029602297,1.119969845
6.470380,14.946136475,7.086204529,-0.234329224,0.055313110,-0.013611086,1.129369259
6.471007,16.525421143,7.597373962,-0.562393188,0.045059204,0.008605711,1.141820431
6.471633,16.929779053,7.887290955,-0.966751099,0.036148071,0.034118406,1.155004025
6.472259,16.449127197,7.978843689,-0.913345337,0.025894165,0.061095946,1.164037228
6.472885,15.434417725,8.062767029,-1.149856567,0.023941040,0.078185789,1.168920040
6.473510,13.862762451,8.329795837,-1.165115356,0.019912720,0.081481688,1.173558712
6.474137,11.993560791,9.077476501,-1.340591431,0.012954712,0.076598875,1.163915157
6.474762,9.559783936,9.863304138,-1.638137817,0.002822876,0.073669188,1.146214962
6.475388,6.569061279,10.115074158,-1.828872681,-0.014389038,0.073913328,1.121556759
6.476014,3.463897705,10.237144470,-2.073013306,-0.021591187,0.075622313,1.080296993
6.476640,-0.022735596,9.565757751,-1.981460571,-0.028060913,0.073302977,1.039037228
6.477265,-2.502288818,9.046958923,-1.699172974,-0.030746460,0.066467039,0.983251095
6.477890,-4.463043213,8.505271912,-1.126968384,-0.026473999,0.054137938,0.935521603
6.478517,-5.515899658,7.872032166,-0.913345337,-0.020980835,0.039123289,0.881566525
6.479143,-6.561126709,7.757591248,-0.806533813,-0.016952515,0.020812742,0.827855587
6.479769,-6.759490967,7.612632751,-0.478469849,-0.007553101,-0.013244875,0.782689571
6.480395,-6.278839111,8.253501892,-0.913345337,0.003677368,-0.044861086,0.751073360
6.481020,-5.004730225,9.291099548,-0.768386841,0.012954712,-0.067077883,0.731175900
6.481646,-3.257598877,10.145591736,-0.692092896,0.015274048,-0.071716554,0.724339962
6.482272,-1.182403564,10.786460876,-0.631057739,0.019790649,-0.053161867,0.727513790
6.482898,0.923309326,11.038230896,-0.531875610,0.014053345,-0.032776125,0.745702267
6.483524,2.922210693,10.816978455,-0.127517700,0.010879517,-0.016418703,0.773046017
6.484150,5.081329346,10.519432068,0.032699585,0.007217407,-0.002136476,0.812352657
6.484775,6.752166748,10.183738708,-0.226699829,0.000015259,0.001525633,0.864354610
6.485402,7.667694092,10.107444763,-0.295364380,-0.016220093,0.005798094,0.912084103
6.486028,8.155975342,10.221885681,-0.539505005,-0.036727905,0.008361571,0.956883907
6.486655,7.805023193,10.107444763,-0.905715942,-0.048934937,0.019225828,1.001561642
6.487281,6.752166748,9.565757751,-1.012527466,-0.059310913,0.023132078,1.040257931
6.487907,6.012115479,9.161399841,-1.210891724,-0.059188843,0.025329344,1.072118282
6.488534,4.890594482,8.650230408,-1.485549927,-0.052352905,0.023498289,1.094213009
6.489159,3.639373779,7.795738220,-1.424514771,-0.040512085,0.024230711,1.110082150
6.489785,2.823028564,7.070945740,-1.546585083,-0.028182983,0.024841063,1.115331173
6.490412,1.777801514,6.750511169,-1.584732056,-0.016464233,0.022277586,1.115453243
6.503085,4.699859619,6.201194763,-0.852310181,-0.038803101,0.032409422,0.987035275
6.503849,3.555450439,6.140159607,-0.913345337,-0.038314819,0.036681883,0.965672970
6.504590,2.128753662,5.392478943,-0.905715942,-0.035140991,0.028136961,0.924046993
6.505320,1.747283936,5.155967712,-0.913345337,-0.032333374,0.024108641,0.904027462
6.506023,1.022491455,4.972862244,-0.791275024,-0.032577515,0.010680906,0.882421017
6.506747,0.785980225,4.553245544,-0.638687134,-0.028915405,0.006286375,0.865087032
6.507417,0.496063232,4.797386169,-0.615798950,-0.026718140,-0.002380617,0.847020626
6.508089,0.579986572,4.354881287,-0.432693481,-0.027328491,-0.006408937,0.833714962
6.508737,0.572357178,4.087852478,-0.280105591,-0.025009155,-0.004333742,0.821630001
6.509363,0.824127197,3.920005798,-0.188552856,-0.030136108,-0.006164797,0.812596798
6.509994,1.335296631,3.485130310,-0.119888306,-0.032211304,0.000549071,0.810399532
6.510681,1.617584229,2.882408142,0.108993530,-0.038925171,0.004943602,0.806371212
6.511390,2.250823975,2.371238708,-0.074111938,-0.045028687,0.012145750,0.805882931
6.512137,2.594146729,1.532005310,-0.058853149,-0.053329468,0.028991453,0.816380978
6.512887,2.937469482,1.112388611,0.040328979,-0.053695679,0.034728758,0.822240353
6.513605,2.662811279,0.639366150,-0.241958618,-0.053207397,0.036559813,0.834325314
6.514230,2.243194580,0.395225525,-0.241958618,-0.048934937,0.038024656,0.848119259
6.514855,1.861724854,0.013755798,-0.409805298,-0.042953491,0.039977781,0.861546993
6.515482,1.541290283,-0.184608459,-0.669204712,-0.035140991,0.037780516,0.873265743
6.516108,1.121673584,-0.138832092,-0.585281372,-0.024887085,0.040221922,0.891210079
6.516734,0.427398682,-0.367713928,-0.592910767,-0.022689819,0.042785399,0.900365353
6.517361,-0.060882568,-0.932289124,-0.539505005,-0.024398804,0.043639891,0.913915157
6.517987,-0.717010498,-1.329017639,-0.585281372,-0.020370483,0.040832274,0.924535275
6.518612,-1.197662354,-1.550270081,-0.455581665,-0.018173218,0.033996336,0.932713985
6.519239,-1.571502686,-1.924110413,-0.501358032,-0.018173218,0.023864500,0.943212032
6.519864,-1.876678467,-1.794410706,-0.554763794,-0.019515991,0.016662352,0.948461056
6.520490,-2.372589111,-1.786781311,-0.432693481,-0.020492554,0.011657469,0.956883907
6.521163,-2.647247314,-1.939369202,-0.722610474,-0.021224976,0.004455321,0.963841915
6.521872,-2.723541260,-1.855445862,-0.692092896,-0.020370483,0.002013914,0.971410275
6.522544,-2.967681885,-1.954627991,-0.684463501,-0.012924194,-0.002380617,0.978246212
6.523169,-2.921905518,-1.946998596,-0.737869263,-0.009750366,-0.008117922,0.983495235
6.523794,-2.769317627,-1.992774963,-0.516616821,-0.004135132,-0.008850344,0.992528439
6.524419,-2.792205811,-2.145362854,-0.615798950,-0.001205444,-0.011657961,0.999852657
6.525045,-2.418365479,-2.137733459,-0.447952271,0.002090454,-0.012634523,1.006566525
6.525785,-2.075042725,-1.992774963,-0.463211060,-0.000961304,-0.016662844,1.022557735
6.526528,-2.311553955,-2.030921936,-0.196182251,0.000137329,-0.016174562,1.025487423
6.527178,-2.151336670,-2.061439514,-0.188552856,-0.001205444,-0.020691164,1.030126095
6.527803,-2.036895752,-1.748634338,-0.089370728,-0.007431030,-0.019714601,1.035863400
6.528428,-1.914825439,-2.030921936,-0.104629517,-0.007064819,-0.020447023,1.037938595
6.529053,-1.975860596,-1.794410706,-0.097000122,-0.009750366,-0.022156008,1.042943478
6.529679,-1.823272705,-2.122474670,-0.226699829,-0.007186890,-0.019836672,1.042577267
6.530306,-1.655426025,-2.168251038,0.055587769,-0.006576538,-0.019714601,1.044286251
6.530933,-1.731719971,-2.305580139,0.002182007,-0.005477905,-0.020447023,1.041966915
6.531558,-1.617279053,-2.160621643,0.200546265,-0.005477905,-0.022278078,1.039525509
6.532210,-1.243438721,-2.214027405,-0.043594360,-0.005233765,-0.025451906,1.032323360
6.539832,0.831756592,-2.938819885,0.833786011,-0.011581421,-0.009826906,0.966039181
6.540613,0.763092041,-2.854896545,0.910079956,-0.011337280,-0.006531008,0.963963985
6.541257,0.747833252,-3.152442932,1.085556030,-0.013412476,-0.003845461,0.961644650
6.542056,0.435028076,-3.297401428,1.123703003,-0.017318726,-0.003601320,0.959691525
6.554953,-1.006927490,-2.023292542,1.436508179,0.024307251,-0.033020265,1.054906368
6.555987,0.358734131,-1.519752502,1.604354858,0.029556274,-0.022644289,1.086400509
6.556726,0.908050537,-1.237464905,1.634872437,0.030288696,-0.014465578,1.106664181
6.557467,1.297149658,-1.092506409,1.535690308,0.029067993,-0.007995851,1.119969845
6.558094,1.930389404,-0.886512756,1.444137573,0.025405884,-0.001526125,1.132665157
6.558734,2.388153076,-0.871253967,1.451766968,0.026626587,0.003967039,1.143041134
6.560480,2.243194580,0.242637634,1.161849976,0.024673462,0.009704344,1.164159298
6.561105,2.189788818,0.486778259,1.062667847,0.024551392,0.007018797,1.164281368
6.561731,1.754913330,0.784324646,0.887191772,0.024917603,0.008971922,1.162328243
6.562358,1.289520264,1.089500427,0.871932983,0.028579712,0.011047117,1.154637814
6.562983,1.251373291,1.364158630,0.948226929,0.029556274,0.013122313,1.142919064
6.563608,0.953826904,1.554893494,0.810897827,0.027969360,0.016540281,1.131932735
6.564234,0.930938721,1.570152283,0.871932983,0.025894165,0.018859617,1.115697384
6.564860,0.732574463,1.600669861,0.940597534,0.024917603,0.017638914,1.097142696
6.565486,0.618133545,1.486228943,0.604904175,0.020156860,0.017394774,1.078832150
6.566112,0.862274170,1.730369568,0.566757202,0.019546509,0.011901610,1.059300900
6.566737,1.220855713,2.066062927,0.574386597,0.014419556,0.011901610,1.042088985
6.567363,1.655731201,2.211021423,0.231063843,0.012466431,0.009216063,1.022923946
6.567989,2.014312744,2.516197205,0.253952026,0.007339478,0.009826414,1.008519650
6.568615,2.365264893,2.867149353,0.345504761,0.005874634,0.010436766,0.995824337
6.569240,2.823028564,2.981590271,0.055587769,0.006607056,0.016174071,0.985448360
6.569865,3.112945557,3.149436951,-0.119888306,0.005996704,0.026794188,0.976537228
6.570490,3.418121338,2.752708435,-0.165664673,0.004898071,0.030090086,0.961522579
6.571117,3.967437744,2.561973572,-0.302993774,0.005630493,0.035827391,0.959447384
6.571744,3.685150146,2.539085388,-0.173294067,0.001724243,0.040343992,0.950414181
6.572371,3.685150146,2.325462341,-0.325881958,-0.001205444,0.044616453,0.947972775
6.572997,3.418121338,2.455162048,-0.547134399,-0.004135132,0.043517821,0.941991329
6.573623,3.097686768,2.211021423,-0.608169556,-0.007431030,0.048766844,0.941747189
6.574250,2.792510986,2.569602966,-0.638687134,-0.011581421,0.046813719,0.938939571
6.574876,2.014312744,2.699302673,-1.004898071,-0.011825562,0.040832274,0.938573360
6.575502,1.670989990,2.775596619,-0.936233521,-0.007064819,0.039977781,0.938817501
6.576127,1.464996338,2.813743591,-1.111709595,-0.005233765,0.032775633,0.939549923
6.576752,0.816497803,3.050254822,-1.165115356,-0.006454468,0.023620360,0.943089962
6.577389,0.328216553,2.905296326,-1.043045044,-0.004135132,0.016662352,0.945775509
6.578058,0.099334717,3.027366638,-1.096450806,-0.004135132,0.010314696,0.949925900
6.578836,-0.587310791,3.012107849,-1.012527466,-0.001693726,-0.002990969,0.961644650
6.579461,-0.839080811,3.050254822,-0.905715942,-0.002059937,-0.009216554,0.961278439
6.580086,-0.808563232,2.958702087,-0.631057739,-0.003402710,-0.013000734,0.968114376
6.580712,-0.945892334,3.172325134,-0.653945923,-0.006698608,-0.017639406,0.972264767
6.581337,-0.778045654,2.989219666,-0.524246216,-0.005477905,-0.016296633,0.977513790
6.581962,-0.480499268,2.752708435,-0.402175903,-0.006210327,-0.014953859,0.984471798
6.582588,-0.274505615,2.859519958,-0.272476196,-0.005355835,-0.012268312,0.989354610
6.583215,-0.251617432,2.592491150,-0.356399536,-0.004379272,-0.011902101,0.996434689
6.583900,0.251922607,2.775596619,-0.508987427,-0.003890991,-0.004944094,1.000218868
6.584591,0.412139893,2.401756287,-0.447952271,-0.002059937,-0.001281984,1.008031368
6.585348,0.541839600,2.386497498,-0.425064087,0.001113892,0.000671141,1.013158321
6.586042,0.847015381,2.432273865,-0.425064087,-0.003646851,0.006286375,1.016088009
6.586787,0.953826904,2.287315369,-0.554763794,0.002456665,0.008483641,1.019505978
6.587550,1.167449951,2.462791443,-0.577651978,0.000137329,0.008483641,1.030370235
6.600336,2.296600342,1.585411072,-0.364028931,-0.012313843,0.011413328,0.955419064
6.601059,1.823577881,1.562522888,-0.463211060,-0.012435913,0.019714110,0.951634884
6.601686,1.487884521,1.318382263,-0.402175903,-0.011581421,0.018493406,0.942601681
6.602312,1.480255127,1.295494080,-0.570022583,-0.011459351,0.020446531,0.942357540
6.602937,1.251373291,1.295494080,-0.333511353,-0.012313843,0.015685789,0.936376095
6.603562,0.961456299,1.181053162,-0.501358032,-0.013534546,0.014953367,0.933812618
6.604188,0.885162354,1.318382263,-0.379287720,-0.011215210,0.015319578,0.932836056
6.604813,0.557098389,1.280235291,-0.409805298,-0.008773804,0.012756102,0.934422970
6.605439,0.526580811,1.158164978,-0.379287720,-0.009384155,0.006286375,0.935521603
6.606065,0.297698975,1.066612244,-0.447952271,-0.008773804,0.003967039,0.939305782
6.606690,0.526580811,1.150535583,-0.333511353,-0.009628296,0.003112547,0.945531368
6.607316,0.183258057,1.158164978,-0.150405884,-0.006088257,-0.000183351,0.947240353
6.607943,0.381622314,1.173423767,-0.425064087,-0.007186890,-0.002380617,0.949559689
6.608568,0.305328369,1.127647400,-0.402175903,-0.006820679,-0.002502687,0.956029415
6.609195,0.068817139,1.066612244,-0.158035278,-0.005477905,-0.002624758,0.962743282
6.609821,0.335845947,0.952171326,-0.097000122,-0.004745483,-0.000183351,0.965428829
6.610447,0.305328369,0.959800720,-0.043594360,-0.005355835,0.001037352,0.978124142
6.611072,0.465545654,0.791954041,-0.203811646,-0.007186890,-0.004577883,0.986546993
6.611699,0.549468994,0.852989197,-0.211441040,-0.007064819,-0.006042726,0.996434689
6.612325,0.412139893,0.852989197,-0.119888306,-0.004135132,-0.007263429,0.999242306
6.612952,0.366363525,0.952171326,0.040328979,-0.001449585,-0.008850344,1.008763790
6.613577,0.435028076,0.990318298,-0.142776489,-0.000961304,-0.013977297,1.015355587
6.614203,0.358734131,0.906394958,-0.051223755,0.000747681,-0.011047609,1.025731564
6.614879,0.183258057,1.028465271,0.101364136,0.004653931,-0.011047609,1.027562618
6.615605,0.457916260,1.005577087,0.070846558,0.005874634,-0.014953859,1.039403439
6.616394,0.419769287,1.051353455,0.353134155,0.007217407,-0.009948976,1.044408321
6.617132,0.473175049,1.364158630,0.231063843,0.011734009,-0.009216554,1.046605587
6.617840,0.648651123,1.318382263,0.200546265,0.005630493,-0.010803469,1.048070431
6.618466,0.702056885,1.524375916,0.459945679,0.006851196,-0.011047609,1.052220821
6.619093,0.602874756,1.654075623,0.246322632,0.008193970,-0.014953859,1.051488400
6.619719,0.564727783,1.837181091,0.314987183,0.010757446,-0.014587648,1.052342892
6.620346,0.908050537,2.043174744,0.429428101,0.007705688,-0.017273195,1.051854610
6.620973,0.984344482,2.142356873,0.299728394,0.005752563,-0.014831789,1.053075314
6.621598,1.007232666,2.165245056,0.604904175,0.011489868,-0.012024172,1.051732540
6.622225,0.961456299,2.287315369,0.482833862,0.010391235,-0.008117922,1.045140743
6.622852,1.335296631,2.363609314,0.299728394,0.006607056,-0.005432375,1.045018673
6.623478,1.335296631,2.638267517,0.383651733,0.005874634,-0.006775148,1.040380001
6.624103,1.426849365,2.378868103,0.688827515,0.004653931,-0.004699953,1.037328243
6.624728,1.457366943,2.569602966,0.467575073,0.003067017,-0.004822023,1.032445431
6.625353,1.495513916,2.638267517,0.742233276,0.004409790,-0.004944094,1.025365353
6.625978,1.403961182,2.760337830,0.452316284,0.002700806,-0.005310304,1.019139767
6.626604,1.701507568,2.790855408,0.490463257,0.003677368,-0.004577883,1.017919064
6.627229,1.609954834,2.951072693,0.322616577,0.001846313,-0.002502687,1.012792110
6.627854,1.655731201,2.790855408,0.536239624,0.001602173,-0.003235109,1.007665157
6.628481,1.960906982,3.012107849,0.650680542,0.001113892,-0.000915773,1.001927853
6.629107,2.006683350,2.943443298,0.665939331,0.000015259,0.002502196,0.998876095
6.629733,1.999053955,2.676414490,0.490463257,0.001968384,0.002868406,0.995336056
6.630358,1.938018799,2.798484802,0.566757202,0.000503540,0.007018797,0.990453243
6.630985,2.205047607,2.745079041,0.482833862,0.000015259,0.006652586,0.987767696
6.631610,2.136383057,2.897666931,0.643051147,-0.002059937,0.010436766,0.980931759
6.644139,0.976715088,2.745079041,-0.447952271,-0.001083374,0.017516844,0.997777462
6.644835,1.159820557,2.966331482,-0.577651978,-0.000228882,0.017150633,0.996922970
6.645461,1.243743896,2.798484802,-0.493728638,0.001846313,0.016662352,0.999242306
6.646087,1.129302979,2.775596619,-0.554763794,-0.000595093,0.018127196,0.999364376
6.646712,1.197967529,2.836631775,-0.570022583,0.000381470,0.015319578,0.999364376
6.647337,1.289520264,2.691673279,-0.364028931,0.002822876,0.014953367,1.002171993
6.647962,1.350555420,2.859519958,-0.714981079,0.001480103,0.013610594,1.002538204
6.648587,1.312408447,2.973960876,-0.699722290,-0.002059937,0.009338133,1.002049923
6.649212,1.320037842,2.813743591,-0.920974731,0.000259399,0.006652586,1.002538204
6.649838,1.335296631,2.989219666,-0.989639282,-0.001327515,0.004455321,1.003758907
6.650463,1.297149658,2.935813904,-0.776016235,-0.001327515,0.000427000,1.007054806
6.651090,1.304779053,3.126548767,-0.814163208,-0.003036499,-0.001159914,1.004735470
6.651715,1.381072998,3.080772400,-0.867568970,-0.003402710,-0.005554445,1.006932735
6.652341,1.159820557,2.890037537,-0.867568970,0.000137329,-0.009460695,1.007054806
6.652966,1.304779053,2.912925720,-0.737869263,-0.003524780,-0.014099367,1.005834103
6.653592,1.251373291,2.836631775,-0.570022583,-0.000717163,-0.016662844,1.003636837
6.654217,1.060638428,2.966331482,-0.638687134,-0.003158569,-0.018127687,1.005712032
6.654843,1.365814209,2.790855408,-0.470840454,-0.005599976,-0.015564211,1.002416134
6.655469,1.526031494,2.882408142,-0.486099243,-0.004867554,-0.013611086,1.001927853
6.656095,1.709136963,3.027366638,-0.447952271,-0.005966187,-0.009582765,1.000463009
6.656722,1.968536377,2.706932068,-0.318252563,-0.006820679,-0.007141359,0.996434689
6.657349,1.968536377,2.317832947,-0.455581665,-0.003646851,-0.003113039,0.998631954
6.657974,2.296600342,2.195762634,-0.631057739,-0.006942749,-0.000549562,0.995946407
6.658600,1.983795166,2.455162048,-0.524246216,-0.005477905,0.006286375,0.991063595
6.659226,2.296600342,2.279685974,-0.455581665,-0.007308960,0.005798094,0.990331173
6.660868,2.205047607,2.378868103,-0.264846802,-0.005477905,0.014465086,0.983251095
6.661493,2.540740967,2.378868103,-0.730239868,0.000381470,0.015197508,0.983251095
6.662119,2.189788818,2.256797791,-0.539505005,-0.004013062,0.014465086,0.979588985
6.662744,2.113494873,2.256797791,-0.631057739,-0.003402710,0.015075438,0.981297970
6.663370,1.815948486,2.279685974,-0.745498657,-0.002670288,0.010436766,0.983006954
6.663997,1.976165771,2.447532654,-0.638687134,-0.004257202,0.009826414,0.980443478
6.664623,1.808319092,2.394126892,-0.638687134,-0.007308960,0.008849852,0.984105587
6.665250,1.701507568,2.371238708,-0.638687134,-0.004501343,0.002990477,0.980565548
6.665876,1.747283936,2.439903259,-0.547134399,-0.007919312,0.000427000,0.980931759
6.666502,1.495513916,2.554344177,-0.791275024,-0.008651733,0.000060789,0.979833126
6.667129,1.358184814,2.371238708,-0.371658325,-0.008895874,-0.002258547,0.982640743
6.667755,1.373443604,2.310203552,-0.653945923,-0.006576538,-0.007995851,0.980321407
6.668380,1.312408447,2.439903259,-0.547134399,-0.007675171,-0.005920656,0.983495235
6.669006,1.548919678,2.188133240,-0.631057739,-0.004745483,-0.000061281,0.984105587
6.669633,1.472625732,2.088951111,-0.798904419,-0.009506226,0.001037352,0.981420040
6.670258,1.449737549,1.943992615,-0.524246216,-0.007675171,0.003844969,0.982640743
6.670884,1.541290283,1.837181091,-0.539505005,-0.004013062,0.005431883,0.984593868
6.671509,1.472625732,1.936363220,-0.501358032,-0.001815796,0.005798094,0.983251095
6.672136,1.640472412,1.600669861,-0.417434692,-0.005111694,0.007507078,0.984593868
6.672763,1.419219971,1.799034119,-0.615798950,-0.002426147,0.009216063,0.986058712
6.673388,1.419219971,1.898216248,-0.440322876,-0.001449585,0.009582274,0.991185665
6.674014,0.984344482,1.913475037,-0.493728638,0.001358032,0.010802977,0.991796017
6.674640,1.091156006,2.027915955,-0.493728638,-0.000961304,0.009216063,0.994115353
6.675265,1.243743896,2.073692322,-0.524246216,0.003311157,0.008117430,0.995702267
6.687846,1.579437256,2.645896912,-0.356399536,-0.002182007,-0.002624758,1.009984493
6.688562,1.724395752,2.912925720,-0.798904419,-0.001083374,0.000549071,1.011205196
6.689187,1.831207275,2.806114197,-0.455581665,-0.001571655,0.002746336,1.009496212
6.689813,1.876983643,2.737449646,-0.692092896,0.000991821,0.000060789,1.009984493
6.690438,1.915130615,3.141807556,-0.592910767,0.000259399,0.000182860,1.009984493
6.691063,2.044830322,2.989219666,-0.440322876,0.000381470,-0.000305422,1.007909298
6.691690,1.777801514,2.958702087,-0.592910767,0.000747681,0.003356688,1.008885860
6.692315,1.846466064,3.126548767,-0.554763794,-0.000473022,0.007751219,1.006566525
6.692941,1.617584229,3.103660583,-0.470840454,0.001846313,0.001403563,1.007665157
6.693566,1.556549072,3.271507263,-0.531875610,0.001113892,-0.000427492,1.003880978
6.694192,1.457366943,3.042625427,-0.379287720,0.001113892,0.000793211,1.006078243
6.694818,1.579437256,3.286766052,-0.470840454,0.001846313,0.001647703,1.004003048
6.695443,1.686248779,3.446983337,-0.302993774,-0.000473022,0.002135985,1.004003048
6.696069,1.266632080,3.523277283,-0.409805298,-0.001205444,-0.002014406,1.004979610
6.696694,1.464996338,3.515647888,-0.547134399,-0.001205444,-0.003235109,1.003270626
6.697321,1.556549072,3.340171814,-0.333511353,-0.001571655,-0.003479250,1.000340939
6.697948,1.678619385,3.500389099,-0.592910767,-0.002792358,-0.002502687,1.004491329
6.698573,1.678619385,3.363059998,-0.272476196,0.000503540,-0.002624758,1.004491329
6.699198,1.678619385,3.523277283,-0.173294067,-0.000228882,-0.004699953,1.005834103
6.699823,1.846466064,3.622459412,-0.173294067,0.000625610,-0.005554445,1.005712032
6.700450,1.678619385,3.508018494,-0.081741333,0.000137329,-0.002746828,1.005467892
6.701076,1.670989990,3.645347595,-0.097000122,0.003311157,-0.006042726,1.003880978
6.701703,1.556549072,3.912376404,-0.432693481,0.002944946,-0.005188234,1.005834103
6.702329,1.732025146,3.942893982,-0.005447388,0.001358032,-0.003723390,1.007298946
6.702955,1.693878174,3.729270935,-0.089370728,0.001113892,-0.007141359,1.007543087
6.703581,1.716766357,3.927635193,0.017440796,0.000503540,-0.005188234,1.005834103
6.704207,1.754913330,4.034446716,-0.074111938,-0.001815796,-0.005920656,1.011083126
6.704833,1.487884521,4.019187927,0.131881714,0.001480103,-0.008239992,1.013402462
6.705459,1.770172119,3.981040955,-0.112258911,0.003799438,-0.009948976,1.012792110
6.706086,1.815948486,4.164146423,0.192916870,0.001113892,-0.008728273,1.014012814
6.706711,1.732025146,4.187034607,0.276840210,0.001480103,-0.009704836,1.012303829
6.707338,1.701507568,4.225181580,-0.074111938,0.002700806,-0.008606203,1.011327267
6.707964,1.732025146,4.438804626,0.200546265,0.000015259,-0.013244875,1.013890743
6.708591,1.999053955,4.408287048,0.192916870,0.003311157,-0.011291750,1.020116329
6.709217,1.846466064,4.591392517,0.238693237,0.000015259,-0.014099367,1.019872189
6.709842,1.922760010,4.324363708,0.406539917,0.001113892,-0.014587648,1.020238400
6.710467,1.800689697,4.789756775,0.398910522,0.001968384,-0.018249758,1.022313595
6.711092,1.945648193,4.843162537,0.421798706,0.003555298,-0.019226320,1.019139767
6.711718,1.915130615,4.949974060,0.520980835,0.002090454,-0.017883547,1.023534298
6.712343,2.288970947,4.766868591,0.543869019,0.002456665,-0.018493898,1.023900509
6.712970,2.151641846,4.957603455,0.582015991,-0.000106812,-0.018249758,1.025975704
6.713597,2.258453369,5.148338318,0.658309937,-0.000595093,-0.020447023,1.023778439
6.714223,2.319488525,5.232261658,0.894821167,0.001235962,-0.019958742,1.024755001
6.714850,2.426300049,5.278038025,0.757492065,0.004287720,-0.019836672,1.024632931
6.715475,2.609405518,5.506919861,0.963485718,0.003311157,-0.020202883,1.023168087
6.716100,2.525482178,5.339073181,0.917709351,0.003799438,-0.020080812,1.027196407
6.716726,2.617034912,5.514549255,1.184738159,0.002822876,-0.021789797,1.027806759
6.717351,2.761993408,5.682395935,1.253402710,0.004653931,-0.022278078,1.029393673
6.717977,2.823028564,5.896018982,1.390731812,0.003555298,-0.027038820,1.029881954
6.718604,2.670440674,5.964683533,1.505172729,0.000259399,-0.029846437,1.028539181
6.731196,4.066619873,7.681297302,3.992355347,-0.009017944,-0.037414797,1.013280392
6.731900,4.257354736,7.627891541,4.183090210,-0.011581421,-0.037414797,1.010350704
6.732527,4.303131104,7.620262146,4.190719604,-0.008651733,-0.034363039,1.009130001
6.733152,4.394683838,7.727073669,4.312789917,-0.010604858,-0.032531984,1.008153439
6.733778,4.745635986,7.681297302,4.442489624,-0.008285522,-0.033264406,1.008519650
6.734404,4.562530518,7.681297302,4.640853882,-0.006454468,-0.033996828,1.005223751
6.735038,5.005035400,7.879661560,4.732406616,-0.002670288,-0.033752687,1.010838985
6.735663,5.043182373,8.016990662,4.839218140,-0.004501343,-0.034118898,1.008763790
6.736288,5.005035400,7.894920349,4.854476929,-0.004135132,-0.033386476,1.006932735
6.736915,5.088958740,8.154319763,4.907882690,-0.004745483,-0.027160890,1.004613400
6.737541,4.951629639,8.131431580,5.319869995,-0.013656616,-0.003601320,1.000096798
6.738166,4.722747803,7.955955505,5.419052124,-0.039657593,0.036315672,0.988744259
6.738791,3.936920166,6.231712341,5.487716675,-0.059799194,0.073425047,0.963841915
6.739416,2.876434326,4.789756775,5.480087280,-0.065292358,0.076965086,0.937230587
6.740042,1.663360596,3.729270935,5.556381226,-0.068344116,0.048034422,0.915257931
6.740668,0.793609619,3.614830017,5.441940308,-0.057846069,0.010558836,0.893041134
6.741293,0.206146240,3.973411560,5.197799683,-0.050521851,-0.022644289,0.871556759
6.741920,-0.449981689,4.621910095,4.884994507,-0.042709351,-0.034363039,0.851781368
6.742547,-1.159515381,5.125450134,4.877365112,-0.036972046,-0.029846437,0.832005978
6.743174,-1.159515381,4.835533142,4.801071167,-0.032333374,-0.026916750,0.816258907
6.743799,-0.999298096,4.461692810,5.548751831,-0.022079468,-0.022766359,0.804296017
6.744425,-0.724639893,3.515647888,5.838668823,-0.010116577,-0.024597414,0.796727657
6.745051,0.290069580,2.836631775,6.136215210,-0.006820679,-0.021301515,0.798314571
6.745677,1.251373291,2.119468689,6.449020386,-0.008773804,-0.018371828,0.803319454
6.746303,2.197418213,1.303123474,6.685531616,-0.023666382,-0.010315187,0.806737423
6.746928,2.731475830,1.379417419,6.662643433,-0.030990601,-0.007141359,0.814549923
6.747554,3.242645264,1.753257751,6.677902222,-0.038192749,-0.008117922,0.832616329
6.748179,3.647003174,1.905845642,6.288803101,-0.041122437,-0.009582765,0.858129025
6.748804,3.654632568,2.195762634,6.174362183,-0.035995483,-0.011413820,0.880589962
6.749431,3.738555908,2.394126892,6.082809448,-0.034652710,-0.005798586,0.910863400
6.750057,3.898773193,2.371238708,5.983627319,-0.025253296,0.007507078,0.940648556
6.750684,3.517303467,2.127098083,5.983627319,-0.017684937,0.015319578,0.965917110
6.751311,2.899322510,1.120018005,6.128585815,-0.015609741,0.022887938,0.988866329
6.751938,1.968536377,0.784324646,6.250656128,-0.012435913,0.024230711,1.011083126
6.752563,1.274261475,0.357078552,6.487167358,-0.003402710,0.020812742,1.029271603
6.753190,0.473175049,0.265525818,6.479537964,-0.002426147,0.017028563,1.041478634
6.753816,-0.251617432,0.532554626,6.670272827,0.000503540,0.014465086,1.049046993
6.754441,-1.006927490,0.814842224,6.586349487,-0.000839233,0.016540281,1.057836056
6.755067,-1.479949951,0.952171326,6.639755249,-0.003646851,0.018249266,1.058080196
6.755692,-1.937713623,1.264976501,6.372726440,-0.006210327,0.009460203,1.055272579
6.756319,-2.014007568,1.226829529,6.487167358,-0.004623413,0.000060789,1.056493282
6.756946,-1.769866943,1.242088318,6.349838257,-0.005599976,-0.010559328,1.054540157
6.757572,-1.632537842,1.409934998,6.471908569,-0.007553101,-0.016784914,1.052587032
6.758198,-0.823822021,1.623558044,6.380355835,-0.004745483,-0.020569094,1.052587032
6.758823,-0.434722900,1.776145935,6.426132202,-0.005966187,-0.027038820,1.050633907
6.759449,-0.037994385,1.623558044,6.403244019,-0.006942749,-0.021789797,1.049169064
6.761154,0.923309326,1.234458923,6.548202515,-0.006088257,-0.015808351,1.039159298
6.761779,1.220855713,1.318382263,6.883895874,-0.008773804,-0.016418703,1.036229610
6.762406,1.594696045,1.211570740,6.777084351,-0.007431030,-0.009826906,1.028295040
6.775063,1.434478760,1.554893494,7.646835327,0.002578735,-0.002380617,0.993260860
6.775801,1.587066650,1.509117126,7.570541382,0.005996704,-0.000671633,1.004369259
6.776426,1.121673584,1.844810486,7.852828979,0.009048462,0.002624266,1.012792110
6.777052,0.923309326,1.699851990,8.013046265,0.009414673,0.007018797,1.020482540
6.777678,0.740203857,1.623558044,7.959640503,0.008071899,0.012267821,1.025975704
6.778304,0.366363525,1.646446228,7.845199585,0.004287720,0.009948485,1.032445431
6.778929,0.244293213,1.799034119,8.112228394,0.000869751,0.010558836,1.037572384
6.779556,-0.091400146,2.043174744,7.715499878,0.005996704,0.011291258,1.041112423
6.780181,-0.564422607,1.936363220,7.822311401,0.004287720,0.009582274,1.044042110
6.780808,-0.671234131,2.310203552,7.913864136,0.005020142,0.005065672,1.047948360
6.781434,-0.686492920,2.623008728,7.768905640,0.015518188,0.001525633,1.046605587
6.782059,-0.625457764,2.600120544,7.662094116,0.022354126,-0.000671633,1.051732540
6.782686,-0.442352295,2.874778748,7.684982300,0.023941040,-0.003845461,1.054296017
6.789936,1.693878174,4.034446716,7.036483765,-0.002548218,0.004699461,1.037206173
6.790743,1.411590576,3.874229431,7.128036499,0.000991821,0.003234617,1.027318478
6.791531,1.594696045,3.904747009,6.983078003,0.005996704,-0.002380617,1.007909298
6.792278,1.464996338,3.942893982,7.135665894,0.009170532,-0.001404054,0.997777462
6.793018,1.518402100,3.767417908,7.044113159,0.005142212,0.003356688,0.989110470
6.793771,1.320037842,3.599571228,7.059371948,0.000381470,0.004577391,0.973485470
6.794482,1.709136963,3.302024841,6.952560425,-0.005355835,0.007385008,0.965672970
6.795217,1.930389404,3.378318787,7.082260132,-0.013778687,0.009826414,0.948094845
6.795912,1.983795166,3.294395447,6.983078003,-0.021469116,0.011657469,0.937474728
6.796653,2.166900635,3.744529724,7.051742554,-0.023788452,0.010680906,0.936254025
6.797391,2.121124268,3.317283630,6.906784058,-0.025253296,0.013122313,0.930516720
6.798131,2.128753662,3.317283630,6.990707397,-0.026107788,0.018005125,0.930760860
6.798844,2.014312744,3.416465759,6.845748901,-0.025619507,0.016296141,0.929296017
6.799544,1.777801514,3.019737244,6.868637085,-0.024154663,0.020324461,0.932958126
6.800171,1.876983643,3.118919373,6.922042847,-0.023544312,0.017883055,0.932347775
6.800796,1.495513916,2.928184509,6.746566772,-0.022079468,0.012634031,0.933568478
6.801422,1.152191162,2.844261169,6.944931030,-0.023056030,0.013366453,0.938939571
6.802047,0.991973877,2.600120544,7.112777710,-0.023544312,0.011047117,0.938085079
6.802673,0.442657471,2.500938416,6.922042847,-0.025375366,0.007385008,0.939916134
6.803299,-0.030364990,2.348350525,7.021224976,-0.024276733,0.003356688,0.939427853
6.803924,-0.167694092,2.417015076,7.150924683,-0.023788452,0.001403563,0.944921017
6.804549,-0.572052002,2.172874451,7.120407104,-0.023788452,0.002624266,0.947606564
6.805176,-0.442352295,1.844810486,7.387435913,-0.020248413,-0.002624758,0.950414181
6.805803,-0.442352295,1.844810486,7.387435913,-0.020248413,-0.002624758,0.950414181
6.806430,-0.511016846,1.684593201,7.189071655,-0.021713257,-0.012756594,0.955052853
6.807055,-0.617828369,1.783775330,7.463729858,-0.017929077,-0.015930422,0.962987423
6.807681,-0.503387451,1.539634705,7.463729858,-0.019027710,-0.019592531,0.966527462
6.808306,-0.533905029,1.867698669,7.478988647,-0.012802124,-0.018371828,0.972630978
6.808932,-0.297393799,1.768516541,7.593429565,-0.013412476,-0.025207765,0.980199337
6.809559,-0.045623779,1.593040466,7.860458374,-0.014511108,-0.031189211,0.989110470
6.810186,0.091705322,1.654075623,7.753646851,-0.010971069,-0.029968508,0.994481564
6.810811,0.221405029,1.806663513,8.142745972,-0.012191772,-0.031921633,1.005589962
6.811437,0.290069580,1.646446228,7.845199585,-0.012924194,-0.027893312,1.012792110
6.812063,0.465545654,1.478599548,8.051193237,-0.013168335,-0.027038820,1.017796993
6.812689,0.717315674,1.448081970,8.707321167,-0.011337280,-0.031311281,1.021337032
6.813315,0.465545654,1.432823181,8.577621460,-0.010116577,-0.033630617,1.023900509
6.813940,0.518951416,1.242088318,8.798873901,-0.012435913,-0.037048586,1.026708126
6.826519,1.541290283,2.088951111,12.377059937,-0.009750366,-0.062195070,1.000218868
6.827271,1.197967529,2.249168396,12.476242065,-0.007064819,-0.066711672,1.004003048
6.827896,1.022491455,2.378868103,12.781417847,-0.001815796,-0.070617922,1.000340939
6.828523,0.816497803,2.447532654,13.124740601,-0.001449585,-0.070984133,0.999974728
6.829149,0.526580811,2.348350525,13.376510620,0.001480103,-0.070251711,0.999974728
6.829774,0.442657471,2.439903259,13.956344604,-0.002670288,-0.074524172,1.000951290
6.830400,0.404510498,2.577232361,14.345443726,-0.004135132,-0.079162844,1.000829220
6.831026,0.335845947,2.615379333,14.704025269,-0.009506226,-0.078064211,1.001683712
6.831651,0.274810791,2.493309021,15.001571655,-0.014266968,-0.078918703,0.999608517
6.832277,0.541839600,2.996849060,14.971054077,-0.017929077,-0.076965578,0.995946407
6.832904,0.648651123,2.859519958,15.161788940,-0.015609741,-0.077575929,1.001561642
6.833531,0.740203857,2.966331482,15.360153198,-0.017196655,-0.082580812,1.001317501
6.834156,0.915679932,2.973960876,15.398300171,-0.008773804,-0.091491945,1.007543087
