time,gyro x,gyro y,gyro z,accel x,accel y,accel z
20.846816,2.098224640,-6.134460449,1.342617035,-0.040760193,-0.011036437,1.035911441
20.885323,3.982685089,-6.462524414,1.190029144,-0.053699646,0.005565125,1.003074527
20.899594,2.845905304,-5.096862793,0.808559418,-0.052723084,0.003001649,1.000999331
20.914957,1.091144562,-3.464172363,0.648342133,-0.055652771,-0.011280578,1.002830386
20.953259,0.686786652,3.600646973,-0.785984039,-0.046619568,0.005076844,1.002220035
20.991558,-0.022747040,3.028442383,-0.419773102,-0.037342224,0.011180360,1.015769839
21.005831,0.305316925,2.204467773,-0.312961578,-0.037098084,0.007152040,1.012718081
21.021175,-0.602581024,-0.420043945,-0.137485504,-0.026600037,-0.001759093,0.985374331
21.059444,-3.387310028,-1.846740723,0.053249359,-0.051990662,-0.000050109,1.016380191
21.097739,-3.845073700,-2.289245605,-0.244297028,-0.025013123,0.002025086,0.999168277
21.112013,-3.532268524,-4.600952148,-0.168003082,-0.027576599,0.010081727,1.006370425
21.127365,-1.090862274,-8.064697266,0.518642426,-0.029407654,0.014476258,0.997947574
21.165650,-0.587322235,-9.300659180,0.541530609,-0.037220154,0.001536805,0.978782535
21.203955,0.473163605,-8.949707031,0.617824554,-0.028064881,0.006419618,1.012962222
21.218217,1.152179718,-7.988403320,0.602565765,-0.033680115,0.000071961,0.991477847
21.233567,0.869892120,-7.416198730,0.762783051,-0.022449646,-0.008350890,1.020042300
21.271868,-0.221111298,-6.126831055,0.541530609,-0.024768982,-0.001270812,1.023460269
21.310181,-0.007488251,-3.700683594,0.465236664,-0.027820740,-0.004322570,1.002830386
21.324442,-0.160076141,-2.861450195,0.320278168,-0.023182068,-0.002003234,1.018699527
21.339792,-0.053264618,-1.068542480,-0.030673981,-0.028431091,0.004344422,0.988914371
21.378089,-0.076152802,2.799560547,-0.213779449,-0.025013123,0.004222352,0.991844058
21.416424,-0.091411591,3.371765137,-0.244297028,-0.017810974,0.002025086,0.995506167
21.430687,0.000141144,2.456237793,-0.267185211,-0.019031677,-0.000050109,0.996482730
21.446034,-0.228740692,0.518371582,0.411830902,-0.009143982,0.000804383,1.000999331
21.496452,0.076435089,1.273681641,0.465236664,-0.029407654,0.001658875,0.998313785
21.534893,-0.182964325,2.028991699,0.121913910,-0.035633240,0.000682313,0.996726871
21.549155,-0.182964325,0.724365234,0.923000336,-0.018543396,0.002513368,0.999900699
21.564453,-0.068523407,-1.053283691,-0.312961578,-0.006702576,0.000560243,0.999656558
21.602752,-0.053264618,-1.984069824,-0.610507965,-0.020862732,-0.000538390,1.005760074
21.641080,0.114582062,-0.534484863,-0.206150055,-0.027820740,-0.000050109,1.002464175
21.655349,0.084064484,-0.770996094,0.488124847,-0.026844177,-0.001270812,0.998191714
21.670640,0.061176300,-1.205871582,0.663600922,-0.015735779,-0.000050109,0.997337222
21.708928,0.106952667,3.287841797,0.099025726,-0.025013123,0.003245790,1.003440738
21.747264,0.061176300,5.782653809,-0.579990387,-0.053699646,-0.003590148,0.998435855
21.761524,-0.190593719,5.080749512,0.160060883,-0.048816834,-0.002735656,0.997215152
21.776846,-0.335552216,5.981018066,0.137172699,-0.015613709,0.002391297,1.003440738
21.815148,-0.007488251,5.591918945,-0.534214020,-0.041004334,-0.002613585,0.997459292
21.853470,-0.083782196,3.272583008,-0.724948883,-0.022327576,0.004100282,1.006370425
21.867740,0.198505402,3.379394531,-1.053012848,-0.038074646,0.003856141,1.001487613
21.883057,0.167987823,1.052429199,0.144802094,-0.056629334,-0.006153625,0.996360660
21.921358,-0.602581024,-7.355163574,0.076137543,-0.024158631,0.001903016,1.001853824
21.959672,0.579975128,-5.211303711,-1.190341949,-0.006458435,0.004222352,1.007835269
21.973952,0.839374542,-2.190063477,0.686489105,-0.037952576,-0.000782531,1.000388980
21.989263,0.602863312,-1.640747070,0.076137543,-0.038196716,-0.002369445,1.002952456
22.027547,-0.366069794,-2.975891113,0.579677582,-0.051868591,0.000194032,0.999290347
22.065884,-0.007488251,-1.587341309,-0.114597321,-0.020862732,0.001414735,0.997947574
22.080151,0.053546906,-1.190612793,-0.137485504,-0.024768982,0.000560243,1.003074527
22.095472,0.160358429,-1.213500977,0.366054535,-0.062122498,-0.002613585,0.999900699
22.145866,-0.114299774,3.638793945,-0.976718903,-0.032215271,0.003123719,0.998557925
22.197910,-0.343181610,-1.099060059,-0.457920074,-0.008899841,0.000682313,1.000144839
22.212209,0.061176300,-0.687072754,-0.610507965,-0.027454529,0.003245790,1.004905581
22.227538,0.229022980,0.022460938,-0.290073395,-0.037464295,0.000194032,1.004661441
22.265923,-0.030376434,1.800109863,0.282131195,-0.043323670,-0.004200500,1.002708316
22.304278,0.007770538,2.601196289,-0.404514313,-0.026966248,0.002513368,1.003196597
22.318563,0.175617218,2.524902344,-0.412143707,-0.033191834,0.001658875,1.002952456
22.333893,0.038288116,3.356506348,-0.099338531,-0.036487732,-0.001148742,0.999778628
22.372213,-0.045635223,5.775024414,0.251613617,-0.046497498,0.001903016,1.001121402
22.410532,-0.366069794,2.990295410,-1.106418610,-0.036731873,-0.001881164,0.999778628
22.424840,-0.297405243,0.968505859,0.320278168,-0.035633240,-0.000416320,0.995750308
22.440170,-0.114299774,-1.610229492,0.526271820,-0.007068787,0.001414735,1.002708316
22.478472,0.335834503,-3.395507812,1.006923676,-0.054798279,-0.001514953,0.999290347
22.516881,-0.076152802,-5.897949219,1.243434906,-0.024036560,0.001048524,0.996848941
22.531199,-0.076152802,-6.767700195,0.137172699,-0.017200623,0.001780946,1.003929019
22.546531,0.129840851,-5.936096191,0.152431488,-0.020740662,0.002757508,1.006126285
22.584870,0.335834503,0.495483398,-0.015415192,-0.042225037,0.000804383,1.003074527
22.623183,-0.198223114,1.182128906,1.304470062,-0.033802185,-0.000538390,1.003684878
22.637460,-0.274517059,2.868225098,-0.847019196,-0.014637146,0.005198915,1.000755191
22.652793,-0.251628876,2.624084473,-1.403964996,-0.034534607,0.001658875,0.998069644
22.691123,-0.030376434,4.439880371,-1.098789215,-0.025379334,0.001658875,1.003318667
22.729471,0.076435089,8.674194336,-0.373996735,-0.055408631,0.001170594,0.999900699
22.743760,0.007770538,9.238769531,-0.412143707,-0.055164490,-0.000416320,0.996971011
22.759093,-0.388957977,9.131958008,-0.435031891,-0.051014099,-0.002979796,1.001121402
22.811097,-0.366069794,4.630615234,-0.557102203,0.002330627,0.006663758,1.008079410
22.849517,0.389240265,7.102539062,-0.373996735,-0.073719174,-0.002613585,1.001975894
22.863869,0.045917511,5.622436523,-0.816501617,-0.077381283,-0.002247375,0.991355777
22.879221,-0.526287079,1.205017090,1.708827972,-0.042835388,-0.002857726,0.995994449
22.917505,0.274799347,0.884582520,-1.419223785,-0.070179135,0.003001649,0.999534488
22.955816,-0.266887665,-0.145385742,-0.885166168,-0.045765076,-0.001270812,1.000877261
22.970099,-0.228740692,0.091125488,-1.228488922,-0.052234802,-0.000172179,0.999290347
22.985427,-0.022747040,-1.968811035,-0.213779449,-0.061390076,-0.000660460,0.997825503
23.023706,-0.541545868,-3.113220215,-0.435031891,-0.054554138,-0.001759093,0.997825503
23.061984,0.152729034,-2.922485352,1.853786469,-0.051136170,0.002635438,0.992698550
23.076250,-0.976421356,0.899841309,-0.229038239,-0.037342224,-0.003956359,0.987571597
23.091577,-1.907207489,2.616455078,-1.571811676,-0.045276795,-0.005665343,1.003806949
23.129865,1.930377960,0.350524902,1.869045258,-0.058948670,-0.007008117,0.996604800
23.168155,-5.042888641,7.888366699,-1.243747711,-0.081531674,0.034862000,1.063011050
23.182438,-3.135540009,7.247497559,-0.419773102,-0.069202572,0.027903993,1.052879214
23.197764,2.922199249,7.621337891,-0.938571930,-0.087879330,0.010570008,0.969871402
23.236053,-4.798748016,2.646972656,0.114284515,-0.025623474,-0.021900695,0.939109683
23.274348,1.915119171,-1.869628906,0.999294281,-0.069446713,0.026805360,1.042747378
23.288632,4.326007843,-2.190063477,0.930629730,-0.059681091,0.017894227,0.977928042
23.303984,1.411579132,-3.036926270,-0.671543121,-0.047474060,-0.035572570,0.971336246
23.342265,-3.959514618,-7.919738770,0.205837250,-0.070301205,0.000560243,0.984031558
23.380537,0.847003937,-9.338806152,1.632534027,-0.034778748,0.003978211,1.023216128
23.394828,0.953815460,-3.738830566,-1.442111969,-0.045887146,-0.007130187,0.985740542
23.424051,-2.540447235,-4.196594238,-0.648654938,-0.091053158,-0.022633117,0.980491519
23.462469,1.922748566,-3.029296875,-0.267185211,-0.065662533,-0.038380187,1.040794253
23.515461,-3.944255829,-5.592773438,6.370388031,-0.065540463,-0.017262023,1.003440738
23.529855,-2.654888153,-6.470153809,5.134426117,-0.052845154,-0.001270812,1.015769839
23.545226,-0.587322235,-7.179687500,5.599819183,-0.069446713,-0.008717101,1.009055972
23.583524,-4.127361298,-5.676696777,2.273403168,-0.039051209,-0.013844054,0.974632144
23.621860,-5.187847137,-17.052124023,7.995449066,-0.017078552,-0.005787414,1.065696597
23.636163,-2.044536591,-18.486450195,8.239589691,-0.014026795,-0.001392882,1.033714175
23.651527,0.221393585,-18.730590820,6.805263519,-0.023426209,-0.035084289,0.954612613
23.689860,-5.897380829,-12.474487305,6.049953461,-0.004749451,-0.019581359,1.029685855
23.728164,-4.478313446,3.341247559,2.441249847,-0.023182068,-0.016407531,1.032737613
23.742452,-5.653240204,8.147766113,3.120265961,-0.017444763,-0.007130187,1.016990542
23.757813,-5.493022919,10.276367188,3.257595062,-0.016101990,0.005565125,0.985130191
23.796195,-3.486492157,18.889953613,1.388393402,-0.011707459,-0.030201476,1.043235660
23.834533,-2.799846649,9.437133789,4.424892426,-0.041736756,-0.055714171,0.996482730
23.848851,-2.944805145,5.889465332,4.249416351,-0.018787537,-0.068897769,1.039207339
23.864195,-3.646709442,-0.221679688,3.387294769,-0.020496521,-0.031300109,1.012718081
23.902552,-2.296306610,-15.327880859,7.415615082,0.011485901,-0.006886046,1.004783511
23.940883,-3.013469696,-22.537658691,8.224330902,0.005992737,-0.023365539,0.982932925
23.955177,-3.364421844,-21.187255859,8.201442719,0.030650940,-0.033009093,0.995384097
23.970530,-2.235271454,-15.068481445,3.303371429,0.033336487,-0.049244445,1.056541324
24.008868,-4.470684052,-1.488159180,0.144802094,0.022228088,0.014598329,0.985252261
24.047175,1.403949738,0.686218262,0.335536957,-0.012073670,-0.071217105,1.005515933
24.078140,-0.175334930,2.540161133,-1.251377106,0.025279846,-0.073536441,0.989280581
24.092461,-3.738262177,-4.517028809,-0.534214020,-0.033558045,-0.038990539,0.998069644
24.130659,-2.021648407,-14.236877441,6.469570160,0.003673401,-0.012867492,1.015403628
24.168984,-2.380229950,2.624084473,2.380214691,0.015270080,-0.073292300,1.041160464
24.183269,-2.647258759,6.934692383,2.136074066,0.010997619,-0.054371398,0.999046206
24.198590,-3.455974579,12.778808594,3.051601410,0.022228088,-0.032032531,0.987083316
24.236897,-2.998210907,22.597839355,-1.190341949,0.010875549,-0.062061828,1.016990542
24.275240,-6.164409637,25.497009277,-2.327121735,-0.003772888,-0.036549132,1.059959292
24.289526,1.838825226,20.812561035,-1.320041656,-0.006580506,-0.052784484,1.048606753
24.304872,4.951618195,18.157531738,-1.281894684,0.007091369,-0.088917300,1.038841128
24.343189,-3.944255829,4.027893066,-1.533664703,-0.054432068,-0.060108703,1.042869449
24.381501,7.019184113,-5.585144043,2.364955902,-0.015491638,-0.031178039,0.972801089
24.395813,6.607196808,-5.051086426,0.762783051,-0.008045349,-0.057789367,0.941673160
24.411123,-2.189495087,-5.409667969,0.358425140,-0.023670349,-0.064137027,0.907005191
24.449457,-7.270671844,-11.551330566,1.251064301,-0.038684998,-0.005909484,1.005393863
24.487771,-4.127361298,0.960876465,-0.084079742,0.017711487,-0.035206359,1.008079410
24.502068,-6.797649384,6.232788086,-2.945102692,0.005138244,-0.048023742,1.042625308
24.517392,-8.758403778,10.901977539,-4.394687653,-0.055530701,-0.026295226,1.118064761
24.555701,0.442646027,15.037109375,-1.968540192,-0.008533631,-0.005787414,1.107810855
24.594037,-2.265789032,19.195129395,-7.576145172,-0.053211365,-0.057911437,1.129051089
24.608334,0.808856964,13.625671387,-2.098239899,-0.046375427,-0.037891906,1.162132144
24.623661,4.036090851,11.077453613,-2.807773590,-0.011219177,-0.030445617,1.152000308
24.661982,6.790302277,2.296020508,-9.895481110,-0.076526791,-0.034596007,1.065452456
24.715903,17.387531281,-10.162780762,-5.310214996,-0.048694763,0.020823915,1.040916324
24.730240,17.715595245,-10.208557129,-6.134189606,-0.066761166,-0.009571593,1.029075503
24.745621,13.038776398,-13.336608887,-4.219211578,-0.085315853,-0.150318667,0.995262027
24.783944,5.760334015,-8.766601562,-3.280796051,-0.053699646,-0.049610656,1.000755191
24.838214,5.172870636,-9.781311035,1.418910980,-0.072254330,-0.002857726,1.037742496
24.852535,5.493305206,-8.438537598,1.533351898,-0.057483826,-0.034107726,1.025901675
24.867874,2.632282257,-1.533935547,-1.579441071,-0.023059998,-0.005177062,1.032493472
24.906198,5.005023956,2.723266602,0.564418793,-0.091175228,-0.057545226,1.041526675
24.944500,2.929828644,4.890014648,2.982936859,-0.060169373,-0.001148742,1.060081363
24.958819,5.149982452,7.400085449,1.785121918,-0.048938904,0.004710633,1.044700503
24.974165,4.409931183,13.244201660,0.182949066,-0.021351013,-0.013233703,1.043479800
25.012489,3.997943878,17.303039551,-1.167453766,-0.071521908,0.001170594,1.052024722
25.050825,9.048603058,6.324340820,4.386745453,-0.056751404,-0.077442691,0.966209292
25.065119,-0.152446747,12.382080078,-0.847019196,0.002574768,-0.032520812,0.992698550
25.080470,-1.540996552,16.089965820,-2.250827789,-0.016224060,-0.014820617,1.031516910
25.118781,11.482379913,20.362426758,-3.807224274,-0.102527767,-0.004322570,0.972190738
25.157105,4.104755402,16.089965820,-1.770175934,-0.065662533,-0.036304992,0.977805972
25.171423,4.501483917,16.212036133,-1.564182281,-0.070789486,-0.007496398,0.985496402
25.186778,10.208271027,14.174987793,-2.113498688,-0.084949642,0.021190125,0.957054019
25.225114,2.205036163,-1.579711914,0.327907562,-0.118763119,0.001414735,0.928855777
25.263453,3.364704132,-12.596557617,2.647243500,-0.109974056,0.067088559,0.941062808
25.277758,3.883502960,-13.992736816,3.242336273,-0.105823666,0.055858094,0.931907535
25.293109,3.608844757,-19.501159668,2.624355316,-0.137806088,0.036082704,0.899558902
25.331446,0.663898468,-28.770874023,8.819423676,-0.145740658,0.007029969,0.896018863
25.385868,-6.584026337,-21.706054688,8.323513031,-0.120960385,-0.019093078,0.934471011
25.400286,-7.133342743,-18.646667480,9.864650726,-0.111438900,-0.032520812,0.956077456
25.415699,-10.345317841,-9.018371582,8.972011566,-0.077991635,0.024363954,0.928733706
25.454030,-7.522441864,6.507446289,8.354030609,-0.089344174,-0.016895812,0.965598941
25.492316,-11.642314911,12.916137695,4.951320648,-0.053333435,-0.022266906,0.973045230
25.506621,-10.810710907,13.778259277,3.219448090,-0.057117615,-0.031178039,0.973777652
25.521975,-13.442852020,11.909057617,3.784023285,-0.083362728,-0.021046203,0.988426089
25.560261,-8.514263153,4.455139160,7.308803558,-0.063465267,-0.019459289,0.984886050
25.598534,-8.102275848,3.760864258,5.103908539,-0.086414486,-0.040943664,1.063133121
25.612831,-2.517559052,-0.130126953,9.307704926,-0.091541439,-0.042408507,1.055808902
25.628166,-1.495220184,-0.114868164,9.490810394,-0.071888119,-0.028370421,1.022727847
25.666465,-1.624919891,3.661682129,7.140956879,-0.073352963,-0.033497375,1.082054019
25.704745,5.104206085,2.074768066,8.750759125,-0.078724056,0.003245790,1.054221988
25.719023,6.240985870,3.608276367,7.362209320,-0.075428158,0.025218446,1.010154605
25.734364,4.203937531,2.463867188,7.011257172,-0.071643978,0.002757508,1.029929996
25.772701,11.947772980,-3.624389648,9.727321625,-0.060169373,-0.027882140,1.084983706
25.811040,10.604999542,0.457336426,9.399257660,-0.109851986,-0.052540343,1.014915347
25.825336,8.911273956,-2.212951660,12.389980316,-0.096180111,-0.037403625,1.073387027
25.840669,17.494342804,-3.418395996,12.534938812,-0.077747494,-0.039845031,1.135154605
25.878987,12.001178741,13.221313477,6.156764984,-0.058826599,0.016429383,0.898216128
25.917285,5.241535187,7.979919434,6.904445648,-0.108387142,0.044505555,1.017234683
25.931570,12.420795441,4.714538574,9.620510101,-0.079822689,0.067698911,1.014915347
25.946903,14.190814972,5.805541992,8.758388519,-0.068226010,0.071238950,0.971824527
25.985218,4.532001495,0.709106445,2.204738617,-0.069202572,0.010447938,0.929832339
26.038270,12.153766632,-13.870666504,8.285366058,-0.024646912,0.053416688,0.954002261
26.052632,12.161396027,-15.861938477,7.606349945,-0.015979920,0.028148133,0.907859683
26.068022,3.013751984,-17.677734375,5.264125824,-0.036365662,-0.037159484,0.917137027
26.106336,-1.075603485,-14.702270508,8.361660004,-0.016101990,-0.013721984,1.015891910
26.156397,0.335834503,18.050720215,-4.623569489,-0.030384216,0.021800477,1.084251285
26.170718,2.166889191,15.754272461,-4.921115875,-0.062976986,0.058909852,1.093650699
26.186099,4.684589386,12.145568848,-3.875888824,-0.084095150,0.044139344,1.112327456
26.224453,10.864398956,10.276367188,-2.342380524,-0.033680115,-0.002491515,1.150779605
26.262893,12.626789093,25.199462891,-3.730930328,-0.017566834,0.015819032,1.093284488
26.277224,13.794086456,22.300292969,-13.954319000,-0.093860775,0.041087586,1.064353824
26.292620,15.258930206,15.426208496,-10.269321442,-0.171741635,0.055736024,1.039573550
26.330947,16.883991241,-1.701782227,0.091396332,-0.068958431,0.091380551,0.994285464
26.369287,16.479633331,-13.550231934,7.530056000,-0.111194760,0.110057309,0.973655581
26.383600,15.953205109,-15.015075684,4.745326996,-0.101062924,0.109202817,0.972801089
26.398987,18.943927765,-18.135498047,4.409633636,-0.151966244,0.091380551,0.939964175
26.437296,10.521076202,-16.479919434,5.302272797,-0.117420346,0.086986020,0.937888980
26.475660,9.903095245,-3.921936035,4.699550629,-0.123401791,0.088817075,0.915672183
26.489956,10.673664093,0.579406738,5.370937347,-0.115833431,0.082835630,0.904929996
26.505321,7.652423859,10.459472656,3.982387543,-0.102893978,0.082225278,0.835349917
26.543675,1.258991241,21.041442871,4.562221527,-0.096302181,0.066111997,0.887718081
26.582022,-0.419475555,26.191284180,3.578029633,-0.103504330,0.051585633,0.872459292
26.596320,-3.906108856,25.603820801,3.799282074,-0.089710385,0.068675473,0.886985660
26.623648,-3.990032196,22.620727539,3.959499359,-0.104969174,0.071605161,0.912620425
26.662086,-4.684307098,12.427856445,6.606899261,-0.101795346,0.082835630,0.906028628
26.700458,-6.324626923,3.066589355,7.613979340,-0.087146908,0.137156919,0.902732730
26.714750,-7.560588837,-0.366638184,8.994899750,-0.106800228,0.143626645,0.916770816
26.730097,-8.170940399,-0.008056641,9.582363129,-0.102771908,0.146190122,0.932639956
26.768443,-8.758403778,2.547790527,10.490261078,-0.092518002,0.176463559,0.954002261
26.806782,-10.215618134,8.941223145,7.827602386,-0.079578549,0.202708676,0.995017886
26.821083,-8.941509247,12.321044922,7.339321136,-0.074085385,0.212108091,1.002708316
26.836431,-7.186748505,15.792419434,5.714260101,-0.065418392,0.224437192,0.978782535
26.874775,-8.018352509,19.355346680,3.082118988,-0.039295349,0.241282895,1.029441714
26.913128,-4.348613739,25.817443848,-1.785434723,-0.045276795,0.244578794,1.008445621
26.927430,-5.340435028,26.992370605,-2.273715973,-0.035267029,0.244212583,1.011741519
26.942784,-4.897930145,31.173278809,-4.676975250,-0.003650818,0.221507505,1.056297183
26.981137,0.373981476,35.293151855,-11.017002106,-0.027088318,0.178416684,1.080345035
27.019473,4.577777863,29.853393555,-13.473667145,-0.025623474,0.127635434,1.060447574
27.033763,2.716205597,20.919372559,-17.662204742,-0.059314881,0.105052426,1.109153628
27.049107,3.120563507,12.420227051,-18.264926910,-0.096912533,0.106517270,1.138084292
27.087466,15.228412628,-6.241271973,-14.213718414,-0.009143982,0.143992856,1.047263980
27.125792,9.674213409,-6.111572266,-16.723789215,-0.039661560,0.077708676,1.145652652
27.140092,12.848041534,-5.058715820,-19.424594879,-0.028186951,0.091746762,1.138694644
27.155440,20.813129425,-7.263610840,-24.002231598,-0.104847103,0.076854184,1.069358706
27.193771,14.274738312,-2.067993164,-26.535190582,0.002452698,0.087840512,0.961570621
27.244197,17.173908234,-7.820556641,-30.365146637,-0.002674256,0.099437192,0.737693667
27.258529,13.160846710,-18.021057129,-40.123142242,-0.128528744,0.069896176,0.680442691
27.273920,-4.974224091,-52.208374023,-27.504123688,-0.308948666,-0.001759093,0.860496402
27.312267,-2.220012665,-104.614685059,-21.232761383,-0.241687924,0.176097348,0.914329410
27.350615,-4.470684052,-72.662780762,-18.516696930,-0.015491638,0.102611020,1.037742496
27.364922,-4.722454071,-57.663391113,-22.361911774,-0.081287533,0.076732114,1.041770816
27.380286,-4.478313446,-35.812805176,-20.454563141,-0.148182064,0.076365903,0.991599917
27.432132,-11.466838837,22.071411133,-23.018039703,-0.070057064,0.153148130,1.014060855
27.470525,-12.206890106,38.070251465,-24.048007965,-0.159168392,0.026317079,0.922019839
27.484860,-18.165447235,36.887695312,-21.965183258,-0.164539486,0.046946961,0.938255191
27.500329,-21.575786591,33.431579590,-21.560825348,-0.147815853,0.117625669,1.010154605
27.538688,-3.936626434,17.501403809,-20.462192535,-0.202259213,0.017772157,0.996482730
27.577047,-20.133831024,-12.390563965,-8.026279449,-0.182117611,0.040599305,1.022361636
27.591362,-14.030315399,-21.652648926,-7.278598785,-0.196033627,0.114940122,1.117210269
27.606725,-2.662517548,-28.694580078,-5.890048981,-0.222889096,0.079295591,1.134300113
27.645067,0.297687531,-42.465637207,7.591091156,-0.159412533,-0.027027648,1.131614566
27.683425,7.133625031,-24.010131836,2.303920746,-0.192615658,0.063792661,1.130027652
27.697726,11.428974152,-23.186157227,5.447231293,-0.209583431,0.041209657,1.123557925
27.713099,11.390827179,-19.813964844,11.672817230,-0.155506283,0.034739930,1.104514956
27.751441,17.997882843,1.777221680,6.873928070,-0.134876400,0.037913758,1.094138980
27.789767,22.644184113,-7.439086914,19.393764496,-0.101062924,0.028636415,1.130393863
27.804077,24.734638214,-4.059265137,17.448268890,-0.061512146,0.026927430,1.096458316
27.819428,20.301959991,5.607177734,10.665737152,-0.051624451,0.053172547,1.017112613
27.857735,18.074176788,9.437133789,13.191066742,-0.071399838,0.128123716,1.051536441
27.896104,21.217487335,19.286682129,7.011257172,-0.043445740,0.071849301,1.041770816
27.925288,10.864398956,20.698120117,4.531703949,-0.128528744,0.035350282,0.974510074
27.939608,8.827350616,19.027282715,4.791103363,-0.113514096,0.076365903,0.990379214
27.977849,1.861713409,11.092712402,5.561672211,-0.188587338,0.175120786,0.990379214
28.016181,13.260028839,0.297119141,14.571987152,-0.189441830,0.210154966,0.975608706
28.030468,16.037128448,-1.038024902,14.419399261,-0.178577572,0.163402036,0.956565738
28.045833,14.816425323,-3.342102051,15.296779633,-0.208240658,0.123240903,0.923118472
28.084154,3.166339874,-12.710998535,28.655849457,-0.176136166,0.292308301,1.001975894
28.122487,29.998920441,-26.886413574,34.561000824,-0.145130306,-0.002735656,0.995994449
28.136815,15.083454132,-28.679321289,37.208400726,-0.105579525,-0.033131164,1.009178042
28.152191,9.613178253,-27.405212402,36.804042816,-0.110096127,0.007152040,1.030662417
28.190508,28.778217316,-25.658081055,39.535366058,-0.096790463,0.049022157,1.020896792
28.228880,20.744464874,-7.782409668,36.880336761,-0.023914490,0.085765317,0.980857730
28.243177,23.651264191,-1.022766113,34.469448090,-0.007190857,0.077220395,0.957054019
28.258543,22.712848663,14.510681152,31.349025726,0.016856994,0.016917665,0.957786441
28.296882,12.306354523,48.942138672,21.476589203,0.031383362,0.124339536,0.981468081
28.335250,24.566791534,66.146423340,16.914211273,0.029430237,0.039134461,0.939109683
28.349551,22.003314972,69.793273926,14.518581390,0.046398010,0.030833680,0.907005191
28.364910,8.545063019,73.218872070,8.964382172,0.023937073,0.055247743,0.899803042
28.403253,6.508014679,65.307189941,8.697353363,-0.033680115,0.140696958,0.893089175
28.441586,10.139606476,37.368347168,8.109889984,-0.048938904,0.101390317,0.849265933
28.455885,1.014850616,20.469238281,9.284816742,-0.051746521,0.155345395,0.843040347
28.471257,-1.602031708,12.877990723,10.169826508,-0.050037537,0.203196958,0.829978824
28.509560,5.561969757,-9.163330078,7.461391449,-0.011707459,0.269847363,0.852073550
28.547874,-3.280498505,-14.526794434,1.914821625,0.015514221,0.318065137,0.869163394
28.562163,-6.065227509,-11.581848145,-0.061191559,0.031505432,0.363109082,0.878440738
28.577531,-2.952434540,-2.846191406,-6.332553864,0.043346252,0.384959668,0.930076480
28.629764,1.266620636,-11.520812988,-15.297092438,-0.063465267,0.329783887,0.953147769
28.668190,8.133075714,-47.569702148,-12.359775543,-0.151477963,0.222117856,0.962058902
28.682488,4.966876984,-71.510742188,-6.057895660,-0.177601010,0.200999692,0.963157535
28.697932,3.379962921,-81.985900879,-2.777256012,-0.171497494,0.211619809,0.965598941
28.750945,7.034442902,-94.582031250,2.395473480,-0.085193783,0.229442075,0.971092105
28.789332,3.479145050,-57.518432617,-2.792514801,-0.056751404,0.242747739,0.930320621
28.803643,2.296588898,-33.020446777,-4.463352203,-0.057361756,0.254222363,0.907005191
28.819042,-0.068523407,-20.676086426,-5.340732574,-0.058216248,0.257029980,0.912376285
28.857349,-3.135540009,13.251831055,-4.860080719,-0.063343197,0.289866894,0.955222964
28.895680,-0.137187958,29.914428711,-2.212680817,-0.030384216,0.315501660,0.924705386
28.909977,1.556537628,34.057189941,-2.014316559,-0.020008240,0.295115918,0.913963199
28.925332,2.586505890,42.144348145,-3.112949371,0.002086487,0.237864926,0.899558902
28.963654,-9.590007782,51.574279785,-7.942356110,-0.003284607,0.263499707,0.888084292
29.002001,-4.897930145,34.919311523,-7.667697906,-0.079456478,0.241038755,0.917014956
29.016310,-4.684307098,25.077392578,-4.585422516,-0.097889096,0.218089536,0.922386050
29.031672,-6.446697235,7.972290039,3.394924164,-0.069324642,0.208323911,0.944358706
29.069981,-7.324077606,-7.072875977,3.555141449,-0.012439881,0.294505566,0.966331363
29.108286,0.618122101,-18.059204102,0.755153656,-0.085315853,0.304027051,0.915550113
29.122588,-2.494670868,-25.207946777,2.487026215,-0.056507263,0.268748730,0.922996402
29.137975,-3.211833954,-27.695129395,2.113185883,-0.056385193,0.271434277,0.926780581
29.176272,-1.037456512,-30.342529297,6.515346527,-0.045032654,0.239573911,0.974876285
29.214618,-7.346965790,-13.794372559,4.829250336,0.041637268,0.276072949,1.039939761
29.228934,-5.126811981,-8.278320312,2.601467133,0.042857971,0.299876660,1.048484683
29.244383,2.708576202,2.616455078,0.305019379,0.028453674,0.289256543,1.047630191
29.282687,1.426837921,18.706848145,1.319728851,0.031383362,0.243113950,0.988914371
29.336525,1.571796417,32.134582520,-3.379978180,0.034068909,0.269847363,0.981590152
29.350863,4.181049347,31.348754883,-2.983249664,0.013072815,0.232127622,0.976463199
29.366229,3.746173859,29.746582031,-2.327121735,0.012950744,0.221751645,0.966575503
29.404548,-2.273418427,15.243103027,-2.121128082,-0.007312927,0.242869809,0.946555972
29.442887,3.677509308,-10.277221680,3.959499359,-0.044910584,0.203929380,0.876487613
29.457203,0.251911163,-15.716979980,6.614528656,-0.036243591,0.178782895,0.885398746
29.472547,-5.996562958,-23.834655762,3.745876312,0.010631409,0.238109067,0.867454410
29.510881,-3.173686981,-32.967041016,8.849941254,-0.041736756,0.190379575,0.833152652
29.549235,-21.659709930,-5.836914062,6.210170746,0.225841373,0.209056333,0.837058902
29.563615,-26.687480927,9.620239258,-5.714572906,0.214732975,0.257518262,0.869041324
29.579037,-16.746379852,27.366210938,-18.608249664,0.048473205,0.246898130,0.941062808
29.617445,-12.702800751,0.548889160,-2.258457184,-0.050281677,0.007274110,0.824119449
29.655789,-39.497234344,-26.810119629,11.504970551,-0.029773865,0.083201841,0.879905581
29.670102,-39.352275848,-31.235168457,14.472805023,0.078136295,0.201365903,1.005027652
29.685491,-36.651470184,-25.017211914,12.245021820,0.163829654,0.273265332,1.058372378
29.723838,-3.494121552,12.038757324,-23.597873688,0.036632385,0.311961621,1.077781558
29.762175,-5.737163544,-12.649963379,-13.710178375,-0.080677181,0.053416688,0.941062808
29.776472,-18.180706024,-30.556152344,-6.035007477,-0.061268006,0.046214540,0.996482730
29.791849,-21.667339325,-36.919067383,-3.532566071,-0.051502381,0.086131528,1.037986636
29.830154,-5.752422333,-43.228576660,-2.525485992,0.009532776,0.231883481,1.095359683
29.868496,2.365253448,-38.246582031,-2.868808746,-0.055042420,0.101268247,0.912498355
29.882826,-2.891399384,-38.391540527,0.411830902,-0.054309998,0.084178403,0.898094058
29.898209,-14.503337860,-36.064575195,4.966579437,-0.033313904,0.122386411,0.890159488
29.936512,-9.803630829,-15.106628418,7.018886566,0.037120666,0.191600278,0.894187808
29.974876,-13.511516571,14.312316895,3.600917816,0.021861877,0.054149110,0.893821597
29.989171,-17.570354462,18.119384766,5.042873383,0.052989807,0.051341493,0.952293277
30.004544,-21.926738739,24.116088867,7.781826019,0.056651916,0.080516294,0.955711246
30.074286,-16.074993134,51.787902832,-2.685703278,0.001598205,-0.004078429,1.028465152
30.112703,-17.089702606,37.925292969,-7.965244293,0.098766178,0.080516294,1.014671206
30.127016,-17.326213837,19.164611816,-14.671482086,0.005992737,0.105418637,1.039695621
30.142390,-16.021587372,4.287292480,-10.711826324,-0.039051209,0.111155942,1.077293277
30.180688,6.538532257,-27.046630859,14.060817719,0.134166569,0.130931333,0.896995425
30.219041,-14.808513641,-41.862915039,1.266323090,0.009410705,0.106761411,0.953025699
30.233337,-12.504436493,-44.998596191,5.882106781,0.013072815,0.127391294,0.923362613
30.248700,-9.689189911,-40.932128906,13.175807953,0.110484928,0.096385434,0.996238589
30.287054,-17.738201141,-24.193237305,-15.434421539,0.016734924,0.054149110,1.061179996
30.325390,-2.433635712,-24.368713379,5.691371918,0.135631412,0.137401059,1.053489566
30.339680,0.106952667,-16.365478516,-1.289524078,0.176402897,0.096873716,1.028221011
30.355049,-8.888103485,-10.933349609,-12.642063141,0.104259342,0.002025086,1.096214175
30.393355,-1.243450165,-13.054321289,4.211269379,0.072398990,0.120555356,1.056785464
30.431687,-7.018901825,4.691650391,-11.337436676,0.182018131,0.044749696,1.063133121
30.445991,-7.186748505,9.223510742,-12.481845856,0.006603088,0.063060239,1.103904605
30.461331,-0.793315887,12.244750977,-4.959262848,0.079723209,0.149241880,1.076927066
30.499650,2.929828644,15.647460938,-6.843723297,0.117076725,0.057689149,0.952781558
30.538077,-13.618328094,8.040954590,-12.748874664,0.093273014,0.096629575,1.077171206
30.552420,0.778339386,-6.378601074,-4.516757965,0.005992737,0.153514341,1.056053042
30.567767,11.558673859,-11.230895996,3.089748383,0.034557190,0.148265317,1.000511050
30.606068,-6.477214813,-20.767639160,-12.115634918,0.054576721,-0.026295226,0.964012027
30.644411,1.014850616,-31.723449707,5.828701019,0.101695865,0.103343442,0.973655581
30.658706,4.089496613,-28.152893066,1.060329437,0.131725162,0.079417661,0.938865542
30.674064,-2.906658173,-25.558898926,-6.508029938,0.073009342,-0.022022765,0.968406558
30.712389,-6.835796356,-30.189941406,5.103908539,0.052501526,0.067820981,1.046165347
30.766850,-5.538799286,-3.708312988,-7.393039703,0.134532779,-0.038746398,0.987205386
30.781197,-10.902263641,-2.060363770,-1.167453766,0.061412659,0.022288758,1.004417300
30.796576,-8.117534637,-0.648925781,2.860866547,0.075939029,0.057200868,1.011497378
30.834875,-2.532817841,15.494873047,-6.553806305,0.131847233,0.005565125,0.958518863
30.873200,-7.781841278,12.191345215,-0.801242828,0.085338444,0.066722348,1.008689761
30.887493,-2.685405731,11.298706055,0.488124847,0.084728092,0.076121762,0.995262027
30.902860,1.060626984,10.779907227,-0.381626129,0.132823795,0.015696961,0.952537417
30.941150,-8.552410126,-0.915954590,2.021633148,0.067638248,0.042064149,1.028343081
30.979482,0.091693878,4.233886719,2.197109222,0.145641178,-0.020679992,0.974754214
30.993763,-6.133892059,4.775573730,-1.915134430,0.149669498,-0.037159484,0.998679996
31.020796,-9.857036591,6.614257812,0.289760590,0.108775944,0.047069032,1.080589175
31.059259,2.899311066,13.274719238,-0.175632477,0.137218326,-0.009693664,0.990745425
31.097656,-11.146404266,8.147766113,-3.395236969,0.086681217,0.032664735,1.060691714
31.111967,-1.296855927,2.028991699,0.755153656,0.089610904,0.113231137,1.044700503
31.127314,5.584857941,-0.359008789,1.243434906,0.091075748,0.092723325,1.013084292
31.165633,-7.278301239,-11.085937500,1.190029144,0.090709537,-0.009327453,1.048728824
31.203950,5.531452179,-2.632568359,0.648342133,0.152232975,0.053904969,1.038963199
31.218236,2.266071320,1.342346191,-1.907505035,0.141124576,-0.031666320,1.029197574
31.233582,-3.631450653,1.380493164,-2.227939606,0.131725162,-0.036671203,1.053367496
31.271881,4.310749054,0.838806152,-0.724948883,0.129039615,0.092235044,1.058128238
31.310204,0.976703644,-7.011840820,-0.595249176,0.119884342,-0.005909484,1.014793277
31.324491,-2.426006317,-10.208557129,0.411830902,0.115001529,0.021312196,1.037132144
31.339835,2.693317413,-13.603637695,4.653774261,0.119151920,0.103953794,1.043479800
31.389906,3.921649933,-6.279418945,0.190578461,0.145641178,0.016429383,0.956443667
31.428295,4.951618195,4.279663086,-1.800693512,0.147594303,0.146800473,0.951927066
31.442610,9.582660675,9.627868652,-3.379978180,0.150890201,0.148875669,0.905540347
31.457922,6.477497101,16.852905273,-6.401218414,0.146617740,0.060252625,0.850120425
31.508234,-0.854351044,14.716674805,-1.434482574,0.108165592,0.163035825,0.913719058
31.546685,-3.997661591,19.965698242,-10.307468414,0.132579654,0.034251649,0.944846988
31.561006,-5.683757782,18.249084473,-8.300937653,0.096690983,0.048778016,0.964012027
31.576369,-1.075603485,13.785888672,-3.433383942,0.108531803,0.114207700,0.954856753
31.614674,1.526020050,10.711242676,-1.686252594,0.144786686,0.051463563,0.938987613
31.652996,-2.616741180,6.713439941,-6.286777496,0.083263248,0.110423520,0.993064761
31.667261,4.905841827,6.118347168,-1.388706207,0.074718326,0.107249692,0.948387027
31.682590,4.501483917,6.705810547,-0.343479156,0.104381412,0.083690122,0.935203433
31.720892,-4.226543427,-1.732299805,-1.030124664,0.063731998,0.101878598,1.003562808
31.759234,9.285114288,-5.730102539,6.378017426,0.096690983,0.089427426,0.950828433
31.773516,6.317279816,-4.776428223,5.103908539,0.118419498,0.054393250,0.955833316
31.788846,-3.928997040,-8.972595215,1.373134613,0.095958561,0.035472352,1.019309878
31.827140,11.505268097,-11.917541504,11.100612640,0.097789615,0.124949887,1.009544253
31.865490,-3.082134247,-9.323547363,4.127346039,0.073375553,0.020823915,1.090354800
31.879807,-1.853801727,-10.994384766,10.139308929,0.075694889,0.071116880,1.108787417
31.895148,9.620807648,-8.598754883,10.024868011,0.105968326,0.135325864,1.086448550
31.933459,13.237140656,2.784301758,9.406887054,0.160411686,0.012278993,1.046409488
31.971783,7.805011749,-9.827087402,9.055934906,0.043712463,0.079539731,1.146629214
31.986075,22.903583527,-14.992187500,16.616664886,0.040660705,0.087230161,1.065452456
32.001401,25.367877960,-14.687011719,19.973598480,0.076183170,0.044505555,1.037010074
32.039715,4.448078156,-10.292480469,5.691371918,0.027965393,0.037425477,1.045921206
32.078078,16.624591827,-5.646179199,19.767604828,0.116100162,0.110179380,0.963157535
32.092385,14.572284698,0.320007324,13.503871918,0.145885319,0.070872739,0.961204410
32.107726,4.432819366,6.270935059,6.301723480,0.064098209,0.018870790,0.998924136
32.146063,14.366291046,8.300354004,14.457546234,0.052501526,0.144114926,0.973045230
32.184407,5.935810089,11.054565430,9.666286469,0.078624576,-0.013844054,0.942649722
32.212004,2.105854034,3.684570312,13.976894379,0.040050354,0.093944028,0.972556949
32.226395,7.469318390,3.768493652,15.128932953,0.045543518,0.115428403,0.956565738
32.264649,1.701496124,12.008239746,8.140407562,0.122325748,-0.008228820,0.923728824
32.302949,0.549457550,14.472534180,8.827053070,0.056285705,0.096995786,0.982078433
32.317226,5.615375519,17.005493164,9.483181000,0.071300358,0.099559262,0.962303042
32.332589,5.897663116,22.903015137,3.570400238,0.109630436,0.043040711,0.932151675
32.370874,-5.378582001,22.231628418,1.220546722,0.066539615,0.067454770,0.977805972
32.409180,8.384845734,12.198974609,6.744228363,0.052257385,0.102977231,0.962425113
32.423459,4.737995148,8.033325195,4.722438812,0.094859928,0.028880555,0.992576480
32.438821,0.869892120,5.195190430,2.502285004,0.078258365,0.034251649,1.013450503
32.477105,11.978290558,-4.044006348,8.781276703,0.079601139,0.115306333,0.987083316
32.515425,-1.396038055,0.480224609,-0.488437653,0.115367740,0.038157899,0.966941714
32.529705,-5.203105927,-1.518676758,-1.548923492,0.079479069,0.063304380,1.002586246
32.545066,1.442096710,-5.806396484,4.722438812,0.056651916,0.134105161,1.019676089
32.583351,9.925983429,2.547790527,3.311000824,0.112682194,0.030345399,0.971458316
32.621655,2.655170441,5.454589844,-2.189792633,0.052623596,0.116160825,0.961692691
32.635949,5.844257355,2.982666016,3.120265961,0.044566955,0.124949887,0.960716128
32.651308,7.942340851,5.088378906,5.294643402,0.110118717,0.129344419,0.944358706
32.689618,-0.076152802,10.306884766,-0.793613434,0.079845279,0.115672544,0.937278628
32.741489,4.799030304,3.348876953,2.517543793,0.112560123,0.126292661,0.952171206
32.755839,5.088947296,2.463867188,0.823818207,0.106212467,0.120311216,0.938987613
32.771254,4.249713898,-1.381347656,1.083217621,0.068858951,0.111766294,0.913841128
32.809571,-0.816204071,4.630615234,2.082668304,0.127818912,0.115916684,0.963767886
32.847885,0.763080597,11.107971191,-3.250278473,0.065074772,0.093577817,0.968528628
32.862206,3.021381378,5.569030762,-1.281894684,0.041393127,0.088695005,0.963279605
32.877544,2.845905304,3.852416992,1.922451019,0.020763244,0.065867856,0.980979800
32.915845,-1.899578094,-0.404785156,-1.625217438,0.054454651,0.049632508,0.941429019
32.967819,5.417011261,-12.459228516,6.088100433,0.074107975,0.082835630,0.976951480
32.982165,5.409381866,-11.970947266,1.876674652,0.068736881,0.045848329,0.974143863
32.997506,1.167438507,-16.769836426,3.417812347,-0.009632263,0.019114930,0.971458316
33.035848,-0.358440399,-17.837951660,12.145839691,0.043956604,0.096507505,0.934348941
33.074183,-8.323528290,-6.790588379,1.998744965,0.025157776,0.085154966,0.988792300
33.088467,-4.119731903,-4.578063965,8.178554535,0.030895080,0.123362973,1.005515933
33.103778,-0.518657684,-2.502868652,8.178554535,0.044566955,0.124217466,0.998191714
33.142076,-4.127361298,4.188110352,5.966030121,0.089977115,0.061107118,0.992088199
33.180414,2.662799835,1.060058594,11.230312347,0.048106994,0.144603208,1.034446597
33.194710,6.874225616,1.746704102,11.573635101,0.085948795,0.120799497,1.006004214
33.210039,2.441547394,7.117797852,6.591640472,0.126720279,0.039256532,1.008689761
33.248339,-7.781841278,8.422424316,-0.702060699,0.047618713,0.139354184,1.092429996
33.286678,10.826251984,3.005554199,4.958950043,0.078990787,0.094798520,0.983665347
33.300973,5.623004913,5.912353516,3.494106293,0.087779850,0.057689149,0.980003238
33.316268,-6.996013641,8.742858887,-0.076450348,0.093517154,0.095164731,1.014060855
33.354538,3.280780792,4.012634277,0.678859711,0.035655823,0.213939145,1.017967105
33.392872,4.898212433,1.540710449,3.867946625,0.079723209,0.120921567,0.961570621
33.407156,0.602863312,-2.655456543,1.991115570,0.055187073,0.147654966,0.972068667
33.422475,2.021930695,-5.295227051,3.196559906,0.042247619,0.169261411,0.969871402
33.460760,1.159809113,-4.356811523,7.842861176,0.079601139,0.110057309,0.952171206
33.499078,4.013202667,4.966308594,2.639614105,0.059093323,0.157908872,0.970237613
33.513358,7.446430206,5.782653809,4.539333344,0.048106994,0.144114926,0.949973941
33.528665,6.920001984,10.383178711,6.004177094,0.084972233,0.106517270,0.911765933
33.566953,-0.694133759,17.440368652,0.297389984,0.099986881,0.158030942,0.906761050
33.605279,-2.143718719,15.555908203,8.537136078,0.077037662,0.136058286,0.879905581
33.619581,-6.721355438,17.592956543,7.667385101,0.141612858,0.167308286,0.889671206
33.634907,-11.672832489,20.507385254,-9.491123199,0.128673404,0.221263364,0.958274722
33.673229,6.202838898,5.607177734,4.684291840,0.030528869,0.211253598,0.961936831
33.725434,-4.203655243,-9.697387695,-6.385959625,0.096813053,0.122630551,0.969383121
33.739770,-4.409648895,-14.038513184,-7.148899078,0.057018127,0.141429380,0.998191714
33.755131,2.594135284,-21.393249512,0.877223969,0.013072815,0.175486997,1.007224917
33.793440,3.532550812,-12.482116699,-7.667697906,0.130870670,0.176707700,0.959251285
33.831760,0.381610870,-7.027099609,-4.524387360,0.063731998,0.223216489,0.945335269
33.846057,-0.396587372,-0.885437012,-2.967990875,0.100231022,0.233592466,0.960960269
33.861389,-0.068523407,4.714538574,-6.103672028,0.130992740,0.243236020,0.959495425
33.899670,1.068256378,13.907958984,-17.753757477,0.030406799,0.220775083,0.932273746
33.938003,1.823566437,-3.471801758,-6.553806305,0.063609928,0.234691098,0.876975894
33.952294,-1.220561981,-10.788391113,-11.390842438,0.053111877,0.244822934,0.865623355
33.967618,-2.334453583,-17.349670410,-10.971225739,0.015148010,0.237864926,0.882957339
34.005916,-4.127361298,-30.304382324,-1.373447418,0.091441959,0.269359082,0.906883121
34.044257,-1.724102020,-29.236267090,-3.952182770,0.069713444,0.299144238,0.938743472
34.074410,-1.945354462,-20.523498535,-4.699863434,0.100353092,0.349070996,0.900779605
34.088724,-2.586223602,-15.335510254,-7.057346344,0.108165592,0.362254590,0.891868472
34.126910,-4.562236786,-1.503417969,-13.321079254,0.119884342,0.340404004,0.910545230
34.165261,2.235553741,4.722167969,-16.136325836,0.095104069,0.409251660,0.838523746
34.179560,1.205585480,4.218627930,-16.204990387,0.075450748,0.361278027,0.817161441
34.194919,-9.712078094,1.655151367,-12.184299469,0.107066959,0.350657910,0.868797183
34.233233,-3.394939423,-5.615661621,-10.811008453,0.079845279,0.382152051,0.933494449
34.271547,3.029010773,-5.493591309,-19.569553375,0.145397037,0.213328794,0.937888980
34.285853,1.426837921,-4.921386719,-21.171726227,0.141612858,0.164500669,0.943382144
34.301208,-4.875041962,-0.275085449,-22.804416656,0.122691959,0.136546567,0.932762027
34.339480,-8.560039520,2.784301758,-25.970615387,0.079967350,0.223460630,0.916648746
34.377817,-9.109355927,-19.546936035,-8.186496735,0.022594299,0.231517270,0.892600894
34.392105,-14.747478485,-15.289733887,-9.506381989,0.157481998,0.230052426,0.917503238
34.407481,-16.441204071,-10.834167480,-15.998996735,0.160167545,0.218821958,0.940086246
34.461275,-5.020000458,-7.729003906,-15.678562164,0.150646061,0.187938169,0.910423160
34.499692,-22.247173309,-0.389526367,-20.767368317,0.086925358,0.032664735,1.041526675
34.514009,-22.224285126,-4.295776367,-20.828403473,0.058238830,0.063670591,1.078391910
34.529366,-10.322429657,-8.408020020,-8.674777985,0.021861877,0.084178403,1.103660464
34.567644,-2.250530243,-5.859802246,-9.498752594,0.145519108,-0.050587218,1.139427066
34.605947,-1.655437469,-17.799804688,-5.439914703,0.068004459,-0.029713195,1.316551089
34.620322,20.462177277,-14.999816895,-8.209384918,0.076793522,-0.030811828,1.149925113
34.635711,23.033283234,-13.153503418,-6.187595367,0.097545475,-0.139820620,1.206443667
34.674005,8.636615753,-0.862548828,-14.824069977,0.131358951,-0.030811828,1.272361636
34.712306,17.357013702,16.685058594,-13.588108063,0.131236881,-0.092823550,1.172508121
34.726617,7.507465363,18.394042969,-14.557041168,0.148815006,-0.119923159,1.234763980
34.741986,0.007770538,19.797851562,-16.082920074,0.098888248,-0.046314757,1.292747378
34.780325,31.601093292,25.481750488,-12.718357086,0.086192936,0.019847352,1.136131167
34.818671,13.878009796,11.886169434,-4.364170074,0.076427311,0.087474301,1.120139956
34.832972,17.486713409,9.643127441,-5.333103180,0.076061100,0.147899106,1.068870425
34.848320,22.514484406,4.020263672,-1.342929840,0.065318912,0.086986020,1.013572574
34.886611,6.515644073,-6.569335938,-1.571811676,0.058238830,0.104564145,1.134666324
34.924979,21.400592804,2.494384766,-6.042636871,0.120006412,0.134227231,1.008079410
34.939290,12.947223663,5.996276855,-5.348361969,0.079967350,-0.009449523,1.036155581
34.954636,4.577777863,6.385375977,-3.265537262,0.094981998,-0.022877257,1.076194644
34.992899,10.795734406,2.608825684,0.732265472,0.060436096,0.145823911,1.051048160
35.031226,7.499835968,-4.059265137,0.549160004,0.112438053,-0.000294250,1.022361636
35.045508,3.456256866,-5.829284668,-2.128757477,0.079723209,0.042308290,1.014549136
35.060858,6.874225616,-6.012390137,2.204738617,0.033824768,0.163646176,0.928367496
35.099129,2.014301300,-5.249450684,4.325710297,0.090953678,0.074656919,0.914817691
35.137455,3.852985382,-0.229309082,5.454860687,0.062389221,0.195628598,0.896018863
35.151735,7.141254425,2.112915039,3.051601410,0.070445865,0.206004575,0.826438785
35.167082,4.257343292,6.736328125,1.296840668,0.063609928,0.136546567,0.804466128
35.221006,-5.744792938,13.091613770,-1.037754059,0.008922424,0.228221372,0.772849917
35.259441,-5.348064423,9.643127441,-2.769626617,0.053356018,0.208690122,0.786277652
35.273732,-4.409648895,5.569030762,-1.236118317,0.001598205,0.218944028,0.773948550
35.289068,-2.853252411,-3.784606934,8.048854828,0.025279846,0.230540708,0.753929019
35.327343,-8.910991669,-13.588378906,4.005275726,0.032970276,0.218821958,0.771873355
35.365679,-4.241802216,-30.846069336,10.276638031,0.011607971,0.267650098,0.795677066
35.397063,-7.667400360,-26.390502930,10.589443207,0.089122623,0.216990903,0.739646792
35.411398,-13.931133270,-23.033569336,8.445583344,0.091319889,0.185618833,0.782493472
35.449605,-11.764385223,-12.916992188,7.369838715,0.064952701,0.265574902,0.904563785
35.487999,-16.540386200,5.919982910,3.074489594,0.140880436,0.140574887,0.918968081
35.502331,-21.331645966,7.438232422,-2.639926910,0.134410709,0.145945981,0.981956363
35.517693,-13.061382294,5.950500488,-1.106418610,0.040050354,0.195628598,1.032859683
35.556013,5.447528839,9.940673828,1.258693695,0.069713444,0.071971372,0.946678042
35.594316,-14.900066376,10.673095703,-4.425205231,0.123912662,0.146800473,0.909812808
35.608626,-16.303874969,10.039855957,-7.187046051,0.107555240,0.217479184,0.891868472
35.624003,-13.366558075,9.292175293,-6.408847809,0.033580627,0.266917676,0.868675113
35.662278,-13.191082001,6.896545410,-7.263339996,0.025646057,0.290843457,0.925193667
35.700584,-8.285381317,-9.643981934,3.707729340,0.000621643,0.257152051,0.816184878
35.714871,-20.110942841,-11.444519043,10.726772308,0.071178287,0.176707700,0.909446597
35.730237,-24.017192841,-9.689758301,7.629238129,0.115856022,0.202952817,0.923972964
35.768511,-16.464092255,-10.384033203,2.662502289,0.035777893,0.216868833,0.926170230
35.806874,-22.933818817,-2.212951660,8.109889984,0.144664615,0.159373716,1.006492496
35.821166,-20.942546844,5.019714355,1.960597992,0.155773014,0.189647153,1.017478824
35.836532,-12.344219208,15.342285156,-4.387058258,0.085826725,0.238353208,1.002586246
35.874846,-10.665752411,24.650146484,5.096279144,0.123058170,0.145213559,0.981468081
35.913167,-7.140972137,40.061523438,-13.061679840,0.102794498,0.251536816,1.035667300
35.927513,-0.945903778,37.589599609,-10.826267242,0.052623596,0.240428403,1.016868472
35.942918,2.067707062,27.122070312,-0.854648590,0.053478088,0.149363950,1.017112613
35.997360,0.328205109,9.849121094,-9.170688629,0.079112858,0.190989926,1.134300113
36.035776,6.607196808,-13.946960449,-3.738559723,0.113902897,0.089915708,1.217674136
36.050079,12.657306671,-20.485351562,-6.553806305,0.095714420,0.133006528,1.234153628
36.065533,19.531391144,-22.217224121,-6.607212067,0.077403873,0.156321958,1.183250308
36.103877,4.547260284,-16.609619141,-7.263339996,0.126354069,0.020335633,1.077903628
36.142205,-7.354595184,-4.059265137,-10.017551422,0.083873600,0.237864926,1.164207339
36.156494,1.678607941,-0.374267578,-9.201206207,0.083019108,0.294383496,1.089500308
36.171835,12.626789093,3.814270020,-6.950534821,0.083751529,0.183299497,1.003074527
36.210139,-7.247783661,12.664367676,-16.525424957,0.106456608,0.234080747,1.042747378
36.248480,5.546710968,11.367370605,-7.148899078,0.081188053,0.178416684,0.962791324
36.262778,-3.120281219,10.184814453,-9.788669586,0.109264225,0.104197934,0.978294253
36.278121,-7.186748505,9.337951660,-10.200656891,0.088146061,0.102000669,0.995017886
36.316444,6.683490753,2.028991699,-6.149448395,0.075206608,0.208201841,0.906638980
36.354762,-7.148601532,-3.975341797,-1.770175934,0.094615787,0.092845395,0.937034488
36.369050,-4.531719208,-0.252197266,-5.401767731,0.083873600,0.160960630,0.970237613
36.384376,1.503131866,1.357604980,-4.821933746,0.068614811,0.173533872,0.968650699
36.422686,10.391376495,3.242065430,-3.906406403,0.072032779,0.101878598,0.911155581
36.461040,10.185382843,1.525451660,-5.912937164,0.049205627,0.215403989,0.901023746
36.475329,13.679645538,-0.343750000,-4.799045563,0.026988830,0.218089536,0.873069644
36.490658,11.261127472,-9.132812500,3.356777191,0.037975159,0.133983091,0.873802066
36.528983,3.883502960,-10.277221680,-0.671543121,0.048595276,0.228221372,0.994285464
36.567300,8.949420929,-17.570922852,-2.937473297,0.027477112,0.118113950,1.004173160
36.594350,2.449176788,-24.193237305,8.041225433,0.015636291,0.103709653,1.068504214
36.608691,3.860614777,-21.133850098,8.323513031,0.101329654,0.165111020,1.104026675
36.646926,8.384845734,-17.624328613,4.310451508,0.043956604,0.115062192,1.074485660
36.685269,9.513996124,-13.702819824,8.697353363,0.101085514,0.202708676,1.048362613
36.712483,10.597370148,5.912353516,-0.488437653,0.108165592,0.112010434,0.964012027
36.726825,-1.777507782,14.022399902,-0.747837067,0.102428287,0.077708676,0.998679996
36.765071,0.984333038,25.146057129,-4.814304352,0.089000553,0.220530942,0.990745425
36.803433,-2.479412079,32.569458008,-4.722751617,0.067638248,0.083445981,0.860618472
36.817725,-14.610149384,29.136230469,-3.990329742,0.040050354,0.117625669,0.890647769
36.833095,-14.320232391,26.816894531,-2.456821442,0.040904846,0.141063169,0.921165347
36.871437,3.212116241,14.449645996,-2.456821442,0.053966369,0.117625669,0.866477847
36.909759,-6.660320282,-3.204772949,3.722988129,0.039684143,0.126780942,0.963035464
36.924052,-1.693584442,-4.654357910,3.402553558,0.042491760,0.167064145,0.966087222
36.939401,12.237689972,-5.958984375,2.143703461,0.047862854,0.167064145,0.921897769
36.977719,4.196308136,-8.003662109,2.143703461,0.056163635,0.058665711,0.938011050
37.016069,11.764667511,-2.914855957,-3.143466949,0.040782776,0.115916684,0.935081363
37.030362,13.153217316,-2.373168945,-0.747837067,0.026134338,0.072215512,0.924827456
37.045723,6.149433136,-1.114318848,1.251064301,0.071300358,0.024852235,0.962425113
37.084069,8.476398468,-1.236389160,-0.999607086,0.076305240,0.146434262,1.010764956
37.122375,9.353778839,-2.228210449,-1.480258942,0.078014225,0.021922547,0.976219058
37.136657,-5.180217743,-2.273986816,-1.228488922,0.090221256,-0.005543273,1.052390933
37.152018,-8.575298309,-2.029846191,-1.304782867,0.091441959,0.036082704,1.093040347
37.190332,9.864948273,1.868774414,-4.417575836,0.093883365,0.119334653,0.970725894
37.240672,-18.081523895,11.474182129,-9.697116852,0.131114811,0.154612973,0.985374331
37.255038,-9.239055634,19.469787598,-16.212619781,0.093395084,0.198436216,0.922263980
37.270403,-6.713726044,21.895935059,-15.464939117,0.071300358,0.143016294,0.905540347
37.308741,-24.207927704,20.011474609,-12.954868317,0.091075748,0.065867856,0.946189761
37.347095,-9.284832001,11.519958496,-15.495456696,0.059337463,0.082469419,0.950950503
37.361416,-7.957317352,7.720520020,-13.504184723,0.062511295,0.038157899,0.955222964
37.376738,-12.077190399,2.616455078,-13.588108063,0.075450748,0.031321961,0.947898746
37.415080,-5.988933563,-1.984069824,-15.342868805,0.037242737,0.142161801,0.941673160
37.453406,-1.273967743,-10.361145020,-7.003940582,0.050060119,0.132029966,0.898216128
37.467711,-2.631999969,-10.246704102,-8.567966461,0.068248600,0.164744809,0.900291324
37.483038,-1.632549286,-10.750244141,-12.519992828,0.051402893,0.205638364,0.905174136
37.521372,1.693866730,-16.006896973,-7.736362457,0.020885315,0.192943051,0.898948550
37.559699,-6.385662079,-13.916442871,-9.773410797,0.083141178,0.143016294,1.010520816
37.574016,-2.265789032,-11.970947266,-14.747776031,0.068858951,0.157176450,1.063621402
37.589336,0.801227570,-14.793823242,-15.716709137,0.039073791,0.136058286,1.079490542
37.627673,1.953266144,-20.073364258,-2.922214508,0.144664615,0.018992860,1.237937808
37.666006,11.512897491,-5.752990723,-30.456699371,0.033702698,0.092479184,1.168235660
37.680315,11.985919952,-10.826538086,-24.116672516,-0.039173279,0.070994809,1.136253238
37.695634,6.187580109,-16.251037598,-6.492771149,0.047862854,0.085277036,1.095847964
37.733957,-7.209636688,-3.258178711,-21.278537750,0.094981998,0.079173520,1.134910464
37.772286,1.709125519,-1.312683105,-15.327610016,0.018810119,0.083568051,1.064353824
37.786609,-0.228740692,-0.030944824,-13.984836578,0.056529846,0.071849301,1.060447574
37.801919,-3.967144012,3.707458496,-22.117771149,0.066417545,0.067943051,1.012473941
37.852380,1.083515167,-9.720275879,-12.481845856,-0.008045349,0.073436216,0.939109683
37.890796,-2.540447235,-13.939331055,-12.947238922,0.029308166,0.088817075,0.878440738
37.905117,-1.983501434,-17.433593750,-13.481296539,-0.008289490,0.099315122,0.865623355
37.920469,1.152179718,-27.374694824,-5.386508942,-0.028675232,0.115916684,0.854148746
37.958793,2.739093781,-31.944702148,-2.266086578,0.010753479,0.099437192,0.813743472
37.997126,-2.502300262,-25.017211914,-5.996860504,0.018321838,0.122630551,0.838645816
38.026145,-2.677776337,-15.900085449,-3.555454254,0.057384338,0.097606137,0.869895816
38.040467,-4.386760712,-3.891418457,-6.965793610,0.089732975,0.078807309,0.905662417
38.078665,-6.637432098,20.782043457,-17.936862946,0.071666569,0.088328794,0.931663394
38.116985,-6.591655731,28.800537109,-17.578281403,0.092784733,0.119334653,0.969383121
38.131274,-2.998210907,36.338378906,-22.087253571,0.111583561,0.039012391,0.979637027
38.146637,-4.730083466,39.626647949,-24.475254059,0.103282779,-0.011158507,0.990135074
38.184977,-17.387248993,37.070800781,-19.233860016,0.052013244,-0.014942687,1.107200503
38.223302,4.989765167,32.645751953,-28.358615875,0.072887272,0.003734071,0.965476871
38.237621,-4.852153778,24.428894043,-26.878513336,0.062633365,-0.111256167,0.964866519
38.253001,-14.053203583,18.874694824,-25.360263824,0.054088440,-0.125050113,0.994895816
38.291336,-15.960552216,2.410461426,-26.199497223,0.071666569,0.064525083,1.011863589
38.329672,-14.846660614,-3.387878418,-27.046360016,0.089122623,-0.027760070,1.007591128
38.343979,-19.035198212,-4.341552734,-29.564060211,0.072521061,-0.014698546,1.029319644
38.359331,-17.806865692,-6.218383789,-27.206577301,0.040416565,0.037669618,1.050315738
38.397672,-7.575847626,-5.028198242,-28.175510406,0.067027897,-0.007496398,1.000755191
38.435989,-11.695720673,-3.364990234,-29.823459625,0.043590393,0.042308290,1.019920230
38.465138,2.121112823,-3.441284180,-28.625644684,0.029796448,0.102244809,0.942771792
38.479467,1.632831573,-6.409118652,-27.343906403,0.053844299,0.053538758,0.901389956
38.517662,-5.470134735,-22.400329590,-22.995151520,-0.006946716,0.179515317,0.899558902
38.555994,4.257343292,-30.754516602,-16.647495270,0.040050354,0.058421571,0.905174136
38.570299,1.052997589,-32.608459473,-16.403354645,0.062145080,0.010814149,0.930198550
38.585630,-4.897930145,-30.388305664,-16.098178864,0.051036682,0.001658875,0.962303042
38.623957,-1.243450165,-11.299560547,-22.064365387,0.133434147,-0.016651671,0.956321597
38.662281,-7.049419403,5.767395020,-32.737888336,0.031017151,-0.062428039,1.033225894
38.676571,-3.181316376,8.513977051,-27.130283356,0.041515198,-0.027882140,1.014549136
38.691912,-1.251079559,10.848571777,-26.954807281,0.059459534,-0.036060851,0.994529605
38.730266,-14.411785126,5.050231934,-34.599460602,-0.000843201,-0.101978824,1.034324527
38.768586,-4.997112274,-6.164978027,-26.237644196,0.066173404,-0.043751281,1.006248355
38.782884,-3.341533661,-6.317565918,-28.068698883,0.056041565,-0.130909488,1.012107730
38.798204,-12.084819794,-8.530090332,-29.190219879,0.087535709,-0.200733706,1.099265933
38.836532,-12.977458954,-12.360046387,-31.227268219,0.047496643,-0.035816710,1.041282535
38.874881,-15.716411591,-9.125183105,-34.088291168,0.123912662,-0.077564761,1.029929996
38.889203,-17.837383270,-9.537170410,-37.315525055,0.075206608,-0.067677066,1.036155581
38.904552,-15.174724579,-8.606384277,-31.303562164,0.053722229,-0.014210265,1.054466128
38.942885,-6.385662079,-2.273986816,-33.813632965,0.086681217,-0.072559878,1.034934878
38.981232,-9.940959930,0.236083984,-35.545505524,0.061656799,-0.037037414,1.065208316
38.995523,-3.677227020,5.256225586,-37.727512360,0.088390201,-0.004322570,1.069602847
39.010861,1.152179718,7.697631836,-40.092624664,0.088390201,-0.029591125,1.068626285
39.049184,2.708576202,8.567382812,-43.441928864,0.070201725,-0.101368472,1.062156558
39.101465,11.627338409,-1.099060059,-43.968357086,0.042369690,-0.015064757,1.052146792
39.115849,16.037128448,-8.087585449,-44.334568024,0.066783756,-0.044849914,0.997337222
39.131217,13.130329132,-11.185119629,-44.525302887,0.064342350,-0.070606753,0.999412417
39.169537,8.934162140,-21.522949219,-48.988498688,0.087291569,-0.021412414,1.047874331
39.207881,6.607196808,-23.552368164,-45.738376617,0.123302311,-0.117970034,1.058494449
39.222188,-1.205303192,-14.206359863,-54.809726715,0.142833561,-0.074879214,1.102195621
39.237527,0.511310577,-9.758422852,-58.792270660,0.108409733,-0.044605773,1.096580386
39.275870,-1.388408661,14.648010254,-51.834262848,0.161876529,-0.113087222,1.052635074
39.328882,-4.356243134,35.834838867,-59.288181305,0.019298401,0.001292665,1.047874331
39.343225,-0.068523407,35.361816406,-53.840793610,0.075572819,0.077464536,0.977195621
39.358586,-2.723552704,35.422851562,-55.427707672,0.074718326,0.087108091,0.961692691
39.396950,-3.097393036,30.402709961,-61.859287262,0.051891174,0.118480161,0.980491519
39.435294,0.190876007,4.272033691,-47.287143707,0.075328678,0.000804383,0.968528628
39.449621,-2.738811493,-0.915954590,-51.010288239,0.098033756,-0.006519835,0.991111636
39.464998,-0.633098602,-12.367675781,-54.145969391,0.052257385,0.040721375,1.036155581
39.503282,11.154315948,-27.313659668,-47.866977692,0.045055237,0.061839540,0.882957339
39.541614,-4.402019501,-23.704956055,-56.991733551,0.088878483,0.128001645,0.997581363
39.555928,-0.343181610,-22.064636230,-56.213535309,0.068004459,0.143748716,1.019065738
39.571287,9.613178253,-18.982360840,-55.473484039,0.072765201,0.124461606,1.000755191
39.609607,3.769062042,-10.742614746,-53.749240875,0.088023990,0.085521176,0.929832339
39.647913,1.007221222,-7.919738770,-58.921970367,0.071056217,0.125316098,1.048728824
39.662225,16.609333038,-7.477233887,-53.100742340,0.044200744,0.059276063,1.024558902
39.677585,18.867633820,-6.927917480,-51.262058258,0.072887272,0.001536805,1.018089175
39.715873,0.480792999,0.129272461,-61.470188141,0.110484928,-0.063770816,1.034202456
39.754185,9.117267609,-1.907775879,-58.983005524,0.038219299,0.029612977,0.986106753
39.768487,7.957599640,-3.784606934,-56.381381989,0.061290588,-0.004932921,0.987449527
39.783837,-1.098491669,-6.599853516,-61.996616364,0.074352115,-0.033497375,1.025657535
39.837622,1.091144562,-18.516967773,-52.749790192,0.063731998,-0.060230773,0.985618472
39.876071,-4.356243134,-22.301147461,-56.640781403,0.044078674,-0.040699523,1.048118472
39.890387,2.693317413,-21.683166504,-56.961215973,0.058482971,-0.013721984,1.024070621
39.905714,5.325458527,-21.347473145,-58.967746735,0.053478088,0.002025086,0.960349917
39.944041,-11.886455536,-25.360534668,-53.642429352,0.070079654,0.059031922,0.922263980
39.982346,1.670978546,-24.055908203,-58.990634918,0.010753479,0.054881532,0.914695621
39.996651,1.609943390,-25.299499512,-56.419528961,0.032726135,0.009349305,0.918601871
40.012005,-6.461956024,-26.108215332,-57.724155426,0.074840397,-0.017139953,0.911888003
40.050317,-7.285930634,-26.070068359,-63.247837067,0.066661686,0.030467469,0.963889956
40.088627,-6.385662079,-23.437927246,-63.583530426,0.051891174,-0.047779601,0.965476871
40.102936,-8.842327118,-21.881530762,-65.002593994,0.083873600,-0.044117492,0.977928042
40.118275,-8.293010712,-20.019958496,-72.303924561,0.078990787,-0.019215148,0.982322574
40.156593,-4.691936493,-21.461914062,-70.572052002,0.071178287,-0.069630191,0.979881167
40.194941,-9.521343231,-17.532775879,-80.497894287,0.085582584,-0.074268863,1.016746402
40.209271,-6.797649384,-16.457031250,-82.657012939,0.063609928,-0.052662414,1.005271792
40.224612,-6.614543915,-16.045043945,-82.351837158,0.035655823,-0.057056945,0.990745425
40.262917,-15.327312469,-15.213439941,-82.481536865,0.072032779,-0.024830382,1.017600894
40.301229,-9.994365692,-15.160034180,-75.218353271,0.093395084,-0.006031554,0.996360660
40.315523,-16.662456512,-9.415100098,-87.059173584,0.100963444,-0.059742492,0.997215152
40.330869,-20.782329559,-10.712097168,-87.036285400,0.039928284,-0.081837222,1.024436831
40.369188,-15.586711884,-6.309936523,-77.018890381,0.109508365,0.032542665,1.079368472
40.407485,-12.847759247,-14.450500488,-65.521392822,0.007213440,-0.003101867,1.002586246
40.421821,-16.013957977,-17.273376465,-61.279453278,0.050548401,0.007884461,0.998069644
40.437183,-18.249370575,-13.672302246,-63.461460114,0.095958561,0.003489930,1.067283511
40.475511,-8.918621063,-7.576416016,-64.369354248,0.016856994,-0.015186828,0.981834292
40.513856,-10.528423309,-9.872863770,-58.830417633,0.077403873,0.096263364,0.882591128
40.528157,-5.241252899,-1.373718262,-62.629856110,0.048473205,-0.008472960,0.833640933
40.543490,-9.734966278,0.876953125,-62.034763336,0.054698791,-0.094410464,0.881980777
40.597499,-4.134990692,3.837158203,-64.293060303,-0.038074646,0.062816098,0.926048160
40.635883,-19.988872528,0.541259766,-60.844577789,0.041148987,-0.085743472,1.082420230
40.650213,-21.720745087,-2.403686523,-63.125766754,-0.001819763,-0.023121398,1.067283511
40.665571,-12.359477997,-11.566589355,-52.726902008,-0.057239685,0.119945005,1.054344058
40.719780,-7.430889130,-15.030334473,-45.143283844,0.061046448,-0.042164367,1.074851871
40.758196,1.396320343,-20.943115234,-38.444675446,-0.043323670,0.157664731,0.921531558
40.772504,8.110187531,-22.995422363,-33.813632965,-0.026600037,0.070628598,0.867698550
40.787844,-3.463603973,-19.081542969,-31.097568512,0.097545475,-0.080006167,1.059837222
40.826176,-8.056499481,-10.086486816,-38.475193024,0.007701721,0.028392274,1.076682925
40.864491,-3.532268524,8.613159180,-41.053928375,0.088023990,-0.111866519,1.071800113
40.878824,-15.251018524,15.006591797,-40.786899567,0.084728092,-0.062183898,1.103294253
40.894181,-8.865215302,23.917724609,-44.586338043,0.064586490,-0.046558898,1.105857730
40.932493,-6.431438446,30.280639648,-37.895359039,0.014537659,0.028758485,1.077049136
40.970850,-14.457561493,28.251220703,-43.480075836,0.021251526,-0.027760070,1.188011050
40.985157,-10.314800262,14.457275391,-37.025608063,-0.086536556,0.051951844,1.197410464
41.000511,-0.984050751,7.445861816,-26.596225739,-0.081775814,0.137034848,1.117576480
41.038869,6.195209503,-4.715393066,-33.836521149,0.044689026,0.003489930,1.089988589
41.077203,2.761981964,-32.432983398,-19.722141266,-0.049427185,0.140819028,1.078758121
41.091506,15.571735382,-41.183898926,-17.028964996,-0.021717224,0.139964536,1.003196597
41.106869,18.707416534,-44.182250977,-14.022983551,0.001598205,0.058543641,0.995384097
41.145216,1.663349152,-38.727233887,-26.649631500,0.023448791,0.030589540,0.975852847
41.183537,-1.396038055,-21.500061035,-31.074680328,0.047496643,0.130809262,0.951560855
41.197855,-3.730632782,-18.898437500,-30.212558746,0.016979065,0.113597348,1.006248355
41.213205,4.631183624,-14.213989258,-28.595127106,0.033214416,0.090892270,1.004539371
41.251527,4.547260284,2.624084473,-30.723728180,0.010509338,0.075755551,0.935813785
41.289877,-4.852153778,6.278564453,-31.776584625,0.010143127,0.060985047,0.987449527
41.304167,0.572345734,7.392456055,-30.113376617,0.007091369,0.058543641,1.032615542
41.335638,8.644245148,12.954284668,-28.419651031,0.003063049,0.096141294,0.926170230
41.374084,-2.563335419,4.058410645,-25.154270172,-0.029895935,0.053538758,1.010398746
41.412437,12.863300323,-2.739379883,-27.305759430,0.031871643,0.082225278,0.969261050
41.426741,13.092182159,-5.310485840,-26.725925446,-0.005603943,0.039500672,0.941062808
41.442093,4.737995148,-9.392211914,-18.554843903,0.016368713,-0.017384093,0.974388003
41.480444,3.555438995,4.874755859,-23.643650055,0.055309143,0.081736997,0.933494449
41.518773,-12.420513153,21.056701660,-24.933017731,0.055553284,0.076976255,0.979514956
41.533087,-12.000896454,24.840881348,-24.383701324,0.059459534,0.118480161,1.013328433
41.559927,7.866046906,39.992858887,-28.190769196,0.099498600,0.154246762,0.942527652
41.598355,-14.770366669,48.797180176,-33.241428375,0.025401916,0.073558286,0.911033511
41.636694,-13.137676239,44.433166504,-26.069797516,0.011485901,0.248729184,0.952903628
41.651020,2.617023468,42.304565430,-22.468723297,0.036998596,0.212840512,0.938621402
41.666367,4.699848175,40.946533203,-24.963535309,0.059703674,0.160838559,0.923972964
41.704685,-10.124065399,19.858886719,-19.272006989,-0.041614685,0.154002622,0.981468081
41.743064,6.111286163,-4.944274902,-11.886753082,0.036876526,0.158153012,0.975242496
41.757380,0.251911163,-15.701721191,-14.595188141,0.022106018,0.095530942,0.999534488
41.772720,-4.814006805,-21.416137695,-13.473667145,-0.005603943,0.118236020,1.002586246
41.811064,0.824115753,-24.414489746,-10.124362946,0.066783756,0.252757519,1.016380191
41.849423,3.975055695,-22.926757812,-3.853000641,0.022960510,0.162669614,1.005760074
41.863827,2.914569855,-19.638488770,-4.867710114,0.045421448,0.177806333,1.000511050
41.879217,3.395221710,-8.873413086,-8.552707672,0.062999576,0.193065122,0.978050113
41.929326,-1.914836884,-10.399291992,-4.448093414,-0.004139099,0.201121762,1.033347964
41.979659,7.881305695,-3.357360840,-9.498752594,0.035289612,0.050242860,1.001731753
41.993996,2.426288605,-4.639099121,-8.629001617,0.012950744,0.026439149,1.013938785
42.009355,-5.393840790,-3.570983887,-5.546726227,0.016246643,0.075389341,1.064597964
42.047670,15.472553253,-7.461975098,-4.638828278,0.006114807,0.057322938,1.035179019
42.085993,1.243732452,-22.034118652,0.900112152,-0.044178162,0.068309262,0.964500308
42.100273,-1.182415009,-22.713134766,3.600917816,-0.019764099,0.103465512,0.999900699
42.115605,7.225177765,-20.897338867,1.540981293,0.021861877,0.162547544,0.952293277
42.153925,12.725971222,-18.562744141,3.120265961,-0.002552185,0.037913758,0.956931949
42.192271,-0.312664032,-5.310485840,-0.648654938,0.025646057,0.072825864,0.902732730
42.206560,-4.066326141,0.014831543,-4.097141266,-0.005115662,0.111278012,0.901267886
42.221875,-5.935527802,1.281311035,-2.533115387,-0.014148865,0.110423520,0.935813785
42.260181,1.510761261,5.240966797,4.035793304,-0.012317810,0.198192075,0.936668277
42.298499,1.518390656,0.899841309,0.205837250,-0.054676209,0.127513364,0.906150699
42.312813,-1.510478973,-2.022216797,6.530605316,-0.038929138,0.116160825,0.936179996
42.328129,-1.220561981,-0.900695801,4.928432465,0.016612854,0.157176450,0.935935855
42.366456,4.638813019,-3.502319336,0.724636078,-0.021839295,0.066844419,0.878196597
42.404764,-6.355144501,-4.982421875,8.621059418,-0.000599060,0.161693051,0.900535464
42.419055,-4.340984344,0.075866699,7.095180511,0.064952701,0.163646176,0.927268863
42.434376,-0.686504364,7.545043945,-4.348911285,0.028087463,0.075389341,0.912620425
42.472689,-11.298992157,16.082336426,0.800930023,0.031749573,0.069285825,0.877464175
42.511027,-12.916423798,31.928588867,-7.805027008,0.049083557,0.099437192,0.983421206
42.538645,-6.049968719,27.854492188,-8.056797028,-0.017810974,0.107005551,0.933982730
42.553066,-10.490276337,21.606018066,0.640712738,0.004039612,0.127513364,0.953147769
42.591336,-13.168193817,12.137939453,1.380764008,0.025279846,0.046092469,1.072776675
42.629671,1.175067902,-10.864685059,-0.564731598,-0.025013123,0.098948911,1.060081363
42.643956,1.655719757,-22.369812012,5.050502777,0.014659729,0.033519227,1.002830386
42.659271,-5.966045380,-28.076599121,-0.221408844,0.017101135,-0.003712218,1.046531558
42.697576,0.816486359,-45.700500488,13.107143402,0.010631409,0.133128598,1.095359683
42.735884,5.577228546,-35.553405762,2.540431976,0.041637268,-0.045338195,1.090598941
42.750169,-0.938274384,-34.485290527,1.548610687,-0.008655701,-0.032642882,1.100608706
42.765502,-3.837444305,-28.671691895,10.207973480,-0.001819763,0.078196958,1.064720035
42.803843,6.271503448,4.035522461,6.416164398,0.091197819,0.009471375,1.081687808
42.842140,-1.472332001,43.227722168,-4.448093414,0.031261291,0.111522153,1.014793277
42.856444,0.129840851,49.964477539,-0.068820953,0.030284729,0.090159848,1.023704410
42.871787,-1.968242645,65.284301758,-4.455722809,0.124767154,0.056956727,1.070823550
42.910106,-3.517009735,72.036315918,-14.282382965,-0.000354920,0.158153012,1.030418277
42.948423,11.749408722,52.871276855,-1.022495270,0.037120666,0.092723325,0.977683902
42.962722,7.400653839,39.702941895,-7.881320953,-0.012439881,0.031566102,0.923362613
42.978060,2.891681671,30.974914551,-6.035007477,-0.028186951,0.025828797,0.929099917
43.016357,1.487873077,-16.830871582,5.294643402,-0.065906674,0.141795591,0.909568667
43.054667,2.761981964,-49.179504395,1.487575531,-0.046131287,0.060618836,0.854148746
43.068968,-2.036907196,-58.548400879,3.837429047,-0.091053158,0.039866883,0.878929019
43.084306,-6.889202118,-70.335815430,19.752346039,-0.048084412,0.053416688,0.942283511
43.136170,-0.648357391,-58.319519043,4.081569672,-0.030994568,0.062083680,0.956199527
43.174585,-5.958415985,-32.669494629,10.589443207,0.065685123,0.034984071,1.008567691
43.188894,-3.364421844,-10.681579590,2.616725922,0.077770084,0.042552430,1.011985660
43.204224,-1.708843231,-2.495239258,0.488124847,0.064464420,0.042552430,1.000877261
43.256210,-7.202007294,30.791809082,1.540981293,0.062877506,0.023509461,0.997093081
43.294580,-5.172588348,42.907287598,-8.621372223,0.001964416,0.085154966,1.004417300
43.308884,-0.381328583,37.147094727,2.487026215,-0.020130310,0.072337583,0.986350894
43.324218,0.190876007,34.476806641,5.744777679,0.018565979,0.052318055,0.995628238
43.362533,-4.279949188,24.154235840,-7.301486969,0.018077698,0.047801454,1.008689761
43.400874,1.297138214,-11.177490234,11.382900238,-0.019397888,0.087474301,1.008445621
43.415174,2.792499542,-14.816711426,10.085903168,0.022960510,0.072581723,1.014060855
43.430523,2.182147980,-18.722961426,3.173671722,0.037731018,0.031199891,1.001121402
43.468866,-1.479961395,-31.860778809,8.308254242,-0.031360779,0.080638364,1.007957339
43.507201,2.029560089,-25.047729492,6.194911957,0.069713444,0.046458680,1.024314761
43.521503,0.892780304,-20.889709473,3.295742035,0.058849182,0.034862000,1.027610660
43.536842,-0.427104950,-16.731689453,3.082118988,0.041637268,0.042186219,1.025169253
43.575165,0.900409698,1.243164062,4.569850922,0.039806213,0.082347348,1.023948550
43.613544,1.663349152,16.486694336,-0.122226715,0.068248600,0.050975282,1.005393863
43.627870,-0.251628876,18.516113281,-0.778354645,0.044444885,0.075999692,0.996116519
43.643211,0.396869659,17.898132324,-0.183261871,0.030040588,0.096385434,0.971214175
43.681529,-0.800945282,17.234375000,-0.404514313,0.078746647,0.057322938,0.995872378
43.733777,0.305316925,6.660034180,1.334987640,0.005016174,0.075389341,0.966209292
43.748113,-2.921916962,1.777221680,2.822719574,0.061534729,0.053782899,1.006614566
43.763450,-3.639080048,-0.046203613,0.266872406,0.068248600,0.070018247,1.021263003
43.801757,5.134723663,-5.028198242,-0.274814606,0.010631409,0.051097352,0.991599917
43.840098,-3.166057587,-0.503967285,-3.677524567,0.056529846,0.075755551,1.011253238
43.854416,-1.335002899,-1.625488281,-4.333652496,0.041026916,0.093211606,1.018943667
43.869755,5.432270050,-6.775329590,-2.853549957,0.013805237,0.110301450,0.981223941
43.908088,-1.075603485,-6.454895020,-0.534214020,0.065074772,0.029857118,0.973411441
43.946411,1.091144562,-18.532226562,-0.885166168,-0.023426209,0.105662778,0.978050113
43.960795,4.501483917,-21.347473145,3.417812347,-0.019031677,0.099803403,0.959861636
43.976194,5.767963409,-21.896789551,5.264125824,0.026134338,0.046336610,0.935447574
44.014483,-7.690288544,-13.283203125,2.143703461,0.023082580,0.040965516,0.971580386
44.052781,-1.251079559,-2.792785645,2.029262543,0.033092346,0.070506528,0.968284488
44.067072,-2.303936005,6.721069336,2.448879242,0.066417545,-0.007496398,1.004417300
44.082394,-6.515361786,11.329223633,-0.625766754,0.087535709,-0.009571593,1.026512027
44.120692,-1.098491669,12.221862793,0.610195160,-0.003406677,0.138987973,1.010398746
44.159017,1.068256378,9.727050781,-3.235019684,0.047984924,0.023509461,0.998069644
44.173306,-0.961162567,5.492736816,-0.168003082,0.009898987,0.062327821,0.990013003
44.188645,0.923297882,3.325988770,2.349697113,0.021007385,0.084544614,0.972923160
44.226933,-1.365520477,-3.105590820,0.503383636,0.040172424,-0.005054992,0.965110660
44.265255,-5.988933563,-0.275085449,-0.610507965,0.017589416,0.108714536,0.980003238
44.279533,-2.410747528,0.701477051,0.800930023,0.014781799,0.103953794,0.973533511
44.294870,-1.319744110,3.058959961,2.952419281,0.057750549,0.004466493,1.011985660
44.347821,-1.220561981,7.537414551,-2.411045074,-0.004627381,0.111888364,1.024925113
44.386281,2.197406769,1.266052246,-0.396884918,0.043346252,0.004588563,1.010154605
44.400567,-0.236370087,-0.290344238,-1.114048004,0.040538635,0.023143250,1.005760074
44.415878,-0.182964325,-4.211853027,-0.557102203,0.016734924,0.068675473,0.991477847
44.454201,-2.799846649,-5.165527344,-2.586521149,0.051769104,0.017772157,1.006370425
44.492516,0.404499054,-5.646179199,-4.852451324,0.023815002,0.131175473,1.015403628
44.506831,4.844806671,-5.814025879,-3.372348785,-0.001087341,0.126903012,0.989402652
44.522162,6.736896515,-6.073425293,1.678310394,0.027721252,0.030101258,0.969871402
44.560478,-6.088115692,-7.698486328,-4.692234039,0.020152893,0.020701844,1.008445621
44.614302,4.326007843,-5.722473145,2.525173187,0.030895080,-0.002857726,0.992820621
44.628630,0.259540558,-3.578613281,1.952968597,0.044566955,-0.015675109,1.000999331
44.643981,-4.730083466,1.349975586,-2.281345367,0.033092346,0.041820008,0.998679996
44.682280,1.678607941,2.936889648,4.134975433,0.036876526,0.019969422,0.992942691
44.720593,-1.197673798,1.433898926,-0.709690094,0.018932190,0.087718442,0.996726871
44.734885,2.235553741,-0.252197266,1.037441254,0.015636291,0.087108091,0.989036441
44.750206,4.562519073,-1.633117676,1.296840668,0.030406799,0.048655946,0.956077456
44.788511,-3.555156708,-2.731750488,2.914272308,0.052867737,0.024241883,0.982810855
44.826867,2.403400421,-0.877807617,0.030361176,0.020274963,0.066722348,0.957786441
44.841161,-0.747539520,2.608825684,2.113185883,0.035533752,0.009349305,0.954734683
44.856488,-4.524089813,5.248596191,2.166591644,0.049693909,-0.000294250,0.971946597
44.894809,-4.279949188,10.139038086,-1.213230133,0.041881409,0.093821958,1.017478824
44.933151,1.411579132,6.049682617,0.015102386,0.043834534,0.019359071,0.970847964
44.964254,-5.966045380,3.844787598,-0.480808258,0.054332580,0.026317079,1.002097964
44.978589,-3.623821259,1.822998047,-0.152744293,0.041148987,0.075267270,1.005149722
45.016796,1.251361847,-1.366088867,0.404201508,0.053356018,0.047069032,0.981346011
45.055127,-5.813457489,-1.961181641,-1.533664703,0.060069885,0.041453797,1.013816714
45.069423,-2.509929657,-3.250549316,-2.662815094,0.039073791,0.084788755,1.014915347
45.084757,0.473163605,-4.494140625,-1.884616852,0.025157776,0.081981137,1.004905581
45.123094,-2.982952118,-1.732299805,0.305019379,0.072032779,0.004832704,1.008567691
45.161426,-0.259258270,-2.388427734,-2.937473297,0.028575744,0.063060239,1.017234683
45.175716,1.609943390,-1.457641602,-1.190341949,0.026012268,0.050364930,1.006126285
45.191030,0.587604523,0.823547363,-0.862277985,0.049571838,0.019969422,0.996360660
45.229307,-4.340984344,2.044250488,-3.456272125,0.053111877,0.038402040,1.033836246
45.267620,4.768512726,-2.846191406,-0.465549469,0.028575744,0.040721375,0.986228824
45.281919,3.318927765,-2.914855957,-0.541843414,0.046031799,0.013743836,0.982810855
45.297222,-2.792217255,-2.205322266,-2.540744781,0.052379455,-0.007130187,0.997703433
45.335540,-1.899578094,0.838806152,-3.227390289,0.038097229,0.076487973,1.018821597
45.373884,2.884052277,2.753784180,-1.152194977,0.036266174,0.000071961,0.970115542
45.388162,-4.112102509,2.128173828,-4.333652496,0.055675354,0.014110047,0.973411441
45.403481,-5.653240204,0.983764648,-6.042636871,0.031017151,0.037181336,0.980857730
45.441820,0.824115753,-2.556274414,0.465236664,0.032726135,0.050487000,0.991966128
45.480153,-4.707195282,-2.220581055,-3.921665192,0.030162659,0.012889344,1.018211246
45.494441,-4.134990692,-3.128479004,-3.570713043,0.012462463,0.044749696,1.018333316
45.509763,1.335285187,-4.234741211,-0.549472809,-0.007434998,0.064403012,0.997093081
45.563955,-3.356792450,-3.586242676,-3.059543610,0.024181213,0.007152040,1.012351871
45.602371,1.342914581,-3.403137207,1.487575531,0.017467346,0.027903993,0.999168277
45.616660,-1.113750458,-0.755737305,1.022182465,0.041271057,0.003978211,1.013938785
45.631998,-2.258159637,1.182128906,-0.755466461,0.046764221,0.021556336,1.014182925
45.670310,2.624652863,0.495483398,0.579677582,0.017589416,0.056956727,0.982322574
45.708654,-2.525188446,0.487854004,1.060329437,0.047496643,0.018992860,0.985618472
45.722947,-3.143169403,1.632263184,-0.129856110,0.044444885,0.031810243,0.994895816
45.738262,-1.304485321,0.754882812,-1.281894684,0.026256409,0.047435243,0.999290347
45.776668,-1.129009247,0.709106445,2.288661957,0.036998596,0.007152040,0.997703433
45.815050,-2.464153290,6.057312012,-3.944553375,0.028697815,0.049754579,1.010032535
45.829346,-0.655986786,3.959228516,-2.082981110,0.006114807,0.054637391,1.007713199
45.844670,1.686237335,-1.228759766,2.578578949,0.018688049,0.052684266,0.998069644
45.882990,1.625202179,-1.915405273,3.341518402,0.049815979,0.000682313,0.999900699
45.937428,0.770709991,-6.271789551,4.714809418,0.029918518,0.030711610,0.987571597
45.951750,0.320575714,-4.280517578,4.035793304,0.053478088,0.022410829,0.989280581
45.967088,-1.869060516,0.846435547,-0.480808258,0.057872619,0.016673524,0.997581363
46.005401,1.014850616,0.258972168,0.526271820,0.013561096,0.053050477,0.986839175
46.043715,-0.999309540,3.112365723,-0.396884918,0.052745666,0.034251649,0.993797183
46.058024,-0.709392548,2.921630859,-1.220859528,0.046886291,0.044749696,0.995506167
46.073359,1.915119171,1.082946777,-0.564731598,0.028331604,0.051219422,0.972312808
46.111680,-1.014568329,-1.144836426,1.342617035,0.038341369,0.014476258,0.965354800
46.150013,-3.639080048,0.869323730,-0.847019196,0.043712463,0.042918641,1.001975894
46.177049,0.122211456,0.106384277,0.831447601,0.010875549,0.026439149,0.994285464
46.191337,-0.625469208,0.457336426,2.639614105,0.024913635,0.007884461,0.999534488
46.229508,-1.838542938,1.258422852,-0.732578278,0.040538635,0.042918641,1.025413394
46.267847,0.885150909,-5.089233398,2.120815277,0.018932190,0.012278993,1.001609683
46.282117,-2.021648407,-2.922485352,3.425441742,0.060680237,0.007640321,1.023826480
46.297419,-2.288677216,-1.381347656,0.526271820,0.072521061,0.021678407,1.038230777
46.335722,3.997943878,-1.663635254,0.274501801,0.003185119,0.034495790,0.981346011
46.374080,-1.441814423,-0.305603027,1.350246429,0.052135315,0.040843446,1.009055972
46.388364,0.808856964,0.121643066,0.541530609,0.052623596,0.049998719,1.006370425
46.403672,3.456256866,-0.229309082,-1.197971344,0.036266174,0.034373719,0.972434878
46.441986,-4.600383759,1.929809570,1.830898285,0.049815979,0.021800477,0.989768863
46.480294,1.289508820,4.821350098,-1.930393219,0.051524963,0.036082704,0.997581363
46.494592,1.762531281,4.104187012,-1.457370758,0.036754455,0.021678407,0.987937808
46.509912,-0.312664032,1.967956543,1.266323090,0.038097229,0.006907899,0.978416324
46.548227,-2.616741180,1.296569824,-1.129306793,0.065685123,0.016185243,1.013328433
46.586541,2.197406769,-0.168273926,-0.801242828,0.030528869,0.038646180,0.976707339
46.600842,-0.190593719,0.121643066,0.724636078,0.043834534,0.015330750,0.978538394
46.616163,-1.533367157,1.014282227,-0.267185211,0.054088440,0.019725282,0.985374331
46.654477,0.488422394,3.707458496,-2.479709625,0.025646057,0.037547547,0.970847964
46.692794,-3.570415497,1.319458008,0.945888519,0.048839416,0.038035829,0.978904605
46.707086,-2.731182098,2.013732910,-0.610507965,0.061168518,0.043651063,0.984886050
46.722414,-0.778057098,1.098205566,-3.700412750,0.051647034,0.031932313,0.976341128
46.772445,-5.134441376,-1.839111328,0.198207855,0.029918518,0.028392274,1.002830386
46.810897,0.122211456,-0.793884277,-4.936374664,0.022594299,0.036082704,0.991477847
46.825209,0.412128448,-3.601501465,-3.570713043,0.012340393,0.029490907,0.975242496
46.840541,-2.288677216,-7.736633301,1.891933441,0.010387268,-0.001759093,0.993308902
46.878881,-1.762248993,-0.633666992,-4.028476715,0.059215393,0.028392274,1.016258121
46.917206,-0.739910126,-3.761718750,-1.793064117,0.017101135,0.029002625,0.995628238
46.931492,-1.548625946,-2.777526855,-0.206150055,0.032726135,0.028514344,1.002342105
46.946825,-1.998760223,-1.404235840,-0.717319489,0.047740784,0.023997743,1.008079410
46.985144,-1.075603485,-0.450561523,-4.379428864,0.033336487,0.055491883,1.003318667
47.023494,-1.617290497,0.289489746,-2.929843903,0.046398010,0.045360047,1.002342105
47.037807,-0.030376434,-0.519226074,-2.967990875,0.029186096,0.053782899,0.998191714
47.053125,0.908039093,-1.182983398,-1.663364410,0.034801330,0.049510438,0.988792300
47.091473,-3.082134247,1.189758301,-4.249729156,0.042003479,0.037913758,0.990501285
47.129798,-0.228740692,3.791381836,-4.226840973,0.043712463,0.039622743,1.005027652
47.144095,-0.091411591,3.043701172,-4.432834625,0.036998596,0.029002625,1.002464175
47.159416,-0.770427704,1.830627441,-4.852451324,0.038585510,0.037547547,0.995262027
47.197729,0.686786652,0.419189453,-3.006137848,0.046886291,0.036693055,0.988548160
47.236099,0.251911163,-1.778076172,-3.006137848,0.023937073,0.060130555,0.964256167
47.263540,0.908039093,0.915100098,-3.471530914,0.043102112,0.052684266,0.954246402
47.277851,-1.586772919,5.507995605,-5.058444977,0.048473205,0.023875672,0.932395816
47.316063,-9.155132294,9.681274414,-5.081333160,0.031993713,0.102977231,0.967063785
47.366532,-1.098491669,6.278564453,-7.385410309,0.041271057,0.089793637,0.976341128
47.380888,-1.151897430,3.295471191,-7.850803375,0.018077698,0.080882505,0.960716128
47.396236,-2.982952118,-4.875610352,-2.441562653,-0.012928162,0.054271180,0.959129214
47.434552,-4.417278290,-5.302856445,-3.235019684,0.048229065,0.045604188,0.990867496
47.472889,-5.241252899,-3.052185059,-2.327121735,0.008312073,0.093577817,0.978416324
47.487169,-4.882671356,-0.549743652,-1.449741364,0.037486877,0.107982114,0.983787417
47.502490,-4.951335907,1.624633789,-2.807773590,0.045177307,0.118113950,0.980369449
47.540841,-2.685405731,-0.099609375,-3.730930328,0.021007385,0.138987973,0.980857730
47.579175,-0.434734344,-0.938842773,1.113735199,0.047130432,0.094554380,0.982200503
47.593460,-1.441814423,0.793029785,-0.366367340,0.066539615,0.077708676,0.990501285
47.608769,-4.058696747,3.249694824,-4.623569489,0.074107975,0.080760434,1.015769839
47.647101,2.327106476,-3.471801758,0.938259125,-0.013416443,0.097972348,0.965721011
47.685446,-7.087566376,0.190307617,-4.646457672,0.039928284,0.073070005,1.001121402
47.699726,-7.202007294,-0.847290039,-3.128208160,0.041515198,0.085277036,1.023094058
47.715054,-5.584575653,-4.715393066,-2.548374176,0.014537659,0.115672544,1.025901675
47.753379,-4.196025848,8.094360352,-2.144016266,0.120494694,0.062327821,1.105857730
47.791704,-1.647808075,10.604431152,-12.893833160,0.015270080,0.108714536,1.105979800
47.806012,2.487323761,2.616455078,-2.662815094,-0.032215271,0.101878598,1.076804996
47.821317,2.334735870,1.449157715,3.692470551,0.000743713,0.069652036,1.099143863
47.859665,-4.211284637,6.118347168,-18.142856598,0.059825744,0.058665711,1.189842105
47.898004,14.145038605,-22.583435059,10.551296234,-0.026233826,0.061961610,1.176780581
47.912306,16.830585480,-19.020507812,4.539333344,0.090953678,0.016551454,1.152000308
47.927741,14.587543488,-15.304992676,-3.891147614,0.102184147,-0.003712218,1.117942691
47.979618,9.613178253,-36.316345215,8.575283051,-0.054309998,0.109324887,1.084617496
48.018069,18.150470734,-26.665161133,10.955654144,0.058727112,-0.034962218,1.028465152
48.032374,6.889484406,-16.266296387,0.396572113,0.050426330,-0.046558898,1.031028628
48.047726,3.273151398,-11.856506348,0.106655121,0.005748596,-0.008106750,1.013816714
48.086089,11.802814484,10.245849609,7.392726898,0.056773987,0.045726258,1.014915347
48.124442,10.025165558,23.063232422,0.923000336,0.002330627,-0.010304015,0.939842105
48.138738,8.430622101,23.643066406,3.913722992,0.021129455,0.003612000,0.934837222
48.154085,7.278583527,25.359680176,2.136074066,0.041393127,0.030101258,0.923972964
48.192424,3.067157745,23.780395508,-3.738559723,0.011241760,0.041453797,0.911277652
48.230764,5.828998566,6.431152344,5.149684906,-0.031116638,0.116649106,0.920799136
48.245059,9.132526398,3.486206055,7.453762054,0.008067932,0.105296567,0.923606753
48.260385,10.368488312,-2.785156250,0.327907562,0.020885315,0.061717469,0.907249331
48.298701,5.386493683,-14.679382324,7.659755707,-0.018909607,0.078929380,0.911277652
48.337063,7.782123566,-9.293029785,4.630886078,0.050792541,0.078196958,0.921897769
48.351359,3.822467804,-7.339904785,1.670681000,0.022228088,0.069407895,0.919700503
48.366675,1.632831573,-8.812377930,2.807460785,0.008190002,0.091014341,0.941429019
48.404992,8.659503937,-5.203674316,6.965480804,0.007335510,0.152781919,0.922996402
48.443312,-0.068523407,7.979919434,2.242885590,0.053233948,0.090648130,0.993553042
48.457618,0.656269073,10.139038086,2.822719574,0.043224182,0.121287778,1.011375308
48.472977,8.926532745,13.274719238,1.418910980,0.051036682,0.156688169,0.966575503
48.511294,1.724384308,18.142272949,-0.885166168,0.078380436,0.000194032,0.988914371
48.563290,2.456806183,19.759704590,-3.311313629,0.057628479,0.051463563,1.001121402
48.577641,2.273700714,21.766235352,-2.823032379,0.050914612,0.034129579,0.986228824
48.606930,-9.025432587,21.064331055,-11.024631500,0.066783756,0.073192075,0.999656558
48.645307,-1.380779266,-1.938293457,2.082668304,-0.001087341,0.191600278,0.987327456
48.683663,3.364704132,-9.674499512,2.151332855,0.054454651,0.035960633,0.993186831
48.697966,2.945087433,-10.185668945,-1.358188629,0.025890198,0.013133485,0.963279605
48.713292,2.853534698,-10.490844727,-0.335849762,0.016612854,0.007274110,0.943504214
48.751648,-9.101726532,-11.543701172,2.761684418,0.026012268,0.031077821,0.930442691
48.789982,-2.502300262,-6.752441406,0.007472992,0.012706604,0.131175473,0.946678042
48.804266,-0.190593719,-5.600402832,1.693569183,0.010143127,0.115306333,0.935325503
48.819597,-1.457073212,-2.525756836,2.776943207,0.031017151,0.065501645,0.929466128
48.857912,-5.294658661,8.559753418,-1.426853180,0.060436096,0.084788755,1.010032535
48.896259,2.555988312,9.788085938,1.907192230,0.025157776,0.074656919,0.987693667
48.910626,0.641010284,8.765747070,2.097927094,0.054698791,0.070140317,1.010520816
48.925996,0.732563019,6.583740234,-1.075901031,0.043224182,0.126414731,1.014671206
48.964276,10.986469269,1.250793457,5.126796722,0.041759338,0.102977231,0.958396792
49.002576,-5.874492645,2.479125977,2.258144379,0.071056217,0.070140317,1.025169253
49.016871,-4.264690399,5.813171387,-1.617588043,0.078868717,0.171214536,1.088889956
49.032220,1.991413116,6.820251465,-4.364170074,0.051524963,0.213450864,1.075462222
49.070521,14.160297394,-5.203674316,7.079921722,0.060436096,0.038157899,1.045799136
49.108873,4.966876984,-10.200927734,6.881557465,0.042857971,0.099193051,1.066795230
49.138995,12.603900909,-3.418395996,0.900112152,0.068126529,0.045970399,1.032859683
49.153316,10.185382843,-1.938293457,0.877223969,0.066905826,0.023753602,1.023094058
49.191518,-0.861980438,-3.136108398,-1.236118317,0.012462463,0.127513364,0.992698550
49.229878,2.296588898,-7.538269043,-0.259555817,0.033092346,0.067820981,0.984641910
49.244159,-2.433635712,-5.333374023,-0.297702789,0.036388244,0.056590516,0.978172183
49.259485,-4.844524384,-3.502319336,-1.159824371,0.039073791,0.078563169,0.969016910
49.297822,-0.030376434,-3.685424805,-4.738010406,-0.034900818,0.097972348,0.974998355
49.336151,1.670978546,-12.207458496,0.419460297,-0.022937927,0.048900086,0.908470035
49.350445,0.473163605,-14.038513184,1.449428558,-0.016834412,0.041575868,0.898948550
49.365777,-2.578594208,-19.562194824,2.204738617,0.001231994,0.048411805,0.892722964
49.404101,-3.288127899,-21.744201660,5.523525238,-0.001819763,0.066600278,0.925681949
49.442455,-2.456523895,-15.579650879,-0.442661285,0.002330627,0.082713559,0.927635074
49.456744,0.442646027,-11.124084473,3.417812347,-0.006458435,0.080638364,0.907859683
49.472089,0.732563019,-8.385131836,4.127346039,0.012950744,0.056956727,0.907127261
49.510428,-6.141521454,7.613708496,-1.243747711,0.035411682,0.080882505,0.903465152
49.548748,-5.081035614,16.768981934,-2.983249664,0.053233948,0.109813169,0.950218081
49.563040,-4.760601044,20.347167969,-5.241550446,0.042125549,0.110545591,0.966819644
49.578376,-5.050518036,21.232177734,-6.141819000,0.039562073,0.119456723,0.967552066
49.616696,-6.019451141,13.251831055,-3.418125153,-0.005726013,0.148143247,1.058982730
49.655062,13.824604034,3.722717285,1.014553070,0.062389221,0.072337583,1.054710269
49.669350,13.458393097,3.356506348,-2.700962067,0.070445865,0.011424500,1.038841128
49.684664,1.953266144,-0.259826660,-5.767978668,0.030528869,-0.072804019,1.075828433
49.738449,0.648639679,0.968505859,-2.296604156,0.059337463,0.077586606,1.150901675
49.776891,-0.900127411,-0.709960938,-9.666599274,0.026866760,0.040111024,1.124168277
49.791249,-0.205852509,-7.957885742,-3.952182770,-0.004993591,0.109935239,1.090476871
49.806617,2.235553741,-8.240173340,0.724636078,0.016979065,0.112254575,1.088767886
49.844910,-3.639080048,-1.907775879,-4.135288239,0.021495666,0.041575868,1.112571597
49.883219,9.658954620,4.241516113,0.129543304,0.041393127,0.033641297,1.092796206
49.897481,10.528705597,6.454040527,1.777492523,0.077892154,-0.012379210,1.084129214
49.912835,2.533100128,12.069274902,-6.576694489,0.118053287,-0.012623351,1.037498355
49.966822,5.005023956,5.141784668,-0.496067047,0.034679260,0.145579770,0.998191714
50.005229,4.806659698,13.701965332,-10.276950836,0.056773987,0.072215512,0.969016910
50.019530,2.960346222,11.931945801,-9.788669586,0.022838440,0.100291684,0.969993472
50.034880,7.827899933,6.759216309,-4.791416168,0.005138244,0.163646176,0.945091128
50.073200,13.137958527,-0.214050293,-2.838291168,0.043346252,0.056468446,0.893211246
50.111523,7.698200226,-14.099548340,-0.198520660,-0.019275818,0.122630551,0.890159488
50.125848,10.521076202,-14.976928711,3.921352386,-0.005359802,0.111644223,0.897483706
50.141195,10.711811066,-11.841247559,1.640163422,0.060802307,0.072703794,0.884055972
50.179502,1.159809113,-5.310485840,-1.907505035,0.014781799,0.160960630,0.900413394
50.217851,6.233356476,-1.770446777,1.762233734,0.019908752,0.149852231,0.902488589
50.232137,1.663349152,0.350524902,-3.059543610,0.031627502,0.153636411,0.933372378
50.247476,1.457355499,-0.145385742,-2.693332672,-0.008167420,0.181712583,0.933738589
50.285780,12.581012726,-3.647277832,6.576381683,0.035533752,0.115672544,0.919822574
50.340007,-8.735515594,9.826232910,-2.411045074,0.044444885,0.106151059,1.027976871
50.354329,-4.196025848,11.580993652,-0.702060699,0.016734924,0.136180356,1.023460269
50.369684,3.181598663,10.901977539,2.548061371,0.052257385,0.095286801,0.998191714
50.408007,-9.887554169,4.439880371,-2.205051422,0.030895080,0.065745786,0.996360660
50.446325,-7.438518524,-0.999877930,0.839076996,0.004527893,0.121776059,1.007713199
50.460618,-6.561138153,-4.829833984,1.159511566,0.009044494,0.074168637,1.037498355
50.475978,-7.949687958,-6.790588379,1.014553070,0.003673401,0.079905942,1.046775699
50.514281,5.020282745,-15.549133301,6.469570160,-0.020740662,0.152537778,1.019431949
50.552607,2.227924347,-17.319152832,-0.267185211,0.040782776,-0.015064757,0.953391910
50.566904,-7.133342743,-18.578002930,2.555690765,0.008190002,0.043040711,0.954368472
50.582254,-7.728435516,-17.593811035,3.379665375,0.019176330,0.092235044,0.947898746
50.620554,1.175067902,-12.764404297,-0.740207672,-0.006824646,0.104808286,0.902610660
50.658888,-6.027080536,-7.088134766,-0.160373688,-0.001209412,0.106883481,0.916282535
50.673164,-4.669048309,-5.073974609,0.968776703,-0.012439881,0.114329770,0.922019839
50.688502,-2.174236298,-0.290344238,2.014003754,0.020763244,0.089671567,0.941673160
50.726831,-0.648357391,5.050231934,2.616725922,0.014293518,0.132884458,0.955711246
50.765155,1.823566437,6.721069336,-0.610507965,0.027477112,0.105784848,0.939231753
50.779440,-1.823284149,3.844787598,0.961147308,-0.006214295,0.096751645,0.960838199
50.794789,-2.250530243,2.326538086,4.218898773,0.005382385,0.114329770,0.981223941
50.833106,4.875324249,-0.099609375,-0.602878571,-0.001941834,0.127391294,0.975852847
50.871469,1.052997589,-7.530639648,2.693019867,0.006236877,0.069163755,0.992210269
50.885749,-0.213481903,-5.165527344,4.440151215,0.042735901,0.076121762,1.008445621
50.901102,-0.877239227,-2.113769531,2.624355316,0.049327698,0.081981137,1.003806949
50.955568,-1.243450165,20.965148926,-4.646457672,0.098155826,0.067088559,1.092307925
50.993998,-0.930644989,26.404907227,-11.413730621,0.048229065,0.055003602,0.990135074
51.008308,-5.477764130,23.627807617,-9.956516266,0.021007385,0.054393250,0.991233706
51.023668,-10.009624481,19.507934570,-6.714023590,0.010753479,0.086253598,0.998313785
51.062006,-0.457622528,-0.427673340,-3.128208160,0.013927307,0.162181333,1.012718081
51.100335,2.082965851,-22.423217773,6.698451996,0.005626526,-0.071583316,1.014427066
51.114630,-7.728435516,-22.064636230,3.135524750,0.077159733,-0.043507140,0.995017886
51.130004,-11.611797333,-21.477172852,-1.793064117,0.049449768,-0.017139953,1.004539371
51.168339,-6.126262665,-21.454284668,1.357875824,0.005992737,0.115916684,0.996238589
51.206697,0.747821808,-13.802001953,2.090297699,0.043834534,0.082713559,0.941184878
51.220999,-1.037456512,-10.612915039,1.449428558,0.029674377,0.052562196,0.945213199
51.236342,-5.035259247,-2.434204102,4.417263031,0.051891174,0.051097352,0.966941714
51.286204,-1.319744110,24.856140137,-2.380527496,0.085948795,0.087596372,0.971946597
51.324577,0.923297882,29.052307129,-1.823581696,0.049083557,0.067454770,0.960838199
51.338884,0.732563019,28.335144043,-1.388706207,0.055309143,0.064769223,0.964988589
51.354252,1.419208527,25.977661133,-2.815402985,0.054088440,0.065867856,0.951194644
51.392563,-3.013469696,16.295959473,-1.182712555,0.059459534,0.094310239,0.976096988
51.430903,1.365802765,6.804992676,0.251613617,0.045909729,0.133128598,1.001853824
51.445212,4.036090851,1.006652832,-2.388156891,0.044566955,0.113597348,1.006004214
51.460530,3.791950226,-3.143737793,-2.052463531,0.023570862,0.105906919,1.000877261
51.498869,7.896564484,-20.981262207,6.110988617,0.023082580,0.113353208,1.021385074
51.548887,-4.592754364,-10.612915039,-2.899326324,0.061168518,0.075877622,1.004051089
51.563223,-6.278850555,-9.056518555,-3.883518219,0.013072815,0.153758481,1.030418277
51.578598,-1.632549286,-9.956787109,-1.640476227,-0.010975037,0.172801450,1.030052066
51.616893,6.248615265,-2.830932617,7.766567230,0.085460514,-0.010304015,0.989036441
51.655211,-12.405254364,14.190246582,-7.805027008,0.057628479,-0.025562804,1.013938785
51.669496,-12.687541962,14.785339355,-6.729282379,0.033092346,0.014720399,1.014060855
51.684853,-7.942058563,12.015869141,-3.006137848,0.026744690,0.044871766,1.027000308
51.723168,-1.510478973,1.319458008,-2.388156891,0.046764221,0.027049500,1.023460269
51.761477,2.090595245,-10.673950195,2.700649261,0.029796448,-0.002003234,0.927268863
51.775764,-2.326824188,-10.925720215,1.228176117,0.052501526,-0.011036437,0.924705386
51.791126,-9.879924774,-10.933349609,-4.882968903,0.043102112,0.023265321,0.930686831
51.829457,-9.528972626,-14.938781738,0.495754242,-0.001819763,0.106517270,0.941062808
51.867760,-6.370403290,-12.772033691,-1.739658356,0.019664612,0.079539731,0.963645816
51.882054,-4.638530731,-10.460327148,-0.557102203,0.002086487,0.068797544,0.975486636
51.897398,-3.127910614,-8.934448242,0.358425140,0.008922424,0.075145200,0.969505191
51.935696,-2.258159637,0.289489746,-1.228488922,0.027232971,-0.003101867,0.955100894
51.974021,-8.346416473,5.652954102,-2.502597809,0.012828674,0.075389341,0.995017886
51.988311,-0.030376434,4.676391602,0.663600922,0.013194885,0.119456723,0.966941714
52.003643,2.922199249,4.859497070,0.755153656,0.035167541,0.098460630,0.957054019
52.041943,-6.927349091,7.514526367,-0.351108551,0.052745666,0.075755551,0.978660464
52.080257,3.288410187,8.582641602,-2.884067535,0.005992737,0.124095395,1.012473941
52.094530,6.553791046,8.475830078,0.884853363,0.030040588,0.080760434,1.015281558
52.109865,5.783222198,12.939025879,-2.525485992,0.104991764,0.000438172,1.032737613
52.160143,0.221393585,17.783691406,-9.208835602,0.046764221,0.103709653,0.994041324
52.198552,6.439350128,14.136840820,-10.513462067,0.058360901,-0.006397765,0.970970035
52.212867,4.799030304,14.075805664,-10.833896637,0.067760319,-0.027393859,0.944846988
52.240294,-10.833599091,11.642028809,-15.182651520,0.053722229,-0.088551089,0.985008121
52.278711,-14.846660614,3.791381836,-14.503635406,0.020641174,0.058421571,1.034690738
52.317039,-2.410747528,-15.518615723,-11.902011871,-0.046985779,-0.012867492,1.035179019
52.331355,-2.403118134,-24.025390625,-5.333103180,-0.047474060,-0.063404605,1.078025699
52.346710,0.671527863,-29.617736816,1.548610687,0.038951721,-0.056080382,1.074485660
52.385048,2.159259796,-30.418823242,-12.382663727,0.024181213,-0.086597964,1.006492496
52.423343,-4.981853485,-35.164306641,-0.831760406,0.041515198,0.005198915,0.991844058
52.437643,-1.640178680,-29.083679199,-7.286228180,0.038219299,0.026683290,0.966331363
52.453009,-0.877239227,-25.947998047,-8.552707672,0.037853088,0.017772157,0.956809878
52.491324,-7.881023407,-15.083740234,0.991664886,0.029308166,0.011058290,0.999412417
52.529639,-3.089763641,12.687255859,-16.029514313,0.067394108,0.005076844,0.990989566
52.543942,-3.318645477,15.609313965,-14.679111481,0.025157776,-0.012257140,0.974998355
52.559311,-8.376934052,18.783142090,-9.124912262,0.042125549,-0.020924132,1.025413394
52.611188,2.266071320,29.281188965,-12.519992828,0.086070865,0.018504579,1.016624331
52.649543,-5.660869598,20.644714355,-8.834995270,0.015270080,0.051585633,1.038230777
52.663859,-3.280498505,16.868164062,-6.309665680,0.020763244,0.091624692,1.030540347
52.679312,7.034442902,13.297607422,-4.326023102,0.072887272,0.086863950,1.013816714
52.717670,0.999591827,3.234436035,-13.351596832,0.026134338,-0.026539367,1.027854800
52.755943,5.638263702,-12.741516113,-4.417575836,0.018565979,0.024119813,1.007835269
52.770250,6.820819855,-12.413452148,-3.921665192,0.068126529,-0.003956359,0.995139956
52.785607,-0.938274384,-10.940979004,-13.725437164,0.068248600,-0.057545226,1.021140933
52.823917,-4.173137665,-11.604736328,-10.955966949,0.007945862,0.058299500,1.070701480
52.862231,10.704181671,-6.309936523,-8.239902496,0.084117740,-0.008717101,1.037742496
52.876521,10.086200714,-4.265258789,-12.382663727,0.068736881,-0.120655581,1.042381167
52.905548,-1.090862274,-2.342651367,-13.260044098,0.046764221,-0.126148745,0.970603824
52.943959,-11.611797333,8.300354004,-17.669834137,0.115978092,-0.017628234,1.025169253
52.982257,-0.091411591,5.561401367,-17.822422028,0.046398010,0.038035829,1.022727847
52.996558,6.363056183,-0.503967285,-13.961948395,0.004772034,0.006175477,0.954490542
53.011887,6.141803741,-0.511596680,-8.667148590,0.031993713,-0.029469054,0.938011050
53.050220,-7.179119110,-4.814575195,-19.157566071,0.035655823,-0.038868468,0.935203433
53.088507,-10.284282684,-8.408020020,-11.421360016,0.043224182,0.072093442,0.933372378
53.102832,-6.645061493,-4.051635742,-16.517795563,0.109508365,0.046946961,0.968650699
53.118184,-5.706645966,-4.951904297,-22.705234528,0.085582584,0.024608094,0.970970035
53.156498,-6.400920868,-15.701721191,-7.652439117,0.030650940,0.011180360,0.992454410
53.194807,-1.289226532,-7.797668457,-18.768466949,0.058971252,-0.105885074,0.991599917
53.209111,-4.936077118,-6.210754395,-15.930332184,0.076061100,-0.117847964,1.003562808
53.224471,-13.007976532,-3.494689941,-22.224582672,0.067882389,-0.027515929,0.998313785
53.262820,-3.509380341,3.852416992,-15.899814606,0.128673404,0.011912782,1.015891910
53.301129,-7.316448212,9.910156250,-20.523227692,0.087535709,0.054271180,1.036277652
53.315440,-4.669048309,12.481262207,-22.751010895,0.098522037,0.081981137,1.009910464
53.330795,-0.526287079,11.436035156,-28.274692535,0.084606022,-0.002369445,1.052146792
53.369134,-4.028179169,7.270385742,-25.871433258,0.112193912,-0.037769835,1.124656558
53.407439,5.722187042,2.555419922,-30.166782379,0.065563053,0.032908875,1.066062808
53.421737,3.570697784,-1.007507324,-21.095432281,0.112926334,-0.080738589,1.189597964
53.437100,1.777790070,0.739624023,-22.880710602,0.171031803,-0.076344058,1.233299136
53.475450,21.820209503,16.402770996,-40.481723785,0.190807194,-0.047291320,1.112571597
53.513760,0.648639679,8.666564941,-41.587985992,0.049815979,-0.030323546,0.992332339
53.528061,-5.271770477,5.347778320,-36.575473785,0.034557190,0.011912782,1.009666324
53.543415,-6.774761200,2.471496582,-32.791294098,0.116344303,0.135692075,1.010154605
53.581740,8.842609406,-9.224365234,-26.230014801,0.096446842,0.025218446,1.066917300
53.633957,3.715656281,-4.707763672,-35.003818512,0.019664612,-0.014088195,0.905784488
53.648291,-1.441814423,-7.164428711,-27.702487946,0.026378479,-0.039112609,0.930198550
53.663655,-11.588909149,-1.083801270,-27.389682770,0.148326725,0.039622743,1.040794253
53.701989,13.343952179,4.813720703,-41.961826324,0.033946838,0.145457700,0.936912417
53.740277,2.372882843,-13.969848633,-30.326999664,0.048595276,0.006541688,0.946311831
53.754568,-0.038005829,-14.191101074,-30.052341461,0.038463440,0.062816098,0.924949527
53.769926,6.279132843,-13.740966797,-31.776584625,0.067760319,0.136058286,0.880515933
53.808264,0.465534210,-22.224853516,-25.200046539,0.042735901,0.010325868,0.878562808
53.846557,-3.867961884,-14.069030762,-30.845798492,0.074230045,0.108104184,0.891502261
53.860857,1.144550323,-13.031433105,-35.179294586,0.017589416,0.080394223,0.868308902
53.876201,0.244281769,-13.969848633,-30.113376617,0.000865784,0.029857118,0.882469058
53.929159,-0.953533173,-2.426574707,-33.409275055,0.067516178,0.084910825,0.946678042
53.967512,-5.447246552,-14.526794434,-29.449619293,0.014293518,0.050609071,1.014671206
53.981834,-4.302837372,-15.396545410,-27.107395172,-0.007312927,0.062205750,1.040183902
53.997193,2.769611359,-15.808532715,-24.665988922,0.052013244,0.093333676,1.015403628
54.035487,-1.731731415,-34.431884766,-30.586399078,-0.068103939,0.035594422,1.075340152
54.073814,16.716144562,-52.559326172,-10.803379059,0.043468323,0.093577817,1.044212222
54.088119,18.165729523,-45.792053223,-20.965732574,0.075694889,-0.038990539,0.937888980
54.103490,7.957599640,-45.074890137,-25.207675934,0.048473205,-0.090015933,0.952293277
54.141813,-29.586650848,-35.019348145,-11.154331207,0.047008362,0.138377622,1.007713199
54.180127,6.134174347,-10.963867188,-21.782077789,0.007579651,0.116038755,1.059837222
54.194496,10.017536163,-6.760070801,-18.585361481,0.011852112,0.060985047,1.029319644
54.209904,6.820819855,2.410461426,-17.952121735,0.031383362,-0.008961242,0.969505191
54.248203,-7.087566376,16.151000977,-19.783176422,0.059825744,-0.027149718,0.928245425
54.286467,-11.649944305,24.535705566,-14.480747223,0.062633365,0.066111997,0.972190738
54.300772,-9.261943817,28.983642578,-17.234958649,0.083385319,0.086986020,0.965354800
54.316152,-5.912639618,34.675170898,-26.847995758,0.072276920,0.061107118,0.945335269
54.369934,-9.048320770,22.071411133,-18.837131500,0.027232971,0.072947934,0.974021792
54.408339,-3.112651825,5.675842285,-19.462741852,-0.009021912,0.012889344,0.962913394
54.422651,-4.356243134,1.472045898,-16.243137360,0.005016174,0.005565125,0.961814761
54.438009,-6.446697235,-0.091979980,-17.364658356,0.038097229,0.011424500,0.977073550
54.476319,-10.032512665,-5.165527344,-23.162998199,0.015270080,-0.015553039,1.014427066
54.514646,0.595233917,-6.325195312,-18.707431793,0.064342350,0.104320005,1.044456363
54.529017,6.553791046,-2.853820801,-22.094882965,0.069225162,0.079417661,1.011985660
54.544392,6.355426788,0.320007324,-26.786960602,0.048839416,-0.008595031,0.972679019
54.582667,-8.346416473,3.409912109,-24.185337067,0.030040588,0.030711610,0.980125308
54.620945,1.541278839,13.373901367,-29.030002594,0.091441959,0.042064149,1.013572574
54.635242,-0.518657684,11.306335449,-34.446872711,0.024547424,-0.028492492,1.017967105
54.650604,-2.944805145,8.315612793,-29.831089020,-0.005848084,-0.055958312,1.051780581
54.688886,2.792499542,13.915588379,-31.540073395,0.091686100,-0.040821593,1.015159488
54.727197,-17.402507782,16.334106445,-33.500827789,0.052867737,-0.003101867,0.982322574
54.741486,-21.530010223,16.868164062,-32.203830719,0.045421448,0.059886415,1.003806949
54.756949,-17.272808075,21.857788086,-30.800022125,0.064342350,0.156566098,1.048484683
54.795260,5.073688507,25.268127441,-39.047397614,0.059825744,0.038279969,1.005515933
54.833548,-6.431438446,16.105224609,-25.894321442,0.060314026,-0.037525695,1.008567691
54.847861,-7.736064911,17.623474121,-28.900302887,0.090221256,-0.018238585,1.020408511
54.863202,-6.675579071,19.507934570,-33.928073883,0.072765201,-0.009083312,1.013206363
54.901487,-8.819438934,11.535217285,-30.265964508,0.021983948,0.061595399,1.049339175
54.939813,6.782672882,3.646423340,-24.604953766,0.052257385,0.087596372,0.998069644
54.954117,3.799579620,1.327087402,-26.336826324,0.076671451,0.008250672,0.998924136
54.969450,-0.701763153,0.182678223,-27.839817047,0.075450748,0.009471375,1.011009097
55.007730,4.966876984,-4.295776367,-24.826206207,0.019664612,0.117503598,0.998435855
55.046044,5.684040070,-4.181335449,-28.778232574,0.076793522,0.034617860,0.962669253
55.060346,3.746173859,-5.188415527,-29.121555328,0.052989807,0.038524110,0.958763003
55.075685,2.403400421,-6.210754395,-28.404392242,0.039440002,0.089183286,0.939597964
55.114003,2.021930695,-0.816772461,-31.837619781,0.078990787,0.070750669,0.953758121
55.167929,2.639911652,-7.194946289,-27.053989410,-0.000721131,0.109569028,0.954368472
55.182286,2.998493195,-6.920288086,-25.390781403,0.054698791,0.057078797,0.981468081
55.213550,-2.715923309,-9.621093750,-31.822360992,0.023082580,0.023265321,1.017478824
55.251881,1.724384308,-15.953491211,-24.063266754,0.016979065,0.089549497,1.038352847
55.290201,-0.495769501,-23.529479980,-37.063755035,-0.005603943,0.039256532,1.095847964
55.304504,-0.038005829,-31.815002441,-32.509006500,-0.084461361,0.081981137,1.083274722
55.319848,10.414264679,-40.527770996,-10.437168121,-0.044422302,0.086619809,1.072288394
55.358150,9.803913116,-33.310363770,-28.526462555,0.092296451,-0.047657531,0.977683902
55.396450,-27.450420380,-26.337097168,-11.413730621,0.059703674,0.102977231,1.084739566
55.410760,-12.634136200,-11.726806641,-21.682895660,0.077525944,0.201243833,1.143699527
55.426112,1.144550323,-2.617309570,-24.360813141,0.078746647,0.165599301,1.146263003
55.464430,2.731464386,10.848571777,-23.933567047,0.036510315,-0.044727843,1.056785464
55.502743,-2.769329071,25.413085938,-24.879611969,0.117931217,0.076243833,1.064231753
55.517130,0.579975128,27.579833984,-33.409275055,0.104869694,0.081492856,1.037010074
55.532535,1.274250031,21.773864746,-34.500278473,-0.022449646,0.053294618,1.042381167
55.570841,6.378314972,1.685668945,-20.012058258,-0.000843201,0.091136411,1.017967105
55.609117,6.462238312,-8.270690918,-23.979343414,-0.018055115,0.020945985,0.948264956
55.623426,3.364704132,-12.878845215,-21.148838043,-0.032581482,0.026561219,0.957298160
55.638792,0.099323273,-18.463562012,-16.487277985,-0.027454529,0.098216489,0.944602847
55.677094,6.797931671,-12.436340332,-18.837131500,0.071056217,0.057078797,0.976341128
55.715388,0.854633331,-13.954589844,-16.304172516,-0.024891052,0.067698911,1.007591128
55.729684,4.600666046,-13.260314941,-13.939060211,0.006358948,0.135325864,1.009055972
55.745051,9.407184601,-11.192749023,-13.794101715,0.012950744,0.129954770,1.011619449
55.783341,5.859516144,-3.921936035,-19.966281891,0.034801330,0.034251649,0.969993472
55.821635,7.423542023,-3.624389648,-13.420261383,0.015270080,0.132518247,1.012107730
55.835936,12.916706085,0.609924316,-13.359226227,0.045787659,0.107860044,0.998191714
55.851298,13.160846710,8.948852539,-20.767368317,0.064952701,0.019847352,0.957054019
55.889630,-3.356792450,9.360839844,-15.037693024,0.017955627,0.079295591,0.976341128
55.927915,6.752155304,23.086120605,-23.010410309,0.100719303,0.030711610,1.011253238
55.942219,5.493305206,23.215820312,-27.099765778,0.069469303,-0.010914367,1.038352847
55.973787,5.302570343,14.472534180,-20.027317047,0.016856994,0.035960633,0.975120425
56.012245,1.228473663,-3.105590820,-20.507968903,0.019908752,0.050487000,0.918968081
56.050547,-1.350261688,-26.176879883,-12.108005524,-0.043201599,0.099803403,0.937766910
56.064862,1.381061554,-29.121826172,-8.011020660,-0.020130310,0.090403989,0.934959292
56.080190,3.257892609,-29.022644043,-7.843173981,0.029064026,0.031199891,0.914695621
56.118496,-10.314800262,-17.342041016,-11.123813629,0.025768127,0.095164731,0.923362613
56.156839,3.570697784,-3.189514160,-9.605564117,0.032237854,0.132762387,0.871971011
56.171128,3.463886261,0.739624023,-10.399021149,0.050304260,0.087962583,0.862693667
56.186465,-3.860332489,4.127075195,-14.457859039,0.047984924,0.045360047,0.861472964
56.224773,-3.951885223,1.609375000,-9.613193512,0.018321838,0.109813169,0.894798160
56.263092,-1.457073212,5.744506836,-10.116733551,0.070567936,0.040965516,0.886131167
56.277395,-8.636333466,7.995178223,-15.266574860,0.045299377,0.042308290,0.919212222
56.292749,-10.154582977,7.796813965,-13.946689606,0.025279846,0.082469419,0.921653628
56.331092,-2.776958466,4.439880371,-7.942356110,0.037608948,0.116038755,0.959739566
56.369424,-7.858135223,4.157592773,-18.524326324,0.010509338,0.138255551,0.978660464
56.383719,-7.163860321,-6.073425293,-8.339084625,-0.028186951,0.215403989,0.996971011
56.399050,-3.593303680,-8.522460938,-4.684604645,-0.003650818,0.225657895,1.021018863
56.437436,7.309101105,-7.706115723,-8.094944000,0.040050354,0.098826841,1.008933902
56.475752,-4.806377411,-21.721313477,-1.960910797,-0.010730896,0.113597348,1.070701480
56.490054,-3.196575165,-21.233032227,1.258693695,0.030773010,0.143138364,1.077781558
56.517014,3.921649933,-11.291931152,-9.857334137,0.074840397,0.137401059,1.081199527
56.555428,-0.030376434,-18.692443848,-2.090610504,-0.025379334,0.126170591,1.048362613
56.593757,2.296588898,-8.369873047,-2.624668121,0.052379455,0.056956727,1.027122378
56.608051,0.396869659,-3.418395996,-5.882419586,0.064586490,0.042186219,1.018333316
56.623406,-4.730083466,3.943969727,-10.811008453,-0.002063904,0.040233094,1.005638003
56.673454,-6.728984833,16.593505859,-7.034458160,0.038463440,0.023631532,1.032249331
56.711890,-2.174236298,14.068176270,-6.050266266,0.032359924,0.044993836,1.011497378
56.726209,-1.113750458,12.389709473,-7.408298492,0.030162659,0.046092469,0.990623355
56.741573,-3.318645477,6.370117188,-8.888401031,0.010509338,0.052562196,0.963401675
56.779953,-6.561138153,-6.294677734,-2.334751129,-0.038807068,0.117259458,0.967796206
56.818292,6.576679230,-13.657043457,-0.694431305,-0.014637146,0.154246762,0.960838199
56.832623,10.032794952,-14.488647461,1.991115570,-0.017200623,0.058421571,0.922752261
56.847995,7.095478058,-13.885925293,3.646694183,0.001842346,0.018016297,0.924339175
56.886331,-5.271770477,-5.592773438,-0.915683746,0.027355041,0.116771176,0.959129214
56.924703,2.723834991,3.760864258,-1.426853180,0.024913635,0.081492856,0.954978824
56.939023,-0.694133759,5.683471680,-2.281345367,0.023692932,0.067698911,0.955222964
56.954376,-8.041240692,7.484008789,-1.884616852,0.026256409,0.103709653,1.008933902
56.992708,5.119464874,13.625671387,0.320278168,0.011363830,0.184642270,1.057517886
57.031078,8.308551788,12.336303711,-1.289524078,0.005992737,0.033519227,1.049949527
57.045401,5.973957062,11.863281250,2.128444672,0.026988830,0.024730165,1.060081363
57.060785,2.784870148,11.016418457,-2.082981110,0.056163635,0.077220395,1.043235660
57.099145,9.315631866,4.241516113,3.074489594,0.054332580,0.044627625,1.041526675
57.137478,5.195758820,5.088378906,-7.682956696,0.058116760,-0.016651671,0.994285464
57.151791,-1.617290497,3.814270020,-6.530918121,0.018321838,0.002025086,0.971580386
57.167146,-4.791118622,3.051330566,-5.691684723,0.012218323,0.045604188,0.947532535
57.205478,-6.316997528,-3.853271484,1.098476410,-0.021106873,0.119456723,0.968894839
57.243796,0.053546906,-1.465270996,5.355678558,0.045177307,0.012767274,0.965110660
57.258101,-1.678325653,2.486755371,3.120265961,0.078014225,-0.062428039,0.985496402
57.285377,-7.217266083,8.231689453,-2.166904449,0.084606022,-0.059132140,0.983421206
57.323796,-7.705547333,7.850219727,-2.380527496,0.046031799,0.068065122,0.973533511
57.362118,-1.373149872,-6.851623535,-2.655185699,-0.032459412,0.087352231,0.894431949
57.376423,-2.563335419,-10.788391113,2.204738617,-0.039051209,0.084422544,0.886619449
57.391761,-4.539348602,-15.068481445,6.202541351,0.011852112,0.088572934,0.877097964
57.430098,-10.772563934,-9.354064941,5.912624359,0.048473205,0.059642274,0.957176089
57.468428,-1.983501434,4.416992188,1.182399750,0.018810119,0.108348325,0.974265933
57.482785,-0.289775848,5.111267090,3.959499359,0.028087463,0.072093442,0.971580386
57.498170,-4.325725555,11.054565430,7.530056000,0.106578678,-0.009327453,1.079978824
57.536473,4.020832062,27.053405762,-9.132541656,0.072643131,0.150218442,1.058494449
57.574757,8.316181183,16.524841309,-5.684055328,0.002574768,0.112986997,0.961936831
57.589053,-0.221111298,5.538513184,1.479946136,0.008556213,0.099803403,1.007469058
57.604396,-0.900127411,2.494384766,2.219997406,0.020152893,0.110179380,1.033714175
57.642687,8.056781769,-17.998168945,-1.228488922,-0.019397888,0.028514344,1.057762027
57.680993,-4.234172821,-24.795959473,3.288112640,0.056285705,0.104320005,1.139915347
57.695276,-0.251628876,-24.719665527,-1.548923492,0.035777893,0.149852231,1.141258121
57.710636,13.771198273,-33.447692871,-1.747287750,-0.032581482,0.151195005,1.123924136
57.748943,14.274738312,-44.220397949,14.846645355,0.019908752,0.007029969,0.993308902
57.787254,-8.544780731,-24.712036133,5.622707367,0.028941955,0.043895204,0.950584292
57.801537,-11.916973114,-19.546936035,7.011257172,0.008190002,0.076243833,0.967918277
57.816887,-10.322429657,-6.737182617,11.718593597,0.016002502,0.127147153,1.004783511
57.867332,1.327655792,35.163452148,-0.526584625,0.067760319,-0.012135070,0.941917300
57.905702,-14.144756317,44.440795898,-0.465549469,0.055675354,-0.003712218,0.988914371
57.920022,-13.664104462,43.746520996,-2.601779938,0.040782776,0.046702821,0.978172183
57.935386,-5.569316864,37.986328125,-2.700962067,0.010631409,0.092479184,0.975120425
57.987243,-2.479412079,2.738525391,5.630336761,-0.016101990,0.036082704,0.923240542
58.025673,1.258991241,-20.874450684,3.211818695,-0.000354920,0.057689149,0.933738589
58.039970,1.083515167,-24.597595215,3.372035980,-0.004627381,0.052440125,0.924583316
58.055313,-1.510478973,-30.456970215,6.629787445,-0.017688904,0.059276063,0.926902652
58.093649,-3.394939423,-25.696228027,1.426540375,0.051524963,0.075511411,0.981468081
58.131946,-2.837993622,-25.520751953,2.601467133,-0.040516052,0.123240903,0.995872378
58.146242,0.213764191,-23.086975098,10.902248383,0.024669494,0.135325864,1.029075503
58.161607,2.723834991,-18.608520508,8.666835785,0.050426330,0.124705747,1.042747378
58.199916,3.379962921,3.860046387,-6.874240875,0.083141178,0.010203797,1.109397769
58.238239,6.225727081,6.820251465,10.009609222,0.063731998,0.012278993,1.120139956
58.252524,5.165241241,17.676879883,-1.373447418,0.133922428,0.016917665,1.112937808
58.267874,4.196308136,23.032714844,-6.134189606,0.106456608,0.020457704,1.121971011
58.306182,7.515094757,31.837036133,-6.805576324,0.039562073,0.047435243,1.024558902
58.344481,-9.017803192,44.189025879,-7.675327301,0.168224186,0.035472352,1.067527652
58.358769,-13.465740204,46.058227539,-17.715610504,0.141490787,0.097606137,1.075218081
58.374135,-8.140422821,36.803771973,-18.570102692,-0.026600037,0.199656919,1.083518863
58.412456,22.545001984,1.021911621,-0.953830719,-0.000232849,0.026561219,0.974754214
58.450736,8.140705109,-19.981811523,1.708827972,0.025768127,-0.137745425,0.914573550
58.465031,-10.413982391,-29.030273438,1.197658539,0.016490784,-0.062672183,0.924949527
58.480480,-14.701702118,-32.448242188,2.548061371,0.006603088,0.003489930,0.921409488
58.518880,5.417011261,-32.753417969,0.457607269,0.046886291,0.116893247,0.943992496
58.557183,1.991413116,-27.763793945,0.938259125,0.004405823,0.012767274,0.872093081
58.571470,-5.843975067,-22.560546875,2.441249847,0.028453674,0.053050477,0.874900699
58.586819,-7.377483368,-18.547485352,1.922451019,0.036266174,0.073558286,0.900413394
58.638827,4.982135773,5.843688965,-0.717319489,0.053844299,0.086863950,0.908103824
58.677262,-5.111553192,21.941711426,-0.343479156,0.073375553,0.035106141,0.913474917
58.691564,-10.078289032,30.974914551,-5.096591949,0.095104069,0.094920591,0.954734683
58.706907,-10.551311493,34.225036621,-7.507480621,0.073863834,0.128001645,0.973777652
58.745255,0.511310577,31.417419434,-3.685153961,0.000011291,0.161693051,0.999046206
58.783544,-0.152446747,19.057800293,-6.218112946,0.029064026,0.068187192,1.099998355
58.797850,2.548358917,14.052917480,-2.815402985,0.007335510,0.074168637,1.106223941
58.813196,7.835529327,2.341796875,0.655971527,0.022594299,0.059520204,1.071800113
58.851493,0.648639679,-12.001464844,-2.517856598,0.026622619,0.036326844,1.098533511
58.889820,8.514545441,-23.582885742,-0.938571930,0.002330627,0.101268247,1.063011050
58.904121,9.163043976,-25.947998047,1.502834320,-0.015857849,0.081859067,1.032859683
58.919472,4.226825714,-26.680419922,5.988918304,0.039317932,0.037791688,1.027732730
58.957781,-5.988933563,-21.820495605,-2.769626617,0.009654846,0.070750669,1.022971988
58.996096,-6.530620575,-18.425415039,2.570949554,-0.007923279,0.156321958,1.038841128
59.010410,1.327655792,-11.459777832,6.309352875,0.028209534,0.124217466,1.064842105
59.025772,5.600116730,-6.264160156,3.097377777,0.066417545,0.093577817,1.052024722
59.064096,3.669879913,2.059509277,-1.838840485,0.012462463,-0.050343078,0.963401675
59.102407,-5.561687469,2.364685059,-2.380527496,-0.017200623,0.058421571,0.957054019
59.116696,-2.212383270,-0.565002441,-1.091159821,-0.012806091,0.075633481,0.951560855
59.132031,2.647541046,-7.233093262,0.991664886,-0.019642029,0.032786805,0.952659488
59.184287,3.776691437,-8.148620605,1.449428558,-0.013660584,0.053538758,0.927268863
59.222667,1.426837921,-9.354064941,4.554592133,-0.016956482,0.027537782,0.905540347
59.236969,-1.167156219,-6.554077148,5.248867035,0.003795471,0.076243833,0.917747378
59.252310,-0.511028290,-4.188964844,4.165493011,0.011363830,0.098826841,0.924339175
59.290637,4.722736359,1.433898926,3.524623871,0.012462463,0.076121762,0.912620425
59.343569,-0.480510712,5.881835938,2.418361664,0.014781799,0.139720395,0.949363589
59.357960,0.785968781,2.425720215,0.678859711,-0.007190857,0.136546567,0.972434878
59.373343,1.609943390,-0.671813965,3.394924164,-0.023182068,0.131419614,0.984153628
59.411655,8.819721222,-3.731201172,9.033046722,0.072276920,0.038157899,0.994163394
59.449929,-7.026531219,0.083496094,6.805263519,0.007091369,0.018504579,0.989158511
59.464215,-9.483196259,2.448608398,9.872280121,0.033946838,0.031688172,1.037498355
59.479568,-7.057048798,13.541748047,8.476100922,0.090465397,0.071727231,1.098289371
59.517869,-5.225994110,33.088256836,-7.072605133,0.070690006,0.092601255,1.031883121
