time,gyro x,gyro y,gyro z,accel x,accel y, accel z
11.2270,0.0003,0.0015,0.0053,0.0042,0.0092,1.0219
11.3270,0.0001,0.0015,0.0051,-0.0030,0.0021,1.0004
11.4270,-0.0002,0.0004,0.0045,-0.0101,0.0116,1.0267
11.5270,-0.0007,0.0004,0.0048,-0.0053,0.0045,1.0124
11.6270,-0.0002,0.0007,0.0040,0.0066,0.0092,1.0195
11.7270,0.0003,0.0001,0.0051,0.0186,-0.0099,1.0100
11.8270,0.0009,0.0017,0.0045,0.0042,-0.0099,0.9980
11.9270,-0.0013,0.0001,0.0037,-0.0101,0.0045,1.0100
12.0270,-0.0005,-0.0007,0.0053,0.0138,-0.0147,1.0291
12.1270,-0.0005,-0.0001,0.0040,-0.0030,-0.0003,1.0243
12.2270,-0.0007,0.0001,0.0051,0.0018,-0.0123,1.0100
12.3270,0.0001,0.0017,0.0043,0.0138,0.0021,1.0746
12.4270,-0.0005,-0.0020,0.0053,-0.0077,0.0045,1.0674
12.5270,-0.0002,0.0007,0.0053,0.0042,-0.0219,1.0291
12.6270,-0.0007,-0.0001,0.0051,0.0090,0.0021,0.9980
12.7270,0.0003,0.0015,0.0051,0.0018,-0.0243,1.0243
12.8270,-0.0002,0.0009,0.0056,-0.0053,-0.0171,1.0602
12.9270,-0.0005,-0.0009,0.0048,0.0186,-0.0123,0.9932
13.0270,-0.0005,0.0001,0.0053,-0.0053,0.0140,1.0650
13.1270,0.0003,-0.0004,0.0053,0.0042,0.0068,1.0626
13.2270,0.0003,-0.0001,0.0053,-0.0101,-0.0003,1.0411
13.3270,-0.0007,-0.0001,0.0040,0.0066,0.0021,0.9956
13.4270,-0.0005,-0.0004,0.0048,0.0090,0.0045,1.0243
13.5270,-0.0002,0.0004,0.0045,-0.0006,-0.0075,0.9980
13.6280,-0.0005,0.0012,0.0043,-0.0030,0.0045,1.0195
13.7270,-0.0002,0.0004,0.0045,-0.0149,-0.0099,1.0411
13.8270,-0.0002,0.0017,0.0037,0.0138,-0.0147,1.0195
13.9270,-0.0002,-0.0001,0.0035,0.0018,-0.0027,0.9812
14.0270,0.0006,0.0009,0.0045,0.0282,-0.0219,1.0076
14.1270,0.0009,0.0009,0.0043,0.0210,0.0021,0.9932
14.2270,0.0003,0.0007,0.0048,-0.0101,0.0092,0.9908
14.3270,0.0003,0.0004,0.0048,0.0234,0.0236,1.0291
14.4270,0.0001,0.0015,0.0045,0.0114,0.0068,1.0171
14.5270,0.0011,0.0009,0.0051,0.0066,0.0068,1.0435
14.6270,0.0003,0.0007,0.0053,0.0282,0.0021,1.0100
14.7290,0.0003,0.0009,0.0051,-0.0006,-0.0051,1.0147
14.8270,-0.0002,0.0012,0.0045,-0.0006,-0.0003,1.0147
14.9270,-0.0005,0.0007,0.0048,0.0186,-0.0171,1.0243
15.0270,0.0003,0.0012,0.0045,0.0186,-0.0027,1.0124
15.1270,-0.0005,0.0012,0.0056,0.0042,0.0045,1.0435
15.2270,-0.0002,-0.0004,0.0051,0.0114,-0.0291,0.9669
15.3280,0.0003,0.0009,0.0051,-0.0030,0.0021,1.0315
15.4270,-0.0002,-0.0001,0.0051,0.0018,-0.0027,1.0076
15.5270,-0.0002,0.0012,0.0045,0.0138,-0.0003,1.0124
15.6270,-0.0007,0.0017,0.0056,0.0306,0.0092,0.9884
15.7270,0.0001,-0.0001,0.0037,-0.0053,-0.0051,1.0243
15.8270,-0.0005,0.0012,0.0035,0.0042,0.0164,1.0219
15.9270,0.0003,0.0012,0.0056,0.0090,0.0068,1.0554
16.0270,0.0001,-0.0001,0.0048,0.0090,0.0116,1.0267
16.1270,0.0001,0.0007,0.0045,-0.0173,0.0045,1.0147
16.2270,0.0003,0.0017,0.0045,0.0042,-0.0027,1.0076
16.3270,-0.0002,0.0009,0.0043,0.0042,-0.0027,1.0052
16.4280,-0.0002,0.0004,0.0040,0.0042,0.0068,1.0411
16.5270,-0.0002,0.0009,0.0056,0.0018,0.0021,1.0243
16.6270,0.0001,0.0001,0.0051,0.0138,0.0092,1.0052
16.7270,-0.0005,0.0012,0.0061,-0.0006,0.0068,1.0195
16.8270,0.0001,0.0009,0.0053,-0.0101,-0.0051,1.0100
16.9270,-0.0010,0.0007,0.0051,0.0162,0.0068,1.0124
17.0270,-0.0005,0.0007,0.0051,-0.0006,0.0092,0.9884
17.1270,-0.0005,0.0009,0.0061,0.0090,-0.0075,1.0195
17.2270,-0.0005,-0.0001,0.0056,-0.0053,-0.0123,1.0363
17.3270,0.0001,0.0001,0.0048,0.0042,-0.0027,1.0387
17.4270,-0.0005,0.0001,0.0059,0.0066,-0.0051,1.0076
17.5270,-0.0005,0.0004,0.0048,0.0210,0.0045,0.9980
17.6270,-0.0002,-0.0001,0.0048,0.0138,-0.0123,1.0243
17.7280,0.0001,0.0004,0.0053,-0.0030,-0.0099,1.0195
17.8270,-0.0013,-0.0020,0.0051,0.0186,0.0092,0.9621
17.9270,-0.0007,0.0007,0.0048,0.0066,-0.0051,1.0052
18.0270,0.0003,0.0012,0.0043,-0.0006,-0.0075,0.9860
18.1270,-0.0002,0.0007,0.0056,0.0114,-0.0027,1.0531
18.2270,0.0009,0.0004,0.0043,-0.0030,-0.0003,1.0339
18.3270,0.0006,0.0009,0.0040,-0.0030,0.0021,1.0004
18.4270,0.0001,0.0007,0.0051,-0.0006,-0.0003,1.0339
18.5270,0.0054,0.0081,0.0043,0.0330,-0.0243,0.9286
18.6270,0.0003,0.0020,0.0051,-0.0053,0.0045,1.0387
18.7270,-0.0002,0.0012,0.0059,0.0018,-0.0147,1.0124
18.8270,-0.0002,0.0001,0.0048,-0.0077,0.0116,1.0315
18.9270,-0.0005,0.0009,0.0045,0.0090,-0.0003,1.0291
19.0270,-0.0002,-0.0001,0.0051,-0.0077,-0.0003,1.0483
19.1270,-0.0005,-0.0001,0.0053,0.0210,0.0092,1.0052
19.2270,0.0003,0.0012,0.0040,0.0066,-0.0243,1.0339
19.3270,0.0003,-0.0001,0.0053,-0.0245,-0.0171,1.0387
19.4270,-0.0002,0.0001,0.0045,-0.0030,0.0236,1.0171
19.5270,0.0003,0.0004,0.0051,0.0162,0.0188,1.0411
19.6270,0.0003,0.0009,0.0048,-0.0006,-0.0147,1.0195
19.7270,0.0001,0.0015,0.0048,0.0138,0.0021,1.0147
19.8270,0.0006,0.0004,0.0053,-0.0006,-0.0003,1.0076
19.9270,-0.0007,0.0012,0.0048,0.0090,-0.0003,1.0004
20.0270,-0.0005,0.0009,0.0048,0.0042,0.0092,1.0052
20.1270,0.0001,0.0020,0.0043,0.0114,0.0021,1.0052
20.2270,0.0001,0.0009,0.0040,-0.0173,0.0068,1.0195
20.3270,-0.0002,0.0012,0.0037,-0.0101,0.0092,1.0315
20.4270,-0.0005,0.0007,0.0045,-0.0077,-0.0051,0.9956
20.5270,0.0006,-0.0007,0.0045,0.0018,0.0068,1.0100
20.6280,-0.0002,-0.0001,0.0048,-0.0030,-0.0027,1.0459
20.7270,-0.0007,0.0007,0.0043,0.0042,-0.0003,0.9980
20.8270,-0.0002,0.0012,0.0051,0.0090,0.0021,1.0363
20.9270,0.0011,0.0015,0.0048,-0.0030,0.0045,1.0938
21.0270,-0.0002,0.0012,0.0043,-0.0077,-0.0099,1.0459
21.1270,-0.0002,0.0009,0.0048,0.0042,-0.0099,1.0124
21.2270,0.0001,0.0009,0.0051,0.0210,0.0045,1.0124
21.3270,-0.0002,-0.0001,0.0056,-0.0149,-0.0075,1.0219
21.4270,-0.0005,-0.0009,0.0048,-0.0197,-0.0003,1.0435
21.5270,-0.0002,0.0001,0.0053,0.0138,-0.0123,1.0100
21.6270,0.0001,0.0007,0.0051,-0.0125,-0.0075,1.0147
21.7270,-0.0005,0.0004,0.0040,-0.0006,-0.0027,1.0195
21.8270,-0.0005,0.0001,0.0045,0.0042,0.0164,1.0243
21.9270,-0.0002,0.0004,0.0040,0.0114,0.0092,0.9956
22.0270,0.0001,0.0009,0.0048,-0.0006,-0.0075,1.0219
22.1270,0.0017,0.0015,0.0048,-0.0053,0.0021,1.0004
22.2270,0.0003,-0.0001,0.0051,-0.0006,-0.0003,0.9908
22.3270,0.0003,0.0004,0.0037,0.0018,-0.0075,1.0267
22.4270,0.0003,-0.0001,0.0048,0.0162,-0.0075,1.0171
22.5270,0.0003,0.0004,0.0053,0.0066,-0.0171,1.0052
22.6270,0.0003,0.0007,0.0045,0.0210,0.0116,0.9884
22.7270,0.0001,0.0007,0.0045,0.0042,-0.0027,1.0028
22.8270,0.0001,0.0004,0.0045,0.0210,0.0140,0.9956
22.9270,0.0001,0.0001,0.0051,-0.0053,-0.0003,1.0004
23.0270,-0.0010,0.0009,0.0053,-0.0006,0.0021,1.0195
23.1270,-0.0005,0.0015,0.0048,-0.0053,0.0021,0.9980
23.2270,0.0001,0.0004,0.0053,0.0066,-0.0099,1.0124
23.3270,0.0006,0.0012,0.0045,-0.0006,-0.0243,1.0459
23.4270,0.0003,0.0007,0.0051,-0.0030,-0.0195,1.0219
23.5270,-0.0007,-0.0001,0.0056,-0.0030,0.0092,0.9884
23.6270,0.0003,0.0001,0.0051,0.0018,0.0021,1.0076
23.7270,0.0003,-0.0004,0.0051,-0.0030,0.0116,1.0100
23.8270,-0.0005,0.0012,0.0048,-0.0125,-0.0051,1.0076
23.9270,-0.0005,0.0009,0.0048,-0.0030,0.0092,0.9956
24.0270,-0.0005,0.0004,0.0048,0.0042,-0.0051,1.0004
24.1270,-0.0002,0.0007,0.0043,0.0042,0.0045,1.0243
24.2270,-0.0005,0.0004,0.0045,-0.0077,-0.0099,1.0267
24.3270,0.0001,-0.0001,0.0048,0.0066,-0.0003,1.0339
24.4270,-0.0005,-0.0007,0.0048,0.0042,-0.0099,1.0124
24.5270,0.0009,0.0012,0.0040,-0.0101,0.0092,1.0243
24.6270,-0.0002,0.0007,0.0043,0.0114,0.0068,1.0147
24.7270,-0.0007,-0.0001,0.0056,-0.0030,-0.0027,0.9908
24.8270,-0.0010,-0.0004,0.0051,-0.0077,-0.0099,1.0243
24.9270,-0.0005,0.0007,0.0045,-0.0125,0.0140,1.0291
25.0270,-0.0013,-0.0001,0.0056,0.0162,-0.0147,1.0052
25.1270,-0.0010,0.0001,0.0051,-0.0101,0.0045,0.9980
25.2270,0.0001,0.0009,0.0053,0.0018,0.0045,1.0171
25.3270,-0.0005,-0.0009,0.0048,0.0114,-0.0123,1.0124
25.4270,-0.0002,0.0012,0.0056,-0.0030,-0.0027,1.0339
25.5270,-0.0005,0.0004,0.0048,-0.0053,-0.0099,1.0339
25.6270,-0.0005,0.0001,0.0053,-0.0030,-0.0075,1.0435
25.7270,-0.0010,0.0001,0.0053,-0.0030,0.0045,1.0147
25.8270,-0.0005,0.0009,0.0053,-0.0030,-0.0003,1.0028
25.9270,-0.0005,0.0007,0.0051,-0.0030,-0.0315,1.0147
26.0270,0.0011,0.0009,0.0045,0.0138,0.0092,0.9860
26.1270,0.0003,0.0007,0.0061,0.0090,0.0068,1.0459
26.2270,-0.0007,0.0007,0.0037,0.0162,0.0021,1.0315
26.3270,0.0001,0.0009,0.0040,-0.0053,-0.0291,1.0171
26.4270,0.0003,0.0007,0.0045,0.0234,0.0068,1.0363
26.5270,-0.0005,0.0017,0.0045,0.0066,0.0116,1.0938
26.6270,-0.0007,0.0001,0.0040,0.0114,-0.0171,1.0052
26.7270,-0.0005,0.0001,0.0048,0.0042,0.0068,1.0459
26.8270,0.0006,0.0009,0.0048,-0.0030,0.0021,1.0052
26.9270,-0.0007,0.0007,0.0051,-0.0149,-0.0075,1.0004
27.0270,0.0003,-0.0001,0.0048,0.0066,-0.0075,1.0124
27.1270,-0.0002,0.0007,0.0045,-0.0006,-0.0075,1.0147
27.2270,-0.0007,-0.0001,0.0056,-0.0125,0.0068,1.0100
27.3270,0.0003,0.0007,0.0051,-0.0006,-0.0027,1.0195
27.4270,-0.0002,0.0004,0.0056,-0.0030,-0.0099,1.0052
27.5270,0.0001,0.0001,0.0053,-0.0030,-0.0123,1.0076
27.6270,-0.0005,0.0004,0.0048,0.0066,-0.0147,1.0171
27.7270,-0.0002,0.0009,0.0053,0.0042,-0.0123,1.0363
27.8270,0.0003,0.0009,0.0053,-0.0006,-0.0075,0.9860
27.9270,0.0001,0.0001,0.0051,-0.0053,0.0092,1.0387
28.0270,-0.0005,0.0001,0.0045,0.0042,-0.0003,1.0219
28.1270,-0.0002,0.0001,0.0051,-0.0053,-0.0003,1.0291
28.2270,-0.0005,0.0001,0.0045,-0.0030,0.0212,1.0100
28.3270,-0.0002,-0.0001,0.0045,-0.0125,-0.0099,1.0124
28.4270,0.0001,0.0004,0.0045,0.0042,-0.0003,1.0219
28.5270,0.0001,0.0004,0.0040,0.0042,0.0045,1.0387
28.6270,0.0006,0.0004,0.0040,-0.0101,0.0140,1.0219
28.7270,-0.0007,0.0012,0.0045,0.0066,0.0116,1.0004
28.8270,0.0003,0.0009,0.0045,-0.0006,-0.0099,1.0100
28.9270,-0.0005,0.0007,0.0040,-0.0053,-0.0243,1.0291
29.0270,-0.0005,0.0004,0.0043,0.0186,-0.0003,1.0339
29.1270,-0.0005,0.0009,0.0045,0.0090,-0.0027,1.0124
29.2270,-0.0007,-0.0007,0.0048,0.0042,-0.0027,0.9980
29.3270,0.0009,0.0001,0.0053,0.0066,0.0045,1.0147
29.4270,0.0001,0.0004,0.0048,-0.0173,0.0021,1.0171
29.5270,-0.0010,-0.0007,0.0051,-0.0077,-0.0027,1.0076
29.6270,0.0003,-0.0007,0.0059,0.0138,-0.0051,1.0195
29.7270,-0.0002,0.0009,0.0053,0.0042,0.0068,1.0028
29.8270,0.0001,0.0012,0.0048,-0.0006,-0.0003,1.0147
29.9270,-0.0002,0.0001,0.0051,-0.0006,0.0021,1.0459
30.0270,-0.0005,0.0001,0.0059,-0.0101,-0.0003,1.0076
30.1270,0.0001,0.0007,0.0051,0.0042,-0.0123,1.0195
30.2270,-0.0007,0.0009,0.0045,0.0018,-0.0003,1.0171
30.3270,0.0001,0.0007,0.0043,0.0066,-0.0003,1.0195
30.4270,-0.0005,0.0004,0.0051,0.0234,0.0092,1.0124
30.5270,0.0006,-0.0004,0.0043,-0.0077,0.0116,1.0100
30.6270,-0.0005,0.0015,0.0043,0.0138,-0.0003,1.0411
30.7270,0.0001,0.0015,0.0043,0.0066,0.0092,1.0219
30.8270,0.0003,-0.0004,0.0051,-0.0030,-0.0003,1.0267
30.9270,-0.0005,0.0001,0.0053,0.0162,0.0068,1.0243
31.0270,-0.0005,-0.0004,0.0040,0.0018,-0.0171,1.0363
31.1270,-0.0002,0.0001,0.0048,0.0138,-0.0075,0.9980
31.2270,-0.0007,-0.0001,0.0045,0.0042,0.0045,0.9956
31.3270,0.0003,0.0001,0.0048,-0.0030,0.0068,1.0243
31.4270,0.0001,0.0015,0.0048,-0.0030,-0.0051,1.0267
31.5270,0.0003,0.0009,0.0045,-0.0053,0.0092,1.0315
31.6270,-0.0002,-0.0001,0.0048,0.0042,-0.0123,1.0411
31.7270,-0.0005,0.0004,0.0051,0.0042,-0.0147,1.0387
31.8270,0.0003,0.0009,0.0056,-0.0149,0.0045,1.0171
31.9270,-0.0005,0.0007,0.0045,-0.0077,-0.0075,0.9836
32.0270,-0.0002,0.0001,0.0045,-0.0006,-0.0099,1.0147
32.1270,0.0003,-0.0007,0.0048,0.0042,0.0021,1.0028
32.2270,0.0001,0.0004,0.0048,-0.0030,0.0092,1.0076
32.3280,0.0001,0.0001,0.0043,0.0042,0.0045,1.0124
32.4270,0.0001,0.0001,0.0051,-0.0006,0.0021,1.0291
32.5270,-0.0005,0.0012,0.0051,0.0138,-0.0315,1.0219
32.6270,0.0003,0.0004,0.0053,-0.0125,-0.0075,1.0004
32.7270,0.0001,0.0009,0.0045,0.0018,-0.0219,1.0219
32.8270,0.0001,0.0007,0.0051,-0.0125,0.0021,1.0124
32.9270,-0.0005,0.0015,0.0043,-0.0053,-0.0027,1.0219
33.0270,0.0001,0.0009,0.0045,-0.0030,0.0140,1.0531
33.1270,-0.0007,0.0009,0.0051,0.0330,-0.0051,1.0507
33.2270,0.0009,0.0012,0.0051,0.0186,-0.0027,1.0100
33.3270,0.0001,0.0007,0.0043,-0.0030,0.0045,1.0076
33.4270,0.0001,0.0001,0.0051,-0.0125,-0.0147,1.0100
33.5270,0.0001,0.0001,0.0048,0.0066,-0.0075,1.0267
33.6270,-0.0005,0.0001,0.0056,0.0162,0.0045,1.0147
33.7270,-0.0002,0.0007,0.0051,0.0162,-0.0003,1.0531
33.8270,-0.0005,-0.0004,0.0043,0.0018,0.0068,1.0076
33.9270,0.0001,0.0007,0.0056,-0.0053,0.0092,0.9956
34.0270,-0.0005,0.0009,0.0053,0.0138,-0.0003,1.0339
34.1270,-0.0005,0.0017,0.0051,0.0042,0.0284,1.0219
34.2270,0.0001,0.0007,0.0048,-0.0006,-0.0003,1.0147
34.3270,0.0003,-0.0001,0.0053,0.0282,-0.0099,1.0195
34.4270,0.0001,0.0001,0.0053,-0.0125,-0.0051,1.0124
34.5270,0.0011,0.0004,0.0048,0.0090,0.0068,1.0028
34.6270,0.0003,0.0017,0.0053,-0.0149,-0.0075,1.0219
34.7270,0.0003,0.0009,0.0045,0.0090,-0.0051,0.9932
34.8270,0.0003,0.0007,0.0045,0.0138,-0.0003,1.0243
34.9270,0.0001,0.0007,0.0045,-0.0077,-0.0099,1.0052
35.0270,-0.0002,-0.0004,0.0045,0.0210,0.0140,1.0243
35.1270,0.0003,0.0001,0.0037,-0.0125,-0.0027,1.0028
35.2270,0.0001,0.0004,0.0048,-0.0269,-0.0123,1.0147
35.3270,0.0006,0.0007,0.0043,-0.0125,-0.0195,1.0147
35.4270,0.0006,0.0001,0.0048,-0.0030,-0.0123,1.0243
35.5270,-0.0007,0.0004,0.0043,0.0066,0.0045,1.0147
35.6270,0.0003,0.0004,0.0048,-0.0125,0.0092,1.0028
35.7270,0.0003,0.0012,0.0048,-0.0053,-0.0003,1.0243
35.8270,-0.0002,0.0004,0.0043,0.0066,0.0021,1.0243
35.9270,-0.0005,0.0001,0.0048,-0.0006,0.0045,1.0387
36.0270,0.0001,0.0001,0.0051,-0.0030,-0.0147,1.0291
36.1270,-0.0007,0.0012,0.0056,-0.0077,-0.0027,1.0483
36.2270,-0.0002,0.0001,0.0056,-0.0053,-0.0171,1.0124
36.3270,0.0003,-0.0001,0.0056,-0.0053,-0.0099,1.0171
36.4270,0.0001,0.0007,0.0051,-0.0101,0.0021,1.0339
36.5270,-0.0002,0.0009,0.0053,0.0042,-0.0099,1.0267
36.6270,0.0001,0.0004,0.0045,-0.0077,0.0116,1.0124
36.7270,0.0006,0.0007,0.0048,-0.0173,-0.0075,1.0339
36.8270,0.0006,-0.0007,0.0051,0.0042,0.0092,1.0267
36.9270,0.0001,0.0012,0.0043,-0.0053,0.0116,1.0052
37.0270,-0.0005,0.0009,0.0040,-0.0030,0.0021,0.9884
37.1270,0.0003,0.0009,0.0040,-0.0030,-0.0147,1.0267
37.2270,0.0003,0.0015,0.0040,0.0066,-0.0195,1.0100
37.3270,-0.0013,-0.0009,0.0043,-0.0101,-0.0027,1.0243
37.4270,0.0001,0.0009,0.0040,-0.0006,0.0068,0.9812
37.5270,-0.0007,0.0007,0.0051,-0.0006,-0.0195,1.0411
37.6270,-0.0010,0.0004,0.0043,-0.0077,-0.0075,1.0291
37.7270,-0.0005,-0.0004,0.0043,0.0018,-0.0027,0.9980
37.8270,-0.0005,0.0007,0.0037,-0.0053,0.0068,1.0100
37.9270,-0.0005,0.0017,0.0043,0.0042,-0.0123,1.0459
38.0270,0.0003,0.0012,0.0056,0.0042,-0.0099,0.9956
38.1270,-0.0005,0.0004,0.0051,0.0138,-0.0195,1.0100
38.2270,0.0041,0.0113,0.0053,0.0497,-0.0386,0.9094
38.3270,0.0009,0.0033,0.0045,0.0090,0.0068,0.9788
38.4270,-0.0005,0.0012,0.0059,0.0138,-0.0027,1.0243
38.5270,0.0006,0.0004,0.0051,-0.0030,-0.0027,1.0267
38.6270,0.0001,0.0004,0.0040,-0.0030,-0.0051,1.0100
38.7270,-0.0007,0.0007,0.0045,0.0042,-0.0219,0.9884
38.8270,-0.0007,0.0009,0.0043,0.0018,-0.0099,1.0195
38.9270,-0.0002,0.0015,0.0048,0.0066,-0.0003,1.0243
39.0270,-0.0005,0.0009,0.0045,0.0066,0.0021,1.0267
39.1270,0.0003,0.0004,0.0053,-0.0173,-0.0099,1.0267
39.2270,-0.0005,0.0004,0.0051,0.0066,-0.0051,1.0219
39.3270,-0.0013,0.0009,0.0048,0.0042,-0.0027,1.0291
39.4270,-0.0007,0.0009,0.0037,-0.0101,0.0164,0.9908
39.5270,0.0003,0.0012,0.0043,-0.0006,-0.0027,1.0507
39.6270,0.0001,0.0012,0.0045,0.0090,-0.0267,1.0363
39.7270,-0.0002,0.0012,0.0037,-0.0030,-0.0051,1.0124
39.8270,-0.0007,0.0007,0.0045,-0.0125,-0.0003,1.0219
39.9270,0.0001,0.0007,0.0040,0.0018,0.0045,1.0004
40.0280,0.0006,0.0012,0.0051,-0.0149,-0.0099,1.0147
40.1270,-0.0007,-0.0001,0.0056,0.0042,-0.0075,1.0124
40.2270,0.0003,0.0007,0.0051,-0.0053,-0.0147,1.0291
40.3270,0.0001,0.0015,0.0051,0.0018,0.0021,0.9884
40.4270,0.0006,0.0004,0.0043,-0.0030,0.0068,1.0195
40.5270,-0.0007,0.0015,0.0056,-0.0101,0.0068,1.0147
40.6270,-0.0005,0.0012,0.0061,-0.0149,0.0021,1.0171
40.7270,0.0001,0.0004,0.0056,-0.0077,0.0068,0.9980
40.8270,-0.0002,-0.0004,0.0051,0.0018,-0.0123,1.0052
40.9270,0.0001,0.0001,0.0051,0.0138,0.0164,0.9980
41.0270,-0.0002,-0.0007,0.0048,-0.0053,-0.0075,1.0171
41.1270,-0.0002,0.0009,0.0053,0.0138,-0.0003,1.0315
41.2270,0.0001,0.0007,0.0048,0.0042,-0.0075,1.0100
41.3270,-0.0007,0.0012,0.0045,-0.0006,-0.0003,1.0291
41.4270,-0.0010,0.0001,0.0045,0.0042,-0.0027,1.0195
41.5270,-0.0002,0.0009,0.0043,0.0066,-0.0123,1.0507
41.6270,0.0006,0.0009,0.0043,0.0018,-0.0195,1.0147
41.7270,-0.0002,0.0020,0.0043,0.0018,0.0045,0.9980
41.8270,-0.0002,0.0001,0.0043,0.0042,-0.0123,1.0219
41.9270,0.0003,0.0015,0.0048,0.0114,-0.0075,1.0219
42.0270,0.0001,0.0009,0.0051,0.0186,0.0116,1.0291
42.1270,-0.0010,0.0004,0.0048,0.0066,-0.0003,1.0004
42.2270,0.0006,0.0020,0.0051,-0.0053,-0.0171,1.0267
42.3270,0.0003,0.0004,0.0051,-0.0006,-0.0099,1.0315
42.4270,-0.0002,0.0015,0.0048,-0.0173,-0.0099,1.0219
42.5270,-0.0005,0.0015,0.0051,-0.0101,-0.0075,0.9980
42.6270,-0.0002,0.0007,0.0053,0.0090,-0.0123,1.0291
42.7270,-0.0002,0.0004,0.0053,0.0042,0.0116,1.0219
42.8270,0.0003,0.0012,0.0053,0.0018,-0.0027,1.0076
42.9270,0.0006,0.0012,0.0056,-0.0053,0.0068,1.0171
43.0270,-0.0005,0.0009,0.0043,0.0138,-0.0027,1.0219
43.1270,-0.0005,0.0009,0.0051,-0.0053,0.0021,1.0147
43.2270,-0.0007,-0.0012,0.0043,-0.0149,0.0116,1.0363
43.3270,0.0003,0.0004,0.0053,-0.0006,-0.0171,1.0243
43.4270,0.0001,0.0007,0.0045,-0.0030,-0.0003,1.0195
43.5270,0.0009,0.0015,0.0043,0.0258,-0.0147,0.9836
43.6270,0.0001,0.0012,0.0045,-0.0006,0.0068,1.0291
43.7270,-0.0005,0.0009,0.0045,-0.0101,0.0068,1.0267
43.8270,-0.0002,0.0007,0.0043,0.0018,0.0092,1.0243
43.9270,0.0011,0.0015,0.0048,-0.0077,-0.0003,1.0195
44.0270,0.0001,0.0001,0.0045,-0.0101,-0.0075,1.0291
44.1270,0.0003,0.0007,0.0053,-0.0077,0.0021,1.0028
44.2270,0.0006,0.0001,0.0043,-0.0006,-0.0027,1.0171
44.3270,-0.0005,0.0004,0.0048,-0.0006,-0.0123,1.0171
44.4270,-0.0005,0.0012,0.0048,0.0042,-0.0147,1.0387
44.5270,-0.0002,0.0015,0.0056,-0.0006,0.0116,1.0219
44.6270,-0.0005,0.0004,0.0056,-0.0101,0.0116,1.0243
44.7270,-0.0007,0.0007,0.0051,-0.0101,0.0140,1.0076
44.8270,-0.0007,0.0017,0.0059,-0.0030,0.0092,1.0028
44.9270,0.0001,0.0007,0.0051,-0.0269,-0.0075,1.0243
45.0270,0.0006,0.0001,0.0048,-0.0101,-0.0099,1.0219
45.1270,-0.0002,0.0004,0.0056,0.0042,-0.0099,1.0339
45.2270,-0.0010,0.0004,0.0051,0.0018,-0.0219,1.0076
45.3270,0.0009,0.0017,0.0053,0.0210,-0.0003,1.0147
45.4270,0.0003,0.0004,0.0053,-0.0149,-0.0123,1.0195
45.5270,-0.0007,0.0009,0.0043,-0.0077,0.0092,1.0267
45.6270,-0.0002,-0.0001,0.0051,-0.0030,-0.0027,1.0171
45.7270,-0.0002,0.0009,0.0053,0.0018,-0.0075,1.0147
45.8270,-0.0010,0.0001,0.0045,0.0066,0.0092,0.9956
45.9270,-0.0002,0.0009,0.0037,0.0018,0.0021,1.0004
46.0270,-0.0005,0.0009,0.0048,0.0138,0.0188,1.0076
46.1270,-0.0007,0.0007,0.0043,-0.0053,0.0092,1.0195
46.2270,0.0009,0.0009,0.0048,-0.0030,-0.0123,0.9884
46.3270,-0.0007,0.0020,0.0045,-0.0173,-0.0147,1.0219
46.4270,0.0003,0.0012,0.0040,-0.0030,0.0045,1.0315
46.5270,-0.0005,0.0009,0.0053,-0.0030,0.0068,1.0147
46.6270,0.0001,0.0007,0.0051,-0.0077,-0.0027,0.9932
46.7270,0.0006,0.0015,0.0045,-0.0030,-0.0051,1.0339
46.8270,-0.0002,0.0001,0.0051,-0.0053,-0.0315,1.0052
46.9270,-0.0021,-0.0012,0.0048,-0.0197,0.0116,1.0650
47.0270,0.0009,-0.0004,0.0056,0.0018,0.0045,0.9764
47.1270,0.0001,0.0017,0.0056,-0.0269,-0.0123,1.2111
47.2270,0.0001,0.0007,0.0053,-0.0101,-0.0003,1.0267
47.3270,-0.0005,0.0017,0.0051,0.0018,0.0164,1.0147
47.4270,-0.0002,0.0012,0.0059,0.0018,0.0188,0.9836
47.5270,-0.0010,-0.0001,0.0053,0.0138,0.0116,1.0315
47.6270,-0.0005,0.0004,0.0051,0.0018,-0.0195,1.0531
47.7270,0.0001,0.0012,0.0053,0.0114,0.0021,1.0147
47.8270,-0.0005,0.0009,0.0040,0.0162,-0.0075,1.0363
47.9270,0.0001,-0.0004,0.0048,-0.0221,-0.0051,1.0291
48.0270,-0.0005,0.0004,0.0043,0.0018,-0.0027,1.0291
48.1270,-0.0005,0.0007,0.0048,-0.0006,-0.0003,1.0219
48.2270,-0.0002,0.0001,0.0045,-0.0006,0.0068,1.0171
48.3270,-0.0005,0.0004,0.0045,0.0042,-0.0027,1.0219
48.4270,0.0006,0.0007,0.0043,-0.0125,-0.0123,1.0315
48.5270,0.0003,0.0007,0.0040,-0.0053,-0.0003,1.0195
48.6270,-0.0002,0.0007,0.0048,0.0018,-0.0099,1.0195
48.7270,-0.0002,0.0001,0.0051,-0.0006,-0.0099,1.0028
48.8270,0.0001,0.0007,0.0053,-0.0030,-0.0123,1.0076
48.9270,-0.0002,0.0012,0.0043,-0.0149,-0.0027,1.0076
49.0270,-0.0002,0.0007,0.0056,-0.0101,0.0021,1.0219
49.1270,0.0006,0.0009,0.0059,0.0042,0.0021,1.0195
49.2270,-0.0005,0.0007,0.0053,-0.0053,-0.0027,1.0626
49.3270,-0.0007,0.0009,0.0053,-0.0030,0.0021,1.0052
49.4270,-0.0005,0.0004,0.0051,-0.0030,-0.0099,1.0315
49.5270,-0.0002,0.0017,0.0051,0.0090,-0.0075,1.0171
49.6270,-0.0005,0.0004,0.0051,0.0114,0.0164,1.0076
49.7270,-0.0002,0.0009,0.0053,-0.0101,0.0212,1.0243
49.8270,-0.0002,0.0007,0.0051,-0.0053,-0.0123,1.0171
49.9270,-0.0005,0.0004,0.0048,-0.0053,-0.0099,1.0363
50.0270,0.0003,0.0004,0.0048,0.0090,0.0164,1.0028
50.1270,0.0001,0.0015,0.0043,0.0354,0.0140,1.0267
50.2270,0.0011,0.0004,0.0037,-0.0053,-0.0099,1.0219
50.3270,-0.0005,0.0017,0.0053,-0.0053,-0.0003,1.0315
50.4270,-0.0005,0.0009,0.0048,0.0090,-0.0099,1.0028
50.5270,0.0003,0.0009,0.0045,-0.0030,-0.0075,1.0124
50.6270,0.0003,0.0007,0.0043,-0.0125,0.0068,1.0339
50.7270,0.0001,-0.0001,0.0043,-0.0053,-0.0003,1.0195
50.8270,-0.0002,0.0017,0.0043,0.0066,0.0212,0.9980
50.9270,-0.0002,0.0009,0.0045,0.0042,0.0116,1.0243
51.0270,0.0003,0.0007,0.0051,0.0090,-0.0075,1.0124
51.1270,-0.0002,0.0012,0.0051,0.0066,-0.0075,1.0219
51.2270,-0.0002,0.0004,0.0056,0.0018,-0.0123,1.0435
51.3270,-0.0007,0.0004,0.0045,0.0018,-0.0075,1.0052
51.4270,0.0001,0.0012,0.0048,-0.0149,-0.0027,1.0052
51.5270,-0.0005,0.0004,0.0051,0.0138,0.0068,1.0243
51.6270,-0.0002,0.0007,0.0056,0.0090,-0.0027,1.0124
51.7270,-0.0002,0.0004,0.0056,0.0234,0.0068,0.9956
51.8270,0.0001,0.0009,0.0048,0.0162,-0.0099,1.0219
51.9270,-0.0002,0.0007,0.0040,0.0018,0.0140,1.0363
52.0270,0.0001,0.0004,0.0051,0.0018,0.0045,1.0052
52.1270,-0.0005,0.0009,0.0043,0.0090,-0.0051,1.0100
52.2270,0.0001,0.0015,0.0043,-0.0006,-0.0123,0.9956
52.3270,0.0001,0.0007,0.0043,-0.0101,0.0092,1.0339
52.4270,-0.0007,0.0007,0.0043,0.0090,-0.0075,1.0363
52.5270,0.0003,0.0009,0.0051,0.0090,0.0092,0.9980
52.6270,0.0006,0.0007,0.0040,-0.0006,0.0236,1.0291
52.7270,-0.0007,0.0020,0.0045,-0.0006,0.0021,1.0195
52.8270,0.0001,0.0009,0.0045,0.0186,-0.0003,1.0219
52.9270,-0.0010,0.0007,0.0043,0.0018,-0.0075,1.0100
53.0270,0.0001,0.0007,0.0037,0.0162,0.0092,1.0171
53.1270,0.0003,0.0007,0.0051,-0.0006,-0.0075,1.0291
53.2270,-0.0002,0.0009,0.0048,0.0042,-0.0075,1.0267
53.3270,0.0001,0.0009,0.0048,0.0018,-0.0027,1.0315
53.4270,-0.0007,0.0012,0.0048,0.0162,-0.0003,1.0100
53.5270,0.0003,0.0012,0.0053,0.0090,-0.0123,1.0171
53.6270,0.0001,0.0009,0.0048,0.0210,0.0092,1.0004
53.7270,-0.0007,0.0004,0.0056,0.0042,-0.0123,1.0052
53.8270,-0.0002,0.0001,0.0051,0.0066,-0.0051,1.0267
53.9270,-0.0002,-0.0004,0.0051,0.0138,-0.0123,1.0147
54.0270,-0.0005,-0.0001,0.0051,0.0042,-0.0027,0.9908
54.1270,-0.0002,0.0012,0.0051,0.0066,-0.0123,0.9908
54.2270,-0.0002,0.0004,0.0048,-0.0173,-0.0099,1.0076
54.3270,-0.0002,0.0009,0.0051,0.0018,0.0021,1.0267
54.4270,0.0001,0.0007,0.0056,0.0114,0.0021,1.0147
54.5270,-0.0002,0.0012,0.0056,-0.0101,0.0092,1.0100
54.6280,-0.0002,-0.0001,0.0051,0.0090,0.0092,1.0004
54.7280,-0.0002,0.0020,0.0045,0.0018,-0.0051,1.0004
54.8270,0.0006,0.0017,0.0043,0.0138,0.0140,1.0459
54.9270,-0.0005,0.0007,0.0043,-0.0101,-0.0099,1.0267
55.0270,-0.0005,0.0007,0.0037,-0.0101,-0.0051,1.0147
55.1270,-0.0002,0.0009,0.0043,-0.0030,-0.0099,1.0578
55.2270,0.0006,0.0007,0.0051,0.0018,-0.0147,1.0100
55.3270,-0.0005,0.0001,0.0045,0.0306,-0.0219,1.0100
55.4270,-0.0005,-0.0004,0.0051,-0.0006,0.0045,0.9956
55.5270,-0.0005,0.0009,0.0045,0.0258,0.0021,1.0387
55.6270,0.0001,0.0009,0.0048,0.0258,-0.0123,1.0219
55.7270,-0.0002,-0.0001,0.0051,-0.0101,-0.0099,1.0291
55.8270,0.0001,0.0015,0.0051,-0.0101,-0.0171,1.0291
55.9270,-0.0005,0.0004,0.0053,-0.0077,-0.0075,1.0171
56.0270,-0.0005,0.0001,0.0059,0.0138,0.0116,1.0219
56.1270,0.0006,0.0009,0.0048,0.0138,0.0045,0.9932
56.2270,-0.0007,0.0015,0.0056,0.0138,-0.0027,1.0339
56.3270,-0.0005,0.0001,0.0048,0.0114,0.0140,0.9932
56.4270,-0.0007,0.0009,0.0051,0.0138,-0.0147,0.9956
56.5270,-0.0002,0.0007,0.0053,0.0018,-0.0003,1.0147
56.6270,0.0006,0.0009,0.0048,0.0186,0.0164,1.0147
56.7270,0.0003,0.0012,0.0053,0.0066,-0.0123,0.9932
56.8270,-0.0005,-0.0007,0.0053,0.0066,-0.0099,1.0363
56.9270,-0.0005,0.0004,0.0051,0.0066,0.0021,0.9932
57.0270,-0.0007,0.0012,0.0056,-0.0030,-0.0027,1.0411
57.1270,-0.0002,0.0015,0.0045,0.0210,0.0116,1.0004
57.2270,0.0006,0.0017,0.0048,0.0066,-0.0027,1.0100
57.3270,-0.0002,0.0009,0.0056,-0.0077,-0.0075,1.0100
57.4270,-0.0002,-0.0001,0.0040,0.0090,-0.0075,1.0124
57.5270,0.0001,0.0023,0.0040,-0.0101,0.0021,1.0124
57.6270,0.0003,-0.0001,0.0051,-0.0053,-0.0027,0.9956
57.7270,-0.0005,0.0009,0.0040,-0.0173,-0.0075,1.0291
57.8270,-0.0005,0.0015,0.0045,-0.0006,-0.0027,0.9980
57.9270,-0.0005,0.0009,0.0040,0.0066,-0.0099,0.9980
58.0270,0.0001,0.0007,0.0045,-0.0053,-0.0051,0.9956
58.1270,-0.0007,0.0012,0.0045,-0.0173,-0.0003,1.0147
58.2270,-0.0010,0.0007,0.0053,-0.0269,0.0021,1.0267
58.3270,0.0001,-0.0001,0.0056,0.0090,0.0068,1.0147
58.4270,0.0001,0.0007,0.0056,0.0090,-0.0075,0.9884
58.5270,0.0001,0.0001,0.0061,-0.0077,-0.0003,1.0171
58.6270,-0.0013,-0.0015,0.0051,-0.0053,-0.0171,0.9980
58.7270,-0.0002,0.0012,0.0061,0.0042,0.0045,1.0076
58.8270,0.0006,0.0007,0.0056,-0.0006,0.0332,1.0004
58.9270,0.0102,0.0047,-1.1823,-0.1562,-1.0873,1.1057
59.0270,-0.1500,1.3082,-3.3201,-0.1538,-1.4440,2.2071
59.1270,-1.3267,0.8128,-2.6833,-2.4522,-1.5159,0.6843
59.2270,-0.8214,0.2112,-2.6742,-3.5272,-4.5828,3.9117
59.3270,3.1182,-0.1278,-1.6491,-1.2599,-3.4959,-0.0818
59.4270,0.7667,-0.0993,-2.5199,0.3825,-1.2238,2.3842
59.5270,1.3822,-1.4731,-1.9998,-3.0795,0.0212,1.4816
59.6270,1.8088,-2.2834,-2.1445,0.1790,8.5565,-11.1143
59.7270,-0.5446,1.9013,0.3808,-1.3676,1.4529,-0.3811
59.8270,-0.3410,-0.0643,0.3368,-1.3940,3.7610,-0.3763
59.9270,-1.3240,0.1667,-0.1388,1.7161,0.5455,0.4449
60.0270,0.3086,0.3207,1.6955,-0.0508,1.4266,0.8448
60.1270,-1.4767,-0.0004,-0.2044,0.7536,0.4067,-2.8447
60.2270,0.0190,-0.0228,-0.3477,-0.3501,0.5982,0.4210
60.3270,-0.0013,0.0044,0.0040,-0.1179,-0.3499,0.9812
60.4270,0.0009,0.0012,0.0040,-0.1322,-0.3643,1.0339
60.5270,0.0003,0.0001,0.0045,-0.0987,-0.3475,0.9764
60.6270,0.0001,0.0009,0.0048,-0.1275,-0.3499,1.0195
60.7270,0.0003,0.0012,0.0056,-0.1203,-0.3571,1.0267
60.8270,-0.0002,0.0007,0.0037,-0.1203,-0.3786,1.0124
60.9270,0.0011,0.0001,0.0043,-0.1370,-0.3595,1.0531
61.0270,0.0017,0.0004,0.0048,-0.1155,-0.3667,1.0171
61.1270,0.0006,0.0009,0.0059,-0.1083,-0.3571,1.0363
61.2270,-0.0007,0.0028,0.0059,-0.1490,-0.3643,0.9884
61.3270,0.0014,-0.0001,0.0056,-0.1346,-0.3571,1.0195
61.4270,0.0003,0.0009,0.0045,-0.1251,-0.3547,1.0124
61.5270,0.0001,0.0009,0.0056,-0.1131,-0.3451,0.9932
61.6270,0.0009,-0.0012,0.0048,-0.1275,-0.3475,1.0124
61.7270,0.0003,-0.0007,0.0053,-0.1322,-0.3595,1.0219
61.8270,0.0009,-0.0009,0.0048,-0.1322,-0.3643,0.9932
61.9270,0.0009,0.0007,0.0056,-0.1131,-0.3523,1.0219
62.0270,-0.0002,0.0007,0.0048,-0.1035,-0.3762,0.9836
62.1270,-0.0005,0.0017,0.0045,-0.0915,-0.3451,0.9860
62.2270,0.0009,0.0015,0.0040,-0.1275,-0.3667,1.0124
62.3270,0.0017,-0.0009,0.0045,-0.1275,-0.3427,0.9956
62.4270,0.0014,0.0012,0.0045,-0.1131,-0.3571,1.0243
62.5270,0.0033,-0.0012,0.0035,-0.1370,-0.3547,1.0315
62.6270,0.0003,0.0009,0.0043,-0.1227,-0.3595,1.0243
62.7270,-0.0007,0.0015,0.0040,-0.1203,-0.3714,1.0004
62.8280,0.0009,0.0007,0.0043,-0.0939,-0.3236,1.0339
62.9270,-0.0018,0.0031,0.0037,-0.1059,-0.3619,1.0100
63.0270,0.0038,-0.0036,0.0045,-0.1394,-0.3571,1.0219
63.1270,0.0017,0.0001,0.0043,-0.1346,-0.3762,1.0100
63.2270,0.0022,-0.0009,0.0048,-0.1179,-0.3667,1.0243
63.3270,0.0011,0.0001,0.0043,-0.1179,-0.3499,1.0147
63.4270,0.0009,0.0004,0.0045,-0.1179,-0.3475,0.9980
63.5270,0.0006,0.0017,0.0045,-0.1107,-0.3547,1.0004
63.6270,0.0003,0.0007,0.0043,-0.1179,-0.3643,1.0004
63.7270,-0.0013,0.0009,0.0045,-0.1322,-0.3714,1.0291
63.8270,-0.0005,0.0015,0.0045,-0.1203,-0.3738,0.9908
63.9270,-0.0002,0.0001,0.0053,-0.1322,-0.3499,1.0076
64.0270,0.0001,0.0009,0.0048,-0.1107,-0.3619,1.0004
64.1270,-0.0005,0.0012,0.0053,-0.1251,-0.3475,1.0124
64.2270,0.0011,0.0001,0.0043,-0.1059,-0.3523,1.0195
64.3270,0.0006,0.0007,0.0048,-0.1131,-0.3499,1.0076
64.4270,0.0006,0.0007,0.0040,-0.1155,-0.3643,1.0004
64.5270,0.0003,0.0007,0.0048,-0.1203,-0.3690,1.0028
64.6270,0.0003,0.0009,0.0048,-0.1155,-0.3451,1.0124
64.7270,0.0003,0.0017,0.0051,-0.1275,-0.3619,0.9908
64.8270,-0.0002,0.0036,0.0048,-0.1131,-0.3571,0.9836
64.9270,0.0017,-0.0007,0.0040,-0.1298,-0.3595,1.0339
65.0270,-0.0007,0.0004,0.0040,-0.1203,-0.3643,1.0124
65.1270,0.0003,0.0012,0.0048,-0.1107,-0.3283,1.0052
65.2270,-0.0047,0.0020,0.0040,-0.1275,-0.3236,0.9956
65.3270,0.0003,0.0017,0.0048,-0.1131,-0.3451,1.0124
65.4270,-0.0013,0.0007,0.0059,-0.0987,-0.3595,1.0243
65.5270,0.0019,-0.0009,0.0037,-0.1227,-0.3355,1.0195
65.6270,-0.0007,0.0007,0.0045,-0.1466,-0.3690,1.0147
65.7270,0.0006,0.0007,0.0056,-0.1322,-0.3643,1.0219
65.8270,-0.0002,0.0015,0.0051,-0.1131,-0.3379,1.0004
65.9270,-0.0010,0.0004,0.0048,-0.1107,-0.3331,0.9860
66.0270,0.0003,-0.0012,0.0045,-0.1346,-0.3619,1.0267
66.1270,0.0006,0.0004,0.0051,-0.1442,-0.3523,1.0076
66.2270,0.0006,0.0004,0.0053,-0.1298,-0.3427,1.0004
66.3270,0.0001,0.0007,0.0048,-0.1203,-0.3810,1.0363
66.4270,-0.0127,-0.0513,-0.0738,-0.2041,-0.1823,1.0195
66.5270,0.0033,-0.0007,-0.0282,-0.1298,-0.3068,0.8472
66.6270,-0.0007,0.0015,0.0043,-0.0939,-0.3499,0.9956
66.7270,-0.0007,0.0017,0.0048,-0.1107,-0.3595,1.0195
66.8270,0.0001,0.0004,0.0048,-0.1418,-0.3523,1.0219
66.9270,-0.0002,0.0004,0.0048,-0.1251,-0.3523,1.0387
67.0270,-0.0013,-0.0009,0.0109,-0.1490,-0.3523,1.0147
67.1270,-0.0260,-0.0825,0.0378,-0.3597,-0.2924,1.0052
67.2270,-0.0197,-0.0694,0.0616,0.0258,-0.2900,1.1129
67.3270,0.7539,-0.3471,0.4972,-0.6590,0.1816,1.1009
67.4270,0.2721,-0.1046,0.9310,-0.1059,0.6317,0.1457
67.5270,-0.3093,0.0548,0.7789,0.9452,0.0954,0.1792
67.6270,-0.9358,0.0012,0.3525,1.0050,-0.5534,-0.1345
67.7270,0.1066,0.1320,0.7378,-0.7499,-0.4959,0.8208
67.8270,1.3542,-0.2629,0.5465,0.8398,-0.7018,0.3635
67.9270,1.8224,-0.1507,0.5622,0.2101,-0.1009,2.8487
68.0270,-0.2374,0.1480,0.2979,1.8262,2.5662,0.0619
68.1270,-0.4012,0.0537,0.4423,0.6842,1.3141,2.3220
68.2270,0.5873,0.1128,0.6912,0.4543,1.7402,1.7043
68.3270,0.2854,0.2133,-0.1628,1.7496,2.6213,1.2637
68.4270,-0.2155,0.4198,0.4442,1.3186,2.7937,1.7737
68.5270,-0.4473,0.3492,0.3861,0.2341,1.5511,2.4249
68.6270,-0.1886,0.0326,0.3509,0.3107,1.3548,3.0714
68.7270,-0.1881,0.1803,0.2793,0.6890,1.2303,1.1632
68.8270,-0.1236,0.3892,0.1098,-0.0820,0.8688,0.5527
68.9270,-0.5094,0.0771,-0.0690,-0.7380,0.0523,-2.6747
69.0270,-0.5552,-0.2066,-0.0016,0.4903,-0.0889,0.9573
69.1270,-0.3924,0.0169,0.1069,-0.5464,-1.2022,0.8687
69.2270,-0.4529,-0.1821,0.1697,-0.7116,-1.1591,3.1121
69.3270,-0.2525,-0.1371,-0.0855,0.2341,-1.3722,2.2166
69.4270,-0.5174,0.3420,-0.1865,-0.2448,-0.7282,-1.2669
69.5270,-0.5539,0.7452,-0.1108,0.2293,-0.9628,-0.1129
69.6270,-0.2880,-0.2490,0.5207,-0.4052,-1.5183,1.0626
69.7270,0.1189,-0.0484,0.5425,0.6315,-2.1336,-1.1233
69.8270,0.2207,0.3692,0.0656,-1.7411,-2.3682,0.0858
69.9270,0.7723,-0.9908,-0.0759,-0.5440,-1.7744,0.1457
70.0270,0.4983,-0.3369,-0.4692,-0.1586,-0.4481,0.8759
70.1270,0.2878,-0.2194,-0.2609,0.5860,-0.9604,1.5726
70.2280,0.2439,0.0465,-0.2233,0.8087,-0.4457,1.8599
70.3270,0.2505,0.0686,0.0016,0.2437,-0.2469,1.5008
70.4270,0.6161,0.0361,-0.0493,0.8661,0.2989,1.4960
70.5270,0.5764,0.1360,-0.0466,0.0761,0.3923,-0.8503
70.6270,-0.0823,0.0518,0.3355,-0.3286,1.5104,-0.0770
70.7270,-0.1206,-0.0798,0.1591,1.7616,1.8791,0.9238
70.8270,0.0680,-0.0233,-0.0490,0.6315,1.2518,1.7139
70.9270,0.1615,0.2304,0.1258,0.1239,0.9813,0.9333
71.0270,0.0936,0.1344,0.1250,0.2820,1.1800,0.7083
71.1270,-0.0330,-0.0625,0.0877,-0.2184,1.1345,0.5910
71.2270,-0.0127,0.0420,-0.0152,-0.1131,1.2255,1.5080
71.3270,0.1192,0.1006,-0.0181,0.0354,1.3763,0.7705
71.4270,0.0057,0.1867,-0.0242,-0.4028,1.2327,0.2749
71.5270,-0.1089,-0.0915,0.0099,0.0210,1.3069,0.7586
71.6270,-0.0287,-0.0441,-0.0586,-0.2807,1.0890,1.2853
71.7270,0.0598,0.0819,0.0637,-0.3262,1.2614,1.0890
71.8270,0.0352,0.1589,-0.0485,0.2173,1.4434,0.9238
71.9270,-0.0023,-0.0265,-0.0224,-0.5656,1.2087,0.8136
72.0270,-0.0170,0.0209,0.0091,-0.2783,1.2423,1.3188
72.1270,-0.0199,0.1118,-0.0112,-0.4124,1.2111,0.8998
72.2270,-0.0431,-0.0276,0.0189,-0.4411,1.2446,0.8926
72.3270,-0.0229,-0.0214,0.0203,-0.3166,1.2183,0.9573
72.4270,-0.0095,-0.0526,0.0296,-0.4171,1.1824,0.5694
72.5270,-0.0207,-0.0673,0.0629,-0.1897,1.2542,0.9094
72.6270,0.0184,-0.0060,0.0280,-0.1275,1.2782,1.0985
72.7270,0.0318,0.0318,-0.0139,-0.2855,1.2016,0.8974
72.8270,-0.0087,-0.0119,0.0128,-0.2376,1.2686,0.8567
72.9270,-0.0327,-0.0220,0.0168,-0.2041,1.2207,0.8831
73.0270,-0.0218,-0.0238,0.0261,-0.1011,1.2877,1.0124
73.1270,-0.0245,0.0180,-0.0053,-0.2184,1.1776,0.8950
73.2270,-0.0383,-0.0409,0.0280,-0.2903,1.0531,0.8400
73.3270,-0.0372,-0.0353,0.0488,-0.1346,1.0699,0.7897
73.4270,-0.0226,-0.0222,0.0221,-0.2400,1.0914,0.8567
73.5270,-0.0660,-0.1936,0.1066,-0.4698,1.0507,0.7442
73.6270,-0.0660,-0.2924,0.0610,0.4496,0.9837,0.8998
73.7270,0.0192,-0.0132,-0.0298,0.9068,0.9980,1.1440
73.8270,-0.0255,0.0553,0.0261,-0.1011,0.5479,0.8519
73.9270,-0.1190,-0.0393,0.0762,0.0593,0.8041,0.5072
74.0270,-0.0639,-0.0854,0.0842,0.5908,1.0699,1.1776
74.1270,-0.0634,-0.0436,-0.0179,0.2628,0.7227,0.7322
74.2270,0.0192,0.0444,-0.0112,0.4926,0.5192,0.9070
74.3270,-0.0266,0.0015,0.0328,0.4280,0.6078,0.8017
74.4270,-0.0034,-0.0478,0.0077,0.4232,0.5479,1.1512
74.5270,0.0150,0.0723,-0.0013,0.5741,0.5910,1.0483
74.6270,-0.0037,0.0481,0.0171,0.3418,0.5288,0.9405
74.7270,-0.0260,0.0241,0.0266,0.4711,0.5767,1.0507
74.8270,-0.0122,0.0087,0.0101,0.4112,0.5360,0.9908
74.9270,-0.0109,0.0707,-0.0011,0.3107,0.5001,0.8998
75.0270,0.0003,0.0103,0.0269,0.2867,0.5455,1.0507
75.1270,0.0200,-0.0326,0.0192,0.4184,0.5958,1.0028
75.2270,-0.0013,0.0657,0.0402,0.3801,0.6796,0.7538
75.3270,0.0083,-0.2000,0.0013,0.3729,0.4139,1.0770
75.4270,-0.0268,0.0135,0.0586,0.5214,0.5695,0.8256
75.5270,-0.0202,0.1350,-0.0277,0.2149,0.4641,1.1488
75.6270,-0.0119,0.0246,0.0357,0.0785,0.3349,0.9214
75.7270,-0.0282,-0.0156,0.0520,0.3490,0.3899,0.9549
75.8270,-0.0250,-0.0470,0.0549,0.2006,0.3875,1.0507
75.9270,-0.0119,-0.0444,0.0482,0.3394,0.3588,1.0435
76.0270,-0.0026,-0.0308,0.0496,0.4112,0.2726,1.0076
76.1270,0.0099,-0.0001,0.0695,0.4112,0.3085,1.0435
76.2270,-0.0047,-0.0079,0.0562,0.4448,0.4282,0.9094
76.3270,-0.0697,-0.0356,0.0602,0.3370,0.3971,0.8304
76.4270,-0.0708,-0.0348,0.0823,0.4112,0.2774,1.0435
76.5270,0.0275,-0.0169,0.0743,0.4831,0.3396,1.1776
76.6270,0.0997,0.0217,0.0000,0.5357,0.4067,1.0004
76.7270,0.0744,-0.0183,-0.0093,0.4208,0.4426,0.8926
76.8270,0.0035,0.0156,0.0117,0.4352,0.4905,0.9693
76.9270,-0.0173,-0.0228,-0.0189,0.4687,0.4617,0.8639
77.0270,-0.0452,-0.0297,0.0056,0.6315,0.4522,0.9286
77.1270,0.0041,-0.0172,0.0149,0.5357,0.3923,1.0339
77.2270,0.0446,0.0015,0.0099,0.6626,0.3756,1.0435
77.3270,0.0400,-0.0049,0.0160,0.5333,0.4953,0.9884
77.4270,-0.0069,0.0409,0.0203,0.5310,0.5551,1.0291
77.5270,-0.0223,0.0246,-0.0051,0.6243,0.5001,1.0076
77.6270,-0.0250,0.0223,-0.0051,0.4304,0.4258,1.0100
77.7270,0.0067,-0.0191,0.0067,0.5022,0.5216,1.1632
77.8270,0.0352,0.0652,-0.0514,0.5238,0.5815,0.9645
77.9270,0.0105,0.0484,-0.0871,0.4089,0.4689,0.6748
78.0270,-0.1025,-0.0534,-0.0360,0.1646,0.3468,0.3324
78.1270,-0.1398,-0.0340,0.0434,1.4767,0.4929,1.4553
78.2270,0.0432,0.0750,-0.0512,0.6746,0.4091,1.0818
78.3270,0.0941,-0.0084,-0.0160,0.1646,-0.0913,1.3715
78.4270,0.1005,-0.0318,0.1679,0.7225,0.2080,0.8663
78.5270,-0.0090,0.0731,0.2164,0.4136,0.2534,0.8017
78.6270,-0.1563,0.1328,0.4719,0.5501,0.1601,1.0435
78.7270,-0.1230,0.1123,0.4573,0.5405,0.4713,1.0147
78.8270,-0.2040,-0.1227,0.5790,-0.1322,0.2822,0.7011
78.9270,-0.1500,-0.1243,0.7823,0.3705,-0.1991,1.3930
79.0270,0.0795,-0.1134,0.8809,0.1527,0.0643,1.7043
79.1270,0.0741,0.1419,0.8135,0.0856,0.0787,0.7346
79.2270,-0.2128,0.1315,0.7957,0.8853,0.2008,1.2183
79.3270,-0.2419,-0.1110,0.7733,-0.2160,-0.9915,1.2829
79.4270,-0.0532,-0.4979,0.8791,0.7081,-1.0658,0.8663
79.5270,0.0656,-0.3431,0.5820,0.3251,-1.3746,1.6396
79.6280,0.1722,-0.2852,0.4895,1.4216,-1.0777,1.3882
79.7270,0.0203,-0.0803,0.2699,1.4048,-0.6659,0.4545
79.8270,-0.0197,0.3047,0.2382,1.3426,-0.7737,0.3970
79.9270,-0.0444,0.4526,0.1556,0.9116,-1.0227,0.9118
80.0270,0.0121,0.3924,-0.0448,0.7656,-0.7713,1.1871
80.1270,0.0949,0.0348,-0.0791,-0.3645,-0.5845,0.7658
80.2270,0.0086,-0.0268,-0.1791,0.4089,-0.2900,1.0243
80.3270,-0.1092,0.0244,-0.1263,-0.1466,-0.5797,1.1273
80.4270,-0.0615,0.1725,0.0973,-0.1083,-1.0873,0.9908
80.5270,0.0547,0.1259,0.1993,-0.2519,-1.2549,0.8879
80.6270,0.0653,0.0489,0.4194,-0.3573,-1.4153,0.8926
80.7270,-0.0767,-0.0023,0.5108,-0.8792,-0.8239,0.7155
80.8270,-0.0988,-0.0529,0.6427,-0.7308,-1.2046,1.9700
80.9270,-0.1023,0.0825,0.8346,-0.6757,-0.9939,1.0387
81.0270,-0.2528,0.1371,0.8327,0.2101,-0.4265,1.0363
81.1270,-0.0780,-0.1563,0.7642,-0.3142,-0.1823,0.6101
81.2270,0.1170,-0.2402,0.6315,0.0354,-0.2637,0.3468
81.3270,0.0949,0.0662,0.3445,0.3346,-0.4409,0.7729
81.4270,0.0621,-0.0891,0.3587,-0.6805,-0.8144,0.4569
81.5270,0.0819,-0.2477,0.2630,0.2149,-0.8646,1.3858
81.6270,0.0344,0.0441,0.0919,0.0258,-0.5079,1.1871
81.7270,-0.0372,0.1978,-0.0424,-0.2998,-0.4600,1.1967
81.8270,-0.0308,-0.0180,-0.0855,-0.3070,-0.6563,0.9860
81.9270,0.0832,-0.1723,-0.0613,0.3921,-0.9365,1.4170
82.0270,0.0398,-0.0353,-0.0818,0.3155,-0.9125,0.8495
82.1270,-0.0410,-0.1800,-0.0123,0.3514,-1.0107,0.9070
82.2270,0.0022,-0.1869,-0.1218,0.5764,-1.0945,1.7043
82.3270,-0.0788,-0.3100,-0.0163,-0.8002,-0.9580,0.7131
82.4270,-0.0897,-0.2245,-0.1124,0.2915,-0.5606,1.4074
82.5270,-0.0258,-0.0441,-0.3757,-0.9511,-0.4744,1.1871
82.6270,0.1341,0.0135,-0.3384,-0.5919,-0.8024,0.9333
82.7270,0.1056,0.2589,-0.4333,-0.2950,-1.0203,0.4689
82.8270,0.1237,0.2805,-0.5180,-0.4698,-1.1328,0.1600
82.9270,0.1293,-0.0076,-0.3778,-0.1586,-1.4728,0.3875
83.0270,0.0280,-0.0127,-0.3549,0.3586,-1.7768,1.0985
83.1270,-0.1140,0.1179,-0.3096,-0.2543,-1.5446,1.2661
83.2270,0.1394,0.0257,-0.2742,0.2700,-1.0538,2.5734
83.3270,0.2119,-0.3151,-0.4277,-1.6789,-0.4648,0.3085
83.4270,0.2868,-0.1230,-0.1124,-0.9678,-0.7665,0.0307
83.5270,0.2761,-0.0444,-0.1644,0.1599,-1.0035,-0.2183
83.6270,0.2463,0.0129,-0.0858,0.2628,-0.9700,0.7370
83.7270,0.0550,-0.0100,-0.0637,0.3346,-0.4169,1.6253
83.8270,0.0366,0.2906,-0.0453,-0.0939,0.7155,3.8926
83.9270,0.1080,0.3122,-0.3248,0.3322,1.1680,2.0658
84.0270,0.0504,0.1312,-0.3682,0.0306,0.7586,-0.6851
84.1270,-0.1124,0.0180,-0.2806,-0.6302,-0.4002,-1.4848
84.2270,0.0784,-0.2157,-0.2188,-0.6350,-0.1224,0.9908
84.3270,-0.1737,0.0063,-0.0655,-0.4842,0.3085,2.8798
84.4270,-0.0727,-0.0438,0.0637,-0.1203,0.5815,3.5742
84.5270,-0.0580,-0.1712,0.2038,0.2580,0.6724,1.7210
84.6280,-0.1060,0.0380,0.0306,0.3753,-0.0243,-2.0618
84.7270,-0.5563,0.1384,-0.2502,-0.5393,-1.0705,-0.7426
84.8270,-0.3655,-0.1512,-0.3698,-0.4698,-0.9748,1.3643
84.9270,-0.5806,-0.1224,-0.6691,-0.1059,-0.9053,2.9541
85.0270,0.0451,-0.0667,-0.7373,0.4065,-0.9724,3.8519
85.1270,0.3537,0.0294,-0.7890,-0.4531,-0.4337,-0.5750
85.2270,-0.1769,-0.1248,-0.6347,-0.6661,-0.5414,-2.5837
85.3270,-0.3458,0.1454,-0.7072,-0.4770,-0.8599,-0.5128
85.4270,-0.3514,-0.0428,-0.6057,0.0832,-0.7401,2.7960
85.5270,-0.1100,-0.0985,-0.5201,0.2197,-0.1895,3.2174
85.6270,0.0771,0.3721,-0.6608,0.7488,-0.8072,1.2590
85.7270,0.0635,0.4206,-0.8154,0.3729,-0.9556,-1.4202
85.8270,-0.0514,0.2765,-0.8703,0.6171,-1.2717,-0.7977
85.9270,-0.2336,0.1304,-0.9731,-1.3174,-1.2741,0.8232
86.0270,-0.0820,0.1544,-0.7312,0.8494,-0.8958,3.8543
86.1270,0.4757,0.2730,-0.8505,-0.7954,-1.2597,1.5774
86.2270,0.3896,-0.0532,-0.7725,-0.6614,-1.1400,-1.0251
86.3270,-0.0945,-0.4129,-0.6081,-0.6518,-1.3722,-0.3978
86.4270,-0.2845,-0.0950,-0.5788,-0.9295,-1.5685,0.8687
86.5270,-0.3874,0.1259,-0.1204,-1.6358,-1.1927,3.7034
86.6270,-0.1324,0.4441,-0.1076,-0.3310,-1.2190,3.7705
86.7270,0.1125,0.2682,-0.2318,-0.3094,-0.8168,0.5718
86.8270,-0.1401,-0.2149,-0.2971,-0.0676,-0.9173,-2.6915
86.9270,-0.2384,-0.0569,-0.6193,-0.1370,-1.5829,-0.0052
87.0270,-0.0623,0.0939,-0.7107,-0.7188,-1.0179,2.6332
87.1270,0.3092,0.2962,-1.0672,-1.3676,-0.5223,3.7561
87.2270,0.4003,0.0100,-1.0344,-0.1466,-1.0610,-0.9078
87.3270,0.0523,-0.3199,-1.2926,-0.7092,-0.9269,-1.7266
87.4270,-0.2323,0.0950,-1.0539,-0.6877,-1.7385,1.1512
87.5270,-0.4918,0.2639,-0.3853,-0.5919,-1.1017,2.7960
87.6270,-0.2294,0.4369,-0.0986,0.3107,-0.9844,2.8296
87.7270,0.3132,0.3244,-0.0871,1.0050,-1.1304,0.5575
87.8270,0.3134,-0.1952,-0.1212,-0.6805,-1.1184,-1.5063
87.9270,-0.0743,-0.1350,-0.1103,0.0641,-1.4967,-0.3715
88.0270,0.1823,-0.1243,-0.2377,-1.1809,-0.8048,3.5813
88.1270,0.5111,-0.1384,0.0077,0.4759,0.1242,1.5606
88.2270,0.0627,0.6695,-0.3131,-0.2879,-0.6731,-0.3332
88.3270,0.0725,-0.0318,-0.2156,-0.9032,-0.7976,-2.6268
88.4270,-0.1595,-0.1843,-0.1639,-0.8218,-1.2334,-0.0746
88.5270,-0.1364,0.0257,-0.0149,-1.1474,-1.0322,1.8336
88.6270,-0.3048,0.5235,0.4738,0.8733,-0.8527,3.7705
88.7270,-0.1721,0.2922,0.6254,0.8350,-1.0753,1.7450
88.8270,0.1573,-0.1504,0.4295,0.0330,-1.1687,-2.6220
88.9270,-0.8699,-0.4667,0.4399,0.5118,-1.7146,-1.1376
89.0270,-2.0338,-0.0036,-0.2894,0.3466,-3.0098,0.4306
89.1270,-3.9814,-0.0769,-1.3699,0.3849,-5.4232,0.6149
89.2270,-3.7368,-5.3379,1.5892,2.3505,-7.1542,4.5558
89.3270,2.2088,-8.7036,4.9357,-2.1577,-11.2291,-13.7048
89.4270,-3.0645,0.8608,-1.5878,3.7703,-9.7591,-13.7958
89.5270,-0.8534,1.0950,0.2473,-1.3078,0.8855,-10.5325
89.6270,-1.1361,-8.7036,3.1725,-4.9949,-9.8692,-7.2692
89.7270,-1.4207,-1.6919,-2.8751,3.4782,-12.5747,-19.0463
89.8270,-0.1809,2.1934,0.0786,8.6736,-21.8618,-8.6554
89.9270,-0.8481,-0.9333,0.4144,0.8542,-11.2267,-10.5492
90.0270,-0.2872,1.5976,-0.3395,-0.9271,-11.8540,-7.9372
90.1270,-0.3642,-0.0675,0.3152,-0.3334,-10.5683,-8.7943
90.2270,-0.4287,-0.0545,-0.1876,0.7776,-12.7231,-10.9203
90.3270,-0.5744,0.3599,-0.5121,1.5341,-9.1151,-10.1039
90.4270,-0.6448,0.5898,-0.5622,1.0313,-9.5197,-11.2555
90.5270,-0.5851,0.2884,-0.4151,0.0330,-8.8589,-10.6043
90.6270,-0.9011,0.1176,-0.3680,0.8015,-7.9970,-11.9115
90.7270,-1.1884,-1.2837,0.5233,-0.2711,-8.8182,-12.0504
90.8270,-0.4854,0.7875,-1.3049,0.8278,-10.6210,-12.5436
90.9270,-0.7468,-0.3710,-1.2718,4.2755,-9.5771,-15.6728
91.0270,-0.9701,-1.1006,-0.4072,2.6905,-7.0177,-13.8556
91.1270,-0.8819,0.1683,-1.1679,2.6450,-8.1981,-17.4948
91.2270,-1.4130,0.2010,-0.3946,4.7232,-5.7345,-14.9354
91.3270,0.2612,-0.8376,-0.3552,3.3298,-2.7489,-16.0032
91.4270,-0.4343,0.6471,1.5143,2.2356,-3.6706,-15.5555
91.5270,-0.2192,0.2653,0.3104,7.0288,-3.3235,-18.6536
91.6270,-0.5115,-1.9906,0.4231,3.6099,-4.0968,-14.9977
91.7270,-0.3399,-4.5489,1.4954,-1.0133,-4.4440,-16.0032
91.8270,0.4760,-4.9912,2.1815,-4.5280,-4.6690,-14.7966
91.9270,0.7134,-3.4482,1.3662,-6.2949,-2.9859,-13.2308
92.0270,1.1120,-5.4602,2.2929,-10.1496,-3.9723,-9.5820
92.1270,0.8437,-4.6339,1.2564,-11.2820,-1.0394,-7.7696
92.2270,0.3363,-2.4646,0.0477,-7.3819,-0.1033,-4.8391
92.3270,-0.5382,-1.6186,-0.3874,-6.4984,2.2909,-0.9629
92.4270,0.2836,-0.6247,-0.5388,-5.1457,1.6852,-1.2741
92.5270,-0.5574,-1.0492,-0.6624,-4.1880,0.5695,-1.4441
92.6270,0.2948,-1.0138,-0.4807,-3.7403,-0.8742,-0.5582
92.7270,-0.2603,-1.7521,-0.0882,-4.1760,0.8640,0.7083
92.8270,-0.9190,-2.8854,-1.1874,-0.7428,-1.0490,2.2645
92.9270,-0.1348,-0.9410,-0.1343,-0.9942,-1.9396,1.1177
93.0270,0.3598,0.3913,-0.2918,-1.0492,-0.7976,0.0283
93.1270,0.0470,-0.5272,-0.1007,-1.2336,0.1649,-0.0267
93.2270,-0.3461,-0.0694,-0.3856,-0.6805,-1.3076,-0.0722
93.3270,-0.4351,-0.4323,0.1825,-0.5943,-0.9173,1.3667
93.4270,-0.2637,0.3588,0.0749,-0.3717,-2.0258,1.8144
93.5270,-0.1158,0.4326,0.2846,1.8597,-2.0354,1.4218
93.6270,-0.0151,-0.3796,0.4882,-0.2639,-1.5709,0.5359
93.7270,0.1013,0.0945,0.1588,-0.5752,-1.2573,0.6820
93.8270,0.4789,-0.0414,0.2129,0.1335,-1.1041,0.3492
93.9270,0.2918,-0.0545,0.1860,0.6531,-0.4600,0.5144
94.0270,-0.2230,-0.2866,-0.0533,0.0282,-0.6109,1.2757
94.1270,-0.4369,-0.3423,0.0839,-0.3788,-1.4680,2.6715
94.2270,0.0110,-0.0819,0.2449,-0.3070,-1.6236,1.3978
94.3270,0.2292,0.1781,-0.2276,-0.1969,-0.9173,0.7586
94.4270,0.1754,-0.1621,0.2777,-0.1610,-1.0897,-1.0491
94.5270,0.1370,-0.3409,0.4772,1.1391,-1.0227,0.7969
94.6270,-0.0415,-0.1155,0.8529,1.2995,-1.5805,1.3739
94.7270,-0.0090,-0.0390,1.0000,1.7544,-1.8654,2.2645
94.8270,-0.2312,0.1749,0.9108,0.0377,-0.8192,1.6396
94.9270,-0.2861,-0.0398,0.9246,-0.7164,-0.3427,0.3970
95.0270,-0.1809,-0.3079,0.9787,-0.2089,-0.6971,0.0738
95.1270,0.0547,-0.1448,0.9729,0.2796,-1.1903,0.4473
95.2270,0.0853,0.0356,0.9417,0.1335,-1.4081,0.1816
95.3270,-0.4468,0.0185,0.7725,0.2029,-1.5709,0.9860
95.4270,-0.2880,0.2253,0.0911,-0.8170,-2.5909,2.9636
95.5270,0.0371,-0.1017,0.4064,-0.8457,-1.6906,0.6604
95.6270,-0.4095,-0.7510,0.5963,0.1886,-2.1575,0.5670
95.7270,-0.1406,-0.1288,0.7083,1.1295,-3.1008,0.5503
95.8270,0.6681,0.2365,0.7666,0.2053,-2.4352,0.4713
95.9270,-0.0530,-0.2042,1.1319,-0.8026,-1.6859,0.9405
96.0270,-0.0602,-0.5634,1.0515,-0.4076,-2.0522,2.1592
96.1270,0.0272,-0.2072,1.1162,0.7249,-1.2118,0.6843
96.2270,0.3081,-0.3564,0.4514,0.9547,-1.3507,0.0978
96.3270,0.3254,-0.2663,1.8290,1.9124,-1.8750,0.6341
96.4280,0.0944,0.1030,0.7136,1.2468,-1.0251,0.5886
96.5270,0.0693,-0.0657,0.6334,1.3881,-1.5877,0.9190
96.6270,0.0520,0.0100,0.2976,0.8254,-1.2286,1.1249
96.7270,-0.0375,-0.2735,0.2931,0.3418,-1.2429,2.1472
96.8270,0.2705,0.0620,0.2569,-0.6039,-0.9772,2.5327
96.9270,0.1114,-0.4060,0.2356,-0.4387,-1.0179,-0.3930
97.0270,0.2489,-0.5341,0.4554,0.3969,-0.9604,1.4505
97.1270,0.3246,-0.4811,1.0198,1.8502,-1.6452,-0.8503
97.2270,0.1381,0.0963,0.5449,1.0529,-1.6236,1.3356
97.3270,0.0520,-0.1688,0.5145,-0.0030,-1.2980,3.7465
97.4280,0.0310,-0.0103,0.8298,-0.1921,0.2750,2.2286
97.5270,-0.2539,-0.3015,0.5327,1.3809,0.8376,0.3204
97.6270,-0.2696,-0.2208,0.1444,1.6538,-1.2453,-0.3978
97.7270,0.2497,0.1264,0.1319,2.6115,-1.6571,-0.4242
97.8270,0.0888,0.3604,0.0019,1.6874,-0.8503,0.8495
97.9270,0.0637,0.2274,-0.0701,1.0289,-1.1591,1.8455
98.0270,0.0472,0.1219,0.0381,0.2748,-0.5223,2.7410
98.1270,0.1096,0.0404,-0.1466,-0.3357,-0.6061,1.2518
98.2270,0.0347,-0.2301,-0.3778,-0.1251,-1.1256,0.2318
98.3270,0.1288,-0.0316,-0.5289,0.4328,-1.3483,-0.0579
98.4270,0.0840,0.1779,-0.0687,0.6124,-1.2573,0.5144
98.5270,0.0624,0.0675,-0.0120,0.5908,-1.1256,1.1464
98.6270,-0.0644,0.0145,0.2723,0.6818,-0.0195,2.4010
98.7270,-0.0772,0.1627,0.0986,0.1287,0.1505,2.2885
98.8270,-0.0047,0.1931,0.2606,0.0497,0.2080,0.5598
98.9270,-0.0634,0.0265,0.1404,0.5070,-0.1727,-0.4313
99.0270,-0.0578,-0.1176,0.1801,0.7967,-0.4959,0.0499
99.1270,0.0001,-0.0214,0.1151,1.3450,-0.9604,0.2486
99.2280,-0.0452,0.0345,0.0637,0.5453,-0.8790,2.6284
99.3270,-0.2160,0.0537,-0.1106,-0.3956,-0.9652,2.2310
99.4270,0.0379,-0.0604,-0.1868,-0.2065,-1.0634,1.2278
99.5270,0.1519,-0.0212,-0.1961,0.5070,-1.2429,-0.7306
99.6270,-0.0109,-0.1312,-0.1793,0.7776,-1.2262,-0.3859
99.7270,0.0073,-0.1667,-0.0887,0.6914,-1.2357,0.4377
99.8280,-0.0452,-0.1848,0.0290,0.4687,-1.2717,3.0953
99.9280,0.0648,0.2530,-0.1090,-0.0532,-0.1967,2.7242
100.0270,-0.1129,0.7020,0.0152,-0.0006,-0.2230,0.5215
100.1270,0.0078,0.0308,0.0256,-0.4531,-0.6180,-0.8240
100.2270,-0.0807,-0.2538,0.0056,0.4735,-0.9820,0.2869
100.3270,-0.1087,-0.2607,-0.0917,0.8230,-1.0251,1.0028
100.4280,-0.0572,0.1448,-0.2004,-0.0987,-0.5438,3.3323
100.5270,-0.0143,0.3583,-0.3331,-0.3357,-1.1950,1.2829
100.6270,0.0904,0.0388,-0.3256,0.0210,-1.1807,-0.2757
100.7270,-0.0143,-0.2213,-0.1436,0.6315,-1.5135,-0.8934
100.8270,0.1157,0.0614,-0.1322,0.4615,-1.5015,0.6101
100.9270,0.0744,0.2386,0.1607,0.1718,-1.4823,2.5470
101.0270,0.0653,0.5645,-0.2046,-0.8888,0.3612,2.7074
101.1270,-0.0324,0.1304,0.2014,-0.8361,0.2080,0.4497
101.2270,-0.0836,-0.2269,0.0568,0.2508,-0.7306,-0.8168
101.3270,-0.0186,-0.3095,0.3768,0.9308,-1.0729,0.5622
101.4270,-0.1182,-0.2485,0.2313,-0.1394,-0.8287,2.0490
101.5270,-0.3122,-0.3748,0.3467,0.3753,-0.6085,3.5143
101.6270,-0.2035,-0.3178,0.2180,0.5357,-1.1065,1.9174
101.7270,0.3683,-0.4116,0.1743,1.1702,-1.5997,-0.4936
101.8270,0.3792,-0.4417,0.2960,1.6371,-0.9580,-0.6971
101.9270,0.0488,0.1294,0.6835,1.8980,-1.3531,-0.6420
102.0270,0.3036,0.0380,0.5079,4.3138,-2.1431,-1.3148
102.1270,-0.1734,0.0934,-0.2502,1.5006,-2.4185,3.2821
102.2280,-0.1937,-0.1840,0.1037,0.7225,-0.6396,1.3882
102.3270,-0.5395,-0.2093,0.0541,1.2037,-1.3650,-1.1448
102.4270,0.3566,0.0849,0.1015,1.6610,-1.5757,-0.5582
102.5270,-0.1345,-0.0084,-0.1961,1.6850,-1.9181,0.4737
102.6270,-0.2608,-0.1896,0.2006,1.7544,-1.7194,1.6803
102.7270,0.1442,0.1605,-0.4159,0.5357,-1.9684,2.2358
102.8270,0.4602,0.4065,-0.3797,0.2077,-1.9181,0.4593
102.9270,0.3124,0.1382,-0.3738,0.4496,-1.2453,-1.1424
103.0270,0.3052,0.1955,-0.1156,1.3019,-1.7720,0.5000
103.1270,0.0989,0.2168,0.0269,1.2492,-1.9947,1.2135
103.2270,0.0749,0.0894,0.1319,1.2229,-1.2022,3.8782
103.3270,-0.2000,-0.1848,0.3960,0.3418,0.9526,1.8575
103.4270,-0.0356,-0.1198,0.4599,1.0337,0.4881,0.5024
103.5270,-0.0743,0.0353,0.4431,1.3210,-1.0107,-1.5231
103.6270,0.0563,0.0060,0.4591,1.8286,-1.0825,0.1193
103.7270,-0.2328,-0.1262,0.1545,1.3953,-1.3411,1.8479
103.8270,-0.2043,-0.1832,-0.0733,0.7967,-1.1496,3.8495
103.9270,-0.0735,-0.0116,-0.1652,0.0761,-1.0873,1.6301
104.0270,0.3366,-0.1464,-0.1127,0.3562,-0.4864,-0.7809
104.1270,0.2580,-0.0678,0.2030,0.5549,-1.6068,0.6867
104.2270,0.1589,0.1741,0.0634,1.5892,-1.8199,0.2917
104.3270,0.2106,0.0148,0.2992,2.1327,-1.8511,2.6955
104.4270,0.1186,-0.0382,-0.0973,0.8087,0.6126,3.3850
104.5270,-0.0167,-0.1286,0.7408,1.3115,0.7850,0.6029
104.6270,-0.0602,0.0766,0.2118,1.1008,-0.0817,-1.3938
104.7270,0.0230,-0.0095,0.3664,1.5988,-0.3451,-1.5423
104.8270,-0.1158,0.0505,0.2457,2.0848,-0.5342,0.4521
104.9270,-0.1715,-0.0969,0.2332,2.0968,-0.8024,3.3036
105.0270,-0.1955,0.1184,-0.0088,0.5238,-0.0123,3.2078
105.1270,0.0677,-0.0540,-0.0466,0.1718,-0.1416,-0.0579
105.2270,0.0038,-0.3543,0.2145,0.9667,-0.8934,-2.2581
105.3270,0.1650,-0.1144,0.4660,1.7089,-1.6045,0.2678
105.4270,0.1557,0.1104,0.3112,1.8861,-2.3921,1.7282
105.5270,0.2599,0.1384,0.3027,1.2827,-0.5941,3.9979
105.6270,-0.1108,-0.2823,0.5716,1.0840,0.8209,1.0124
105.7270,0.0819,-0.1565,0.5945,2.1446,1.0794,-0.2231
105.8270,0.0824,-0.2826,0.3818,1.7640,-1.0011,-1.9038
105.9270,0.0392,-0.1962,0.2723,3.1933,-0.1631,-1.0491
106.0270,0.3742,0.1533,0.6470,3.7272,0.0906,2.0706
106.1270,-0.0737,0.5299,0.5665,1.2492,-0.4409,3.9979
106.2270,-0.0141,0.1382,0.5662,0.6866,0.2032,1.2781
106.3270,0.4176,-0.0302,0.3408,1.5676,-0.2733,-1.3771
106.4270,0.4203,0.0953,0.5617,1.9100,-0.4696,-0.1584
106.5270,0.0574,0.0526,0.5745,1.5868,0.1313,0.3372
106.6270,-0.0015,-0.0715,0.7048,1.9316,0.2367,2.8942
106.7270,0.3593,0.0015,0.8162,1.7161,0.8783,2.3794
106.8270,0.3265,0.0390,0.8753,1.6538,0.9047,0.4042
106.9270,-0.2283,0.0334,0.4096,2.1662,0.7443,-2.2557
107.0270,-0.3343,-0.0388,0.6459,2.6187,-0.2517,0.0235
107.1270,-0.2624,0.0361,0.2563,2.9060,-1.0155,1.0219
107.2270,-0.3269,0.1307,-0.0309,1.4838,-1.2860,3.5311
107.3270,-0.0703,0.0356,-0.5388,0.3370,-0.9077,2.1328
107.4270,-0.2206,0.0177,-0.7818,1.0720,-1.5709,-0.8551
107.5270,-0.0743,-0.3391,-0.5287,1.1989,-1.1112,-2.6484
107.6270,-0.4409,-0.3393,-0.3728,1.5174,-1.4608,1.4146
107.7270,-0.1835,-0.1696,-0.0333,1.7472,-1.0083,3.8543
107.8270,-0.0546,-0.1107,-0.0117,1.3091,-0.9676,2.5494
107.9270,0.1130,-0.1880,0.3254,1.0553,-0.5295,-0.3595
108.0270,-0.1404,-0.1813,0.9222,0.9260,-0.9460,-2.8950
108.1270,-0.1169,-0.2229,-0.1673,1.5174,-1.0155,-0.1273
108.2270,-0.2112,0.0915,-0.3397,0.3562,-1.2717,3.8782
108.3270,-0.2203,0.2629,-0.1092,-0.1753,-2.4879,1.8312
108.4270,0.1043,0.3535,-0.3022,1.0888,-1.3028,-0.5223
108.5270,0.2692,0.1376,-0.2481,2.4176,-0.2972,-1.9828
108.6270,0.1109,0.0191,-0.1961,2.0968,-2.5909,1.2542
108.7270,0.0651,0.0782,0.1719,1.2732,-1.7002,3.6867
108.8270,-0.1180,0.0191,0.1511,-0.3621,0.2127,2.2813
108.9270,-0.1153,-0.1970,0.4724,0.8111,-0.6228,-0.2685
109.0270,-0.4007,-0.2018,0.3576,0.8302,-1.1879,-2.0738
109.1270,-0.2448,-0.0020,0.1705,0.8805,-1.5638,0.6125
109.2270,-0.0407,-0.1358,-0.0139,0.5884,-1.6380,2.4944
109.3270,0.0352,0.1131,-0.0911,-0.0077,-1.8247,3.0378
109.4270,-0.0450,0.2312,-0.0410,0.5669,-1.9947,0.4521
109.5270,0.0163,-0.0025,0.2795,0.6626,-2.7082,-1.8391
109.6270,0.0467,0.0337,0.1799,0.7153,-2.7968,-0.1249
109.7270,-0.0143,0.1339,0.2419,0.7393,-2.5597,1.6253
109.8270,0.1807,0.2767,0.3427,0.4065,-1.7074,2.8798
109.9270,0.1344,0.1488,0.3877,0.1287,-1.2094,1.8958
110.0270,-0.0580,0.2192,0.2835,0.6148,-1.2070,-0.7977
110.1270,-0.1763,-0.3297,-0.2137,-0.2136,-1.5350,-1.3100
110.2270,-0.0034,-0.4411,-0.0112,1.1008,-1.7218,1.1057
110.3270,-0.0335,0.0111,-0.0274,0.9811,-2.0330,2.5351
110.4270,0.2036,0.1997,-0.0314,0.1407,-1.9564,1.9820
110.5270,0.1533,0.2831,-0.1751,0.0832,-1.6164,-0.0004
110.6270,0.4115,0.2130,0.0669,1.1008,-2.0163,-1.1281
110.7270,0.3057,0.1621,-0.0906,0.2125,-1.9349,0.0331
110.8270,0.0824,0.0108,-0.0197,0.2269,-1.8175,1.0435
110.9270,0.0288,-0.0116,0.1167,-0.4890,-1.0394,3.6651
111.0270,0.1354,0.1597,0.1492,-0.0484,0.0092,1.5367
111.1270,0.2703,0.0215,0.1940,-0.0460,-0.1799,-0.1440
111.2270,0.0536,-0.1632,0.1103,0.7033,-0.4528,-1.6141
111.3270,0.0011,-0.1725,0.1407,0.4950,-0.4121,0.6604
111.4270,-0.0908,-0.0433,-0.4988,0.4591,-0.4696,2.6739
111.5270,-0.0362,0.1611,-0.2630,-0.5225,-0.7545,3.5430
111.6270,-0.0434,0.1504,-0.4245,-0.6757,-0.4337,1.3547
111.7270,0.1194,-0.2272,-0.0709,0.6435,-0.4935,-2.1384
111.8270,0.0161,-0.1933,0.1796,0.6746,-1.2525,-0.5463
111.9270,-0.0897,0.0111,0.0032,0.5477,-1.4847,1.2757
112.0270,-0.0607,0.2333,0.1492,-0.2448,-0.2182,4.7377
112.1280,0.1626,0.2527,0.5103,0.4089,0.8712,1.3858
112.2270,0.0214,0.0660,0.6161,0.2365,0.0811,-0.5032
112.3270,-0.1745,-0.0889,0.4962,1.6371,-0.8790,-2.1959
112.4270,0.0779,-0.0548,0.1855,0.6291,-0.3858,0.7035
112.5270,-0.2989,-0.2117,-0.1151,-0.5823,-0.7186,2.6500
112.6270,0.0046,-0.2317,-0.2446,-0.6709,-0.9437,2.4728
112.7270,-0.0668,-0.0580,-0.4442,-0.1490,-0.8910,0.3683
112.8270,0.0739,-0.1115,-0.2928,0.8997,-0.7473,-2.9764
112.9270,0.0163,-0.0737,-0.3544,0.2676,-1.5661,-0.1656
113.0270,-0.0844,0.0047,-0.1332,0.0521,-1.2884,2.9636
113.1270,0.1567,0.3796,-0.0085,-0.2112,-0.2254,4.2709
113.2270,0.2295,0.1592,0.4008,-0.5105,1.1369,1.0483
113.3270,-0.0626,-0.0446,0.3968,0.0761,0.2989,-1.7889
113.4270,-0.2011,-0.1198,0.1271,0.6818,-0.2086,-0.8743
113.5270,-0.2792,-0.0193,-0.0482,-0.1610,-0.6252,1.7737
113.6270,-0.1747,0.0468,-0.3853,-0.9726,-1.4919,4.6132
113.7270,-0.1769,0.0023,-0.5857,-0.6949,-1.7864,2.7386
113.8270,0.2385,-0.1059,-0.6267,-0.3693,-0.8120,-1.2454
113.9270,-0.0199,-0.3391,-0.3920,0.7416,-0.9101,-2.5047
114.0270,-0.0189,0.0334,-0.1748,0.7225,-1.5422,0.8519
114.1270,-0.1739,0.0521,0.3403,0.6794,-1.0658,2.8296
114.2270,0.0531,0.3018,0.3840,-1.6334,0.3971,3.1767
114.3270,0.0675,-0.0979,0.5244,-0.4028,-0.5414,0.7179
114.4280,-0.1785,-0.1192,0.5534,0.1239,-1.1927,-2.5957
114.5270,0.0595,-0.1096,0.2976,0.6195,-1.5015,-0.3787
114.6270,0.1019,0.1371,-0.0602,0.0042,-0.8694,1.7953
114.7270,0.1205,0.3210,-0.3571,-0.3764,-1.4177,3.7848
114.8270,0.1791,0.4505,-0.4000,-0.6973,-1.5470,1.4625
114.9270,0.3651,0.4592,-0.5359,-1.0109,-0.0099,-1.1017
115.0270,0.1988,-0.0108,-0.1985,0.2077,-0.7952,-1.1233
115.1270,-0.0951,-0.0433,-0.3467,-1.3078,-0.8311,1.9820
115.2270,-0.0114,-0.0779,0.0426,-0.8553,-0.5223,2.8128
115.3270,0.1288,0.3436,0.2459,-2.0069,0.8831,3.1193
115.4270,0.0107,0.3090,0.3592,-2.0668,0.8472,1.0770
115.5270,-0.2469,-0.1616,0.2467,-0.5009,-0.0339,-1.7218
115.6270,0.0454,-0.3519,0.1415,-0.2519,-0.5079,0.1576
115.7270,0.0933,0.0108,-0.0266,-0.6494,-0.0123,1.7258
115.8270,-0.0279,-0.1158,-0.0304,-1.8585,-0.1823,2.8535
115.9270,-0.1358,-0.1984,-0.1919,-1.5640,-0.0075,1.8048
116.0270,-0.0058,-0.1992,-0.2121,-0.7763,-0.6516,0.0595
116.1270,0.0542,-0.2709,-0.6587,-0.5847,-0.0985,-1.0921
116.2270,0.1104,-0.2634,-0.2697,0.2389,-1.6715,0.4210
116.3270,0.1397,-0.2836,-0.4293,2.0824,-0.9987,2.3651
116.4270,0.1882,-0.0553,0.1236,-1.6334,0.6317,3.4880
116.5270,-0.1065,0.1728,0.3285,0.2389,0.5934,1.1680
116.6270,-0.1262,0.1059,0.1151,0.8039,0.3061,-1.1616
116.7270,0.0968,-0.1499,0.0997,0.8015,-0.0458,-0.6827
116.8270,0.1815,0.0268,-0.2105,1.0266,0.0404,0.5431
116.9270,-0.0556,-0.0526,-0.2763,1.3785,0.0691,2.7290
117.0270,-0.0418,0.2290,0.1609,-0.8864,-0.0243,3.6651
117.1270,-0.1985,0.0041,-0.2052,-1.2144,-0.2158,1.0722
117.2270,-0.0300,-0.0244,-0.2188,0.0210,-0.5103,-1.2214
117.3270,-0.0090,0.0995,-0.1887,0.2149,-1.0705,-0.5870
117.4270,0.0560,0.2519,-0.0855,0.3921,-0.7856,0.4330
117.5270,0.1530,0.1131,0.2084,-0.1490,-0.2206,2.7051
117.6270,0.0528,0.6215,0.2404,-1.3533,0.6150,2.5614
117.7270,-0.0663,0.2237,0.2372,-1.5376,0.4139,0.6317
117.8270,-0.0655,-0.0926,0.0019,-0.9343,-0.0626,0.2151
117.9270,0.1725,-0.1832,0.1039,-0.8529,-0.1033,1.4409
118.0270,0.0739,0.2184,-0.0205,-0.0077,-0.0554,1.1895
118.1270,0.0600,0.1685,0.1322,-0.8840,-0.3140,2.6548
118.2270,-0.0237,0.1275,-0.2659,-2.5959,0.4617,1.2709
118.3270,-0.0348,-0.1424,-0.1892,-1.6238,-0.0291,0.0283
118.4270,-0.0713,-0.2402,0.0099,0.0976,-0.5510,-0.7713
118.5270,0.0632,-0.1224,-0.1010,-0.5608,-0.5582,0.5144
118.6270,-0.0332,-0.1659,0.0045,-1.1210,-0.4361,1.7330
118.7270,-0.0777,0.0737,0.0999,-1.8154,-0.0865,3.4975
118.8270,-0.1870,0.1027,0.3824,-1.6597,0.4354,0.9118
118.9270,-0.1787,-0.1629,0.1615,-1.2671,0.2127,-0.8623
119.0270,0.0643,-0.3375,0.1255,-0.0221,-0.2876,-1.3052
119.1270,0.2796,-0.0119,0.3957,-0.1873,0.4498,0.5646
119.2270,0.0150,-0.0889,0.1058,-0.5776,0.2511,2.9804
119.3270,-0.0375,0.2423,0.0754,-1.3246,-0.0482,3.0786
119.4270,-0.1132,0.1741,-0.1921,-1.2431,-0.3283,0.3444
119.5270,0.0771,-0.1701,-0.1820,-0.9511,-0.2398,-1.4848
119.6270,-0.0167,-0.1664,-0.1783,-0.1370,-0.8790,0.0834
119.7270,0.0198,0.0673,-0.0549,-0.3932,-0.7976,1.4601
119.8270,-0.1055,0.0644,0.2046,-1.0684,-0.0482,3.4999
119.9270,-0.0815,0.2922,0.1879,-1.3054,0.5934,1.5367
120.0270,-0.0340,-0.1328,0.2766,-1.2144,0.1720,-0.7905
120.1270,-0.2651,-0.3633,0.2324,-0.1275,-0.4361,-1.1329
120.2280,0.0883,-0.1286,0.1386,0.1455,-0.3331,0.2055
120.3270,-0.1039,-0.2344,-0.1889,-0.9894,-0.2661,2.6045
120.4270,-0.0788,0.0095,-0.3909,-1.8369,-0.6204,4.7713
120.5270,0.0070,0.0452,-0.4700,-1.3988,-0.2398,0.8591
120.6270,0.0973,-0.2828,-0.2603,-0.1011,-0.3475,-1.9325
120.7270,-0.0775,-0.0969,0.0083,0.5286,-0.9077,-0.4122
120.8270,0.1272,0.0310,-0.0725,0.7728,-0.5031,0.3468
120.9270,-0.1292,-0.1155,0.1167,0.0617,-0.3714,3.5789
121.0270,0.0515,-0.0614,0.4141,-0.3094,0.9382,2.8774
121.1270,0.0278,-0.2304,0.6305,-0.0915,0.0523,0.7849
121.2270,-0.4018,-0.1451,0.3834,0.0928,-0.6348,-1.5063
121.3270,0.0118,0.1065,0.3621,0.5357,-0.9006,-0.2638
121.4270,0.3065,-0.1168,-0.0954,0.6435,-0.4911,1.3356
121.5270,0.2668,-0.4646,-0.2771,0.5693,-0.2685,5.0298
121.6270,0.2849,0.0758,-0.4112,0.8973,-0.1368,2.6883
121.7270,0.3158,0.0577,-0.4367,0.4519,-0.1009,-1.4034
121.8270,-0.0434,-0.1696,-0.3885,1.3450,-0.2565,-1.0131
121.9270,-0.0964,0.2879,-0.1407,0.9882,-0.9245,1.1081
122.0270,-0.1806,0.3196,-0.0797,1.1534,0.0164,3.7034
122.1270,0.2503,0.3487,-0.2827,-0.6231,0.5503,2.6907
122.2270,0.1048,-0.3348,0.4026,-0.5704,0.9813,0.1935
122.3270,-0.4324,-0.3575,0.4831,0.7153,0.3325,-1.6213
122.4270,-0.0583,-0.1235,0.4335,1.1846,-0.4576,-0.4673
122.5270,0.0067,-0.0705,0.1279,0.8542,0.5264,1.5702
122.6270,-0.1214,0.1584,-0.1990,0.2245,-0.2086,5.0801
122.7270,0.0110,0.2844,-0.4101,-0.2232,-0.6061,2.2717
122.8270,0.2812,-0.0148,-0.4303,0.0521,-0.4457,-1.2262
122.9270,-0.1188,-0.3876,-0.2950,0.9811,-0.4050,-0.8025
123.0270,-0.2174,0.0031,-0.3014,0.3681,-0.6563,0.9908
123.1270,0.3129,0.4603,-0.0775,-0.0724,-0.4864,2.5375
123.2270,0.2511,0.3460,0.0669,-0.1155,1.4482,2.3723
123.3270,-0.1753,-0.2114,0.2665,-0.2543,0.6006,1.1249
123.4270,-0.5475,-0.2511,0.2409,0.5094,0.1194,-2.2246
123.5270,-0.0937,0.1709,0.2609,0.7369,-0.8096,-0.2446
123.6270,0.0590,0.5027,-0.1865,0.1359,-0.3834,2.0395
123.7270,0.0619,0.3404,-0.7464,-1.3030,-1.0658,4.2230
123.8270,-0.0516,0.2482,-0.5910,-1.5640,-0.0698,1.2302
123.9270,0.1336,0.0172,-0.6392,-0.7739,-0.0099,-1.4633
124.0270,-0.1745,-0.3777,-0.2904,0.0593,-0.2805,-1.5782
124.1270,-0.3149,-0.0502,-0.1029,0.0330,-0.5031,1.0171
124.2270,-0.0378,0.4419,0.2230,-0.4100,-0.8455,3.0618
124.3270,0.5263,0.4241,0.1154,-1.7794,0.3923,3.8040
124.4270,0.1919,-0.3708,0.3032,-1.6334,0.3660,1.6037
124.5270,-0.0495,-0.4654,0.3429,-0.7236,-0.0746,-0.0602
124.6270,-0.0943,-0.0670,0.3174,0.0904,-0.4911,-1.4537
124.7270,-0.1289,0.2786,-0.1716,-0.5943,-0.5319,1.1823
124.8270,0.1032,0.1539,-0.7123,-1.5352,-0.8575,4.5534
124.9270,0.0496,-0.1227,-0.8098,-0.9271,-0.6300,1.9988
125.0270,0.2913,-0.1736,-0.7384,-0.3118,0.0643,-0.8168
125.1270,-0.1108,-0.2509,-0.5284,0.6890,-0.4121,-1.7506
125.2270,0.0211,0.0998,-0.2694,0.3155,-0.5199,0.7250
125.3270,-0.0167,-0.0612,0.2545,0.5573,-0.2493,2.6284
125.4270,0.2743,0.3079,0.4327,-0.1586,0.6916,4.1344
125.5270,0.0616,0.1456,0.5481,-0.6302,0.9119,0.4569
125.6270,-0.0159,0.0270,0.5183,0.0880,0.6964,-1.4106
125.7270,-0.3882,0.1435,0.3363,0.6818,-0.4241,-0.7306
125.8270,0.1402,0.2298,0.1175,-0.1538,-0.2278,0.7610
125.9270,-0.3050,-0.0588,-0.3557,-0.7523,-0.8910,3.3491
126.0270,-0.0522,0.0356,-0.4525,-1.3293,-0.5893,2.5399
126.1270,0.0432,-0.0750,-0.6720,-0.7691,-0.1536,0.1983
126.2270,0.1261,-0.2820,-0.5404,-0.1969,-0.1679,-2.0115
126.3270,-0.0753,-0.0787,-0.4634,-0.3046,-0.6683,0.7179
126.4270,-0.0948,-0.0843,-0.2204,-0.1562,-0.8263,1.7665
126.5270,-0.1129,-0.1038,0.1220,0.4328,-0.6109,3.8806
126.6270,0.1445,0.0420,0.2886,0.2796,0.2127,1.3499
126.7270,0.1472,0.0404,0.3584,-0.0460,0.3827,-0.3356
126.8270,-0.2808,-0.1954,0.1759,0.6698,0.0906,-1.7458
126.9270,-0.0298,0.0204,0.0706,0.1048,-0.4768,1.3284
127.0270,-0.2275,-0.0580,-0.2313,-0.5345,-1.0538,2.2047
127.1270,0.0299,0.2410,-0.5084,-1.4802,-0.6109,3.4544
127.2270,0.0797,-0.0580,-0.5132,-0.7571,-0.4289,0.9597
127.3270,0.4560,-0.2144,-0.5068,0.1622,-0.2278,-2.0355
127.4270,0.0014,-0.2975,-0.2974,0.5645,-0.3810,-0.4481
127.5270,-0.2616,-0.0500,0.0027,0.2245,-1.1136,1.6492
127.6270,-0.0745,0.1731,0.5020,-0.0221,-0.1703,3.7226
127.7270,-0.0423,0.1949,0.5399,-0.4411,0.7131,1.8120
127.8270,0.1869,-0.0841,0.3898,-0.4794,0.6700,-0.3595
127.9270,-0.2147,-0.2730,0.0634,0.4208,0.0547,-1.6596
128.0270,0.0923,-0.1235,0.3333,0.8973,-0.4600,1.1273
128.1270,-0.0479,0.0220,-0.0624,0.4926,-0.3020,2.5303
128.2270,-0.2824,0.2455,-0.2643,0.1311,-1.0969,3.5239
128.3270,-0.0511,0.2916,-0.3219,-0.5369,-0.2709,1.2087
128.4270,0.2188,-0.0998,-0.5284,-0.1682,0.2534,-0.9724
128.5270,0.1749,-0.3340,-0.3533,0.5812,-0.7569,0.5359
128.6270,0.0534,0.1240,-0.1825,0.2939,-0.9006,0.9501
128.7270,-0.2914,0.0212,0.0389,0.4950,-0.1919,2.1592
128.8270,0.3129,0.6631,0.4112,0.3897,0.1601,4.9532
128.9270,0.0547,0.2554,0.6763,-0.8409,0.7490,0.0571
129.0270,-0.0154,-0.2242,0.6619,-0.1490,0.2391,-1.6237
129.1270,-0.2107,0.0945,0.5148,0.8805,-0.0123,-0.9677
129.2270,-0.0042,0.3180,0.4056,-0.1945,-0.1033,1.4194
129.3270,-0.1340,-0.0934,0.0496,-0.6039,-0.2757,3.2414
129.4270,0.1117,0.2823,-0.2284,-2.3086,-0.0482,2.6356
129.5270,0.0523,-0.3087,-0.4090,-1.6789,-0.0123,0.1935
129.6270,0.1309,-0.4739,-0.3032,-0.5823,-0.7761,-1.4393
129.7270,-0.0666,-0.1816,-0.3328,-0.3094,-0.9604,0.3013
129.8270,-0.2280,-0.0015,-0.0306,0.3705,-0.5342,0.6628
129.9270,0.1256,0.0641,0.4527,-0.1969,0.0021,2.7769
130.0270,0.2361,0.3132,0.4458,-0.4387,1.0747,1.7067
130.1270,0.0491,-0.0747,0.5124,-0.6254,1.1106,0.6748
130.2270,-0.3013,-0.2994,0.3885,0.2221,-0.0243,-0.6875
130.3270,0.0931,-0.0052,0.1535,0.0042,0.0763,0.5694
130.4270,-0.2024,-0.0350,-0.0642,-0.6111,0.2367,2.5901
130.5270,-0.0535,0.0049,0.0312,-1.1929,-0.0051,4.0865
130.6270,0.1160,0.0665,0.0592,-1.1809,-0.1943,0.8424
130.7270,0.2572,-0.1621,0.0573,-0.1418,0.3253,-2.7801
130.8270,-0.0178,-0.1765,0.0514,0.3514,-0.5630,0.5335
130.9270,0.0600,0.1464,0.0216,0.3274,-0.5989,0.5886
131.0270,-0.1790,-0.2930,0.3054,0.3346,-0.1320,2.2262
131.1270,0.2681,-0.1792,0.5785,-0.0652,0.1146,2.0012
131.2270,-0.0399,-0.0731,0.6486,-0.2687,0.9095,1.2518
131.3270,-0.2813,-0.2799,0.4506,0.3514,0.1505,-2.8495
131.4270,0.0203,-0.2040,0.3094,1.0912,0.0021,0.0164
131.5270,0.0200,-0.1006,0.0304,0.4065,-0.1224,2.2406
131.6270,-0.0865,0.1238,-0.1543,-0.3764,-0.0506,4.4552
131.7270,0.1003,0.4243,-0.2718,-0.6590,0.1888,2.2549
131.8270,0.2790,0.1099,-0.0173,0.3322,0.1960,-1.3651
131.9270,-0.1563,-0.2653,0.1769,0.9475,-0.1895,-1.0467
132.0270,-0.0402,-0.1326,0.4277,1.1439,-0.7186,0.9453
132.1270,0.0648,0.2138,0.4599,0.4280,0.1768,4.0195
132.2270,0.2409,0.2392,0.6654,-0.3980,0.1936,2.3172
132.3270,-0.0500,-0.1877,0.8569,0.7560,0.5982,1.0938
132.4270,-0.5174,-0.2613,0.7402,0.4639,-0.4504,-1.9660
132.5270,-0.4172,-0.4238,0.5516,0.7369,-0.4552,-0.1321
132.6270,-0.0692,0.0177,-0.0285,0.5501,-0.8120,2.4178
132.7270,0.1050,0.3737,-0.2046,-0.5009,-1.6739,4.6515
132.8270,0.0699,0.1557,-0.1226,-0.0413,-0.6468,1.9365
132.9270,0.1333,-0.1067,-0.0882,0.4879,-0.3762,-1.5375
133.0270,-0.1529,-0.2501,0.0109,0.7153,-0.9173,-0.3476
133.1270,0.0661,-0.0553,0.0338,0.6267,-1.5757,0.8041
133.2270,-0.0141,-0.1502,0.3008,0.9308,-1.3459,2.3100
133.3270,0.2881,0.1736,0.3517,0.4184,-0.4720,3.2988
133.4270,0.1043,0.1704,0.3877,-0.0053,0.2247,1.8431
133.5270,-0.2461,-0.0374,0.1793,0.7033,-0.2278,-1.5686
133.6270,-0.0516,-0.1283,0.0640,1.1511,-0.6444,-0.2207
133.7270,0.1714,0.0156,-0.2158,1.0984,-0.4145,0.0810
133.8270,-0.0897,-0.1216,-0.3643,0.7823,-0.8646,2.4896
133.9270,0.0640,0.0787,-0.2835,-0.2328,-0.6276,1.8814
134.0270,0.0038,0.0393,-0.3339,-0.2543,-0.3044,1.5391
134.1270,0.1066,-0.1739,-0.1535,0.4472,-0.2350,-1.5040
134.2270,0.1088,0.0486,0.1764,0.7225,-0.7162,0.4784
134.3270,0.0099,0.1459,0.4647,0.7488,-0.5031,0.5503
134.4270,0.0320,-0.2562,0.6001,0.7943,-0.3188,2.1783
134.5270,0.3830,-0.1627,0.4972,0.7393,0.1960,4.6444
134.6270,0.0987,-0.4776,0.4642,0.9978,0.5048,0.5407
134.7270,-0.1217,-0.3319,0.3933,1.4719,-0.0554,-0.5702
134.8270,-0.0887,-0.0481,0.2590,1.7903,0.2511,-0.9557
134.9270,0.0917,0.1792,-0.0125,2.0441,-0.1368,0.0355
135.0270,0.0544,0.0612,-0.1855,2.6019,-0.2038,1.8838
135.1270,-0.0375,-0.0707,-0.4322,2.4798,-0.2278,2.4225
135.2270,-0.0666,-0.0321,-0.4674,1.3737,-0.0363,3.0091
135.3270,-0.1004,-0.1824,-0.5287,0.7081,-0.4528,-0.8695
135.4270,0.1469,-0.2352,-0.4269,1.5437,-0.5678,-0.6708
135.5270,0.0624,0.0241,-0.2126,2.4343,-0.7545,-0.2542
135.6270,-0.0292,-0.1435,-0.3595,2.2165,-1.4249,-0.1919
135.7270,-0.0250,-0.1928,-0.3333,2.3290,-0.7258,1.8982
135.8280,0.1245,0.2461,-0.1503,2.0896,0.2391,3.9309
135.9270,-0.2336,0.2757,-0.2134,0.9691,0.3325,1.0770
136.0270,0.0949,0.4014,-0.2643,1.1726,0.1337,0.9908
136.1270,-0.2507,0.2653,-0.3128,1.8693,-0.2637,-1.3268
136.2270,-0.1177,-0.1456,-0.3198,1.3929,-0.4002,-0.0531
136.3270,-0.1601,-0.1589,-0.2838,1.5700,-0.5414,3.1959
136.4270,0.0925,0.4584,-0.3435,0.2484,-0.1272,3.7417
136.5270,-0.1500,0.0878,-0.4596,-0.0173,-0.1296,1.5223
136.6270,-0.0466,-0.0041,-0.6022,0.9859,-0.1392,-1.6715
136.7270,-0.2672,-0.1443,-0.3848,1.5533,-0.6851,-0.7354
136.8270,-0.1611,-0.1406,-0.1831,1.5605,-1.1089,1.2614
136.9270,-0.2792,0.0662,0.3938,1.1151,-0.7378,4.4816
137.0270,-0.1158,0.1973,0.7091,1.0625,0.4378,0.8495
137.1270,0.1805,0.2413,0.6891,0.8039,0.1840,0.3635
137.2270,-0.0900,0.0284,0.5052,1.1295,-0.7042,-1.5997
137.3270,0.0171,-0.1973,0.4202,0.8853,-0.7234,0.7011
137.4270,0.2023,-0.0044,0.1287,0.2580,-0.9987,4.4169
137.5270,0.2300,0.2362,0.0890,-0.0867,-0.4935,2.0897
137.6270,-0.0330,0.0404,-0.1255,0.0066,-0.4624,0.1744
137.7270,0.1194,-0.2549,0.0381,0.8518,-0.5630,-2.1791
137.8270,-0.1270,-0.2799,0.0767,0.7895,-0.7665,0.5527
137.9270,-0.0663,-0.0257,0.2979,0.5573,-0.8982,3.4736
138.0270,0.1927,0.2746,0.5689,0.1024,0.1720,3.9548
138.1270,0.1517,0.1893,0.6145,0.3705,0.6102,0.9214
138.2270,0.1533,-0.0055,0.3597,0.5788,-0.3427,-2.5981
138.3270,-0.0572,-0.0723,0.3278,1.0912,-0.6133,-0.8839
138.4270,-0.1233,-0.0913,0.1407,0.7081,-0.1392,2.0395
138.5270,0.0113,0.0009,-0.1644,0.2460,-0.3834,4.4361
138.6270,-0.1398,0.0175,-0.1114,0.2891,-0.2757,1.4936
138.7270,0.1288,0.1227,-0.2129,0.5453,-0.1416,-0.1943
138.8270,0.0328,-0.1776,-0.2214,1.3234,-0.5654,-2.0738
138.9270,-0.1012,-0.0993,-0.1079,1.2947,-0.7425,0.5287
139.0270,-0.0769,-0.0854,0.2777,1.4934,-0.3523,2.8559
139.1270,0.2977,0.2026,0.5899,0.8087,0.7610,3.6771
139.2270,0.1160,0.0025,0.8087,0.5190,0.6485,1.7593
139.3270,-0.0111,-0.0497,0.7266,0.7943,0.0092,-1.5327
139.4270,-0.0474,0.0031,0.6891,1.3210,-0.4361,-0.3380
139.5270,-0.0031,0.2250,0.4501,0.6411,0.1313,1.2877
139.6270,0.1402,0.2034,0.2499,0.1718,-0.2469,4.6228
139.7270,0.2505,0.1595,0.2236,-0.3645,-0.4481,1.5319
139.8270,-0.0895,-0.0827,0.3168,0.4424,0.1625,-1.3818
139.9270,-0.1982,-0.2623,0.4652,1.1223,-0.5582,-1.0682
140.0270,-0.0546,0.1486,0.4389,1.1511,-0.4792,0.9932
140.1280,-0.0346,0.1310,0.6784,0.9619,-0.1967,2.6332
140.2270,-0.1241,0.2317,0.9835,0.1934,0.3732,3.4377
140.3270,0.2164,0.0478,1.1650,0.1790,0.8400,2.2502
140.4270,-0.0594,0.1733,0.9662,0.5286,0.4330,-0.6373
140.5270,-0.4164,-0.1432,0.8580,0.3586,-0.2326,-1.3747
140.6270,-0.0913,-0.0385,0.7639,-0.0987,-0.3499,0.5910
140.7270,-0.2094,0.1901,0.4327,-0.2136,-1.8558,4.2278
140.8270,0.4690,0.1342,0.0797,-1.6143,-0.5295,2.6715
140.9270,0.1213,-0.0790,0.2318,-0.9127,-0.7378,0.3851
141.0270,-0.0671,-0.2029,0.3006,-0.3381,-0.4337,-0.8767
141.1270,-0.1433,0.0215,0.1812,-0.0748,-1.3459,0.1145
141.2270,-0.2046,-0.3194,0.1460,-0.3166,-1.8151,1.6396
141.3270,-0.2523,-0.1374,0.2062,-0.4411,-1.8439,3.7082
141.4280,0.1408,0.0596,0.3206,-0.2280,-0.3667,0.9908
141.5270,-0.0370,-0.1907,0.3645,-0.5416,-0.1057,-0.1225
141.6270,-0.3106,-0.3694,0.1180,0.2963,-0.4576,-1.4752
141.7270,-0.1753,-0.3599,-0.3744,0.7129,-0.9221,-0.2494
141.8270,0.1154,-0.1986,-0.7019,0.4735,-1.6859,1.8719
141.9270,0.0781,-0.0310,-0.6432,0.7416,-1.4680,2.4608
142.0270,-0.0658,0.3162,-0.8567,0.1431,-1.9995,1.9916
142.1270,0.1674,0.0734,-0.9363,0.0521,-1.6667,-0.3045
142.2270,-0.2379,-0.2152,-0.9401,0.1814,-1.5997,0.4234
142.3270,-0.4329,-0.1541,-0.8905,0.9021,-1.9085,2.1903
142.4270,-0.3088,-0.3473,-0.6555,1.4168,-2.1695,0.2318
142.5270,0.0608,0.0089,-0.6824,1.0912,-1.5087,1.1967
142.6270,-0.2930,0.1504,-0.7959,1.0792,-1.9851,0.6604
142.7270,-0.0388,0.1984,-1.0008,1.4072,-1.8104,-0.4242
142.8270,-0.0538,0.3932,-1.1636,2.0369,-2.3850,1.3978
142.9270,-0.2477,0.5307,-1.3107,2.1039,-1.6045,0.5742
143.0270,-0.4404,0.3340,-1.0837,2.1255,-1.7361,0.9310
143.1270,-0.1254,0.5080,-0.9273,1.1774,-1.4297,1.8910
143.2270,0.1149,0.2802,-0.8857,0.6746,-1.7122,-0.7306
143.3270,0.3387,0.2906,-0.6155,1.1319,-1.8989,-0.0579
143.4270,0.0965,0.1976,-0.2486,1.1678,-2.2078,0.5551
143.5270,-0.0503,0.0553,0.0626,1.4575,-2.1862,0.8112
143.6270,0.0587,0.0286,0.4040,1.3546,-2.1551,1.4026
143.7270,0.2673,0.0502,0.6528,0.8398,-1.3387,2.6979
143.8270,0.2625,0.0121,0.7101,0.0856,-0.6420,2.9181
143.9270,0.3094,-0.0657,0.8298,-0.0939,0.2271,2.4345
144.0270,0.2055,-0.0257,0.7429,0.4855,0.6126,-0.7234
144.1270,0.0544,-0.0151,0.5750,1.2301,-0.0027,-0.8599
144.2270,0.1261,0.0771,0.3480,1.4647,-0.4409,-0.2326
144.3270,-0.0519,-0.0654,0.0528,0.9499,-0.5749,1.4289
144.4270,-0.2096,0.0532,-0.0943,0.4256,-0.7330,3.4856
144.5270,0.3267,0.2938,-0.3842,-0.4219,-0.7880,2.1041
144.6270,0.4818,-0.0865,-0.6328,-0.0532,-0.4193,0.1864
144.7270,0.3934,-0.4425,-0.4903,0.5549,-0.4481,-1.4082
144.8270,-0.3932,-0.5053,-0.1972,0.9547,-0.0530,-0.8144
144.9270,-0.4332,-0.3750,-0.1804,1.1918,-1.0370,2.5327
145.0270,-0.1166,-0.1949,0.3285,1.5820,1.0579,4.1679
145.1270,0.3585,0.1416,0.4852,1.6586,0.6317,1.6396
145.2270,0.4685,0.2522,0.0733,1.7640,0.1792,-2.3300
145.3270,0.5692,0.0329,-0.0522,1.9459,0.1577,-0.7115
145.4270,-0.3682,-0.1200,-0.2257,1.6203,0.9454,-0.1608
145.5270,-0.1987,0.0129,-0.1961,1.0984,0.5264,4.2086
145.6270,0.4376,0.1872,-0.3869,0.6076,0.9334,2.3004
145.7270,0.0499,0.2061,-0.4437,0.9068,0.8017,-0.3619
145.8270,-0.0335,-0.2533,-0.1900,1.2301,0.3061,-3.1224
145.9270,0.0957,0.0177,0.2718,1.5892,-0.1392,0.8256
146.0270,-0.2893,0.0558,0.0973,1.6538,-0.0722,2.4178
146.1270,0.1762,0.0449,0.3640,1.4000,1.6445,5.2860
146.2270,-0.0588,0.0217,0.3198,0.7153,1.4553,1.1584
146.3270,0.1813,0.0151,0.4730,1.1774,0.7083,-1.4896
146.4270,-0.4204,0.1557,0.4533,2.2117,0.4306,-2.3635
146.5280,-0.1508,0.2213,0.4194,1.7975,0.5743,0.7179
146.6270,-0.2267,0.1123,0.0330,0.4448,0.7514,3.1935
146.7270,-0.0050,0.1664,-0.2332,0.1096,0.6006,2.6308
146.8270,0.2950,0.2773,-0.2886,0.1096,0.1026,0.4282
146.9270,0.2881,-0.0079,-0.2675,-0.0987,0.3372,-2.8878
147.0270,0.1490,0.0177,-0.3661,0.1934,0.1313,1.1009
147.1270,-0.2150,0.1912,-0.0786,0.1168,0.9645,3.3371
147.2270,-0.2520,0.1978,0.1114,-0.7428,1.4984,4.1464
147.3270,0.1117,0.1749,0.1863,-0.5225,1.2997,1.5678
147.4270,-0.0122,0.0457,0.3603,0.1120,0.0547,-2.0211
147.5270,0.1186,-0.0929,0.1143,0.3658,0.0811,-0.0531
147.6270,0.0672,-0.0662,-0.0823,0.8997,1.1178,0.7011
147.7270,-0.1468,0.0481,-0.2633,-0.7356,0.8688,4.9700
147.8270,0.0270,-0.0308,-0.3552,-0.6015,0.4546,2.1664
147.9270,0.3771,-0.0961,-0.3216,-0.1107,0.4330,-0.4840
148.0270,-0.0863,-0.2711,-0.1591,0.8733,-0.0195,-1.5901
148.1270,-0.0239,0.0148,-0.0533,0.1383,0.6413,0.4473
148.2270,-0.2067,0.0225,0.1785,-0.4243,1.4266,2.6835
148.3270,0.1408,0.2248,0.0831,-0.8888,2.0228,3.1839
148.4270,0.1999,0.2637,0.2686,-0.5201,0.9957,0.4066
148.5270,-0.0399,0.0689,0.2526,-0.0676,0.6485,-1.7937
148.6280,-0.0130,-0.1182,0.1895,0.4328,0.5815,0.1887
148.7270,-0.0340,-0.0961,-0.2217,0.7273,0.7634,1.4050
148.8270,-0.0580,-0.0332,-0.0701,0.3825,0.4019,2.7960
148.9270,0.0102,0.1736,-0.3781,-0.4746,1.3213,2.5494
149.0270,0.4608,0.2178,-0.3070,-0.3932,0.8592,-0.6492
149.1270,0.0302,-0.2903,-0.1476,0.2149,0.6222,-1.4776
149.2270,-0.0913,-0.0350,-0.0885,0.4304,0.6006,0.5814
149.3270,-0.1689,0.1336,0.0725,0.1383,1.0866,2.7745
149.4270,0.2500,0.3082,0.0730,-0.5608,1.9557,3.8279
149.5270,0.0384,0.1523,0.1876,-0.9343,1.6756,1.2829
149.6270,0.1186,0.0318,0.4962,-0.4938,1.2542,-1.2238
149.7270,-0.3200,-0.0891,0.3006,0.4448,0.5479,-0.2470
149.8270,0.0177,0.0553,0.0882,0.4160,0.9526,0.3300
149.9270,-0.1566,-0.0806,-0.2153,-0.7164,1.0699,3.0594
150.0270,0.0368,0.0606,-0.5356,-1.6023,1.0076,2.5231
150.1270,0.1011,-0.0651,-0.4804,-0.8816,0.2271,0.5191
150.2270,-0.0724,-0.1824,-0.2944,-0.2017,0.2965,-2.1025
150.3270,0.0840,-0.0500,-0.2651,0.0258,-0.0003,0.6915
150.4270,-0.0023,0.0193,-0.2022,-0.0006,0.2104,1.2709
150.5270,-0.2123,-0.1104,-0.0632,-0.7236,1.2997,3.9788
150.6270,-0.1641,-0.1693,0.0930,-0.5871,0.8951,0.2055
150.7270,0.1277,-0.0164,0.0653,-0.2065,0.3349,0.6508
150.8270,0.0310,-0.0766,0.0077,0.9763,-0.0243,-1.0754
150.9270,0.3145,-0.0175,-0.1556,0.1646,0.8185,0.6867
151.0270,-0.1276,-0.1003,-0.3190,-0.5105,1.6301,2.6117
151.1270,0.0145,0.0958,-0.3587,-1.7244,1.4386,3.3970
151.2270,-0.0980,-0.0345,-0.2228,-0.8337,0.5360,0.2749
151.3270,0.0675,-0.0950,-0.0706,-0.2232,-0.0434,-0.5415
151.4270,0.2665,-0.0966,-0.1053,-0.0532,0.3756,0.8831
151.5270,0.1589,-0.1661,-0.1759,-0.2160,1.2494,1.2446
151.6270,-0.0476,-0.0526,0.1106,-0.6446,2.1281,3.3563
151.7270,-0.2781,0.1299,0.0357,0.0330,1.6612,0.8615
151.8270,-0.0287,0.1560,0.2342,0.2748,0.8017,-0.4074
151.9270,-0.1574,-0.0814,0.2547,0.7560,0.6198,-0.7857
152.0270,-0.1366,-0.1517,0.1351,0.6650,0.9717,0.8017
152.1270,-0.1031,-0.0209,-0.0701,-0.1825,0.9071,3.4856
152.2270,-0.0143,-0.0934,-0.0024,0.3562,0.0739,0.8735
152.3270,-0.0066,0.0052,-0.1820,-0.2328,0.3372,0.9932
152.4270,0.0091,-0.0191,-0.1652,0.5333,-0.0027,-0.7617
152.5270,-0.0439,0.0127,-0.0464,0.5381,0.1170,0.4856
152.6270,-0.1516,-0.0374,0.1743,0.3322,0.7275,3.0905
152.7270,0.1050,0.1867,0.2084,0.0138,1.2830,1.6325
152.8270,0.0613,0.2010,0.2100,-0.1155,0.5910,0.2223
152.9270,-0.0442,0.0233,0.1676,0.3897,0.2487,-1.5470
153.0270,0.1893,-0.0553,0.1114,0.3945,0.6174,-0.1656
153.1270,-0.1372,-0.1640,-0.1418,0.0234,1.1273,2.9924
153.2270,-0.1670,0.0907,-0.3528,-0.9606,0.6676,4.4839
153.3280,0.0296,0.0849,-0.4644,-1.0301,0.1026,1.7043
153.4270,0.4920,0.0678,-0.3712,-0.4411,0.4186,-1.1783
153.5270,0.0715,-0.1363,-0.2974,0.1359,0.1337,-0.8048
153.6270,-0.2795,-0.0492,-0.2158,0.1958,0.6126,1.3260
153.7270,-0.0948,0.1171,-0.0133,-0.1394,1.0483,3.4137
153.8270,0.2972,0.1430,-0.1346,-0.0365,1.3907,1.3643
153.9270,0.2929,0.1208,0.2137,-0.2687,0.8903,-0.3092
154.0270,-0.2779,-0.0795,0.2689,0.5429,0.7610,-1.1257
154.1270,-0.0290,0.0478,0.2062,0.6124,0.9382,0.7801
154.2270,-0.3146,-0.0843,-0.0330,0.1551,1.2063,2.1544
154.3270,-0.0253,-0.2058,0.1021,-0.1849,0.5168,3.6460
154.4270,0.0155,0.0073,-0.0874,-0.3836,0.4091,1.0459
154.5270,0.3617,0.0225,0.0357,-0.2663,0.4546,-1.3100
154.6270,-0.0037,-0.2365,0.0594,0.3729,0.4689,-0.7905
154.7270,-0.0727,-0.0183,-0.1135,0.3155,0.2127,0.6820
154.8270,-0.2144,0.0310,-0.0277,0.4112,1.1944,3.2390
154.9270,0.3558,0.2626,0.1242,-0.0628,1.7642,3.3204
155.0270,0.1019,0.0004,0.4034,-0.5249,1.3284,1.0052
155.1270,-0.0623,0.0726,0.4703,0.0425,0.5072,-1.2382
155.2270,-0.2294,-0.0572,0.3168,0.6650,0.5862,-0.4984
155.3270,0.0169,0.0020,0.0426,0.5836,1.1417,0.6317
155.4270,-0.0607,-0.0939,-0.0541,0.1000,0.7227,2.6787
155.5280,-0.0380,0.0862,-0.2457,-0.3405,0.3612,2.3531
155.6270,0.1823,-0.0334,-0.3086,-0.8122,-0.0195,0.6053
155.7270,0.0017,-0.3324,-0.2108,0.1455,0.0978,-1.6189
155.8270,-0.0812,-0.0409,-0.1537,0.5932,0.2295,0.7083
155.9270,-0.1809,0.1147,-0.0658,0.5501,0.4809,1.3619
156.0270,-0.1220,0.0889,0.0586,0.2556,1.2399,4.0650
156.1270,0.1240,0.0777,0.2366,-0.0125,1.2446,0.5814
156.2270,0.0928,-0.0159,0.4445,0.0282,0.8400,-0.3978
156.3270,-0.2683,-0.1302,0.3379,0.6962,0.3253,-1.1017
156.4270,-0.0612,0.0987,0.0893,0.8087,0.8712,0.8926
156.5270,-0.1366,-0.1371,-0.1567,0.2891,0.9526,2.0969
156.6270,0.0928,-0.0502,-0.2238,-0.3190,0.6676,4.0530
156.7270,0.1674,0.1358,-0.3930,-0.6135,0.1026,0.9190
156.8270,0.3982,0.0441,-0.2435,-0.4483,0.4809,-1.0658
156.9270,-0.0876,-0.0691,-0.1196,0.0713,0.4689,0.1313
157.0270,-0.0876,0.1683,-0.0991,0.4639,0.2870,0.6867
157.1270,0.0043,-0.0236,0.0349,0.1646,1.0244,2.4034
157.2270,0.0464,0.0100,0.0882,0.0449,1.8025,3.5143
157.3270,-0.0844,0.2482,0.3054,-0.6685,0.6533,1.9317
157.4270,-0.0106,0.1419,0.3994,-0.3166,0.8448,-1.0850
157.5270,-0.2035,-0.0638,0.2563,0.4017,0.2846,0.5335
157.6270,0.0155,0.2301,0.0104,0.1742,0.6006,1.0507
157.7270,-0.1182,-0.2056,-0.1537,-0.2543,1.0148,1.9629
157.8270,-0.1577,-0.0207,-0.2057,-0.4626,0.3325,3.0211
157.9270,0.0331,0.1422,-0.3714,-0.5009,0.0835,0.4569
158.0270,0.2234,-0.0598,-0.2952,-0.7763,0.1888,-0.1129
158.1270,-0.0181,-0.3372,-0.0837,0.0665,0.2511,-0.4960
158.2270,-0.0495,-0.0167,0.0775,0.4783,0.1313,1.4744
158.3270,0.0334,-0.0281,0.1865,0.6626,0.5455,1.9916
158.4270,0.0158,0.1049,0.1743,-0.0125,0.7945,3.4664
158.5270,0.1096,0.0108,0.2531,-0.2017,1.3620,-0.0267
158.6270,-0.0276,0.0726,0.3400,-0.3764,1.2614,-0.0698
158.7270,-0.2691,-0.1096,0.1223,0.3681,0.5934,-0.9437
158.8270,0.0515,0.0833,-0.0179,0.5956,0.7850,0.3779
158.9270,-0.1532,-0.0084,-0.1585,0.2963,1.1273,1.5678
159.0270,-0.0127,0.0990,-0.1247,-0.0101,0.8065,2.6835
159.1270,0.1693,0.2882,-0.2939,-0.5752,0.4713,1.3284
159.2270,0.2790,0.0540,-0.0978,-0.7978,0.6988,-0.1369
159.3270,-0.0490,-0.1808,0.0160,-0.2591,0.4617,-0.0531
159.4270,-0.0791,0.0915,-0.1218,-0.0173,0.0308,0.3803
159.5270,-0.0202,0.0071,-0.2070,-0.0867,0.5767,1.2135
159.6270,-0.1142,-0.0857,-0.1641,-0.2472,0.8472,2.8176
159.7270,0.0779,-0.1456,0.0344,-0.2735,1.2997,1.2206
159.8270,0.1298,-0.1073,0.2348,-0.6446,0.6078,0.9573
159.9270,-0.2158,0.0460,0.0941,-0.0820,0.6724,-0.6612
160.0270,-0.0207,-0.0044,-0.0429,0.1599,0.3851,0.3587
160.1270,-0.0114,-0.0771,-0.2124,0.3418,0.9669,0.8591
160.2270,-0.1569,-0.0998,-0.2673,-0.1227,0.5743,2.4130
160.3270,0.3758,0.1454,-0.2750,-0.7068,0.8281,1.7426
160.4270,0.0200,-0.0177,-0.2705,-1.2288,0.1840,0.7969
160.5270,0.0901,-0.1006,-0.0807,-0.8457,0.2319,-0.5367
160.6270,-0.1137,-0.0577,-0.0810,-0.2567,0.3325,0.4138
160.7270,0.0478,-0.1073,0.0171,-0.6829,0.3253,0.3420
160.8270,-0.0935,-0.6093,-0.0978,-1.0085,0.7538,2.1281
160.9270,0.3747,-0.4321,0.0656,0.3298,2.4298,3.2054
161.0270,-0.0540,0.1110,0.1242,-0.1538,0.8376,0.4282
161.1270,-0.1990,-0.3444,0.1053,0.0785,0.6174,-0.2518
161.2270,0.1863,-0.1134,-0.3957,0.3274,0.7227,1.3212
161.3270,-0.0130,0.1379,-0.5649,0.5549,0.2343,0.4306
161.4270,-0.0268,0.2186,-0.3736,0.4400,0.1673,0.7322
161.5270,0.0653,0.0753,-0.0938,0.7225,-0.2110,0.7562
161.6270,0.1005,0.0625,0.0227,0.8350,0.0954,1.0052
161.7270,-0.0173,0.0838,0.3379,0.6267,0.4785,1.3906
161.8270,-0.2525,0.1086,0.6995,1.2708,1.5679,1.5080
161.9270,-0.0487,0.5453,0.5353,1.2157,1.8384,1.7809
162.0270,0.1770,0.4505,0.4847,1.0361,1.2997,-1.0850
162.1270,-0.0058,0.0430,0.5966,1.3043,1.1201,-0.0435
162.2270,-0.0911,0.1621,0.5177,1.1511,0.8472,0.5431
162.3270,-0.1955,0.1038,0.4658,0.6291,0.6006,1.5199
162.4270,-0.3280,0.0875,0.4330,0.1479,0.9813,2.7769
162.5270,0.0824,0.1715,0.3709,-0.3836,1.1728,2.6404
162.6270,-0.0109,-0.0300,0.2723,-1.0277,0.9573,0.2151
162.7270,0.2058,-0.2146,0.3635,-0.2927,0.9478,-0.6540
162.8270,0.0784,-0.0350,0.1948,0.2891,0.5216,-0.1943
162.9270,-0.0873,-0.0145,0.0306,0.6626,0.1242,0.4856
163.0270,-0.1337,-0.0811,-0.0626,-0.0030,0.7562,3.3898
163.1270,0.2564,-0.1432,-0.0285,-0.3597,1.4122,3.4305
163.2270,-0.0034,-0.1773,-0.0392,-0.1586,1.3572,1.4170
163.3270,0.2559,0.1779,0.1162,0.0641,0.8616,-0.6492
163.4270,-0.1811,-0.1328,0.0877,0.8063,0.3684,-0.8527
163.5270,-0.0356,-0.0918,0.0874,0.8374,0.7514,0.4737
163.6270,-0.0847,-0.1139,-0.0741,0.0880,1.1249,3.2461
163.7270,-0.2651,0.1384,-0.2308,-0.5871,1.1992,2.2526
163.8270,-0.0820,-0.0124,-0.2526,-0.5895,0.4306,0.9956
163.9270,0.1589,-0.1363,-0.1668,0.1790,-0.0339,-1.9181
164.0270,-0.0804,-0.1179,-0.0173,0.4112,0.0954,0.1241
164.1270,0.0110,-0.0609,0.2601,0.4112,0.6006,1.3882
164.2270,-0.0519,0.1869,0.4551,-0.0389,1.5894,4.6180
164.3270,0.1706,0.3894,0.4956,0.1934,1.5463,1.0459
164.4270,-0.0149,0.1963,0.6294,0.0042,1.0555,-0.8958
164.5270,-0.2008,-0.0113,0.5468,0.9404,0.3732,-0.8408
164.6270,0.0280,0.1811,0.3509,0.6985,0.8855,0.9190
164.7270,-0.2605,-0.0057,0.0203,-0.1634,0.8640,2.6356
164.8270,0.1040,0.2133,-0.0943,-1.1594,0.2271,3.8591
164.9270,0.0872,-0.1176,-0.2094,-1.2671,0.8783,0.8328
165.0270,0.1964,-0.3250,-0.3024,-0.5033,0.1625,-1.5399
165.1270,-0.0029,-0.3106,-0.2824,0.2341,0.2678,-0.4457
165.2270,-0.0903,-0.0396,-0.2998,0.2652,0.1697,0.0619
165.3270,-0.2374,-0.0734,-0.0496,0.3274,0.7826,2.7745
165.4270,0.1256,0.2541,0.0629,-0.5033,1.8671,3.2988
165.5270,0.1834,0.0790,0.3150,-0.6183,0.8568,0.2295
165.6270,-0.0945,-0.0374,0.3901,0.1838,0.5096,-1.5135
165.7270,0.0323,0.0729,0.3040,0.5693,0.3109,-0.2590
165.8270,-0.0314,0.0795,0.0658,0.5621,0.7969,1.0363
165.9270,0.0675,0.1097,-0.1074,-0.5967,0.6269,4.4935
166.0270,-0.1188,0.0422,-0.5788,-1.0516,1.1728,1.6612
166.1270,0.2151,-0.0297,-0.5684,-0.8242,0.0763,-0.4553
166.2270,0.1274,-0.3479,-0.1929,0.2006,0.2127,-2.0977
166.3270,-0.2453,-0.2695,-0.3813,0.4735,0.1074,1.2901
166.4270,-0.0298,-0.0020,0.0320,0.1958,1.2183,3.9405
166.5270,0.1986,0.3492,0.1788,-0.2855,2.4130,2.6644
166.6270,0.1866,0.0473,0.4314,-0.2855,1.6349,0.6843
166.7270,-0.4090,-0.0044,0.5391,0.5357,0.7538,-1.7027
166.8270,-0.2715,-0.1512,0.2129,0.6507,-0.3667,0.3899
166.9270,-0.0705,-0.0031,-0.0687,0.6626,0.8903,2.4992
167.0270,0.0187,0.2176,-0.2582,-0.2065,0.3947,4.7904
167.1270,0.1077,0.2541,-0.5007,-0.5536,0.2487,1.2326
167.2270,0.3481,0.0675,-0.5233,-0.4842,0.3420,-0.7617
167.3270,-0.0514,-0.3343,-0.2928,0.0066,-0.1751,-1.5566
167.4270,-0.2776,-0.0790,-0.2201,0.0904,0.2343,1.4433
167.5270,-0.2376,0.0593,-0.0218,0.0880,0.6892,2.8750
167.6270,0.2676,0.2948,0.0834,-0.4962,1.9270,2.5758
167.7270,0.1509,0.1414,0.1916,-0.8481,0.8855,0.4976
167.8270,-0.2832,-0.1104,0.1825,-0.0221,0.0667,-1.8894
167.9270,-0.0612,-0.1568,0.0490,0.1838,0.4067,0.0978
168.0270,-0.2003,-0.2088,-0.2425,-0.3118,1.1656,2.1328
168.1270,0.0611,-0.0081,-0.3214,-0.4411,0.3708,4.7665
168.2270,0.1863,0.2117,-0.4740,-0.8912,0.6676,0.9118
168.3270,0.3750,-0.0049,-0.2633,-0.4794,0.1888,-1.6644
168.4270,-0.0015,-0.2258,0.0024,0.3011,0.5815,-0.9341
168.5270,-0.1342,0.0894,0.0232,0.1287,0.5862,0.7705
168.6270,-0.3029,-0.0580,0.1487,0.0545,1.0100,3.0618
168.7270,0.4882,0.1432,0.2691,-0.5273,1.4889,2.6500
168.8270,0.1650,0.0644,0.3480,-0.8122,1.2973,1.3188
168.9270,-0.0442,0.2381,0.4458,0.0282,0.8305,-1.6285
169.0270,-0.0804,0.1120,0.2153,0.5070,0.6700,-0.3499
169.1270,-0.2174,-0.0923,0.0328,0.4304,0.8616,0.5096
169.2270,-0.1875,-0.1747,-0.0088,-0.3022,0.4450,3.6532
169.3270,0.1637,0.2546,-0.2907,-0.7380,0.3660,1.9054
169.4270,0.1866,0.0460,-0.4194,-1.1354,0.4665,-0.5798
169.5270,0.0113,-0.3279,-0.1545,-0.4243,0.4977,-1.8798
169.6270,-0.1646,-0.1803,-0.1442,0.2772,0.3899,0.4856
169.7270,-0.3101,0.0177,-0.2316,0.6435,0.2678,2.2573
169.8270,0.1719,0.3740,0.1756,-0.6494,0.2319,4.3164
169.9270,-0.0418,0.0334,0.2998,-1.0492,2.0012,0.6389
170.0270,-0.2342,-0.3210,0.2041,-0.5249,0.1792,-0.5678
170.1270,-0.0924,-0.2256,0.2435,0.8326,-0.1057,-0.9222
170.2270,0.0422,0.1110,-0.0703,0.6363,0.5408,0.5000
170.3270,-0.1585,0.0513,-0.2569,-0.1394,0.9310,2.8272
170.4270,0.2380,0.4110,-0.4045,-1.3078,1.1585,3.8279
170.5270,0.1861,0.1419,-0.4109,-1.9016,0.1673,0.1169
170.6270,0.1309,-0.2876,0.0584,-0.8601,0.2367,-1.4680
170.7270,-0.0610,-0.1941,-0.0091,-0.2831,-0.3092,0.0906
170.8270,0.1170,0.1166,-0.1913,0.1766,0.3325,0.6149
170.9270,0.0339,0.1182,0.3906,-0.3645,0.3516,3.6963
171.0270,-0.0071,0.0521,0.4956,-0.3357,1.9988,1.0100
171.1270,0.1357,-0.0761,0.5684,-0.7092,0.9861,-0.2183
171.2270,-0.2784,-0.1126,0.2817,-0.3669,0.4186,-1.5063
171.3270,0.1996,0.0774,0.1300,0.0761,0.5120,0.0307
171.4270,-0.2779,0.1310,-0.2124,-0.5177,0.8568,3.0235
171.5270,0.0715,0.1358,-0.3147,-1.3269,0.9262,3.6532
171.6270,0.0856,-0.0878,-0.6017,-1.7842,0.6581,1.5199
171.7270,0.2012,-0.2573,-0.5684,-0.7739,0.3540,-1.7529
171.8270,0.1575,-0.3337,-0.3664,-0.0532,-0.0650,-0.4242
171.9270,-0.1001,-0.1179,-0.4149,0.3035,0.1385,0.9238
172.0270,-0.3122,-0.1512,-0.0586,-0.1705,0.6174,2.6189
172.1270,0.3633,0.1011,0.1156,0.2006,1.7426,0.4665
172.2270,0.0675,0.1712,-0.0530,-0.6661,1.3093,1.1632
172.3270,-0.3213,-0.0958,-0.0328,-0.0269,0.4953,-1.9541
172.4270,-0.0189,-0.1747,-0.1415,0.4567,0.8664,0.3827
172.5270,-0.3208,-0.1062,-0.4429,0.2987,0.7131,1.8000
172.6270,-0.1257,-0.0273,-0.4951,-0.3477,0.4809,3.7729
172.7270,0.1003,0.0318,-0.5670,-0.3142,0.1002,1.4673
172.8270,0.3958,-0.0316,-0.4762,-0.2567,0.3708,-1.0538
172.9270,-0.0039,-0.2575,-0.1367,0.1024,0.2367,-0.6875
173.0270,0.0046,0.1877,-0.0975,0.2700,0.3109,0.7179
173.1270,0.0853,0.1288,0.0829,0.0521,0.5120,1.6181
173.2270,0.3891,0.4827,-0.0448,-1.1426,2.7410,4.0554
173.3270,-0.1809,0.1049,0.2758,-1.3413,1.3428,0.3252
173.4270,-0.0887,-0.1637,0.5065,-0.7380,1.1082,-0.1321
173.5270,0.0262,-0.1720,0.4032,0.7871,0.7993,-0.7234
173.6270,0.1000,0.0971,0.0320,0.8111,1.0076,0.2295
173.7270,-0.0967,0.1771,-0.1306,0.0856,1.2135,1.6636
173.8270,0.0669,0.0236,0.1676,0.2101,0.7107,2.0706
173.9270,0.0057,0.3191,0.0629,-0.7260,1.7091,1.0698
174.0270,0.1802,0.0819,-0.0949,-0.7260,1.2135,0.1528
174.1270,-0.1862,-0.0444,0.2150,-0.4219,1.5272,-0.8910
174.2270,-0.1031,0.1744,0.5428,-0.2328,1.7235,0.9525
174.3270,0.1040,0.0516,1.0682,-0.5560,2.2789,2.4656
174.4270,0.2535,0.3529,1.4112,-0.2711,2.6333,1.5271
174.5270,0.0502,0.3058,1.2188,-0.0149,1.5559,-1.1544
174.6270,-0.1859,0.0398,1.2025,0.5118,1.2806,-1.7458
174.7270,-0.2882,0.0926,1.0123,0.2963,2.2263,1.1632
174.8270,-0.1540,0.1446,0.3232,-1.2886,1.8935,3.9285
174.9270,0.3265,0.1653,0.1367,-1.6238,2.2861,2.3818
175.0270,-0.1534,-0.0316,0.1159,-1.5807,0.4450,-0.5678
175.1270,-0.4750,-0.3996,0.0895,-0.2041,0.5312,-1.7745
175.2270,0.0552,-0.0276,-0.2033,-0.7715,0.5982,1.7737
175.3270,-0.2192,-0.0001,-0.0328,-1.4323,1.8959,2.7003
175.4270,0.0107,0.0521,0.1628,-1.6957,2.5806,2.9277
175.5270,0.2775,0.1499,0.2651,-1.0708,1.9581,0.5239
175.6270,-0.2422,0.1392,0.0895,-0.6805,0.5120,-2.8184
175.7270,-0.3314,-0.0747,0.1218,-0.1562,0.5384,-0.1009
175.8270,-0.3405,-0.2130,-0.1191,-1.2599,1.2016,3.2533
175.9270,0.0560,0.1216,-0.3568,-2.3900,1.0196,3.6723
176.0270,0.1088,0.1342,-0.5119,-2.0668,0.6509,0.8328
176.1270,0.3934,-0.2354,-0.5340,-0.6542,0.1266,-2.9189
176.2270,-0.1814,-0.5946,-0.1567,0.2604,-0.3140,0.4090
176.3270,-0.2437,-0.0636,0.0227,0.2508,-0.1751,3.1815
176.4270,0.1751,0.3151,0.1106,-1.5688,0.9214,3.3587
176.5270,-0.0884,-0.0566,0.1695,-1.1665,1.5200,1.0195
176.6270,0.0392,-0.0329,0.2467,-0.2376,0.4833,-1.6548
176.7270,0.0219,0.0620,0.1167,0.3586,-0.2924,-1.1305
176.8270,-0.2816,-0.1251,0.0296,-0.3453,0.5599,1.1512
176.9270,-0.1854,-0.3218,-0.1069,-1.0923,0.4593,4.5223
177.0270,0.0398,0.0500,-0.4104,-1.1594,0.5096,1.8934
177.1270,0.3606,-0.0955,-0.4165,-0.2089,0.1529,-1.4297
177.2270,0.0118,-0.4081,-0.2635,0.4831,-0.3954,-1.6356
177.3270,-0.2075,-0.0830,-0.2976,0.3131,-0.5558,2.2142
177.4270,-0.1961,-0.1075,-0.2068,0.2820,-0.1392,3.6819
177.5270,0.1056,-0.2328,-0.1703,-0.2831,1.7498,1.8719
177.6270,0.0803,-0.2506,0.1090,0.2293,1.5080,1.0507
177.7270,-0.3008,-0.0313,0.0789,0.5166,-0.4002,-2.8112
177.8270,0.2524,0.0614,0.1167,1.6610,0.4426,-0.5535
177.9270,-0.1550,-0.0041,0.0021,1.4982,0.1720,2.8248
178.0270,-0.1332,-0.1174,-0.1098,-0.5919,0.3923,4.9724
178.1270,0.0320,-0.1520,-0.1804,-0.7763,0.3684,1.6851
178.2270,0.3054,-0.2080,-0.3357,0.7752,0.2965,-2.1887
178.3270,-0.0170,-0.0012,-0.0632,1.4838,-0.9676,-0.8144
178.4270,-0.0719,0.2682,-0.0709,1.8478,-0.3547,1.0100
178.5270,0.0222,0.0814,0.1354,1.6203,0.3660,4.0674
178.6270,0.2977,0.0345,0.1753,0.0090,2.1999,2.6715
178.7270,-0.0268,-0.0108,0.4045,0.5453,1.5296,0.5766
178.8270,-0.5995,-0.1171,0.1055,0.9691,-0.3906,-2.4832
178.9270,-0.1452,0.0071,0.1543,1.9364,-0.2493,0.8974
179.0270,-0.4481,-0.1643,0.0725,1.2947,-0.5702,2.1281
179.1270,-0.0732,-0.1238,-0.2550,0.2365,-0.4097,4.8167
179.2270,-0.3477,-0.0441,-0.4349,-0.4267,0.1218,-0.0794
179.3270,0.4144,0.0238,-0.5271,0.6052,-0.3978,-0.9174
179.4270,0.0440,-0.0188,-0.3557,1.1032,-0.7832,-1.4441
179.5270,0.1040,0.2109,-0.1903,1.4384,-0.5127,1.2757
179.6270,-0.0268,0.0516,0.1492,1.2588,0.3061,3.3563
179.7270,0.3078,0.1190,0.2257,0.5333,1.3739,2.1999
179.8270,0.2276,-0.0345,0.3930,-0.0484,0.5695,-0.9557
179.9270,-0.1374,-0.0620,0.4631,0.6459,0.3013,-2.7777
180.0270,-0.0066,-0.0039,0.3805,0.9523,0.3205,0.1433
180.1270,-0.0540,0.1051,-0.0986,-0.5249,0.9693,3.4113
180.2270,-0.0668,0.0875,-0.2995,-0.3597,1.0723,4.3594
180.3270,0.2100,0.1355,-0.5284,-1.0037,0.6964,1.1321
180.4270,0.2775,-0.1939,-0.3680,-0.2855,0.6317,-2.7992
180.5270,-0.1001,-0.2352,-0.1412,0.5381,-0.0027,-0.0818
180.6270,-0.1846,0.0100,-0.0133,0.8446,-0.3834,1.0243
180.7270,0.1591,0.0673,0.1258,0.7057,1.3739,4.0171
180.8270,0.1058,0.1533,0.1633,0.2341,2.3340,1.2614
180.9270,0.0240,-0.1931,0.4426,0.3538,1.2375,1.0866
181.0270,-0.2968,-0.1171,0.4578,1.0840,0.0380,-0.4768
181.1270,-0.0359,0.0476,0.1745,0.9356,0.9813,0.8112
181.2270,-0.3386,-0.1184,0.0117,0.2508,0.5815,2.4608
181.3270,0.0664,0.2234,-0.3072,-0.1873,0.4474,3.7777
181.4270,0.6358,0.4078,-0.4399,-1.2647,0.7323,1.4026
181.5270,0.6950,-0.1512,-0.3336,-0.2735,0.6581,-3.2014
181.6270,-0.4257,-0.3873,-0.2699,0.8326,0.3325,-0.4194
181.7270,0.0891,0.0217,-0.0797,0.8015,0.8759,2.3651
181.8270,-0.1233,0.0652,-0.0019,0.0066,2.4609,4.5007
181.9270,-0.0005,-0.0630,0.1847,-0.3453,2.5423,1.2805
182.0270,-0.2275,-0.1011,0.4573,0.1287,1.1561,-0.0411
182.1270,0.1032,0.2583,0.3976,0.5693,0.5024,-1.6715
182.2270,0.3124,0.1885,0.1924,0.6626,1.6253,-0.3739
182.3270,-0.3890,0.0699,0.0072,0.2245,1.1010,2.9062
182.4270,0.0752,0.3428,-0.0434,-0.1107,1.0842,4.2757
182.5270,0.0539,0.2282,-0.2028,-1.1761,1.0866,0.5120
182.6270,0.3206,-0.3335,-0.1591,-0.4842,1.0244,-1.2693
182.7270,-0.1894,-0.5427,-0.1090,0.7153,0.4689,-0.3021
182.8270,0.0398,0.0654,-0.1583,0.8590,0.7203,1.2661
182.9270,-0.1270,0.1150,0.0152,0.4232,1.6684,2.1544
183.0270,0.2969,0.1139,0.1319,-0.8361,3.3013,2.2956
183.1270,0.0427,-0.1560,0.6126,-0.2974,1.8264,0.8663
183.2270,-0.2000,-0.1062,0.5870,0.5238,1.2231,-1.6548
183.3270,0.1218,0.0356,0.1796,1.0673,0.9119,0.2031
183.4270,-0.2064,0.0758,-0.2049,0.3322,1.4936,1.0507
183.5270,-0.0690,0.0545,-0.4783,-0.4339,1.2375,4.3642
183.6270,-0.0111,0.1395,-0.6491,-1.0444,1.0651,1.4337
183.7270,0.2188,-0.2994,-0.4127,-0.0580,0.9095,-0.3547
183.8270,-0.2467,-0.3511,-0.1567,0.6914,0.2774,-0.6708
183.9270,-0.1097,0.1246,-0.1100,0.8901,0.3947,0.6077
184.0270,-0.0700,0.0454,-0.1002,0.6818,0.6461,1.8695
184.1270,0.3617,0.1328,0.0400,0.3274,1.2183,2.9038
184.2270,-0.0010,0.1416,-0.0698,-0.1418,1.3524,1.0291
184.3270,-0.0431,0.2671,0.3480,-0.5488,1.0579,-0.3404
184.4270,-0.1723,0.0604,0.1660,1.1989,0.4593,-0.5535
184.5270,0.1416,0.0814,0.0528,0.0042,0.9526,0.5383
184.6270,-0.0327,-0.0390,-0.0751,-0.4052,1.4721,2.0969
184.7270,-0.0700,0.3367,-0.1740,-0.0580,1.2231,4.1990
184.8270,0.1109,0.4195,-0.0584,-1.2910,1.3237,0.4042
184.9270,0.2457,0.0111,-0.0168,-1.0109,1.4122,-0.1895
185.0270,-0.2611,-0.3047,0.0751,-0.3190,0.6006,-0.3571
185.1270,-0.1284,-0.0755,0.1058,0.1646,0.1697,0.6317
185.2270,-0.1894,-0.0292,0.1895,0.1311,0.5288,1.8503
185.3270,0.0552,0.1073,0.3629,-0.4555,1.0747,3.6867
185.4270,-0.1635,0.0721,0.4463,-0.1873,1.4362,0.4689
185.5270,-0.0362,0.0660,0.6043,-0.3573,0.5791,-0.3260
185.6270,-0.0540,-0.0612,0.5327,0.7536,0.1433,-0.5965
185.7270,0.2369,0.1294,0.3240,0.2939,0.4450,0.6484
185.8270,-0.0860,0.0273,0.1077,-0.2089,0.9430,1.7809
185.9270,-0.1217,0.2341,0.0416,-0.9151,0.8520,3.9883
186.0270,-0.0442,0.1334,-0.2537,-1.4347,0.6581,0.0451
186.1270,0.2202,-0.3223,-0.1865,-0.7571,0.4857,-0.6061
186.2270,-0.1041,-0.4427,-0.1106,-0.0149,-0.0291,-0.2542
186.3270,-0.1105,-0.0468,-0.2214,-0.1466,0.0691,1.3140
186.4270,-0.3719,-0.0009,-0.0075,0.0545,0.5599,2.6452
186.5270,0.2660,0.2634,0.2097,-0.2950,1.0603,2.9229
186.6270,0.0939,0.1765,0.4069,-0.5153,1.0747,0.4928
186.7270,-0.0127,-0.0513,0.4834,0.0928,0.7107,-0.6612
186.8270,-0.1276,-0.2061,0.3142,0.9140,-0.0291,-0.5008
186.9270,-0.0572,-0.0755,0.0125,0.6459,0.7060,1.0985
187.0270,-0.3490,-0.1472,-0.3072,-0.1490,0.3253,3.3108
187.1270,0.1999,0.1043,-0.4588,-0.5057,0.3684,2.5375
187.2270,0.1250,-0.0127,-0.4421,-0.7547,0.1577,0.7418
187.3270,0.0366,-0.3998,-0.1863,0.0761,0.0691,-1.7577
187.4270,-0.0524,-0.2240,-0.1079,0.7608,-0.2110,0.8687
187.5270,-0.2126,0.0649,-0.0442,0.5645,-0.0554,2.2430
187.6270,0.0624,0.1387,0.1828,0.3897,-0.0434,3.2533
187.7270,-0.0479,0.0907,0.2041,0.3059,0.8328,0.6987
187.8270,0.1261,-0.0675,0.2681,0.2796,0.4546,0.5766
187.9270,-0.0071,-0.2381,0.2798,0.7273,0.2343,-0.1009
188.0270,-0.1905,-0.4473,0.2214,1.0816,0.4091,-0.0339
188.1270,-0.4636,-0.5704,0.0080,1.2779,-0.2589,2.5518
188.2270,-0.1542,-0.0390,-0.0349,0.9260,0.3205,2.0036
188.3270,-0.3013,-0.2543,-0.0053,0.7632,0.1744,0.4928
188.4270,-0.0165,0.0052,0.4503,1.2444,-0.7066,-0.7546
188.5270,0.2148,0.2741,0.5316,1.5629,-1.4201,0.2582
188.6270,0.0861,0.0905,0.8972,1.1247,0.0284,1.1321
188.7270,0.1701,-0.0209,1.3696,1.1151,0.3205,4.3092
188.8270,0.2330,-0.2399,1.4442,1.7352,0.7897,0.4258
188.9270,0.4248,-0.1933,1.6443,1.7137,-0.0530,0.3587
189.0270,0.3387,0.1067,0.9966,1.8909,0.2487,-0.2494
189.1270,0.0512,0.2269,0.8636,1.9268,0.3253,0.4162
189.2270,0.1293,0.3551,0.4205,1.6897,-1.2214,1.5487
189.3270,0.0200,0.4854,0.3179,0.7919,-0.4241,1.7354
189.4270,-0.1595,0.4784,0.1628,0.0928,0.4689,0.6125
189.5270,0.2657,0.1947,0.2065,0.2556,-0.1129,1.4026
189.6270,0.1829,0.0867,0.9990,0.4041,0.1170,0.0140
189.7270,-0.1166,0.1347,0.5343,-0.4100,-0.1129,1.2350
189.8270,0.0081,-0.0097,0.9265,0.1622,-0.4959,1.3044
189.9270,-0.0279,-0.1565,1.2281,-0.1729,0.0523,2.2047
190.0270,-0.0015,0.0060,0.5884,-1.2120,0.7347,1.2590
190.1270,0.1874,-0.3071,1.0786,0.3083,0.3492,1.1105
190.2270,0.1695,0.0308,0.6435,1.4024,-0.1655,1.0100
190.3270,0.0350,-0.1395,1.4482,2.1351,-0.6133,0.5934
190.4270,0.0192,0.2442,-0.2150,2.0992,-0.0746,1.2925
190.5270,0.0017,-0.0276,1.2076,3.2364,-1.6571,2.1975
190.6270,-0.4132,0.0380,-0.2718,-0.4219,-0.6156,2.9900
190.7270,-0.2283,-0.5352,-1.0275,-0.6590,-0.1607,1.3116
190.8270,0.2649,-0.3753,-1.1831,0.7321,0.1768,-0.0243
190.9270,-0.0141,0.0758,-0.4213,1.6730,-1.0897,-0.3212
191.0270,-0.4268,-0.3489,-0.4141,1.0792,-0.9125,0.5072
191.1270,-0.8044,-0.6873,-0.3083,0.8159,-0.1105,4.7569
191.2280,-0.9091,-0.6698,-0.0117,1.9004,0.1816,1.7139
191.3270,-0.6176,-0.4742,-0.0410,1.4072,-0.4026,1.8479
191.4270,0.1858,-0.2421,-0.4703,2.2308,0.1361,-0.5678
191.5270,-0.3096,-0.1014,-0.7669,3.3633,-0.2661,-1.1568
191.6270,-1.4681,0.0878,-1.7693,4.2324,-2.2940,-0.2973
191.7270,-0.8774,0.5941,-1.7960,3.0712,-1.7409,0.6748
191.8270,0.0187,1.0132,-1.9153,3.4567,-2.5717,1.8719
191.9270,0.3966,1.0180,-1.9510,2.4727,-3.2373,-0.8096
192.0270,-0.5235,0.6117,-1.9071,3.2196,-2.4376,0.2989
192.1270,-0.6139,0.4806,-1.3616,3.0185,-1.5518,0.5215
192.2270,-0.4119,0.2666,-1.0613,2.7695,-1.3602,0.7610
192.3270,-0.4191,0.2589,-1.0666,1.9771,-1.5877,0.9381
192.4270,0.0331,0.2341,-0.8047,1.3115,-1.5470,0.4473
192.5270,-0.1270,0.1336,-0.7322,2.4224,-0.9077,1.0363
192.6270,-0.0865,0.1725,-0.7701,2.9874,-1.5015,1.3116
192.7270,-0.0023,0.2991,-0.9270,3.1095,-1.8008,0.9333
192.8270,-0.6040,0.1811,-1.4085,3.2651,-0.9532,0.1744
192.9270,-0.6738,0.1299,-1.7011,2.5732,-1.0658,0.5000
193.0270,-0.4289,0.4678,-1.7645,2.0154,-1.2477,0.4521
193.1270,0.1474,0.5437,-1.7552,1.5868,-2.6028,0.8950
193.2270,0.5197,0.4803,-1.5172,1.9459,-1.5494,0.9357
193.3270,0.1874,0.2911,-1.4386,1.7616,-1.2142,0.4114
193.4270,-0.5465,0.0822,-1.2436,1.8597,-0.8287,0.0427
193.5270,-0.9605,-0.1070,-0.7850,1.9292,-1.5781,1.4864
193.6270,-0.4833,-0.0851,-0.4509,1.0242,-1.6140,0.9669
193.7270,-0.1726,-0.0039,-0.5207,1.7544,-1.1017,1.3835
193.8270,0.1144,0.3183,-0.7909,1.6897,-1.2597,0.8926
193.9270,0.2106,0.2717,-0.9625,1.6323,-1.0753,0.8112
194.0270,0.0272,0.2557,-1.1863,1.3905,-1.0179,1.0602
194.1270,-0.2936,0.1704,-1.7000,1.3115,-0.7832,0.3324
194.2270,-0.1252,0.2320,-1.6254,0.9930,-1.1232,1.0818
194.3270,-0.1204,0.0942,-1.5287,0.5788,-1.3626,1.0531
194.4270,0.0368,0.1131,-1.2404,1.0242,-1.5254,1.2877
194.5270,0.2348,0.1779,-0.9558,1.1941,-1.2860,0.7179
194.6270,-0.0023,0.0238,-0.6776,1.4671,-0.8886,0.5072
194.7270,-0.3924,-0.0382,-0.4714,1.2684,-1.0825,0.4784
194.8270,-0.4508,0.0524,-0.3826,1.4527,-0.8144,1.2781
194.9270,0.0195,0.0926,-0.2769,1.1774,-1.0825,1.2757
195.0270,0.0081,0.1709,-0.3243,1.0409,-0.7641,1.3906
195.1270,-0.1425,0.0641,-0.4703,0.9715,-0.7665,0.7370
195.2270,-0.0844,0.0215,-0.5143,1.4144,-1.2046,1.0052
195.3270,0.2330,0.0854,-0.4247,1.1965,-1.9660,0.6365
195.4270,0.1093,0.1112,-0.4410,1.0122,-1.2286,1.1177
195.5270,-0.0980,-0.0063,-0.5081,0.7297,-1.4512,1.1129
195.6270,-0.1332,-0.0414,-0.3046,0.9691,-1.4632,0.9405
195.7270,-0.1177,-0.0942,-0.3515,1.1104,-1.3459,0.9381
195.8270,0.0590,-0.0007,-0.3349,1.4886,-1.0753,0.8783
195.9270,0.2098,0.0953,-0.3429,1.2803,-1.1136,0.9501
196.0270,0.0576,0.0526,-0.3277,1.2181,-0.9628,0.7921
196.1270,-0.2267,-0.0817,-0.3456,1.0673,-1.1855,0.6820
196.2270,-0.1617,-0.0617,-0.2694,1.1104,-1.3435,1.1919
196.3270,0.0208,-0.0129,-0.3152,1.2779,-1.1807,0.6891
196.4270,0.0824,0.0702,-0.2990,1.2181,-0.8790,0.8687
196.5270,-0.0287,0.0244,-0.2891,0.8805,-1.0035,0.9453
196.6270,0.0121,0.0556,-0.2057,1.1582,-1.1759,0.9549
196.7270,0.0768,0.1334,-0.2329,0.7153,-1.1208,0.9884
196.8270,0.1930,0.1440,-0.2707,0.4424,-1.1855,1.0962
196.9270,0.1645,0.2373,-0.4783,0.1000,-1.1496,1.1105
197.0270,0.1416,0.1765,-0.6190,0.0832,-1.0729,0.9310
197.1270,0.0163,0.1288,-0.5814,0.2748,-0.7976,0.6700
197.2270,-0.0423,0.0606,-0.5907,0.1910,-1.2214,1.3212
197.3270,0.1416,-0.1011,-0.4215,-0.1729,-1.3363,0.7083
197.4270,-0.0069,-0.2967,-0.4461,0.5310,-1.1998,1.1105
197.5270,-0.2970,-0.1147,-0.4362,1.8190,-0.3020,1.2302
197.6270,-0.1683,0.1395,-0.6837,2.2620,-0.2852,1.5750
197.7270,0.3803,0.2559,-0.4048,1.0529,-0.2158,-1.2741
197.8270,-0.0572,-0.0505,-0.3211,2.0776,-0.6875,-0.2949
197.9270,-0.4020,0.1643,-0.1721,2.0249,-1.0035,1.6875
198.0270,-0.3791,0.3814,-0.0861,1.1606,-1.2070,2.6548
198.1270,-0.2901,0.2200,-0.0349,-0.0844,-0.6061,1.4768
198.2270,-0.0047,0.2117,0.0815,0.4208,-0.4457,1.4218
198.3270,0.0454,0.3159,0.5844,1.5724,-0.5486,-1.1400
198.4270,-0.1081,0.0910,0.4796,-0.5847,-0.5151,0.4401
198.5270,0.2473,-0.2751,0.9334,-0.4938,-0.4313,2.4273
198.6270,0.0675,-0.2253,1.3145,0.8494,0.1816,2.4034
198.7270,0.2785,0.1054,1.1298,-0.0867,0.0068,1.2733
198.8270,-0.0524,-0.1094,0.9505,0.4974,0.0930,-0.2925
198.9270,-0.1574,0.0103,0.3704,-0.9582,-0.1919,2.7027
199.0270,-0.1103,0.2407,0.0738,-0.2639,-1.3818,2.6859
199.1270,0.1655,0.2098,-0.1561,-1.2024,0.1529,0.8088
199.2270,0.0139,-0.1131,-0.0831,-1.4419,-0.5869,1.1153
199.3270,-0.2275,-0.1928,0.1647,-0.4459,-0.1919,1.2661
199.4270,0.1919,-0.3412,0.8058,-1.0492,0.7634,2.9564
199.5270,-0.0335,-0.2927,1.2359,-0.7691,1.7857,1.8048
199.6270,-0.0812,-0.1264,1.2689,0.6938,-0.3427,-0.5702
199.7270,0.1943,0.0883,0.6696,-0.2639,-0.4313,-1.1520
199.8280,0.0355,0.0324,0.3206,-0.7332,-0.7593,-0.1943
199.9270,-0.6909,0.1864,-0.4442,-1.3246,-1.3794,3.7561
200.0270,-0.0695,0.2133,-0.8162,-0.9080,-0.5103,1.6348
200.1270,-0.1702,0.1041,-0.7232,-0.3118,-1.1903,0.2247
200.2270,-0.3826,-0.0489,-0.3792,-0.0221,-1.3363,-1.4609
200.3270,-0.2837,-0.1310,0.3363,-0.0820,-1.5422,3.0690
200.4270,0.4187,-0.3218,1.0000,0.6459,-1.0466,3.3994
200.5270,0.0619,-0.0468,1.3070,0.1120,-0.2110,0.3707
200.6270,-0.1899,-0.3383,1.0325,0.6004,-0.4481,0.0427
200.7270,0.2465,-0.1589,0.5297,0.3394,-1.0107,0.9956
200.8270,-0.0564,0.2162,0.0338,-1.1354,-1.1567,1.9150
200.9270,-0.3266,0.2381,-0.8327,-0.9606,-2.6220,1.9629
201.0270,-0.0031,0.1128,-0.7424,-0.4411,-2.2078,-1.2095
201.1270,0.0222,0.1763,-0.6960,-0.7835,-0.8072,-2.1097
201.2270,0.2084,0.0129,-0.2278,-0.3956,-1.1903,1.9437
201.3270,0.5138,-0.0417,0.4466,0.0904,-1.2310,4.1033
201.4270,0.2268,0.0175,0.4559,0.0497,-0.8072,0.5598
201.5270,-0.0010,-0.3854,0.3445,0.6842,-1.6045,-0.9126
201.6270,0.2468,-0.6793,0.0917,0.9045,0.3947,0.9333
201.7270,0.0105,-0.6356,-0.1671,0.7991,0.2774,2.9229
201.8270,-0.9315,-0.4992,-0.3856,0.3514,-1.4776,2.9756
201.9270,-0.6959,-0.4483,-0.3333,1.0098,-1.5709,0.8472
202.0270,0.4248,-0.3516,-0.8058,2.9730,-1.1041,-1.4585
202.1270,0.5913,-0.1941,-0.3781,2.6043,-0.6731,-1.9852
202.2270,-0.1289,0.1752,-0.3019,3.0473,0.4019,0.6628
202.3270,-1.0024,0.3441,0.0514,2.9228,-1.3339,2.6620
202.4280,-0.4596,0.3074,0.7517,2.4008,-2.1743,0.5934
202.5270,0.4400,-0.0710,0.7163,2.4391,0.1529,0.4425
202.6270,1.2285,-0.3596,0.6328,1.6490,-0.6085,-0.7617
202.7270,0.7371,-0.1757,0.4956,2.0273,-0.0961,1.6612
202.8270,-0.0644,0.2714,0.1748,0.9763,-1.3650,3.0163
202.9270,-0.5718,0.0449,-0.2105,1.3163,0.3708,1.0100
203.0270,0.0422,0.0694,-0.0701,2.0273,-0.8982,2.1544
203.1270,0.2924,0.3058,-0.3717,2.0632,0.3372,-0.1488
203.2270,0.1069,-0.0505,0.0296,1.1295,-0.3379,-0.5199
203.3270,-0.3048,-0.6338,0.5388,2.5517,0.8879,2.0634
203.4270,-0.5715,-0.2109,0.7711,2.1279,0.1840,1.1440
203.5270,-0.2435,-0.1869,0.9276,2.5134,0.6557,-1.1376
203.6270,0.5852,-0.1616,0.9246,1.3929,0.3851,-2.0498
203.7270,0.9876,0.0785,1.0893,2.8629,0.7299,-0.8312
203.8270,0.0339,0.2314,0.6552,3.3585,1.2159,1.7330
203.9270,-0.4199,0.3809,0.9305,2.5301,-0.7354,2.7889
204.0270,-0.1651,0.2562,0.9657,2.2117,-0.7378,1.8551
204.1270,0.3044,0.0739,1.1698,1.9962,-0.4552,-0.2374
204.2270,0.6001,-0.0326,1.0344,1.7616,0.2319,0.2558
204.3270,0.2897,-0.0137,1.0621,1.7185,0.5982,-0.0195
204.4270,-0.4612,-0.2253,1.0736,1.1654,0.4378,1.4696
204.5270,-0.6746,-0.3060,1.4266,1.2971,0.6413,2.1975
204.6270,-0.0005,-0.3084,1.7341,1.2851,0.6437,0.7825
204.7270,0.9345,-0.3383,1.8407,1.1558,0.0452,-0.6181
204.8270,0.5730,-0.1872,1.4360,0.8015,1.5224,0.7825
204.9270,-0.0125,-0.3159,0.8753,0.4065,0.7754,2.4393
205.0270,0.0656,0.3111,0.8956,1.8789,0.8616,4.4983
205.1270,0.2958,0.1629,1.1541,0.8805,-0.6156,-2.3611
205.2270,0.4405,-0.1083,1.0190,1.7712,0.2271,0.8591
205.3270,0.0904,0.1518,1.0440,2.2165,0.6030,1.4337
205.4270,-0.2954,-0.1707,1.1303,1.1271,0.1457,2.3052
205.5270,-0.7900,-0.3345,1.4346,0.8973,0.5168,2.7266
205.6270,-0.1905,-0.3777,1.5282,0.7584,-0.0793,1.9581
205.7270,0.7390,-0.4291,1.4352,0.8997,-0.3930,-1.2669
205.8270,0.3094,-0.2325,1.1277,0.8446,-0.2781,1.0938
205.9270,-0.0186,0.2543,0.4463,-0.4267,-1.7266,3.8112
206.0270,-0.0916,0.4195,0.1311,-0.7859,-1.3195,1.2518
206.1270,-0.1238,0.2082,-0.2763,0.5238,-1.8367,-2.0977
206.2270,0.2322,0.3058,-0.3589,1.0936,-1.6021,-0.1009
206.3270,0.2036,0.1171,-0.0805,0.5908,-0.3283,1.1871
206.4270,0.3459,-0.1416,0.3893,0.0713,-1.0442,3.4185
206.5270,0.3102,-0.0838,1.0411,0.1024,0.5815,0.9573
206.6270,-0.3000,-0.3817,0.9014,0.2245,-0.0770,0.4593
206.7270,0.1575,-0.2781,0.7666,0.4065,-0.7234,-0.4553
206.8270,0.0278,-0.0481,0.4922,-0.2280,-0.5726,2.5638
206.9270,-0.5217,0.2794,-0.3387,-0.4722,-2.1168,2.2406
207.0270,-0.1601,0.1899,-0.9779,-0.8170,-1.5949,0.3085
207.1270,-0.2328,0.0063,-0.5689,-0.3022,-1.3698,-1.2502
207.2270,-0.1294,0.1195,-0.5859,0.6698,-1.6835,-0.4098
207.3270,0.2268,0.0127,-0.0437,0.2676,-1.1807,3.3323
207.4270,0.4616,-0.2133,0.6861,0.9571,-0.6635,3.1743
207.5270,0.1669,-0.1712,0.9252,0.7919,-0.2781,0.9740
207.6270,0.1655,-0.1051,0.8100,0.7919,0.2032,0.5694
207.7270,0.1594,-0.0476,0.3877,-0.3190,0.0356,0.8903
207.8270,-0.1739,0.1246,-0.2300,-1.3509,-0.4289,1.6851
207.9270,-0.5880,0.1278,-1.3105,-1.2431,-0.8575,2.6452
208.0270,0.0206,0.1176,-0.7448,0.4280,-1.0538,-1.3076
208.1270,0.0315,0.1688,-0.6440,0.6100,-1.1065,-2.1049
208.2270,0.1218,0.0793,-0.1607,0.7081,-0.6731,0.7562
208.3270,0.1821,-0.0974,0.9486,0.5956,-0.1679,4.2445
208.4270,0.4760,0.1899,1.4514,-0.2519,0.3372,2.8319
208.5270,0.0115,-0.1885,1.3126,0.5381,1.0579,-1.1185
208.6270,-0.1140,-0.3028,1.0938,0.5597,-0.4097,-0.4457
208.7270,0.0070,-0.1062,0.4357,-0.6278,-0.4145,2.3914
208.8270,-0.3938,0.0542,-0.3027,-1.6047,-0.7162,2.2789
208.9270,-0.4583,0.0217,-1.1546,-0.4459,-1.0586,1.3978
209.0270,-0.3815,-0.0761,-0.7634,1.5724,-1.7218,-1.4417
209.1270,-0.1873,0.1294,-0.4956,2.0178,-1.6380,-2.5071
209.2270,-0.1763,0.1808,-0.1330,2.0441,-1.7146,2.1352
209.3270,0.1114,0.0508,1.2486,1.7783,-1.2142,2.9469
209.4270,0.4493,-0.2924,1.6577,0.3442,-0.4385,3.1384
209.5270,0.0965,-0.6714,1.5316,1.1846,-1.2190,1.4673
209.6270,0.1610,-0.4249,1.0453,0.6938,-2.1934,2.7314
209.7270,0.0693,0.2645,0.8071,1.0194,-1.4464,-0.6277
209.8270,-0.1028,0.3993,0.2350,0.6578,-0.1871,0.2438
209.9270,-0.0833,0.2538,-0.0997,-1.4371,0.0906,2.4225
210.0270,0.0214,-0.2626,0.0751,-0.0844,-0.6109,-0.6396
210.1270,-0.2104,-0.2978,0.2324,0.2748,-0.4744,-2.4497
210.2270,-0.1140,0.1664,0.4314,1.5724,-1.0777,-1.8367
210.3270,0.2449,0.3287,0.3019,1.4958,-2.0929,1.1608
210.4270,0.3928,-0.0209,0.6022,1.4551,-1.5063,3.7465
210.5270,0.2500,-0.0225,1.2585,0.8254,0.6844,2.7769
210.6270,0.1495,-0.0643,1.6774,0.4735,1.9701,0.1696
210.7270,-0.3029,-0.3433,1.7789,0.9667,1.1728,-1.5063
210.8270,-0.2627,-0.2096,1.6880,1.5581,-0.1967,-0.3739
210.9270,-0.0972,0.2080,1.0469,1.1822,-0.2086,2.3220
211.0270,-0.2310,0.0356,0.7831,0.4639,-0.4097,3.8638
211.1270,0.1133,-0.2519,0.9038,-0.5369,-0.0027,1.9006
211.2270,-0.3437,-0.5714,1.0936,0.2939,-0.0602,-1.9636
211.3270,-0.0250,-0.5299,0.7440,1.2085,-0.9125,-1.2837
211.4270,0.1877,0.0017,0.6544,1.5652,-1.9205,1.2757
211.5270,0.1959,0.2826,0.8132,1.7879,-1.5757,4.1392
211.6270,0.1469,0.1054,1.2209,0.8494,-0.6803,3.5334
211.7270,0.0051,0.1403,1.4266,-1.0923,1.0052,0.6101
211.8270,0.1136,-0.2381,1.3832,-1.2120,1.7522,-0.3308
211.9270,-0.0687,-0.4395,1.4181,0.9092,0.2846,-0.4098
212.0270,0.2942,-0.0396,1.0704,0.0976,-0.4720,2.5853
212.1270,0.3555,-0.0745,0.4964,-0.3525,-0.2158,3.6579
212.2270,-0.1428,-0.2312,0.2809,-0.5488,-0.7521,3.1600
212.3270,-0.1001,-0.1800,0.3475,0.5549,-0.9700,-0.7689
212.4270,-0.3855,-0.1200,0.1617,-0.0101,-0.8910,-2.5646
212.5270,0.0270,-0.1427,0.0794,-0.0101,-0.9772,-1.2454
212.6270,0.3374,-0.1459,0.0280,-0.0891,-0.0913,2.3004
212.7270,0.4157,0.1347,0.5473,0.8853,-1.0035,4.3116
212.8270,0.5847,0.4044,0.4695,0.6076,2.0012,0.8639
212.9270,0.2202,0.1672,0.6624,0.4232,0.8185,-1.3603
213.0270,0.1703,0.1965,0.9252,0.6459,0.5144,-2.1408
213.1270,-0.0482,-0.0270,0.5891,0.8829,0.3277,0.1337
213.2270,0.1354,0.1603,0.3123,0.2580,0.2965,2.6979
213.3270,0.0099,0.2032,-0.0751,-0.7954,0.4570,2.7434
213.4270,-0.2238,0.0460,-0.0975,-1.4921,0.5312,3.3611
213.5270,-0.1081,0.0446,-0.2771,-1.2455,0.7467,0.8280
213.6270,0.0355,-0.0201,-0.4306,-0.8098,0.3636,-0.5439
213.7270,-0.2246,-0.0393,-0.2188,-0.1849,-0.4433,-1.4297
213.8270,-0.1273,0.1432,-0.2614,-0.0053,-0.7473,0.6413
213.9270,0.1176,0.1947,-0.2140,-0.6111,-0.3619,2.6141
214.0270,0.1695,0.0907,-0.0498,-0.9199,0.0092,2.8798
214.1270,0.2743,0.1184,0.2308,-1.7411,1.0603,3.5526
214.2270,0.1234,-0.0153,0.4604,-0.6231,0.6892,-0.4290
214.3270,0.0427,0.0215,0.4319,-0.3453,0.6940,-1.5686
214.4270,-0.1257,-0.1462,0.2270,0.2269,0.1409,-2.0594
214.5270,0.0312,-0.1254,0.0711,-0.4579,0.8400,2.0514
214.6270,0.0672,0.1723,-0.1276,-1.0133,0.8376,4.0937
214.7270,-0.2763,0.0945,-0.6145,-1.2599,-0.0363,3.0426
214.8270,0.1178,0.1464,-0.8934,-1.3964,-0.6635,-0.8695
214.9270,-0.1158,-0.0963,-0.8029,-1.1306,-0.6899,-1.7410
215.0270,-0.0953,0.0881,-0.6155,-0.2927,-0.8239,-2.2629
215.1270,0.1637,0.2471,-0.5345,-1.0253,0.4091,3.1240
215.2270,0.4781,0.1989,0.2364,-2.2703,1.4482,3.2054
215.3270,0.2268,-0.0220,0.6880,-2.8161,2.6884,3.1791
215.4270,-0.2224,-0.1992,0.8316,-0.4435,1.0483,-0.3021
215.5270,-0.2733,-0.0806,0.6803,-0.1705,1.1273,-1.8344
215.6270,-0.2150,-0.1304,0.5153,-1.4730,0.8089,0.9070
215.7270,-0.3903,0.1467,-0.0653,-2.1793,0.2870,2.3244
215.8270,-0.0458,0.5051,-0.2968,-2.6462,-0.2613,2.5734
215.9270,0.0054,0.2586,-0.3115,-1.6837,-0.4169,-0.8025
216.0270,0.0118,-0.0217,-0.3485,-1.2048,-0.3212,-1.8391
216.1270,0.0608,-0.0297,-0.2606,-1.0588,-1.0658,0.1002
216.2270,0.2711,0.0945,0.0024,-2.3110,0.3947,3.9261
216.3270,0.0925,-0.1821,0.4655,-1.5281,0.4426,3.3635
216.4270,0.0659,-0.0614,0.7304,-0.9558,0.6485,0.1409
216.5270,-0.0396,-0.1803,0.8513,-0.8840,0.9071,-0.7905
216.6270,-0.1172,-0.1454,0.6403,-0.3717,0.3181,-1.7099
216.7270,-0.0386,-0.0636,0.5377,-0.6997,0.2822,1.4649
216.8270,-0.3040,0.1725,0.2030,-1.7004,0.6676,3.1911
216.9270,-0.2235,0.2898,0.0357,-2.8114,0.5240,3.8926
217.0270,-0.1654,0.1384,0.1551,-2.0165,-0.2876,-0.1393
217.1270,-0.1553,-0.0803,0.2225,-1.5735,-0.2206,-1.1927
217.2270,-0.1737,-0.1789,0.3797,-0.3956,-0.9676,-0.9246
217.3270,0.0861,0.0742,0.3603,-0.4195,-0.6683,-0.5104
217.4270,-0.0919,0.0230,0.4535,-0.6398,-0.5390,0.4425
217.5270,-0.1201,-0.1803,0.6821,-1.1043,-0.4959,2.4082
217.6270,-0.1769,-0.0185,0.9987,-1.8848,1.0651,3.8016
217.7270,-0.1161,-0.0023,1.3446,-0.6901,1.2638,-0.0459
217.8270,-0.1348,0.0534,1.5191,-0.8050,1.4338,0.3970
217.9270,-0.3594,0.0278,1.4250,-1.0396,0.9238,-0.7617
218.0270,-0.2366,0.1600,1.2801,-1.0492,0.7275,0.7825
218.1270,-0.3948,0.0236,0.9944,-1.8178,0.7060,1.6420
218.2270,-0.2107,-0.1142,0.7626,-3.3141,0.6629,2.6715
218.3270,-0.0599,-0.2959,1.2169,-1.6741,0.0308,1.2422
218.4270,-0.1404,-0.1856,1.3643,-0.5177,0.3277,-1.0371
218.5270,-0.1851,-0.0569,1.3590,-0.6542,-0.0578,-0.0148
218.6270,-0.1851,0.0526,1.2572,-1.2288,0.0595,0.8352
218.7270,0.0677,-0.1318,1.4866,-1.5233,0.3971,3.0714
218.8270,0.2244,-0.1192,1.7421,-1.1210,1.8743,1.6995
218.9270,-0.3583,-0.2999,1.5540,-0.4267,1.4817,0.4976
219.0270,-0.1462,-0.2759,1.4954,-0.1490,1.1154,-1.2573
219.1270,-0.0143,-0.0132,1.1365,0.4519,0.7538,2.0945
219.2270,-0.0314,0.2698,0.6182,-0.6877,0.6629,2.6596
219.3270,-0.3314,-0.0417,0.4346,-0.7380,0.5791,4.2134
219.4270,0.1192,0.0302,0.2894,-2.4115,0.5575,3.4377
219.5270,-0.3218,-0.7057,0.1927,-1.0995,0.6365,0.5359
219.6270,-0.5307,-1.2847,0.2766,0.0856,0.2774,-2.8663
219.7270,-0.4607,-0.5299,0.4391,0.7560,-0.1536,-0.7163
219.8270,-0.0138,0.3673,0.2507,1.0050,-1.9588,0.2031
219.9270,0.2298,0.0886,0.5148,0.4783,-0.7713,1.6468
220.0270,0.2615,0.2136,0.7208,0.0258,0.5144,4.1751
220.1270,-0.1321,-0.2285,0.6640,0.7009,-0.0458,-0.7689
220.2270,-0.2973,-0.4494,0.4053,1.5629,-0.0650,-0.4170
220.3270,0.0454,-0.4225,0.2627,1.5485,-1.0586,-0.6061
220.4270,0.6947,-0.1139,0.1471,1.5724,-0.4050,2.0107
220.5270,0.3177,-0.0169,-0.0597,1.2851,0.2511,1.7210
220.6270,-0.4084,0.1187,-0.5169,0.6746,0.2630,3.0187
220.7270,-0.3181,-0.0222,-0.4341,0.9092,-1.2693,0.8831
220.8270,0.0480,-0.2663,-0.2622,1.3641,-0.8168,-0.0962
220.9270,-0.3538,-0.5128,-0.1745,2.6402,-0.2661,-0.7689
221.0270,-0.2997,-0.1363,-0.2164,2.9108,-0.7832,0.6053
221.1270,-0.0245,0.0441,-0.0962,2.4846,-1.0227,0.9118
221.2270,0.0424,0.0918,0.0133,2.7791,-1.3986,2.5494
221.3270,0.0768,0.3806,0.1327,2.0656,-1.1998,2.0826
221.4270,0.1277,0.1187,0.0767,1.7712,0.6293,0.0235
221.5270,0.1352,-0.0473,-0.0234,1.8047,0.2678,-0.3212
221.6270,-0.0338,0.0366,0.0754,1.9364,0.0332,-0.5822
221.7270,-0.3525,0.1792,0.0413,1.5461,-0.2230,0.9740
221.8270,-0.5433,0.2525,0.0330,0.2796,-1.8894,2.2071
221.9270,0.0712,0.7380,-0.0429,-0.8673,-1.1376,4.3355
222.0270,0.5133,0.4731,-0.1732,-0.6470,-1.2118,-0.1632
222.1270,-0.2142,-0.1422,-0.4962,0.5022,-0.8024,-1.3364
222.2270,-0.7884,-0.2924,-0.4607,1.2660,-1.6356,-1.6165
222.3270,-0.5678,0.2852,-0.4338,1.0912,-2.4209,0.8831
222.4270,0.2540,0.5331,0.0370,0.3227,-2.0091,1.6253
222.5270,0.2524,0.2221,0.1687,0.1646,-1.2669,3.9189
222.6270,0.3771,0.1456,0.2838,-1.1833,-1.6021,2.0179
222.7270,0.2018,-0.3039,0.5201,0.9116,0.3492,-0.1225
222.8270,-0.0551,-0.4062,0.6885,0.4304,-0.1655,-1.9828
222.9270,-0.1897,-0.4491,0.4895,0.8733,-0.9724,0.0858
223.0270,0.1565,0.0614,0.2982,0.9739,-1.3411,2.3866
223.1270,0.3819,0.3287,0.0442,-0.2615,-1.4536,3.1863
223.2270,-0.0983,0.2160,-0.2491,-1.3964,-0.6827,4.3714
223.3270,-0.0061,-0.1795,-0.3627,-1.2192,-0.8934,0.4497
223.4270,-0.1859,-0.3172,-0.4746,-0.5800,-0.9867,-0.5247
223.5270,-0.0847,-0.2685,-0.3802,-0.0508,-1.0634,-1.9277
223.6270,-0.2136,-0.0862,-0.2188,0.4663,-1.1591,-0.3859
223.7270,-0.0503,0.3998,-0.0831,0.8015,-1.6954,-0.0698
223.8270,0.2772,0.4334,-0.0775,0.6483,-1.6667,0.8472
223.9270,0.1818,0.2623,-0.1183,0.0641,-1.5063,2.9229
224.0270,0.2916,-0.1347,-0.1607,-0.6709,-0.7569,3.7561
224.1270,0.5167,-0.0942,-0.1756,-0.9415,-0.2829,3.1839
224.2270,-0.0287,-0.3988,-0.0474,-0.6709,0.6772,0.3300
224.3270,-0.1918,-0.4299,0.2694,0.4711,0.3013,-1.0347
224.4270,-0.1977,-0.0787,0.2795,1.2779,0.0499,-0.6229
224.5270,0.0259,0.0188,0.1511,1.3809,-0.0746,-0.2374
224.6270,0.1575,0.2898,0.1252,0.8326,-0.3020,3.1623
224.7270,-0.1750,0.2514,-0.0717,-0.4315,-0.3188,2.9397
224.8270,-0.0175,0.0873,-0.3179,-1.8561,-1.2645,1.5989
224.9270,0.0635,-0.2431,-0.1639,-0.6542,-0.1943,-1.1065
225.0270,-0.5113,-0.2850,-0.3824,0.9164,-2.1168,-1.5662
225.1270,-0.7716,-0.0412,-0.8473,2.2763,-1.4967,0.4713
225.2270,0.0075,0.3644,-0.4306,0.6028,-3.1774,2.0371
225.3270,0.0504,0.0137,-0.1343,-0.0820,-1.3650,0.9142
225.4270,0.2170,0.0230,-0.0021,-0.6925,-1.8151,3.7417
225.5270,0.0376,-0.2783,0.2097,-0.2136,-0.3307,-0.7115
225.6270,0.0446,-0.3916,0.2470,0.0569,-1.3507,-1.0467
225.7270,0.1402,-0.0478,-0.0043,0.4903,-0.0267,0.0930
225.8270,-0.0610,-0.0047,-0.2073,0.9045,-0.9053,-0.0052
225.9270,0.0219,0.1104,-0.4716,1.1295,-0.9556,0.9357
226.0270,0.1858,0.2154,-0.6382,0.9571,-0.7569,0.9717
226.1270,0.3395,0.4140,-0.6664,0.4232,0.0045,1.4649
226.2270,0.1677,0.2730,-0.4599,0.2676,-0.7665,0.2390
226.3270,0.0987,0.2136,-0.2936,0.9068,-1.8199,1.0842
226.4270,0.0299,0.2581,-0.2449,0.4184,-1.2717,0.9286
226.5270,-0.2845,0.0444,-0.1596,0.5573,-1.2214,0.6317
226.6270,-0.2326,0.0577,-0.0597,0.8829,-1.7864,1.1943
226.7270,0.1024,0.1150,0.0203,0.8111,-1.8008,0.2151
226.8270,0.4309,0.1533,0.2987,0.8757,-1.5135,0.7298
226.9270,0.2314,-0.0361,0.3515,0.4759,-0.8575,0.1696
227.0270,-0.0628,-0.2781,0.3653,0.1239,-0.9580,2.3292
227.1270,0.0491,-0.1107,0.3046,-0.2472,-0.5845,3.2054
227.2270,0.2063,0.0289,0.2968,-0.9894,0.8712,0.4665
227.3270,-0.0474,-0.0060,0.2707,-0.7164,0.9119,0.8112
227.4270,0.1152,0.0745,0.1948,0.0976,0.4929,0.1026
227.5270,0.1328,0.1467,-0.0229,0.4256,0.1553,0.6149
227.6270,0.0153,0.1240,-0.0741,0.2963,-0.0865,0.2558
227.7270,0.0872,0.0534,-0.3118,-0.4195,0.1529,1.8862
227.8270,-0.0703,-0.1376,-0.6944,-1.3700,-0.1655,2.0371
227.9270,-0.0199,-0.2154,-1.2132,-1.7890,-0.3762,1.6205
228.0270,0.3177,-0.2493,-1.3555,-0.9606,-0.5678,0.6269
228.1270,-0.2576,-0.4875,-1.5204,0.1120,-1.2166,-1.3435
228.2270,-0.0721,-0.1970,-1.3848,0.2029,-2.1096,1.3691
228.3270,-0.2166,0.0508,-1.2228,-0.8960,-1.0634,2.2214
228.4270,-0.2453,-0.3865,-0.9846,-1.1641,0.3827,2.2526
228.5270,-0.1204,-0.1797,-1.0840,-0.6877,0.0188,3.2342
228.6270,-0.1478,0.1118,-1.2556,-0.0820,-0.7162,-1.5901
228.7270,0.1181,0.2064,-1.1786,0.8039,-0.8383,-0.2685
228.8270,-0.0234,0.2080,-1.3475,0.4112,-0.1105,-0.2494
228.9270,-0.0460,-0.1174,-0.9750,0.1120,-0.1296,2.6691
229.0270,-0.1702,0.0787,-0.8873,1.1056,-0.9341,4.0219
229.1270,-0.2936,0.2887,-1.1799,-0.4531,-1.6930,-1.1041
229.2270,0.2679,-0.0995,-1.0728,-0.4914,-1.1807,0.5096
229.3270,0.4629,0.2280,-1.0469,-0.1275,-1.6236,0.3444
229.4270,0.1647,0.3036,-1.1514,-0.3525,-0.4600,0.8136
229.5270,-0.3141,-0.3039,-1.1572,-1.0564,-0.0793,1.3595
229.6280,0.0584,-0.0795,-1.2881,-1.4419,1.1585,4.6061
229.7270,-0.2278,0.0025,-1.5748,-0.7332,-0.1871,0.5527
229.8270,-0.1945,0.0660,-1.5354,-0.5704,-0.4313,-0.0890
229.9270,-0.1230,0.0073,-1.6377,0.0617,-0.2541,0.4042
230.0270,0.0211,0.2458,-1.8818,0.2796,0.4186,0.4880
230.1270,-0.3229,0.0486,-1.9870,-0.0317,0.6868,0.7897
230.2270,0.0685,0.1120,-1.7155,0.4041,0.0452,1.0435
230.3270,0.2047,0.5304,-1.4477,-0.2017,-1.0035,0.8974
230.4270,-0.0053,0.2938,-1.0144,-0.9151,-1.3507,1.0578
230.5270,-0.0276,0.1619,-0.7514,-0.7260,-1.5231,0.6173
230.6270,-0.1875,-0.0753,-0.6899,-0.3908,-0.8670,1.5103
230.7270,0.1274,-0.0670,-0.5817,-0.1825,-0.7545,0.6628
230.8270,0.0528,-0.3004,-0.3448,0.2053,-0.7354,1.0578
230.9270,0.0995,-0.1232,-0.0679,0.4136,-0.2062,1.1919
231.0270,0.1490,0.0089,0.0845,0.4376,0.2750,1.7785
231.1270,-0.2459,0.1557,-0.0005,0.6483,-0.7952,0.4617
231.2270,-0.3434,0.0966,-0.1124,0.6818,-0.9006,1.5989
231.3270,0.0171,0.1483,-0.4207,1.0984,-0.9125,1.2685
231.4270,0.1922,-0.1131,-0.2950,0.6387,0.1242,0.4737
231.5270,-0.1484,-0.5661,-0.1140,-0.3094,-0.6228,1.2135
231.6270,-0.0154,-0.0430,0.0821,0.5453,-0.9053,2.0443
231.7270,-0.0969,0.3002,0.0703,-0.2089,-1.6260,0.6197
231.8270,0.0568,0.1230,0.1583,-0.4579,-1.4847,0.9908
231.9270,-0.1174,0.0433,0.1239,-0.1562,-1.7553,1.0722
232.0270,-0.0418,-0.0265,0.2289,0.0377,-1.4800,0.4617
232.1270,0.0659,-0.2860,0.3517,0.0162,-1.6116,2.1089
232.2270,0.1154,-0.1270,0.3834,0.3179,-0.8527,0.5335
232.3270,0.1170,-0.1224,0.2342,0.1790,-0.9628,1.3308
232.4270,0.1168,-0.0681,0.2411,0.0521,-0.6085,0.6556
232.5270,0.0105,-0.1198,0.2763,0.3753,-0.6013,1.0171
232.6270,0.1245,-0.0076,0.2627,0.5884,-0.3595,0.9788
232.7270,0.1522,0.0478,0.3411,0.7153,-0.0841,1.2925
232.8270,0.1751,0.0478,0.5734,0.9643,0.3229,1.0698
232.9270,0.3593,-0.0249,0.7911,1.0792,0.4450,0.5862
233.0270,0.1589,0.1835,0.7261,0.8805,0.7802,0.8974
233.1270,0.0611,0.3132,0.8191,0.7440,0.4689,0.9166
233.2270,-0.1017,0.2807,0.8436,0.8733,0.5024,1.0842
233.3270,-0.2291,0.1030,0.8279,1.2947,0.7060,1.4457
233.4270,-0.2403,-0.0438,0.7757,1.0888,0.0092,0.5646
233.5270,-0.2651,0.0145,0.5300,-0.0939,0.1673,1.1919
233.6270,-0.2382,-0.0710,0.6824,-0.3788,-0.3523,3.7777
233.7270,0.0963,-0.1115,0.4924,-0.4986,-0.8814,-0.2781
233.8270,0.1322,-0.2154,0.4916,-0.6518,-0.9820,0.3899
233.9270,-0.0945,0.0436,0.6022,-0.0221,-1.3076,-0.0459
234.0270,-0.0079,0.2703,0.4191,0.7321,-1.1855,0.1097
234.1270,-0.0418,0.1411,-0.1500,0.4328,-1.3555,1.6061
234.2270,-0.1843,0.0588,0.0602,-0.1251,-1.3219,3.1288
234.3270,0.2404,0.1829,0.2886,-1.1761,0.8472,2.7218
234.4270,-0.0575,-0.2053,0.1306,-1.4347,0.4474,0.2295
234.5270,-0.1284,-0.1672,0.1897,-0.3453,0.0906,-0.2709
234.6270,-0.0857,-0.0009,0.0253,0.6985,-0.7569,-0.1129
234.7270,0.1948,0.1925,-0.1836,0.7225,-0.5845,-0.2374
234.8270,-0.0713,0.0366,-0.3150,0.1096,-0.1943,2.4369
234.9270,0.1634,0.0934,-0.2142,-0.4507,-0.6827,3.4999
235.0270,0.2988,0.0697,-0.3461,-1.1737,-0.0051,1.1129
235.1270,-0.0042,-0.2431,-0.3088,-1.2001,-0.8144,-0.0602
235.2270,0.0957,-0.1560,-0.0778,-0.4914,-0.4744,-0.1345
235.3270,0.0105,0.1883,-0.0045,0.1982,-0.6109,0.3587
235.4270,-0.0743,0.1848,-0.1116,0.4041,-0.7952,0.4114
235.5270,0.0669,0.0121,-0.0709,-0.2639,-0.5486,2.8032
235.6270,0.4152,-0.0257,0.1839,-0.4148,0.6772,3.2845
235.7270,-0.0383,-0.2474,0.0242,-0.8074,0.2319,0.0140
235.8270,-0.2179,-0.1859,0.0687,-0.5680,0.0978,0.2247
235.9270,-0.2120,0.0345,-0.2739,0.3538,-0.1512,-0.6277
236.0270,-0.0290,0.3020,-0.6955,0.1215,-0.1823,0.5072
236.1270,-0.0852,0.0793,-1.0299,-0.3357,0.4019,1.3404
236.2270,0.3726,0.2298,-1.0139,-1.0205,0.6365,3.7417
236.3270,0.3934,0.0977,-0.8135,-1.0133,-0.1153,-0.6373
236.4270,0.1096,-0.1315,-0.3810,-1.3078,-0.4050,1.7186
236.5270,-0.0650,0.0129,0.0842,-0.4698,-0.5295,-0.2398
236.6270,-0.2075,0.1731,0.1671,-0.0484,-0.5965,0.8328
236.7270,0.1021,0.3002,0.2430,0.1239,-0.2086,0.8232
