time,gyro x,gyro y,gyro z,accel x,accel y, accel z
23.5220,0.0024,-0.0015,-0.0003,-0.1432,-0.0279,1.0211
23.6220,-0.0030,0.0004,-0.0016,-0.1312,-0.0494,0.9996
23.7220,0.0040,-0.0020,0.0000,-0.1169,-0.0686,0.9900
23.8220,0.0024,-0.0015,0.0003,-0.1456,-0.0758,1.0427
23.9220,-0.0016,0.0047,-0.0008,-0.1264,-0.0638,1.0331
24.0220,-0.0062,0.0100,-0.0003,-0.1480,-0.0734,1.0355
24.1220,-0.0011,0.0023,0.0000,-0.1432,-0.0399,1.0235
24.2220,-0.0030,0.0025,0.0008,-0.1623,-0.0662,1.0475
24.3220,-0.0027,0.0028,-0.0003,-0.1695,-0.0806,1.0283
24.4220,-0.0070,0.0057,0.0008,-0.1432,-0.0758,1.0092
24.5220,-0.0056,0.0071,0.0005,-0.1456,-0.0399,1.1552
24.6220,-0.0155,0.0188,-0.0045,-0.2246,-0.0829,0.9972
24.7220,-0.0645,0.0846,-0.0914,-0.3850,-0.0207,0.8607
24.8220,0.0144,0.3758,-0.0266,-0.6532,-0.1476,1.1313
24.9220,-0.0131,0.3889,-0.0432,-0.7106,-0.3176,0.6069
25.0220,-0.0067,0.1499,0.0053,-1.0458,-0.1931,1.1121
25.1220,0.0077,0.1717,-0.0346,-1.1679,-0.3200,0.5806
25.2220,0.0250,-0.1390,-0.0139,-1.3283,-0.1596,0.4561
25.3220,0.0154,0.2839,-0.0181,-1.0099,-0.1739,1.7633
25.4220,0.0021,0.2956,-0.0027,-1.2134,-0.1715,1.3420
25.5220,-0.0086,0.1312,-0.0128,-1.6132,-0.0638,1.2701
25.6220,0.0016,0.1453,0.8884,-1.7641,-0.0446,0.6716
25.7220,0.0074,-0.0041,0.0040,-1.8550,-0.0829,0.9206
25.8220,-0.0054,-0.0955,-0.1716,-1.8311,-0.2601,0.9062
25.9220,0.0026,-0.0497,-0.7128,-1.6827,0.0775,1.0762
26.0220,-0.0072,-0.0033,-0.1420,-1.6108,0.1828,1.0858
26.1220,0.0080,0.0500,-0.0088,-1.7018,-0.1572,0.9349
26.2220,0.0149,0.0025,0.0136,-1.8407,-0.0662,0.4202
26.3220,-0.0144,-0.0987,-0.0072,-1.6946,-0.0853,1.1385
26.4220,-0.0006,0.0076,-0.0032,-1.6444,-0.1476,1.0307
26.5220,0.2043,0.0470,-0.0282,-1.5773,-0.3463,1.9477
26.6220,-0.0070,0.0731,-0.0029,-1.8239,0.0416,0.7458
26.7220,-0.0008,-0.0526,-0.0085,-1.6324,0.0416,0.7290
26.8220,-0.1586,0.5802,-0.0386,-1.6420,0.0631,1.0858
26.9220,0.0168,0.1070,0.1759,-4.4719,0.1996,1.2486
27.0220,-0.0323,-0.1669,0.2308,-3.5214,0.3624,4.5861
27.1220,-0.3267,-0.2400,0.1783,-2.7074,-0.3559,3.1065
27.2220,-0.1149,-0.3268,0.1833,-2.5111,-0.8970,2.5103
27.3220,0.1561,-0.3609,0.0450,-1.9748,-0.7007,1.9429
27.4220,0.1534,-0.3327,-0.1199,-0.4784,-0.4876,1.3013
27.5220,0.0922,-0.2898,-0.1788,0.2279,-0.5402,-0.3388
27.6220,-0.1066,-0.4779,-0.2158,0.0603,-0.8204,-1.6269
27.7220,-0.1197,-0.5728,-0.1998,-0.0211,-0.3535,-2.0051
27.8220,-0.2630,-0.6359,-0.4434,0.5392,-0.9520,-1.1313
27.9220,0.0927,-0.1179,-0.5153,1.0946,-0.5450,0.2694
28.0220,-0.0523,-0.0742,-0.5201,1.5184,-0.8395,0.1257
28.1220,-0.0730,0.0102,-0.4186,1.3675,-1.1484,0.8871
28.2220,-0.0243,0.0785,-0.1751,1.1808,-0.9856,0.5303
28.3220,-0.0312,-0.0433,-0.0304,1.1209,-0.1763,0.7362
28.4220,0.0415,-0.0159,0.1263,0.8121,0.2020,0.9661
28.5220,-0.0635,-0.0076,0.0533,0.9581,0.2953,0.8799
28.6220,0.1489,0.2109,-0.0509,1.0036,0.1756,1.0259
28.7220,0.0972,-0.0156,-0.1199,1.2191,0.1469,0.5567
28.8220,0.1183,0.0254,-0.1585,1.2383,0.2187,0.8464
28.9220,0.0010,0.0332,-0.2422,0.9845,0.3025,1.0403
29.0220,-0.1596,-0.1880,-0.1950,0.8767,-0.3343,1.0594
29.1220,-0.0584,0.1019,-0.2302,-0.1480,-0.0973,2.1680
29.2220,-0.1962,-0.0950,-0.1974,0.4625,-0.0183,0.1712
29.3220,-0.0576,-0.0649,-0.1415,0.2734,-0.4828,0.8799
29.4220,0.0114,-0.0105,-0.0637,0.6158,-0.4301,0.7697
29.5220,-0.0134,-0.0377,0.0029,0.7786,-0.4205,0.8751
29.6220,0.0533,0.0476,0.0309,0.8600,-0.5977,0.9206
29.7220,0.0708,0.0753,0.0642,0.9414,-0.4540,0.8368
29.8220,-0.0131,0.1395,0.0179,1.0922,-0.8060,1.0235
29.9220,-0.0011,0.1070,0.0853,0.8791,-0.6815,0.8200
30.0220,0.0090,-0.0143,0.1252,0.4889,-0.6623,1.1768
30.1220,0.0786,-0.0428,0.1932,0.2614,-0.8443,1.2869
30.2220,-0.1013,-0.0764,0.0251,0.2662,-0.8778,1.2079
30.3220,0.0615,0.0092,-0.1740,0.5535,-0.7892,0.6452
30.4220,-0.0936,-0.0822,-0.1895,0.5870,-0.2577,1.1001
30.5220,-0.1082,-0.0561,-0.1831,1.1185,0.0655,0.9613
30.6220,-0.1359,-0.0566,-0.2566,1.3412,-0.1596,0.8727
30.7220,-0.0232,-0.0239,-0.2942,1.5208,-0.7414,0.5447
30.8220,0.1012,-0.0801,-0.2425,1.8368,-0.5546,0.4896
30.9220,-0.0168,-0.0881,-0.0874,1.8967,-0.4421,1.1289
31.0220,-0.0560,-0.0004,0.0842,1.6956,-0.3703,1.6532
31.1220,-0.1956,-0.1864,0.2782,1.3532,-0.1835,1.2653
31.2220,-0.1591,-0.1041,0.1865,1.2790,-0.5594,0.7697
31.3220,0.1892,0.0492,0.0568,1.4082,-0.5666,-0.0658
31.4220,0.2017,-0.0404,0.1266,1.5112,-0.6456,0.7243
31.5220,0.0583,0.0601,0.1538,1.5830,-0.8012,0.5519
31.6220,0.1087,-0.1185,0.2329,1.8153,-0.8802,0.8104
31.7220,0.0690,-0.2805,0.2745,1.8488,-0.3224,1.4976
31.8220,0.1191,-0.1685,0.3672,1.6285,0.2020,2.3379
31.9220,-0.1652,0.0102,0.3834,1.3029,0.9992,0.9206
32.0220,-0.1650,-0.0436,0.2971,1.5926,0.7574,-0.0084
32.1220,0.1628,-0.0015,0.1335,2.4593,0.3696,-0.3507
32.2220,0.1388,-0.0305,0.1340,2.4904,0.1541,0.6165
32.3220,-0.0784,0.1672,0.0895,2.3971,0.4701,1.0810
32.4220,0.0037,-0.0185,0.0642,2.0619,-0.0734,1.4186
32.5220,0.1950,0.0945,0.0437,1.2574,0.0703,2.0578
32.6220,0.0418,0.0833,-0.0546,1.2502,-0.5331,0.6476
32.7220,0.0575,0.0422,0.0386,1.2909,-0.7174,-0.2167
32.8220,0.0565,0.0356,-0.0171,1.5280,-0.7557,0.0323
32.9220,0.0727,0.0417,-0.0226,1.9517,-0.7030,0.0563
33.0220,0.0581,-0.0614,0.0501,1.9445,-0.1883,1.6652
33.1220,0.1606,0.1659,0.1951,1.7746,-0.0087,2.4170
33.2220,-0.0347,0.0547,0.1841,1.0850,0.3743,0.9469
33.3220,0.1177,0.0825,0.2662,1.0731,0.2546,0.5591
33.4220,-0.1690,0.0116,0.1615,1.0755,0.1637,-0.6620
33.5220,0.0631,-0.0428,0.0640,1.3819,0.1469,0.1520
33.6220,0.0924,-0.1406,-0.0618,1.6357,0.1014,1.3348
33.7220,-0.1642,-0.0119,-0.1410,1.7674,-0.3176,2.2972
33.8220,-0.0760,0.2141,-0.1066,1.2023,-0.0782,1.6987
33.9220,-0.0054,0.0396,-0.0504,0.5200,0.1206,0.6764
34.0220,0.0418,-0.2607,0.0144,1.1952,-0.3966,-0.5040
34.1220,0.1151,-0.1147,-0.0421,1.3484,-0.7102,-0.0443
34.2220,0.0037,-0.1651,-0.0035,2.0355,-0.5809,0.6907
34.3220,-0.0115,-0.0612,0.0328,2.1672,-0.2865,1.9884
34.4220,0.0618,0.0188,0.1695,1.0683,0.4318,2.2398
34.5220,0.1292,0.0547,0.1959,0.9342,0.1972,0.9110
34.6220,-0.1064,0.0273,0.1162,1.1521,0.1804,-0.5950
34.7220,0.0479,-0.0883,0.0826,1.8057,-0.2697,-0.3005
34.8220,-0.0256,-0.0750,-0.0999,1.9374,0.0631,0.6309
34.9220,-0.0619,-0.0380,-0.1641,1.7171,-0.3200,2.2829
35.0220,-0.0744,0.1834,-0.1820,1.3364,-0.1332,1.9477
35.1220,0.0586,0.0542,-0.1351,1.1880,-0.3607,0.0778
35.2220,0.0085,-0.1158,-0.0584,1.4035,-0.3391,-0.3340
35.3220,-0.0016,-0.0137,-0.0144,1.6620,-0.3798,0.2430
35.4220,-0.1104,-0.0478,0.0735,2.2941,-0.5666,0.7745
35.5220,0.0511,-0.0881,0.1383,2.5455,-0.3774,1.7490
35.6220,0.0285,0.0561,0.1268,1.1138,0.2235,2.6420
35.7220,0.1383,0.0939,0.2633,0.8025,-0.0710,1.0523
35.8220,-0.0651,0.0031,0.1228,1.2526,-0.0494,-0.6668
35.9220,-0.0227,-0.0401,-0.0045,1.7793,-0.2553,-0.2717
36.0220,0.0874,-0.0867,-0.0357,1.7434,0.1038,0.3699
36.1220,-0.1287,-0.0044,-0.0954,1.5304,-0.1236,2.5798
36.2220,-0.0400,0.1728,-0.0370,1.0084,-0.2003,1.7298
36.3220,-0.0190,0.0265,-0.0711,0.7881,-0.1524,1.1361
36.4220,0.0735,-0.1161,-0.0186,1.2311,0.0104,-0.7123
36.5220,0.0237,-0.0425,0.0525,1.5639,-0.3104,0.2215
36.6220,0.0740,-0.0734,0.1812,2.1337,-0.3008,0.7314
36.7220,0.0791,-0.1352,0.2910,2.4593,0.0463,1.7609
36.8220,0.0775,0.2197,0.2787,1.2000,0.4127,2.7162
36.9220,-0.0064,0.0601,0.2902,0.7834,0.1565,0.6883
37.0220,0.0711,-0.1981,0.1103,1.5327,-0.2098,-1.8423
37.1220,0.2297,-0.1704,0.0021,2.0762,0.4510,-0.0563
37.2220,-0.1322,-0.0068,-0.1623,2.3947,0.6114,0.5375
37.3220,-0.1879,-0.0124,-0.1458,2.3994,-0.0638,1.9094
37.4220,-0.0896,0.0284,-0.1921,1.1066,-0.1189,2.0913
37.5220,0.0426,0.2351,-0.2931,0.8648,-0.1189,1.1001
37.6220,0.0863,0.0204,-0.1106,1.1042,0.0727,-0.8320
37.7220,-0.0459,-0.1051,-0.0469,1.6572,-0.5067,-0.2598
37.8220,-0.1000,0.0372,-0.1029,2.0619,-0.6743,0.5878
37.9220,-0.0467,-0.0785,0.0338,2.1983,-0.2673,2.2637
38.0220,0.1153,0.1240,0.0767,1.2335,0.3911,2.2446
38.1220,0.0996,0.1059,0.0879,1.0707,0.2451,0.9349
38.2220,-0.1780,0.0164,0.0413,1.1185,0.0344,-0.2430
38.3220,-0.0842,-0.2472,-0.0258,1.8919,-0.2194,-0.5710
38.4220,0.0543,-0.2168,-0.1839,2.1433,0.0344,0.4417
38.5220,-0.1554,-0.2482,-0.2078,2.0858,-0.0949,1.8974
38.6220,-0.0485,0.2463,-0.2142,1.0778,-0.5881,2.7162
38.7220,-0.0560,0.3606,-0.2316,0.8576,-0.5618,0.2287
38.8220,0.0250,-0.0239,-0.0378,1.4897,-0.3032,-1.0187
38.9220,0.0807,-0.0745,0.0000,2.0260,-0.6216,-0.1089
39.0220,-0.0491,-0.0513,0.0125,2.4832,-0.8275,0.0970
39.1220,0.0722,-0.0321,-0.0615,2.2893,-0.2673,2.2350
39.2220,0.2051,0.1443,0.0957,1.4777,0.1900,2.4577
39.3220,-0.0014,0.1683,0.2100,1.2909,0.1972,1.1337
39.4220,-0.1247,0.0593,0.2022,1.3268,-0.0015,-0.6165
39.5220,-0.0147,-0.1419,0.0514,2.0762,-0.1404,-0.4681
39.6220,0.0258,-0.1584,-0.0341,1.9972,-0.0782,0.4106
39.7220,-0.0238,-0.1075,-0.1180,1.6956,-0.1883,1.9932
39.8220,0.0668,0.1968,-0.1684,1.2047,-0.4469,2.7426
39.9220,-0.2324,0.2224,-0.2284,1.1521,-0.5426,0.5974
40.0220,-0.0142,0.1232,-0.0706,1.3939,-0.5067,-0.8176
40.1220,0.0160,-0.1248,0.0498,1.7291,-0.6264,-0.5399
40.2220,0.0146,-0.0638,0.0272,2.1528,-0.9832,0.0419
40.3220,0.1516,-0.0233,0.1247,2.0403,-0.3822,2.1919
40.4220,0.1505,0.1046,0.1069,1.2718,0.4150,2.5127
40.5220,-0.0536,0.1291,0.2297,1.1257,0.2905,1.2917
40.6220,-0.1562,0.0337,0.2742,0.9294,0.0990,-0.3100
40.7220,-0.0635,-0.1038,0.0954,1.8224,-0.3463,-0.9182
40.8220,0.0962,-0.0628,-0.0048,1.4489,-0.0375,0.6644
40.9220,-0.0208,-0.0444,-0.0911,1.3819,-0.1763,2.4720
41.0220,-0.0741,0.1496,-0.0887,1.2119,-0.5690,2.2015
41.1220,-0.1495,0.0478,-0.1679,1.0850,-0.4684,0.8942
41.2220,0.0517,0.0198,-0.1098,1.1233,-0.2314,-0.8942
41.3220,0.1777,-0.2093,0.0051,1.5711,-0.5618,0.0347
41.4220,0.0413,-0.0366,-0.0152,2.0355,-0.7030,0.6261
41.5220,-0.0272,-0.0119,0.0245,1.8416,-0.5546,2.3140
41.6220,0.0786,0.0398,0.0754,2.2295,0.0032,1.6604
41.7220,-0.0451,0.0153,0.1777,1.2119,0.3073,0.5543
41.8220,0.0674,-0.0167,0.2545,0.8217,0.0679,1.0618
41.9220,-0.0067,-0.1598,0.1569,1.5687,-0.0470,-0.7482
42.0220,0.0503,-0.0937,-0.0480,1.9876,-0.2721,0.1616
42.1220,-0.1628,0.0902,-0.1287,1.5471,-0.3631,1.7753
42.2220,-0.1295,0.0598,-0.0805,1.6094,-0.6097,2.2398
42.3220,-0.0563,0.0265,-0.1084,1.1832,-0.5187,1.0954
42.4220,0.1481,0.1326,-0.1484,0.8983,-0.1667,0.2981
42.5220,0.0940,-0.0470,-0.0962,1.1473,-0.5019,0.0371
42.6220,0.0461,-0.1126,-0.0330,1.4968,-0.4253,0.5614
42.7220,0.1479,0.0169,0.0877,1.4466,-0.2242,1.8591
42.8220,-0.0246,0.1600,0.0946,1.3508,0.0942,1.8495
42.9220,-0.0765,0.1405,0.0354,0.9294,0.2882,0.7171
43.0220,-0.0035,0.0028,-0.0426,0.9510,0.0894,0.7745
43.1220,-0.0075,0.0390,-0.2641,1.4513,0.3408,0.1233
43.2220,-0.0320,0.0124,-0.3357,1.2023,0.1373,0.6931
43.3220,-0.0976,0.0529,-0.5223,1.1593,0.1996,0.9014
43.4220,-0.0592,0.0004,-0.6883,0.9510,-0.3535,1.4617
43.5220,0.1169,0.2072,-0.7845,0.4889,-0.4301,1.6101
43.6220,-0.1072,0.0412,-0.7842,0.8600,-0.6983,0.6476
43.7220,-0.0179,0.0204,-0.8084,1.1497,-0.5809,0.2526
43.8220,-0.1586,-0.0185,-0.8050,1.3460,-0.2960,0.8368
43.9220,-0.1279,0.0055,-0.7778,1.3819,-0.2912,0.6237
44.0220,-0.0392,-0.1105,-0.7029,1.2167,0.0392,1.4353
44.1220,0.0930,0.0350,-0.7144,0.8193,0.3576,1.7705
44.2220,-0.3022,0.0238,-0.6835,1.1569,0.1828,-0.0874
44.3220,0.0740,0.0718,-0.6427,0.8360,0.4701,1.4234
44.4220,-0.2545,0.0292,-0.6752,0.9893,0.3336,0.0587
44.5220,-0.0880,0.1144,-0.8457,0.9893,0.3025,1.0978
44.6220,-0.1271,0.0486,-0.8314,0.8265,0.7838,0.7314
44.7220,-0.1210,0.1019,-0.8916,0.0699,0.3504,1.9740
44.8220,0.0607,0.1693,-0.7661,0.0124,-0.3152,1.0930
44.9220,-0.1263,-0.0875,-0.7599,0.5535,-0.5642,0.3962
45.0220,-0.0091,0.0334,-0.6731,0.8743,-0.4110,1.3180
45.1220,-0.1495,-0.0121,-0.5516,1.0707,-0.3966,0.9709
45.2220,-0.1231,-0.1083,-0.4189,1.4657,0.1301,0.7075
45.3220,0.1145,0.0345,-0.1903,1.4059,0.0870,1.5239
45.4220,-0.0611,0.0430,-0.1282,1.8608,0.2690,1.1073
45.5220,0.0314,-0.1987,0.0751,2.3300,0.2163,-0.0706
45.6220,-0.0139,-0.2549,-0.1932,1.9829,0.6784,0.4058
45.7220,-0.2953,-0.4566,-0.3890,1.7937,0.3648,0.1688
45.8220,-0.1042,-0.4286,-0.4943,2.0643,0.8580,0.4633
45.9220,-0.2348,-0.0950,-0.3970,1.9781,-0.2865,1.2989
46.0220,-0.1173,0.1344,-0.3365,1.5495,0.0296,0.6237
46.1220,0.0101,0.0710,-0.1980,1.9254,-0.6767,1.4856
46.2220,-0.1325,0.3609,-0.1298,1.4777,0.3528,0.8942
46.3220,0.1540,0.4110,-0.2569,1.4035,-0.3798,0.4824
46.4220,0.1034,0.4483,-0.3099,0.5799,0.2666,1.4114
46.5220,-0.1290,0.2085,-0.2241,0.7762,0.0799,0.7434
46.6220,-0.0786,-0.1222,-0.2984,1.2311,-0.2769,1.3252
46.7220,-0.1231,-0.2757,-0.2185,1.1090,-0.2960,1.1121
46.8220,-0.3981,-0.1406,-0.1732,1.6692,-0.5881,1.5598
46.9220,-0.0504,0.2184,0.0136,1.1952,-0.7054,0.4250
47.0220,-0.0317,-0.0982,-0.2233,0.7594,-0.1500,0.3532
47.1220,-0.1386,-0.3018,-0.1268,0.6158,0.1206,0.9110
47.2220,-0.2073,-0.2983,-0.1428,1.0826,0.2307,0.8464
47.3220,-0.0285,-0.0089,-0.0584,1.0395,-0.4564,1.2821
47.4220,0.0868,0.1949,-0.0549,0.8815,-0.4828,1.4904
47.5220,0.0975,0.1174,0.0770,1.2239,-0.5905,1.4258
47.6220,0.1247,-0.1054,-0.0354,1.4513,-0.8084,0.7219
47.7220,0.1103,-0.0774,-0.0277,1.8081,-0.5857,0.8248
47.8220,0.0311,-0.0215,-0.0269,1.5040,-0.5211,0.6165
47.9220,-0.0810,0.1091,-0.0370,1.7027,-0.4780,1.2175
48.0220,-0.0552,0.3145,0.0578,1.0539,-0.4421,0.9421
48.1220,-0.0288,0.2279,0.0093,1.0300,-0.5905,0.7362
48.2220,0.0287,0.0324,-0.1354,1.3221,-0.8204,0.0922
48.3220,-0.0906,-0.0729,-0.2017,1.2263,-0.2625,1.0714
48.4220,-0.0200,0.0782,-0.2345,1.2430,-0.4493,0.7793
48.5220,0.0975,0.0249,-0.2923,1.2430,-0.6408,1.0331
48.6220,0.0898,0.0835,-0.2641,1.3747,-0.4157,0.8368
48.7220,0.1002,0.1989,-0.0168,1.2407,-0.1763,1.1121
48.8220,0.0287,0.0942,-0.0168,1.3101,-0.3439,0.5974
48.9220,-0.0014,-0.1736,0.0405,1.4370,-0.7078,0.9206
49.0220,0.1129,-0.0161,0.1609,1.9853,-0.5594,1.0666
49.1220,0.0362,-0.0124,0.2065,1.0324,-0.5929,0.8224
49.2220,0.0549,0.0862,0.5084,0.9533,0.2451,2.1751
49.3220,-0.2119,-0.0787,0.6059,1.1712,0.2762,0.6812
49.4220,0.0951,-0.0215,0.6837,1.2814,-0.0111,0.4633
49.5220,0.0919,0.1123,0.5753,0.6852,0.1565,0.7434
49.6220,0.0234,-0.1763,0.6174,1.6285,0.2187,0.2670
49.7220,0.1100,-0.1995,1.0536,1.3077,0.5443,1.8687
49.8220,0.0642,-0.0460,1.2252,2.0020,-0.1931,0.4992
49.9220,0.1423,0.0254,1.3075,1.2454,-0.2362,0.6620
50.0220,0.2113,-0.0422,1.1756,1.6261,-0.6240,0.5614
50.1220,0.2931,-0.1523,0.9992,1.2670,-0.5307,0.1808
50.2220,0.3701,-0.0598,1.0968,1.7698,-0.5594,0.5112
50.3220,0.2638,0.1222,1.1871,1.5351,-0.5570,1.0930
50.4220,0.1311,0.0273,1.2548,0.7858,0.0272,0.9206
50.5220,0.1918,-0.1129,1.1647,0.9581,1.0351,1.1911
50.6220,0.0453,-0.0849,1.0736,1.3891,0.5036,1.1552
50.7220,0.1081,-0.0289,1.1002,1.6932,0.3791,1.0978
50.8220,-0.0685,-0.2224,1.1394,1.4082,0.3265,0.7219
50.9220,0.2909,-0.2599,1.1277,1.0467,-0.3750,0.4322
51.0220,0.2174,-0.2176,1.1301,0.7570,-0.5570,0.4968
51.1220,0.1958,-0.0819,1.2662,0.9510,-1.2681,0.9493
51.2220,0.1812,-0.0374,1.3734,1.0036,-0.8443,0.6955
51.3220,0.1542,-0.2048,1.5926,0.7618,-1.0287,0.9134
51.4220,0.1860,-0.2807,1.5865,1.6165,0.3193,1.4042
51.5220,0.0772,-0.2434,1.5034,1.6189,-0.3487,1.0235
51.6220,0.2960,-0.2011,1.4229,2.1026,0.0080,0.9110
51.7220,0.3005,-0.0955,1.6545,1.4466,-0.1931,0.8009
51.8220,0.2726,-0.2485,1.5399,1.0539,-0.5953,0.5231
51.9220,0.2829,-0.3012,1.3070,1.1497,-1.0119,1.0379
52.0220,0.3219,-0.3140,1.0520,0.7139,-1.2585,0.9780
52.1220,0.3653,0.0073,0.6115,0.8289,-0.8898,1.1911
52.2220,0.2675,0.2282,0.2156,0.8289,-0.7174,0.4896
52.3220,-0.0419,0.0990,0.2204,0.8696,-0.7030,0.9541
52.4220,-0.0003,0.1091,0.4285,1.0850,-0.9089,0.8128
52.5220,-0.1005,0.0265,0.3032,1.5256,-1.0215,0.2095
52.6220,-0.1557,0.0201,0.3243,1.4801,-1.0526,0.2143
52.7220,0.0762,-0.0199,0.4175,0.7570,-1.4500,0.6955
52.8220,0.0218,-0.3180,0.3024,0.5846,-0.9018,2.1344
52.9220,0.2923,0.0382,0.3563,0.9557,-0.6288,1.7945
53.0220,0.1121,0.1552,0.2129,0.9797,-0.8180,0.3364
53.1220,0.2273,-0.1091,0.1511,0.9869,-1.1077,0.1042
53.2220,0.0996,-0.0489,0.1148,1.7075,-0.7581,0.9110
53.3220,-0.0299,0.1243,-0.0253,1.1736,-0.5450,1.5239
53.4220,0.1622,0.1595,-0.1375,0.5439,-0.6552,2.1177
53.5220,0.0042,0.0055,-0.2260,0.7546,-0.3870,0.8176
53.6220,-0.0192,-0.0212,-0.0863,1.0491,-0.5091,0.4848
53.7220,-0.0016,-0.0401,-0.0911,1.0156,-0.5594,0.0108
53.8220,0.1252,0.0140,-0.1212,1.0156,-0.5929,0.8416
53.9220,-0.0206,-0.0966,-0.0554,0.7618,-0.6432,2.2685
54.0220,-0.0906,-0.2045,0.0434,0.9749,-0.2266,1.9621
54.1220,0.0666,-0.2469,-0.0234,0.6277,-0.2481,1.0307
54.2220,0.0501,-0.1683,-0.0240,0.9557,-0.0734,0.3053
54.3220,-0.0416,-0.0180,-0.1148,1.0443,-0.1428,-1.0570
54.4220,0.0231,-0.0004,-0.2006,0.8911,-0.0949,-0.1281
54.5220,-0.0611,-0.0481,-0.2427,0.6684,-0.1021,2.5510
54.6220,0.1601,0.4350,-0.1340,-0.0762,-0.2146,3.1400
54.7220,-0.1037,0.2104,-0.2342,-0.2222,-0.6695,0.7530
54.8220,0.1204,0.0332,-0.1985,0.2854,-0.1165,-0.4321
54.9220,-0.0485,-0.1749,-0.0821,0.8121,-0.4062,-0.0227
55.0220,-0.0896,-0.0545,-0.0059,1.2407,-0.6911,1.0163
55.1220,-0.0643,-0.1235,0.0211,1.0228,-0.0470,2.0602
55.2220,0.0684,-0.2029,-0.0277,0.4985,-0.1380,2.5822
55.3220,0.4322,0.2066,0.3544,0.1728,0.2522,1.3420
55.4220,-0.1980,-0.1174,0.1879,0.6086,-0.0087,-0.8918
55.5220,-0.2657,-0.2474,0.1705,1.4681,-0.1859,0.0515
55.6220,-0.0690,0.1499,0.0293,1.6118,-0.2314,0.2861
55.7220,0.1484,0.1051,-0.0914,1.4059,-0.5498,1.3898
55.8220,0.1439,0.2876,-0.1772,0.6086,-0.4660,2.4074
55.9220,-0.0488,0.0180,-0.0877,0.3763,-0.7007,0.9062
56.0220,0.0394,-0.4206,-0.0330,0.9581,0.0439,-0.6333
56.1220,0.0053,-0.0835,-0.0155,1.2454,-0.5570,0.1999
56.2220,-0.0536,0.0627,-0.0008,1.7315,-0.7461,0.2909
56.3220,0.0700,-0.0510,0.0072,1.5208,-0.4636,1.9190
56.4220,0.1441,0.0084,0.0597,0.5128,0.4294,2.2063
56.5220,0.0599,0.0859,0.1828,0.5272,0.1421,1.7370
56.6220,-0.2481,-0.1123,0.0727,0.9605,-0.2458,-1.2845
56.7220,0.0176,-0.2957,0.0312,1.9038,-0.1931,-0.3172
56.8220,-0.0285,-0.0641,0.0424,1.6213,0.1756,1.2318
56.9220,-0.0413,0.1741,-0.0040,1.6429,-0.0111,2.1105
57.0220,-0.0059,0.1914,-0.0901,1.3388,-0.5139,1.6748
57.1220,0.0415,0.1557,-0.1295,0.9294,-0.3679,0.1520
57.2220,0.0498,-0.2424,-0.0943,1.1616,-0.1500,-0.3867
57.3220,-0.0070,-0.0284,-0.0586,1.5375,-0.7174,0.1975
57.4220,0.0085,0.0699,0.0205,1.5974,-0.3295,1.6484
57.5220,-0.0128,0.0510,-0.0139,1.1162,-0.2098,2.9461
57.6220,0.0421,-0.1041,0.1002,1.1521,0.5731,1.4090
57.7220,-0.1191,-0.0244,0.1244,1.2359,-0.0255,0.0084
57.8220,-0.0160,-0.2027,0.0157,1.5399,-0.0063,-0.9708
57.9220,0.0386,-0.1574,-0.0357,1.8679,-0.1500,0.1377
58.0220,-0.1471,-0.2162,-0.1114,1.7267,-0.3631,1.9214
58.1220,-0.0136,0.2303,-0.1918,0.9294,-0.7414,3.1544
58.2220,-0.0427,0.2200,-0.2715,0.5894,-0.9113,0.8871
58.3220,0.0514,-0.0668,-0.1535,1.2167,-0.2505,-0.6309
58.4220,-0.0421,-0.1350,-0.0759,1.9254,-0.6576,-0.5447
58.5220,-0.1090,-0.0649,-0.1290,2.1672,-0.8778,0.7386
58.6220,0.0916,0.0838,-0.0570,1.9086,-0.1739,2.0578
58.7220,0.1393,0.1203,-0.0123,1.0587,0.2283,1.9740
58.8220,-0.0123,0.2317,0.1428,1.0898,0.0990,1.3108
58.9220,-0.0581,0.2445,0.0773,1.1185,0.1038,-0.4465
59.0220,0.1137,0.0289,0.0341,1.5663,-0.0973,-0.1568
59.1220,0.0519,0.0084,-0.0352,1.6453,0.1062,0.3771
59.2220,-0.0243,-0.1115,0.1258,1.2095,0.1756,1.9309
59.3220,0.1185,0.0971,-0.1628,0.8265,-0.0686,2.6779
59.4220,0.0247,0.0489,-0.1322,0.7570,-0.7892,0.6045
59.5220,0.0005,-0.1741,-0.0032,1.2526,-0.1308,-0.7194
59.6220,0.0314,0.0180,0.0317,1.7482,-0.1979,0.1975
59.7220,-0.0717,-0.0521,0.0685,2.0307,-0.3798,0.6285
59.8220,0.0064,0.0691,0.1458,1.9015,-0.2960,2.0746
59.9220,0.1364,0.4209,0.2177,0.1561,0.2810,2.4289
60.0220,0.0082,0.0553,0.3248,0.1154,0.0248,0.6093
60.1220,-0.1053,0.0289,0.1807,0.7283,0.0416,-0.3436
60.2220,0.0183,-0.0105,0.1242,1.3987,0.1277,-0.1855
60.3220,-0.0389,-0.0015,0.2382,1.1688,0.0200,1.4880
60.4220,-0.0997,0.0569,0.0829,0.9462,-0.2529,2.4768
60.5220,-0.0323,0.0108,-0.0594,0.7307,-0.6839,1.2462
60.6220,0.0152,0.0318,-0.0536,0.4075,-0.4828,0.5926
60.7220,0.0692,-0.1683,0.0037,1.2239,0.0080,-0.9014
60.8220,0.1020,-0.1560,0.0341,1.5064,-0.3080,0.6237
60.9220,0.0562,-0.0577,0.1162,0.9510,-0.3319,2.0315
61.0220,0.0903,0.1981,0.1180,0.3333,0.3073,2.8766
61.1220,0.0919,0.1949,0.1391,0.6900,0.4270,0.5016
61.2220,-0.0744,0.1064,0.1812,0.7307,0.4390,0.2215
61.3220,-0.0158,-0.0929,0.2060,1.3412,0.3576,-0.2502
61.4220,0.0525,-0.0819,0.1620,1.5471,0.2953,0.0180
61.5220,0.0530,-0.0007,0.0386,1.0898,-0.2194,2.5343
61.6220,-0.1058,0.1227,-0.1567,-0.2438,-0.5235,2.7234
61.7220,-0.1812,-0.0097,-0.3968,-0.0355,-0.7174,0.7578
61.8220,0.0812,-0.1009,-0.3435,0.7307,0.0392,-0.7601
61.9220,-0.1546,-0.1677,-0.1644,1.0850,-0.1572,0.0826
62.0220,-0.1330,-0.0756,-0.0823,1.5998,-0.6887,1.5766
62.1220,0.1638,0.0563,-0.1100,1.6357,-0.6719,2.8934
62.2220,-0.1740,0.0534,-0.0210,0.1465,0.7718,1.6604
62.3220,-0.0008,0.0052,0.1356,0.3572,0.1277,0.9804
62.4220,-0.1159,-0.2061,0.1151,1.3843,-0.1380,-1.1959
62.5220,0.0996,-0.1707,-0.0522,1.5375,-0.1596,0.7003
62.6220,-0.1775,-0.2695,-0.1847,1.1784,-0.2362,2.1105
62.7220,0.1132,0.0393,-0.1740,0.6924,-0.7557,2.6564
62.8220,0.0197,0.2735,-0.1716,0.8624,-0.9951,0.4992
62.9220,0.0746,0.1214,-0.0392,1.0539,-0.0351,-1.1887
63.0220,0.0474,-0.0993,0.0037,1.4418,-0.4947,0.0587
63.1220,-0.1263,-0.1041,0.0330,1.8608,-0.5881,1.3108
63.2220,0.0605,0.0124,0.0967,1.6405,-0.7318,2.5175
63.3220,0.0594,0.1922,0.0613,0.5703,0.3025,1.9836
63.4220,-0.0544,-0.0772,0.1631,0.5272,-0.0015,0.3843
63.5220,-0.0994,-0.2741,0.0903,1.4322,-0.0782,-1.2414
63.6220,0.0120,-0.0649,0.0360,1.5878,-0.2194,0.1688
63.7220,0.0066,0.0356,-0.0226,1.3771,0.1325,2.3260
63.8220,-0.0293,0.0793,-0.1220,1.3987,-0.7677,2.9149
63.9220,-0.0174,0.0670,-0.2310,1.1784,-0.6073,0.7075
64.0220,0.0186,-0.0489,-0.1524,1.1185,-0.3367,-0.1616
64.1220,-0.0725,-0.1672,-0.1122,1.5184,-0.4493,-1.0091
64.2220,-0.0107,-0.0745,-0.0258,1.4968,-0.8371,0.4872
64.3220,0.1028,-0.0065,0.1833,1.8512,-0.3176,2.7138
64.4220,0.0597,0.2421,0.0624,1.5567,-0.0135,2.8838
64.5220,0.0551,0.2378,0.1945,1.1736,0.1421,0.3675
64.6220,-0.1397,0.0246,0.1186,1.1832,0.0942,-0.4537
64.7220,-0.0706,-0.0798,0.0184,1.9015,0.2355,-0.3340
64.8220,0.0557,-0.1614,0.0176,1.9110,0.2068,0.2981
64.9220,0.0101,-0.1065,0.0360,2.1337,-0.0997,2.0866
65.0220,-0.1866,0.1006,-0.0797,1.5519,-0.9209,2.0698
65.1220,0.0541,0.1248,-0.1303,1.1784,-0.6264,0.2718
65.2220,0.0498,-0.1518,-0.0389,1.5327,-0.1763,-1.0882
65.3220,0.0647,-0.1416,-0.0040,1.6692,-0.3679,0.0826
65.4220,-0.0190,-0.0811,-0.0029,2.0930,-0.4421,0.7578
65.5220,-0.0280,-0.0929,0.0099,2.4306,-0.4205,1.8376
65.6220,0.1047,0.1565,0.0978,1.4968,0.0966,1.7107
65.7220,0.0295,0.0156,0.1969,1.2981,0.2977,0.6644
65.8220,-0.2031,-0.0998,0.0064,1.5447,-0.2386,-1.0068
65.9220,-0.0656,-0.1654,0.0093,1.6237,-0.2553,-0.0515
66.0220,-0.0288,-0.1171,-0.0869,1.6549,-0.1236,1.3922
66.1220,0.0056,0.0585,-0.1926,1.9876,-0.9736,2.4002
66.2220,-0.1330,0.2434,-0.3291,1.5375,-0.8515,1.5000
66.3220,-0.0515,0.0468,-0.1447,1.1832,-0.1811,-0.6309
66.4220,0.0570,-0.3449,-0.1188,1.8224,-0.2529,-0.4705
66.5220,0.0205,-0.0646,-0.0829,2.2247,-0.9089,0.1927
66.6220,0.2558,0.0702,0.0520,1.7147,-0.5642,2.2853
66.7220,0.1825,0.0715,-0.1220,2.2678,0.4270,2.3786
66.8220,-0.1207,0.1525,0.0778,1.9948,0.5372,1.5694
66.9220,-0.3225,0.1019,0.1498,1.5256,0.0823,-0.5878
67.0220,-0.1263,-0.1672,0.0613,1.9230,-0.2218,-0.9445
67.1220,0.0146,-0.0364,-0.0274,2.2007,-0.2266,-0.1161
67.2220,0.0346,0.0577,-0.0290,2.0667,-0.5762,2.0722
67.3220,-0.0690,0.1190,-0.1569,1.0419,-0.6432,2.1943
67.4220,-0.0051,0.1198,-0.1745,1.0228,-0.5498,0.6764
67.5220,0.0413,0.1880,-0.1271,1.5567,-0.2003,-0.8056
67.6220,0.0788,0.1158,-0.0573,1.8057,-0.5857,0.1520
67.7220,0.0815,-0.0462,0.0056,1.9350,-0.7007,1.3994
67.8220,0.0703,0.0350,0.0136,1.9709,-0.1931,2.4457
67.9220,0.0037,0.2120,0.1188,1.2335,0.5348,1.4545
68.0220,-0.0475,0.1059,0.2292,0.5152,0.6114,0.8559
68.1220,-0.0163,-0.0593,0.1252,1.1185,-0.0518,-0.8368
68.2220,0.0173,0.0033,0.0440,1.3340,0.2259,0.1832
68.3220,-0.0206,0.0246,-0.0610,1.2359,-0.2458,1.2941
68.4220,-0.0384,-0.1038,-0.0621,1.9206,-0.1739,1.9166
68.5220,-0.1122,0.0196,-0.1023,1.5447,-0.1644,0.9302
68.6220,-0.0299,-0.0665,-0.0144,0.6924,0.0224,0.9852
68.7220,0.0503,-0.1531,-0.0083,1.3005,-0.2601,-0.5830
68.8220,0.0152,-0.0566,0.0466,1.5615,-0.4612,0.1664
68.9220,0.0495,0.0366,0.0887,1.5543,-0.3511,0.9876
69.0220,0.0762,0.1432,-0.0234,1.5998,-0.3391,1.8615
69.1220,0.0293,0.0873,0.0506,0.7977,0.6449,1.2821
69.2220,-0.1010,0.0217,0.1804,0.2734,0.6808,1.9285
69.3220,-0.1032,0.0803,0.0149,0.6780,0.0008,-0.2143
69.4220,0.1953,-0.1190,-0.1218,0.6325,0.4390,0.5638
69.5220,-0.0683,-0.0833,-0.2633,0.9055,0.1613,1.0978
69.6220,-0.0986,0.0691,-0.2523,0.7881,-0.2649,1.5311
69.7220,-0.1000,-0.1147,-0.1346,0.9964,-0.2314,0.8799
69.8220,0.0442,0.0686,-0.1481,1.3149,-0.2458,1.4353
69.9220,-0.1876,0.1062,-0.0666,1.4298,-0.4636,1.0570
70.0220,-0.1391,-0.0907,0.0064,1.3460,-0.3942,0.6117
70.1220,0.0519,-0.1182,0.0549,1.7937,-0.4373,1.2031
70.2220,0.1628,-0.0412,0.0232,1.8512,-0.3032,1.5694
70.3220,0.0170,0.0915,-0.0285,1.0898,-0.3798,1.6724
70.4220,0.0597,0.0201,0.1303,0.5463,0.2020,1.2294
70.5220,-0.1037,-0.1174,0.1540,0.4745,0.2451,0.0491
70.6220,-0.1080,-0.1126,0.0426,1.0276,-0.1859,-0.7673
70.7220,0.0618,-0.0348,-0.0059,1.5327,0.2475,-0.5207
70.8220,-0.0387,0.1424,-0.0821,1.5160,0.2690,0.5495
70.9220,-0.0664,0.0675,-0.0725,1.8009,0.2379,0.6476
71.0220,-0.0810,0.0897,-0.1364,1.9876,0.3265,0.5686
71.1220,-0.0507,-0.0311,-0.1092,1.7219,-0.0470,0.9326
71.2220,0.1804,0.0308,-0.1103,1.6046,-0.1500,1.3372
71.3220,0.0812,-0.1081,-0.1727,1.8488,-0.0806,0.7841
71.4220,-0.0528,0.1352,-0.0330,1.5543,-0.2601,0.8966
71.5220,-0.1802,0.0542,-0.0674,1.3867,-0.4086,-0.1616
71.6220,0.1942,-0.2229,-0.0456,1.9422,-0.2338,0.4010
71.7220,0.1010,-0.1816,0.0354,2.2319,-0.3367,1.8854
71.8220,-0.0488,-0.1107,0.0586,2.1409,0.1134,2.0866
71.9220,-0.0315,0.0971,0.0352,1.5184,0.0511,1.2462
72.0220,0.0834,0.1707,0.2393,1.3532,0.3767,0.3986
72.1220,0.0567,0.1512,0.2268,1.7027,0.0559,-0.4274
72.2220,-0.1546,-0.1358,0.2507,1.9876,0.3480,-0.0012
72.3220,0.0183,-0.2184,0.1839,1.8201,-0.4971,1.3707
72.4220,-0.0754,-0.2048,-0.0613,0.8983,-0.4660,2.1847
72.5220,0.0602,-0.1097,-0.0661,1.1042,-0.3487,1.1432
72.6220,0.1065,0.2045,0.0115,1.6788,-0.2074,0.4920
72.7220,-0.0054,0.1648,-0.0573,1.5615,-0.2721,-0.0922
72.8220,-0.0011,0.0798,0.0112,1.7841,-0.1931,-0.1089
72.9220,-0.0730,-0.0556,0.0538,2.5192,-0.0063,1.1265
73.0220,-0.0749,0.1280,0.0765,1.2071,0.0894,2.8623
73.1220,0.0900,0.1467,0.0144,0.7235,0.3360,1.0954
73.2220,-0.0246,-0.0428,0.1543,0.9414,0.3169,0.5734
73.3220,-0.1871,0.1163,0.0802,1.1497,0.2283,-0.1424
73.4220,-0.1245,-0.0766,0.0597,1.3675,0.0966,-0.0539
73.5220,-0.0898,-0.0422,-0.0314,1.2598,-0.4086,2.1560
73.6220,0.0269,0.2533,-0.0975,0.5679,-0.2553,2.2685
73.7220,0.0746,0.1893,-0.1788,0.5727,-0.8156,1.2007
73.8220,0.1494,0.1419,-0.0949,0.8097,0.2666,-0.0658
73.9220,-0.0635,0.0438,-0.0514,1.2215,-0.3032,0.0898
74.0220,0.0418,-0.1073,-0.0485,1.4897,-0.3200,1.0642
74.1220,-0.0027,-0.2157,-0.0701,1.5495,-0.3631,2.5175
74.2220,0.1812,0.0124,0.1074,0.8696,0.5802,2.5415
74.3220,0.0522,0.1445,0.1743,0.6900,0.1206,1.2821
74.4220,-0.1005,0.0321,0.1162,1.4418,-0.6671,-1.5454
74.5220,-0.0072,-0.2160,0.0874,1.4825,-0.1308,-0.0874
74.6220,-0.0949,-0.1675,0.0778,1.2071,-0.0494,1.5622
74.7220,-0.0592,-0.0188,-0.0432,0.9533,-0.5833,3.2549
74.8220,-0.0134,0.2746,-0.2118,1.3197,-0.8706,1.6867
74.9220,0.0628,0.3692,-0.0797,1.0515,0.0128,-0.1305
75.0220,0.0293,0.1104,-0.0850,1.2335,-0.4110,-0.7218
75.1220,-0.0485,-0.1632,-0.0906,1.4274,-0.6169,0.4010
75.2220,0.0698,-0.1352,-0.0194,1.3484,-0.3679,2.6157
75.3220,0.1990,0.1387,0.0664,0.7067,0.4510,2.0913
75.4220,0.1265,0.2303,0.0714,1.0108,0.1756,0.7578
75.5220,-0.1791,-0.0295,0.1007,1.1904,-0.1165,-1.1049
75.6220,-0.0680,-0.3226,-0.0181,1.5519,0.0176,-0.7003
75.7220,-0.0064,-0.1638,-0.0762,1.3915,0.0607,2.1512
75.8220,-0.0456,0.2013,-0.0709,0.7858,-0.5019,3.2645
75.9220,-0.0317,0.2786,-0.1801,0.9629,-0.6959,0.9110
76.0220,0.0748,0.1070,-0.0618,0.6493,0.0535,-0.3771
76.1220,-0.0573,-0.2336,0.0328,1.4394,-0.4876,-0.7194
76.2220,-0.0661,-0.0425,-0.0402,1.6860,-0.5570,0.3795
76.3220,0.1721,-0.0268,0.0578,1.4609,-0.4924,2.4984
76.4220,0.3562,0.1453,0.1045,0.6900,0.2618,2.4529
76.5220,0.0719,0.0547,0.2393,0.9510,0.2738,0.9373
76.6220,0.0029,-0.0787,0.2388,0.9845,0.0775,-1.0953
76.7220,-0.0451,-0.2458,0.0187,1.1832,0.4127,-0.8703
76.8220,-0.0853,-0.4379,-0.0658,1.5926,0.0679,1.2821
76.9220,-0.0797,0.1424,-0.1021,0.7427,0.1660,3.4297
77.0220,-0.1599,0.0822,-0.2054,0.8432,-0.2649,1.3396
77.1220,-0.0768,0.2080,-0.1319,0.8552,-0.2003,-0.4705
77.2220,-0.0443,-0.1459,0.1292,1.2143,-0.2769,-1.1504
77.3220,0.0002,-0.0484,0.0179,1.7722,-0.6049,0.5806
77.4220,0.2392,0.0518,0.1977,1.9685,-0.3367,2.2972
77.5220,0.0732,0.1707,0.3152,0.4410,0.6521,2.9868
77.6220,-0.0645,0.0468,0.1780,0.4841,0.2977,1.2749
77.7220,-0.1431,-0.1254,0.0741,0.7163,-0.3870,-0.5926
77.8220,-0.0688,-0.2623,-0.0056,1.1497,0.1660,-0.1784
77.9220,-0.0872,-0.2021,-0.0959,1.4202,-0.0877,2.0961
78.0220,-0.1567,0.0849,-0.2049,1.1904,-1.1412,2.9126
78.1220,0.0842,0.0630,-0.2838,1.1784,-0.7773,1.5048
78.2220,-0.0589,0.0023,-0.2086,1.5232,-0.0327,-0.5806
78.3220,-0.1080,-0.2304,-0.0674,1.7267,-0.2745,-0.7697
78.4220,0.0165,-0.0806,-0.1013,2.1409,-0.8491,0.6405
78.5220,0.0751,0.1493,0.1045,1.9230,-0.6599,2.2063
78.6220,0.1641,0.4862,0.1855,0.9725,0.4869,2.0794
78.7220,-0.1080,0.0766,0.2638,0.7355,0.1445,1.0235
78.8220,-0.1325,-0.2424,0.1524,1.1880,-0.2960,-1.3539
78.9220,-0.0341,-0.2208,0.1362,1.0994,-0.2888,-0.3005
79.0220,0.0415,-0.0185,-0.1005,0.6421,-0.3583,2.1799
79.1220,0.0562,0.1429,-0.1559,0.2088,-0.8275,3.3315
79.2220,-0.0480,0.1605,-0.1918,0.7211,-0.9185,1.7274
79.3220,0.0157,-0.0247,0.0040,1.0132,0.3743,-1.8591
79.4220,0.0578,-0.1829,0.0248,1.4920,-0.3942,-0.9110
79.5220,0.0727,-0.1376,0.0730,2.1074,-0.6169,0.9900
79.6220,0.2134,0.1147,0.1135,1.4801,-0.3822,3.4321
79.7220,0.0330,0.2088,0.1764,1.0156,0.5467,1.7633
79.8220,-0.2947,-0.0505,0.2297,0.5703,0.0152,0.5423
79.9220,-0.2129,-0.1925,0.0576,1.4442,-0.2194,-0.7985
80.0220,-0.0613,-0.0907,-0.0064,1.1640,-0.3631,0.0658
80.1220,-0.2809,-0.2631,-0.1151,1.7458,-0.7964,1.8902
80.2220,0.1113,0.3364,-0.1908,0.7642,-0.8132,2.9892
80.3220,-0.0011,0.1467,-0.2137,0.2878,-1.0071,0.9349
80.4220,0.1260,-0.0982,-0.1958,1.2430,-0.1572,-1.5024
80.5220,0.1153,-0.0007,-0.2081,1.6141,-0.7940,-0.3124
80.6220,0.0117,0.0382,-0.0866,2.0164,-0.9233,0.5327
80.7220,0.0562,0.0047,0.1287,1.8201,-0.0470,2.9652
80.8220,-0.0762,0.0444,0.1967,0.8097,0.4318,1.8328
80.9220,0.0152,-0.0790,0.2782,0.2638,0.1684,1.1049
81.0220,-0.1354,-0.3002,0.0882,1.0204,-0.3439,-1.2797
81.1220,0.1327,-0.1523,0.0192,1.1928,-0.3080,0.1664
81.2220,0.0133,-0.0361,-0.0592,1.1880,-0.2553,1.3851
81.3220,-0.0190,0.0084,-0.1015,1.5782,-0.7485,2.9054
81.4220,-0.1447,0.3476,-0.2483,0.8791,-1.0430,1.6341
81.5220,0.0112,0.0097,-0.1002,0.9031,-0.1308,-0.9948
81.6220,0.0189,-0.3244,-0.0983,1.6070,-0.4660,-0.8703
81.7220,0.0106,-0.1768,-0.0927,2.0954,-0.9401,0.1137
81.8220,0.0804,-0.0524,0.1098,2.0571,-0.0925,2.4361
81.9220,0.1526,0.3772,0.1991,0.7091,0.5563,2.8958
82.0220,0.0263,0.1890,0.2108,0.4673,0.4366,1.3491
82.1220,-0.1919,-0.1344,0.1671,1.1377,-0.0279,-0.8679
82.2220,-0.0627,-0.0756,0.0685,1.1593,-0.2769,-0.1448
82.3220,0.0295,-0.1632,-0.3024,0.8696,0.1541,1.1983
82.4220,0.1836,-0.0223,-0.2944,1.6716,-0.7102,3.3411
82.5220,-0.1495,0.1755,-0.2062,1.6405,-0.8060,1.8447
82.6220,0.0125,0.1890,0.0005,1.0778,0.2475,-0.1903
82.7220,-0.0698,-0.1001,0.1319,1.8057,-0.4564,-1.1696
82.8220,-0.0619,-0.1259,0.0477,2.1337,-0.7821,-0.0132
82.9220,0.0903,-0.0236,0.1748,1.9565,-0.6528,2.3092
83.0220,0.0338,0.1744,0.1945,0.8360,0.1158,3.1687
83.1220,0.1002,0.0699,0.2459,0.7570,-0.2098,0.8727
83.2220,-0.1026,-0.3625,0.1151,1.4561,-0.2841,-1.3659
83.3220,0.0282,-0.2296,0.1335,1.6046,-0.2218,-0.5207
83.4220,0.1207,-0.0934,-0.0767,2.1002,-0.3248,1.0403
83.5220,0.0938,0.1360,0.0450,1.9565,-0.4636,3.2406
83.6220,-0.1522,0.1992,-0.0381,1.5280,-0.8156,1.5526
83.7220,0.0485,0.0881,-0.0165,1.1449,-0.1356,-0.2598
83.8220,0.0450,-0.2032,-0.0773,1.5782,-0.6432,-0.7673
83.9220,-0.0957,-0.1936,-0.0424,2.4928,-0.7198,-0.3651
84.0220,0.1361,-0.0979,0.0330,2.2558,-0.3319,1.7035
84.1220,0.1646,0.0968,0.1311,2.1744,0.0439,3.0203
84.2220,0.0567,0.0979,0.1892,1.5088,0.1684,1.4425
84.3220,-0.1157,0.0190,0.1748,1.3221,-0.1859,-0.2574
84.4220,-0.0786,-0.0753,0.0160,2.0044,-0.4373,-1.1576
84.5220,-0.0190,-0.0028,-0.0520,2.2031,-0.3559,0.2358
84.6220,-0.0261,0.0683,-0.0512,2.1409,-0.6935,1.7394
84.7220,0.0263,0.0468,-0.0464,1.7243,-0.6695,2.4648
84.8220,0.0767,0.0350,-0.1268,1.8081,-0.8778,0.6596
84.9220,0.0735,-0.0473,-0.0909,1.6477,0.0080,-0.5590
85.0220,-0.1351,-0.1896,-0.0277,1.8057,-0.4636,-0.5973
85.1220,-0.0581,0.0055,-0.0514,2.2773,-0.6576,-0.2047
85.2220,0.0570,0.1661,0.0903,2.2151,-0.4253,2.4936
85.3220,0.0948,0.4027,0.1609,1.1185,0.3504,3.0394
85.4220,0.0498,0.1358,0.1799,1.1377,0.0894,0.5543
85.5220,-0.2204,0.0481,0.0365,1.3077,-0.1931,-0.6859
85.6220,0.0018,-0.0380,-0.0218,1.4729,-0.1093,-0.7673
85.7220,0.1500,-0.1368,-0.1535,2.0068,-0.3846,0.4346
85.8220,-0.0997,-0.0180,-0.0344,2.4617,-0.3559,3.0131
85.9220,-0.1642,0.2567,-0.0685,0.8959,-0.9568,2.0147
86.0220,-0.1151,-0.0449,-0.2651,0.5631,-1.0358,0.5279
86.1220,0.0940,-0.2461,-0.2284,1.6070,-0.3128,-1.2462
86.2220,-0.0056,-0.1083,-0.1921,1.9924,-0.8706,-0.3531
86.3220,-0.0930,-0.0569,-0.1151,2.4665,-1.0526,0.8607
86.4220,0.0120,0.1030,0.0498,2.5216,-0.6336,3.1831
86.5220,0.0599,0.1981,0.0488,0.9557,0.2953,2.0291
86.6220,0.1425,-0.2567,0.1951,0.8265,-0.0015,0.6405
86.7220,-0.1213,-0.3010,0.1082,1.9038,-0.2434,-0.6740
86.8220,0.0549,0.0531,0.1063,2.0738,-0.3679,-0.5231
86.9220,0.0964,-0.0636,0.0080,1.5543,-0.2266,1.6173
87.0220,-0.0054,0.0889,-0.1204,1.7267,-0.7605,2.9413
87.1220,-0.1013,0.1627,-0.1625,1.7339,-0.9520,0.8895
87.2220,-0.0424,0.0758,-0.0560,1.2909,-0.2098,-0.7530
87.3220,-0.0405,-0.2320,-0.0189,1.7650,-0.5785,-0.7314
87.4220,-0.0539,0.0342,0.0136,1.9733,-0.9257,0.2622
87.5220,0.1436,0.1246,0.0831,1.9110,-0.7892,1.9022
87.6220,0.2440,0.3217,0.1625,0.9222,0.3863,3.5542
87.7220,-0.0848,0.2074,0.1737,0.8480,-0.1452,0.4800
87.8220,-0.0477,0.0614,0.1146,1.1808,-0.0542,-0.3603
87.9220,0.0434,0.0555,0.0466,1.5806,-0.1739,-0.2574
88.0220,0.0431,-0.0867,-0.0389,1.6357,0.0655,0.9110
88.1220,-0.0818,-0.1118,-0.0394,1.7602,-0.6887,2.2350
88.2220,-0.0728,0.1803,-0.1084,1.2000,-0.4349,1.2366
88.3220,0.0498,0.0020,-0.1737,0.9557,-0.5522,0.3915
88.4220,0.0112,-0.1837,-0.0949,1.3652,-0.3080,-0.4705
88.5220,0.0114,-0.1280,-0.0160,1.4609,-0.4110,0.5902
88.6220,0.0101,-0.1001,0.1250,1.7315,-0.3487,1.2773
88.7220,-0.0016,-0.0369,0.2126,1.4897,-0.1213,2.5917
88.8220,-0.0792,0.0939,0.1916,0.9342,0.1206,1.1480
88.9220,-0.0070,-0.0692,0.2174,0.7498,0.0344,0.8895
89.0220,-0.0608,-0.0897,0.0911,1.2909,-0.2697,-0.5279
89.1220,0.0455,-0.0987,0.0429,1.3699,-0.0087,0.2598
89.2220,-0.0091,-0.1739,0.0045,1.2933,-0.0925,1.4186
89.3220,-0.1016,-0.1736,-0.0775,1.9589,-0.8299,1.9597
89.4220,-0.1085,0.1651,-0.1593,1.5064,-0.5785,0.4585
89.5220,-0.0517,-0.0521,-0.0805,0.8696,-0.2625,0.3532
89.6220,-0.0208,-0.1379,-0.0695,1.7578,-0.7270,-0.3460
89.7220,-0.0475,0.1091,-0.0397,1.8177,-1.0358,0.0347
89.8220,0.0463,-0.0036,0.0341,2.0667,-0.7940,0.7769
89.9220,0.0455,0.0611,0.1093,1.9302,-0.5738,2.5845
90.0220,0.0634,0.2866,0.1871,0.8863,0.0631,1.8998
90.1220,0.0658,-0.0153,0.2766,0.5032,-0.0111,0.9948
90.2220,0.0056,0.0169,0.0797,1.0922,-0.2936,-0.2406
90.3220,0.0490,-0.0361,-0.0453,1.6213,-0.3822,-0.0754
90.4220,-0.0307,-0.0374,-0.1932,1.9757,-0.3272,0.1161
90.5220,0.0234,-0.1419,-0.1745,1.9757,-0.2122,2.1057
90.6220,-0.0576,0.0566,-0.0951,1.7458,-0.7078,2.6133
90.7220,-0.1559,0.0870,-0.1740,1.5256,-0.3391,0.5064
90.8220,0.0239,0.1304,-0.1751,1.0731,-0.5115,0.1640
90.9220,-0.1151,-0.1677,-0.1492,1.7339,-0.7868,-0.8799
91.0220,-0.0099,0.0132,-0.0381,2.1002,-1.1268,0.1233
91.1220,-0.1072,0.1294,-0.0168,1.9278,-0.8228,1.5718
91.2220,0.0716,0.1805,0.0397,2.1505,-0.9018,2.2374
91.3220,0.0165,0.1166,0.0616,1.1209,0.2139,1.2390
91.4220,-0.2316,-0.0937,0.1207,0.5487,0.1349,0.6405
91.5220,-0.2750,-0.2208,0.0759,1.3939,-0.1667,-1.3372
91.6220,0.1958,-0.1829,0.0096,2.0690,-0.7126,-0.1568
91.7220,0.0940,0.1344,-0.0362,1.7339,-0.3703,2.7474
91.8220,-0.0635,0.0793,0.1378,1.4849,-0.8802,2.5558
91.9220,-0.2894,0.0569,0.0056,1.2837,-0.9664,0.7985
92.0220,0.1268,0.0523,0.0032,0.5942,-0.2194,-0.0946
92.1220,0.1020,-0.2272,0.0474,1.5974,-1.1364,-0.5566
92.2220,0.1071,0.0713,0.0370,1.9805,-1.4357,0.8033
92.3220,-0.1767,0.1099,0.0711,2.1816,-0.7461,2.2326
92.4220,0.1873,0.2535,0.1039,1.0683,-1.0670,2.9413
92.5220,0.1452,0.0577,0.0791,1.1257,0.1613,0.8272
92.6220,-0.2332,-0.0529,0.0080,0.9557,-1.0023,0.1616
92.7220,0.0050,-0.0324,0.1231,1.0898,-0.7246,-1.2534
92.8220,-0.2748,-0.2368,-0.1071,1.6764,-0.3846,1.3228
92.9220,-0.1477,-0.0678,-0.1767,1.4585,-1.4309,1.9668
93.0220,0.1785,0.3956,-0.1804,0.5799,-1.4931,2.9006
93.1220,-0.1290,0.1230,-0.2435,1.2095,-1.2226,-0.1281
93.2220,0.0517,-0.0974,-0.2132,1.9206,-1.0023,-1.1384
93.3220,0.0085,-0.0803,0.0725,1.7770,-1.2920,-0.1401
93.4220,-0.0485,-0.2378,0.1071,1.3340,-1.2082,0.6644
93.5220,0.0530,-0.1310,0.0938,1.8081,-0.8323,2.3068
93.6220,0.0514,0.3449,0.2515,1.0898,-0.8419,2.6444
93.7220,-0.0565,0.0270,0.3190,0.2351,-0.8060,0.7243
93.8220,0.1199,-0.2485,0.4943,1.2454,-0.6887,-1.1432
93.9220,-0.1048,-0.0550,0.0099,1.8272,-1.3902,-0.2286
94.0220,0.1273,0.2751,-0.0829,1.3939,-1.0239,1.0283
94.1220,-0.2425,0.0713,0.0786,1.1784,-0.9329,3.4967
94.2220,-0.0962,0.3348,0.1625,0.9079,-1.0957,0.9565
94.3220,-0.0493,-0.0169,0.2886,0.3548,-0.7390,0.5614
94.4220,0.0421,-0.3114,0.4503,0.9007,-1.1053,-0.4345
94.5220,0.0860,-0.2597,0.7165,1.3005,-1.2489,0.1664
94.6220,0.0879,-0.3433,0.9774,1.9422,-0.8419,0.4824
94.7220,0.0892,-0.2474,1.0416,1.7482,-1.2777,2.0123
94.8220,0.3807,0.0193,1.2929,0.8648,0.3312,1.1576
94.9220,0.0445,-0.1904,1.2748,-0.0474,-0.2817,1.8232
95.0220,0.1404,-0.1997,1.1922,0.4697,-0.1787,0.2957
95.1220,0.0258,-0.1811,1.0195,0.8001,-0.6121,0.2191
95.2220,0.1510,-0.1776,0.9649,1.0084,-1.0526,0.4346
95.3220,0.1196,-0.1893,0.8215,1.0060,-1.0143,1.0858
95.4220,0.0202,-0.0015,0.8418,-0.1049,-1.3231,2.4457
95.5220,0.2648,0.0052,1.1072,0.2758,-0.7318,1.7562
95.6220,0.0482,-0.3447,1.1572,0.8001,-0.4181,-0.3316
95.7220,0.2901,-0.3740,1.2391,1.0491,-0.7414,0.6237
95.8220,0.3304,-0.1243,1.2521,1.1449,-1.1316,0.1592
95.9220,0.3352,-0.0825,1.2686,1.2478,-0.9951,1.1385
96.0220,0.2326,-0.2232,1.4027,0.9390,-0.7150,1.3994
96.1220,0.4583,0.0225,1.4855,0.4266,0.1469,2.6276
96.2220,0.1868,-0.1091,1.4179,0.6014,0.5156,0.4250
96.3220,0.1593,-0.0409,1.3241,1.0204,-0.0542,0.5950
96.4220,0.2392,-0.0827,1.2177,1.3197,0.3049,0.1784
96.5220,0.2430,-0.0993,1.0888,1.6285,-0.2625,0.3555
96.6220,0.2949,-0.0164,0.9305,1.6501,-0.0494,1.6628
96.7220,0.0820,-0.0995,0.8050,1.0443,-0.5355,1.6532
96.8220,0.2081,-0.1262,0.7493,0.5535,-0.4540,2.0315
96.9220,0.1145,0.0745,0.5796,0.4242,-0.4708,0.7578
97.0220,0.0594,-0.0942,0.5857,0.8815,-0.4660,-0.4513
97.1220,-0.0563,-0.1105,0.4517,1.4106,-1.2058,-0.0299
97.2220,0.0954,-0.0060,0.2817,1.3891,-0.9425,0.1353
97.3220,0.1460,-0.0239,0.2390,1.6189,-0.9927,1.5550
97.4220,0.0597,-0.0601,0.3072,1.7530,-0.5522,2.0842
97.5220,0.1497,0.1211,0.3890,0.7594,0.2570,2.4170
97.6220,0.0927,0.0454,0.4850,0.4625,0.2115,0.8751
97.7220,-0.0323,-0.0705,0.3243,0.7858,-0.1763,-0.7027
97.8220,0.0804,0.0015,0.2257,1.4992,-0.7102,-0.3483
97.9220,0.0708,-0.0396,0.1697,1.9589,-0.3535,0.0323
98.0220,0.0138,-0.0638,0.1343,1.8344,-0.4588,2.6444
98.1220,-0.0675,0.2186,0.1085,0.3165,-0.4540,3.2406
98.2220,-0.1234,0.0686,-0.0786,-0.2222,-0.6312,1.1025
98.3220,0.1292,0.0004,-0.1881,0.6445,-0.6336,-0.7410
98.4220,-0.1170,-0.1627,0.0440,1.2694,-0.4804,-0.2478
98.5220,-0.2569,-0.1126,0.0565,1.3675,-1.3207,0.3891
98.6220,0.1071,-0.0156,-0.0051,1.1497,-1.0239,2.5199
98.7220,0.2422,0.0865,0.0834,0.1944,0.0008,2.9580
98.8220,0.2030,-0.0228,0.1572,0.0843,0.1182,0.7650
98.9220,-0.0307,-0.1232,-0.1124,0.8576,-0.4924,-1.5550
99.0220,0.1121,0.0721,-0.1631,1.7051,0.0942,-0.0658
99.1220,-0.0168,-0.0023,-0.1737,1.7363,-0.7677,1.2294
99.2220,-0.0643,-0.0209,-0.0605,1.7123,-0.1165,3.3435
99.3220,-0.1983,0.2637,-0.2294,0.0771,-0.3559,2.4122
99.4220,0.0732,0.1171,-0.2497,0.0890,-0.4229,-0.2646
99.5220,-0.0062,-0.4025,-0.2803,1.0874,-0.5546,-1.0403
99.6220,-0.1580,-0.2213,-0.1871,1.4322,-0.6959,0.3627
99.7220,-0.0949,-0.1235,-0.0775,1.7219,-0.3200,0.9349
99.8220,0.2030,0.0614,-0.0554,1.8296,-0.5283,2.6348
99.9220,0.1265,0.1171,0.0357,0.8360,-0.0135,1.6963
100.0220,-0.1580,0.0055,-0.0096,0.6445,-0.3104,0.1592
100.1220,-0.2327,-0.2040,-0.0136,1.6094,-0.2984,-0.9373
100.2220,-0.0659,-0.0572,-0.1159,1.3268,-0.3128,0.1233
100.3220,-0.0706,-0.1619,-0.1847,1.1593,-0.6288,1.8040
100.4220,-0.0877,0.0214,-0.2686,0.8863,-0.8563,3.4752
100.5220,-0.0206,0.2405,-0.3208,0.7977,-1.1963,0.8416
100.6220,0.1002,0.1232,-0.1977,0.9318,-0.5474,-0.5159
100.7220,0.0383,-0.1272,-0.0576,1.1928,-0.6336,-0.1855
100.8220,-0.0922,-0.2218,0.0019,1.6764,-0.8754,0.3484
100.9220,-0.0267,-0.1486,0.1604,2.1888,-0.7509,1.9309
101.0220,0.4164,0.3367,0.1783,0.8743,0.0368,3.0801
101.1220,0.2552,0.1512,0.1236,0.4985,0.0870,1.7801
101.2220,-0.1469,-0.0068,0.1668,1.0228,-0.1715,0.5734
101.3220,-0.1938,-0.0412,0.0168,1.3723,-0.2841,-0.0299
101.4220,-0.1053,0.0601,-0.1988,1.1928,-0.0327,0.3436
101.5220,-0.1439,-0.2234,-0.2401,1.3460,-0.6025,1.1337
101.6220,-0.0256,0.0795,-0.2816,0.8887,-0.7437,2.0650
101.7220,-0.0757,0.0566,-0.2054,0.7905,-0.6001,0.3579
101.8220,0.0391,0.0635,-0.0296,1.2430,-0.2888,0.1018
101.9220,-0.1021,0.1118,0.0911,1.3819,-1.1101,0.1042
102.0220,0.0506,0.1264,0.0360,1.1018,-0.7653,0.2478
102.1220,-0.0022,-0.2453,0.0906,1.0970,-0.9568,1.2342
102.2220,0.2694,-0.1976,0.1484,2.0331,-1.1029,2.0890
102.3220,0.1806,0.0553,0.2619,1.3795,0.0631,0.4920
102.4220,-0.1034,-0.1326,0.3802,1.3628,-0.3631,1.4952
102.5220,-0.1159,0.3153,0.1799,0.8648,-0.1093,0.3819
102.6220,-0.0994,-0.1211,-0.0482,1.0994,-0.2170,0.3962
102.7220,-0.0363,0.0984,-0.1799,1.4753,-0.5546,0.6237
102.8220,-0.0429,0.2306,-0.2635,1.0204,-0.0949,1.2845
102.9220,-0.1194,0.1379,-0.3632,1.1066,-0.6935,1.3084
103.0220,0.0189,0.0334,-0.3030,0.8672,-0.7174,1.0714
103.1220,0.0303,-0.0332,-0.1636,0.5966,-0.6049,1.4305
103.2220,-0.0837,0.1147,-0.0714,0.1633,-0.7844,1.0163
103.3220,-0.1962,0.0326,-0.0314,0.1010,-0.9736,0.5902
103.4220,-0.0752,0.1312,-0.0085,0.3811,-1.1963,0.7793
103.5220,-0.0637,0.2333,-0.0104,0.6038,-1.0167,0.8847
103.6220,0.0053,0.1949,-0.0562,0.7690,-1.4309,0.8823
103.7220,0.1396,0.0726,0.0091,0.9462,-1.1484,0.8128
103.8220,0.0916,0.0446,0.0445,1.1042,-1.0358,0.7721
103.9220,0.0879,0.0217,0.0557,1.2023,-0.9353,0.5662
104.0220,0.1513,0.0076,0.1045,1.4753,-0.8922,0.9709
104.1220,0.0994,-0.0971,0.0786,1.5806,-0.6480,0.9900
104.2220,0.0679,-0.2972,0.1514,1.4537,-0.6647,1.5048
104.3220,0.1609,-0.2314,0.2145,1.6381,-0.6743,1.5191
104.4220,0.1785,0.1643,0.2409,0.6948,-0.1260,1.3611
104.5220,0.0565,-0.0529,0.3491,0.3261,0.2475,0.7482
104.6220,-0.1327,-0.0921,0.2771,0.7451,0.1325,0.0323
104.7220,-0.0523,-0.0670,0.1300,1.3268,-0.0566,-0.0443
104.8220,0.0620,-0.0324,0.0072,1.3915,-0.0614,0.1880
104.9220,0.0988,-0.0993,-0.0210,1.3364,0.0870,1.8926
105.0220,0.0160,0.1067,-0.0240,0.9725,-0.3367,2.8766
105.1220,-0.0222,0.0803,-0.0245,0.5439,-0.3463,0.2047
105.2220,-0.0645,-0.1059,-0.1311,0.4123,-0.3798,0.1760
105.3220,-0.1178,-0.2088,-0.1100,0.8001,-0.5019,-0.2095
105.4220,-0.0416,-0.0031,-0.0818,0.9653,-0.5019,0.6452
105.5220,0.0160,-0.0649,0.0285,0.9941,-0.5833,1.1624
105.6220,0.0509,-0.1059,0.0847,0.8073,-0.0327,2.0770
105.7220,0.0978,0.1453,0.0461,0.7115,0.3432,1.7274
105.8220,-0.1064,0.1683,-0.0488,-0.1384,-0.0207,1.3276
105.9220,-0.1269,0.0603,-0.1689,0.0100,0.0631,0.5447
106.0220,-0.0552,0.1744,-0.2715,0.6253,0.0751,0.5399
106.1220,-0.0938,0.1499,-0.3038,0.6038,0.1230,0.7482
106.2220,-0.1927,-0.0641,-0.2984,0.8743,-0.1739,1.0930
106.3220,-0.0198,0.0361,-0.1852,0.8911,-0.3511,1.0738
106.4220,-0.0525,0.0811,-0.1338,0.4147,-0.3343,0.7769
106.5220,-0.0579,0.0484,-0.0754,0.5727,-0.2458,0.7362
106.6220,-0.0744,0.0723,-0.0970,0.5511,-0.4924,0.7745
106.7220,-0.0269,0.0412,-0.0685,0.4386,-0.3679,0.9469
106.8220,-0.0104,0.0254,-0.0533,0.6134,-0.4852,1.0523
106.9220,-0.0176,0.0039,-0.0152,0.7738,-0.4445,0.9158
107.0220,-0.0445,0.0153,-0.0139,0.8504,-0.4373,1.0092
107.1220,0.0133,0.0007,-0.0037,0.9126,-0.3487,1.1792
107.2220,0.0162,0.0105,-0.0256,1.0395,-0.2793,1.0259
107.3220,0.0090,-0.0350,-0.0490,1.0850,-0.2098,0.7793
107.4220,0.0146,0.0044,-0.0669,1.1257,-0.2051,0.8966
107.5220,-0.0190,-0.0311,-0.0440,1.0060,-0.4205,0.9685
107.6220,0.0247,0.0292,-0.0061,0.8504,-0.4708,0.8440
107.7220,-0.1005,-0.0497,-0.0493,0.9414,-0.5738,1.1672
107.8220,0.0716,0.0433,0.0053,1.1497,-0.8012,0.8033
107.9220,-0.0152,-0.0015,0.0149,1.2598,-0.7198,0.6429
108.0220,-0.1263,-0.0582,-0.0344,1.1856,-0.8180,0.9134
108.1220,-0.2033,-0.2695,0.0445,1.1425,-0.6767,1.3324
108.2220,0.0543,-0.1667,0.0797,1.3795,-0.6336,1.6221
108.3220,0.1132,0.0691,-0.0549,1.2742,-0.4325,0.7362
108.4220,0.1756,-0.1139,0.1002,0.9581,-0.1380,0.5207
108.5220,-0.0523,-0.0366,0.1287,1.2861,-0.1021,1.3156
108.6220,-0.0360,0.1693,0.0775,1.2119,-0.5211,0.6907
108.7220,-0.0477,0.0633,0.0522,1.1736,-0.4493,0.6859
108.8220,-0.0571,0.0755,-0.0461,1.2359,-0.4157,0.9996
108.9220,0.0490,0.1627,-0.1588,1.0324,-0.3870,1.3420
109.0220,0.0812,0.1267,-0.1436,0.9318,-0.0734,1.1576
109.1220,0.0245,-0.0076,-0.1092,1.2957,-0.4157,1.0116
109.2220,0.0727,0.0785,-0.0413,1.2023,-0.4804,0.5543
109.3220,-0.0336,-0.0636,-0.0584,1.0491,-0.5690,1.0020
109.4220,-0.0403,-0.1211,-0.0280,0.9917,-0.9927,1.5646
109.5220,0.0088,0.0230,-0.0139,0.9318,-0.9927,1.2366
109.6220,-0.0560,-0.0753,0.0650,1.0826,-0.9233,0.3268
109.7220,-0.0251,0.0404,0.1324,0.9845,-0.8228,1.2342
109.8220,-0.0136,0.0502,0.0877,1.2646,-0.5738,0.6620
109.9220,-0.0243,0.0268,0.0703,1.2766,-0.7940,0.5375
110.0220,-0.0192,0.0635,0.0770,1.2359,-0.7533,0.7865
110.1220,0.0402,0.0558,0.0341,1.3173,-0.9425,0.6668
110.2220,0.0213,0.0052,0.0029,1.2407,-0.7342,1.0259
110.3220,-0.0054,-0.0758,0.0117,1.3484,-0.8156,0.7123
110.4220,0.0186,-0.0678,0.0043,1.5998,-0.7844,0.6740
110.5220,0.0064,0.0161,0.0109,1.3939,-0.6216,0.7865
110.6220,0.0042,-0.0172,0.0211,1.2742,-0.5905,0.8296
110.7220,0.0207,0.0246,-0.0043,1.3580,-0.7222,1.0235
110.8220,0.0415,0.0409,0.0048,1.3532,-0.6647,0.9445
110.9220,-0.0261,-0.0159,0.0093,1.2861,-0.6360,0.9589
111.0220,-0.0000,-0.0164,0.0072,1.3173,-0.8826,0.7721
111.1220,0.0330,-0.0012,0.0410,1.3197,-0.7773,0.8823
111.2220,-0.0083,-0.0289,0.0317,1.3819,-0.7102,0.7410
111.3220,0.0207,-0.0223,0.0418,1.4226,-0.7916,0.6859
111.4220,0.0210,0.0225,0.0219,1.3628,-0.6264,0.9493
111.5220,0.0423,0.0044,0.0149,1.3316,-0.7988,0.8799
111.6220,0.0157,-0.0084,-0.0053,1.3939,-0.7605,0.9972
111.7220,0.0365,-0.0207,-0.0357,1.3101,-0.7653,0.7961
111.8220,-0.0238,-0.0827,0.0096,1.3891,-0.5618,0.9278
111.9220,-0.0677,-0.0236,0.0056,1.4801,-0.6145,0.8655
112.0220,-0.0424,-0.0361,0.0037,1.3053,-0.8778,0.6644
112.1220,-0.0451,-0.0457,-0.0005,1.3268,-0.7174,0.8895
112.2220,-0.0515,-0.0414,-0.0072,1.4130,-0.7581,0.7578
112.3220,-0.0115,0.0001,-0.0160,1.4250,-0.6504,0.8057
112.4220,0.0237,0.0182,-0.0306,1.3987,-0.7485,0.7769
112.5220,0.0010,0.0121,-0.0061,1.4322,-0.7461,1.0379
112.6220,-0.0472,-0.0172,0.0125,1.3508,-0.7629,0.8272
112.7220,-0.0179,0.0217,-0.0013,1.4370,-0.7940,0.8607
112.8220,-0.0291,0.0350,-0.0136,1.4106,-0.9449,0.8607
112.9220,-0.0381,0.0102,0.0245,1.3436,-0.9473,0.9493
113.0220,-0.0216,0.0057,0.0016,1.3364,-0.9113,0.7554
113.1220,-0.0078,-0.0047,-0.0218,1.2670,-0.8706,0.8440
113.2220,0.0168,0.0273,-0.0232,1.3149,-0.9161,0.7650
113.3220,-0.0078,0.0009,-0.0424,1.2047,-0.9137,0.7554
113.4220,-0.0187,-0.0465,-0.0200,1.2790,-0.8682,0.7793
113.5220,-0.0357,-0.0004,-0.0253,1.4106,-0.9640,0.7458
113.6220,0.0045,0.0561,-0.0248,1.3484,-0.8826,0.7793
113.7220,0.0005,0.0337,-0.0218,1.2957,-0.8659,0.8607
113.8220,0.0181,0.0201,-0.0378,1.2598,-0.8659,0.8128
113.9220,0.0024,0.0190,-0.0621,1.2095,-0.8874,0.9254
114.0220,0.0136,0.0531,-0.0509,1.2885,-0.9808,0.8488
114.1220,0.0026,0.0332,-0.0517,1.2430,-0.8323,0.7961
114.2220,-0.0072,0.0196,-0.0402,1.2598,-0.7773,0.8799
114.3220,-0.0075,0.0142,-0.0163,1.2430,-0.9616,0.9756
114.4220,0.0050,-0.0196,-0.0234,1.2287,-0.8754,0.9254
114.5220,-0.0112,-0.0265,-0.0234,1.3316,-0.8108,0.7650
114.6220,0.0165,-0.0004,0.0035,1.5926,-0.7964,0.7338
114.7220,-0.0536,0.0630,-0.0144,1.4992,-0.6719,0.7195
114.8220,-0.0275,0.0747,-0.0269,1.4370,-0.7126,0.8488
114.9220,-0.0467,0.0129,-0.0751,1.3675,-0.8730,0.7386
115.0220,-0.0142,-0.0041,-0.1351,1.1760,-0.9520,0.8081
115.1220,-0.0555,0.0209,-0.1167,1.2670,-1.1986,0.7793
115.2220,-0.0008,0.1451,0.0008,1.4729,-1.2537,1.0547
115.3220,-0.0387,0.0017,0.1983,1.5926,-1.2274,0.5423
115.4220,0.1111,0.0161,0.2028,1.6429,-1.4716,0.7027
115.5220,0.0647,0.2386,0.2886,1.7315,-1.3806,0.9110
115.6220,0.0802,0.1387,0.3099,1.0395,-1.2130,0.9852
115.7220,0.0519,-0.0638,0.2555,0.9294,-1.2274,1.7202
115.8220,0.2590,-0.0148,0.2835,0.8073,-0.6408,1.7586
115.9220,0.0706,-0.1360,0.3134,1.0180,-0.5307,0.6117
116.0220,0.0762,-0.0873,0.4503,1.1281,-0.0710,1.0642
116.1220,-0.0445,0.0886,0.3661,1.1353,-0.5881,0.1066
116.2220,0.0485,0.0779,0.2918,1.0539,-0.5953,0.5591
116.3220,0.0026,0.0164,0.1927,1.4466,-0.8012,0.3292
116.4220,0.0453,0.0422,0.1220,1.3795,-0.7198,1.6484
116.5220,-0.0062,0.0537,0.1346,1.1880,-0.7677,2.4624
116.6220,0.0895,0.1600,0.1905,0.6349,-0.3463,1.3707
116.7220,0.0636,-0.1163,-0.0197,0.6158,-0.2146,0.3843
116.8220,0.3120,0.0228,0.0951,0.7714,-1.0478,-0.3053
116.9220,-0.0048,-0.0652,0.1223,0.4649,-0.5283,0.1664
117.0220,-0.0640,-0.0127,0.1021,0.9964,-0.9544,1.1480
117.1220,-0.0693,-0.0223,0.1175,1.1377,-0.4038,1.6771
117.2220,0.1761,0.0670,0.3150,0.2495,0.4342,2.4050
117.3220,0.0397,0.0619,0.3440,-0.0067,0.4797,1.1887
117.4220,-0.0475,-0.0433,0.2182,0.3021,0.1086,-0.3627
117.5220,-0.0110,0.0244,0.0235,0.6493,0.0703,-0.0203
117.6220,0.0237,0.0542,-0.2140,0.8528,-0.4205,0.2718
117.7220,-0.0443,-0.0774,-0.2920,0.9366,-0.6001,1.4258
117.8220,-0.1554,0.0236,-0.3155,0.2830,-0.4517,2.8024
117.9220,-0.0024,0.2501,-0.3016,-0.0786,-0.1859,0.4465
118.0220,0.0013,0.0268,-0.3088,-0.2294,-0.1739,1.3180
118.1220,0.0498,-0.0673,-0.2060,0.3548,-0.1596,0.4370
118.2220,-0.2111,-0.1243,-0.0693,0.7331,-0.6599,0.5782
118.3220,-0.1333,-0.1179,-0.0608,0.9797,-0.5426,0.2670
118.4220,0.1764,-0.1715,-0.1617,1.1521,-0.6312,1.2438
118.5220,0.1678,-0.2256,-0.1124,1.0419,-0.4157,1.8280
118.6220,0.0247,-0.0065,-0.0104,0.4769,-0.2242,1.4569
118.7220,0.0210,-0.0420,0.0815,0.4482,-0.1452,0.7195
118.8220,-0.0648,-0.1163,-0.0626,0.9390,-0.6169,-0.0778
118.9220,0.0730,0.1182,-0.1591,1.3484,-0.4660,0.5638
119.0220,-0.0531,-0.0867,-0.0762,1.6501,-0.1620,0.4561
119.1220,-0.1050,-0.0239,-0.0248,1.3747,-0.2984,1.9022
119.2220,-0.1143,0.1619,-0.0738,0.9677,-0.5953,1.9405
119.3220,0.0559,0.1533,-0.1415,0.8528,-0.3774,0.4777
119.4220,0.0306,0.0436,-0.0426,0.7403,-0.2434,1.3300
119.5220,-0.1010,-0.0772,0.0965,1.0036,-0.4540,0.1185
119.6220,0.0008,0.0257,0.0181,1.0515,-0.8515,0.3077
119.7220,-0.0341,-0.0772,-0.0085,1.4513,-0.8778,0.6069
119.8220,0.0189,0.0036,0.0085,1.5256,-0.8156,1.8376
119.9220,0.2683,0.0630,0.1873,0.3404,0.4557,1.9884
120.0220,0.0794,0.0031,0.2902,0.2830,-0.2051,2.2422
120.1220,-0.1029,0.1051,0.2729,0.4793,-0.0111,0.0946
120.2220,-0.1053,-0.0204,0.1599,1.0276,-0.2434,-0.3986
120.3220,0.0343,-0.1027,0.0477,1.4298,-0.2314,0.2047
120.4220,-0.0168,-0.1552,0.0368,1.2167,-0.3822,1.9381
120.5220,-0.0379,-0.0580,-0.0288,1.4274,-0.6887,2.5462
120.6220,0.0096,0.0921,-0.0040,1.0970,-0.5857,0.6572
120.7220,-0.0075,0.0654,0.0040,0.4554,-0.3415,0.4346
120.8220,-0.0483,-0.1161,0.0629,0.6469,-0.6863,-0.5854
120.9220,0.0751,-0.0063,-0.0229,0.8600,-0.7749,0.1113
121.0220,0.0978,-0.1435,0.0266,1.5375,-0.9042,1.2246
121.1220,0.0762,0.1517,0.0338,1.5304,-0.6025,2.4553
121.2220,0.0970,0.2607,0.1188,0.6349,0.0487,1.2749
121.3220,-0.0368,-0.1784,0.2132,0.2327,0.2953,1.0570
121.4220,0.0389,-0.1310,0.1588,0.7067,0.2355,-0.6668
121.5220,0.0442,-0.1568,0.0445,1.2311,0.2259,0.4130
121.6220,0.0069,0.0457,-0.0077,1.5519,-0.3487,0.9756
121.7220,0.0522,-0.1392,-0.0565,1.0946,-0.3056,2.4936
121.8220,-0.1005,-0.0089,-0.2995,0.6182,-0.3726,1.6412
121.9220,-0.0235,-0.0532,-0.1958,0.5368,-0.5522,0.5662
122.0220,0.0533,-0.0388,-0.1777,0.8887,-0.1667,-0.8344
122.1220,-0.0451,-0.2296,-0.1950,1.3819,-0.4828,0.2095
122.2220,-0.0728,-0.1062,-0.0887,1.8272,-0.6647,0.5926
122.3220,0.0607,-0.0484,0.1109,1.6477,-0.3343,2.3451
122.4220,0.1657,0.2999,0.2132,0.8983,0.3025,3.0778
122.5220,0.0482,0.3122,0.1860,0.5463,-0.2027,0.8176
122.6220,-0.0123,0.1240,0.2849,0.4482,-0.0853,-0.1736
122.7220,0.0423,0.0246,0.0735,0.7427,-0.1548,-0.0299
122.8220,0.0639,-0.0564,-0.0629,0.9486,-0.2505,0.3723
122.9220,-0.0246,-0.0300,-0.1226,0.8911,-0.4014,2.0674
123.0220,-0.1458,0.1390,-0.1042,0.5272,-0.4876,3.2094
123.1220,-0.1274,0.2394,-0.0354,0.2183,-0.2984,1.0547
123.2220,-0.1655,0.1155,-0.0634,0.2973,0.0416,-0.5064
123.3220,0.1449,-0.1339,0.0938,0.3428,-0.7366,0.0060
123.4220,0.0591,-0.0990,0.0754,0.5894,-0.9880,0.4537
123.5220,-0.0182,-0.2309,0.0986,1.0419,-0.4588,1.7035
123.6220,0.3749,0.4369,0.2244,0.6134,0.1373,3.4872
123.7220,0.0831,0.1872,0.2758,-0.2438,0.6162,2.0099
123.8220,-0.2297,-0.1280,0.2931,0.3333,-0.0135,0.2358
123.9220,-0.0491,-0.1110,-0.0669,0.4769,-0.5762,-0.6476
124.0220,0.0442,-0.0947,-0.3139,0.9629,-0.6839,0.1880
124.1220,-0.2039,-0.1169,-0.3693,1.4801,-0.8706,0.4298
124.2220,-0.1860,-0.1030,-0.2750,2.0954,-0.6911,1.8232
124.3220,-0.0440,0.0976,-0.1745,0.5894,0.2283,1.4689
124.4220,0.0402,0.0974,-0.1362,0.0459,-0.4780,1.4305
124.5220,0.1604,0.0966,0.0219,0.8504,-0.4181,-0.4800
124.6220,0.0687,-0.0044,0.0690,1.2023,-0.3128,0.4489
124.7220,-0.0539,-0.0761,0.0213,1.4825,-0.5402,0.9086
124.8220,-0.0395,-0.1334,0.0112,1.2239,-1.2178,2.2733
124.9220,0.2123,0.1254,0.1375,0.0699,-0.1572,2.7090
125.0220,0.0668,-0.0947,0.1724,-0.0043,-0.1715,0.9326
125.1220,-0.1311,0.0310,0.2105,0.4458,0.0224,0.1161
125.2220,-0.0960,-0.0404,0.1002,1.1760,-0.2553,-0.7697
125.3220,-0.0603,-0.0574,0.0325,1.1425,-0.6983,0.2813
125.4220,0.0136,-0.1784,0.0877,1.5687,-0.6049,1.4186
125.5220,0.0461,0.0356,0.1535,0.3931,-0.6839,3.9109
125.6220,-0.0118,0.1888,-0.0232,-0.2318,-1.0622,1.1983
125.7220,0.2734,0.0953,-0.2177,-0.0019,-0.4014,0.6093
125.8220,-0.0917,-0.1536,-0.1873,0.8169,-0.6552,-0.3029
125.9220,-0.1466,-0.1416,-0.3397,1.0252,-1.2202,0.1520
126.0220,0.0199,0.0041,-0.3957,0.8193,-0.7892,1.3444
126.1220,0.2851,0.0633,-0.3682,0.3333,-0.2505,2.6085
126.2220,0.1303,0.0819,-0.4517,0.7307,0.4414,1.2175
126.3220,-0.0749,0.0169,-0.6989,0.7187,-0.8180,0.0730
126.4220,-0.0635,-0.1025,-1.0099,0.5008,-1.2322,0.4465
126.5220,-0.0440,0.1195,-1.1866,0.8001,-1.0215,0.0012
126.6220,-0.2961,0.0278,-1.3270,0.5392,-0.6959,1.7729
126.7220,-0.1175,0.1898,-1.3901,0.0819,-0.5618,2.7258
126.8220,-0.3286,0.0862,-1.6342,-0.0474,-0.7868,0.4848
126.9220,-0.1474,0.0073,-1.5756,0.3261,-0.5067,0.3986
127.0220,-0.2902,0.0126,-1.4535,0.4530,-0.7366,0.2382
127.1220,-0.1820,0.1616,-1.2319,0.8983,-0.9496,0.2909
127.2220,-0.1375,0.0318,-0.9406,1.3412,-0.2290,1.3779
127.3220,0.0223,0.1091,-0.5689,1.4418,-0.3272,2.2063
127.4220,-0.0597,-0.0502,-0.4159,0.3931,0.0703,1.1983
127.5220,-0.0493,-0.1323,-0.3131,0.0220,-0.2338,1.2103
127.6220,-0.2500,-0.0550,-0.4338,0.2782,-0.1907,-0.1424
127.7220,-0.0512,0.0521,-0.4125,0.8001,-0.4612,0.7099
127.8220,-0.1924,0.0297,-0.4149,1.0204,-0.5235,-0.1879
127.9220,-0.0400,-0.0971,-0.4413,1.1640,-0.4636,1.4186
128.0220,-0.0309,0.0222,-0.4101,0.7044,-0.8922,2.2470
128.1220,-0.0552,0.1342,-0.3237,0.4530,-0.5642,0.8440
128.2220,-0.1634,-0.0327,-0.2188,0.1489,-0.6432,0.5351
128.3220,-0.1048,-0.2456,-0.0762,0.6206,-0.5474,-0.1736
128.4220,-0.0752,-0.0484,-0.0147,0.9629,-0.9257,0.4130
128.5220,-0.0499,0.0305,0.0003,1.2430,-1.0215,0.4250
128.6220,-0.0032,-0.0534,0.0147,1.4729,-1.1843,1.4689
128.7220,0.1492,0.0478,0.1029,1.2909,-0.8826,2.1081
128.8220,0.1417,-0.0004,0.1516,0.1609,-0.3152,1.3372
128.9220,0.1108,0.0254,0.1452,0.0459,-0.1404,1.2917
129.0220,-0.0086,0.1429,0.0882,0.3596,0.1565,-0.0874
129.1220,-0.0549,-0.0678,0.0789,1.0419,-0.1236,-0.0347
129.2220,0.0338,-0.0113,0.0578,1.5950,-0.0758,0.0036
129.3220,-0.0285,-0.1075,0.1527,1.2335,-0.1452,1.8256
129.4220,-0.0198,0.0420,0.0381,0.2255,-0.3679,3.1975
129.5220,-0.0059,-0.0401,-0.0677,0.5320,-0.6025,0.6500
129.6220,-0.0043,-0.0135,-0.0376,0.6780,-0.4924,0.2885
129.7220,0.0485,-0.1046,0.0264,1.2191,-0.6288,-0.1065
129.8220,-0.0107,0.0270,-0.0144,1.6381,-0.7844,0.7841
129.9220,0.0663,-0.1113,0.0264,1.9038,-0.8994,1.8352
130.0220,0.0850,0.0641,0.0653,1.4920,-0.5307,2.5175
130.1220,-0.0842,0.0305,0.0029,0.8193,0.0463,0.4250
130.2220,-0.0637,0.0356,0.0424,0.8312,-0.2194,0.5758
130.3220,-0.1127,-0.1936,-0.0765,1.0419,0.1158,-0.4010
130.4220,-0.0333,-0.2690,-0.1990,1.9086,0.0679,0.2981
130.5220,-0.0224,-0.1379,-0.1591,1.9445,0.4007,1.1983
130.6220,-0.2569,-0.2991,-0.0762,1.7770,-0.4588,1.8998
130.7220,-0.0344,-0.0169,-0.0544,1.3795,-1.0071,2.2063
130.8220,0.2848,0.3103,-0.2395,1.4106,-1.1125,0.5782
130.9220,0.2811,0.1142,-0.2020,1.1377,-0.4229,-0.2310
131.0220,-0.3022,-0.3740,-0.1170,0.6996,-0.3200,-0.1760
131.1220,-0.2159,-0.2959,0.0173,0.9055,-0.0877,-0.1784
131.2220,0.0722,-0.0915,-0.1106,1.0156,-0.1572,0.1496
131.3220,0.2672,-0.0665,-0.0565,1.0371,0.0823,1.1121
131.4220,0.2955,0.3345,-0.1713,0.4817,0.6832,1.2893
131.5220,-0.2886,0.1411,-0.1220,0.7331,0.1541,0.1975
131.6220,-0.1143,-0.1190,-0.0218,0.9893,0.6640,0.0706
131.7220,-0.1429,-0.1478,-0.1548,0.9917,0.2283,0.5974
131.8220,-0.0701,-0.0313,-0.1857,0.8504,0.1924,1.1337
131.9220,-0.0611,-0.0561,-0.2044,1.4298,-0.5618,1.5694
132.0220,0.0373,0.1296,-0.3283,1.1497,-0.4277,0.7769
132.1220,0.0538,0.3012,-0.2403,0.8504,-0.2745,0.7266
132.2220,0.0237,0.2106,-0.2422,0.7666,-0.2266,0.3388
132.3220,-0.2303,-0.1139,-0.1180,1.1904,-0.2410,0.8823
132.4220,-0.1263,-0.0497,-0.0813,1.0515,-0.3990,1.1815
132.5220,0.1534,0.0830,-0.1410,1.1521,-0.3822,0.9397
132.6220,0.2233,0.1845,-0.0743,0.5966,-0.3200,1.6484
132.7220,-0.1818,0.2013,0.0243,0.7427,0.0894,0.9397
132.8220,-0.2772,-0.0361,0.0354,0.6900,0.3193,0.5519
132.9220,-0.1687,-0.3796,0.0701,0.8528,-0.2362,0.6022
133.0220,-0.1655,-0.3673,0.0261,0.8049,-0.2098,0.9493
133.1220,0.0271,-0.1248,-0.1076,1.5423,-0.8754,0.9637
133.2220,0.0644,0.0108,-0.1162,1.1640,-0.5977,1.2151
133.4220,-0.0150,0.1360,-0.0440,0.9438,-0.6647,0.2167
133.5220,0.0762,0.0436,0.0802,1.3556,-0.6169,0.2023
133.6220,-0.1077,0.0081,0.1364,1.4059,-0.6647,0.7195
133.7220,-0.0219,0.0023,0.1053,1.1042,-0.9903,1.4545
133.8220,0.1095,-0.0886,0.0831,1.1712,-0.9760,1.6053
133.9220,0.2086,0.0105,0.1138,1.0300,-0.2841,1.4952
134.0220,0.0191,0.3044,0.2054,1.1233,-0.2865,0.5399
134.1220,-0.1309,0.1720,0.2872,1.0778,-0.1476,0.1329
134.2220,-0.2279,-0.0934,0.3493,1.2790,-0.2577,0.6812
134.3220,0.0202,-0.2946,0.3224,0.9486,-0.7174,0.8416
134.4220,0.0026,-0.1861,0.3656,1.0922,-0.4517,1.9549
134.5220,-0.0126,-0.0153,0.5052,1.0324,-0.8084,1.0570
134.6220,0.0930,0.1267,0.5526,0.9150,-1.0047,0.8847
134.7220,0.1471,0.0654,0.5828,0.6756,-1.2298,0.2047
134.8220,0.1268,-0.0833,0.5324,0.5631,-0.6839,0.6045
134.9220,-0.0994,-0.1813,0.6571,0.8097,-1.0718,1.0140
135.1220,-0.0112,0.0137,0.7829,0.4506,-0.1572,1.9525
135.2220,0.0509,0.1459,0.7605,0.6613,-0.1835,0.6500
135.3220,0.0847,0.0899,0.8399,0.8983,0.0176,0.6955
135.4220,-0.0123,-0.0686,0.8892,0.9605,-0.0614,0.7362
135.5220,-0.0099,-0.1944,0.8545,1.1880,-0.2721,0.3699
135.6220,0.0946,-0.0806,0.8852,1.0802,-0.3990,1.0738
135.7220,0.0168,-0.0524,0.8732,0.7546,-0.3319,1.0858
135.8220,0.2110,-0.1230,0.9454,0.6493,-0.3487,0.7051
135.9220,0.2904,-0.1248,0.9587,0.6373,-0.5666,1.2438
136.0220,0.1087,-0.2021,1.0112,0.5559,-0.9832,0.6405
136.1220,0.0567,-0.2799,0.9976,0.6325,-1.0143,0.7674
136.2220,0.0631,-0.1464,0.9401,0.8073,-0.8946,0.6836
136.3220,-0.0331,-0.2464,0.7021,0.8265,-0.9233,0.7243
136.4220,0.0983,-0.4760,0.7053,0.9653,-1.3686,1.0283
136.5220,0.1534,-0.3378,0.5884,1.0252,-0.4325,1.4234
136.6220,0.2608,-0.0614,0.4578,1.2287,-0.7461,0.9206
136.7220,0.3333,0.0798,0.1460,1.4657,-1.0143,-0.1472
136.8220,0.2118,-0.1347,0.1258,1.5687,-1.3088,0.2813
136.9220,0.0445,-0.1376,0.0509,1.8584,-0.7198,0.5638
137.0220,0.3568,0.0390,-0.0631,1.8991,-0.4947,1.8543
137.1220,0.3781,0.3537,-0.1748,1.6501,-0.2865,2.0722
137.2220,-0.1660,-0.0476,-0.0099,0.6206,-0.4373,0.9589
137.3220,-0.0456,-0.0414,-0.0136,0.5559,-0.9784,0.6022
137.4220,-0.1802,-0.0236,-0.0242,0.9773,-0.9353,-0.2191
137.5220,-0.0325,-0.0052,-0.0368,1.0204,-0.8228,0.7410
137.6220,-0.1314,-0.1051,-0.0376,1.4394,-0.7605,1.5550
137.7220,-0.1543,-0.0255,0.1322,1.5160,-0.5019,2.5917
137.8220,0.0469,0.1088,0.2076,0.5966,0.0870,1.2366
137.9220,0.1625,-0.0132,0.1615,0.4003,-0.4540,-0.1808
138.0220,-0.2239,-0.1875,-0.0397,0.7834,-0.2745,-0.2334
138.1220,-0.0365,-0.0489,-0.0528,1.5447,-0.7414,-0.1760
138.2220,0.0285,0.0025,-0.1612,1.8224,-0.2960,1.6412
138.3220,-0.0046,-0.0052,-0.1092,1.3795,-0.8826,1.7609
138.4220,0.1007,0.1795,-0.1489,0.5104,-0.5785,2.0937
138.5220,-0.0104,0.1659,-0.2068,0.3572,-0.9856,0.6764
138.6220,0.0772,-0.0292,-0.0517,0.7139,-0.4253,-0.4968
138.7220,-0.0104,-0.0662,-0.0536,1.1138,-0.8275,0.1305
138.8220,-0.1546,-0.1518,-0.0277,1.6956,-1.2968,0.5303
138.9220,-0.0648,-0.0041,0.0538,1.5304,-0.7174,2.3667
139.0220,0.1553,0.2671,0.0290,0.4793,-0.1739,2.0890
139.1220,0.1431,-0.0654,0.0882,0.1920,0.2235,0.9086
139.2220,-0.0810,-0.1419,0.1055,0.7283,-0.3248,-0.3843
139.3220,-0.0195,0.0033,0.1074,1.2454,-0.1691,-0.0347
139.4220,0.0410,-0.0047,0.0227,1.1976,-0.2410,0.3747
139.5220,-0.0309,0.0180,-0.1471,1.2574,-0.6671,2.7138
139.6220,-0.0515,0.0084,-0.1402,0.2758,-0.9042,2.3906
139.7220,-0.0384,0.1091,-0.1966,0.3548,-0.8874,0.8176
139.8220,0.0274,0.0755,-0.1335,0.8935,-0.4373,-0.9445
139.9220,-0.0960,-0.1781,0.0013,0.8025,-0.6647,-0.1281
140.0220,-0.1479,-0.1190,0.0245,1.3675,-0.9544,0.2358
140.1220,-0.0022,-0.1323,0.1359,1.4753,-0.5043,2.3906
140.2220,0.1100,0.1437,0.2012,0.4003,-0.0303,3.0754
140.3220,0.0527,-0.0764,0.2292,0.1992,-0.4349,0.8918
140.4220,-0.0922,-0.0819,0.0522,0.5224,-0.1093,-0.7171
140.5220,-0.0214,-0.1185,-0.0655,1.2167,-0.4804,-0.8487
140.6220,0.1327,0.0998,-0.0072,1.2694,-0.3128,0.6429
140.7220,0.0056,-0.0108,-0.0272,1.2119,-0.5067,2.2518
140.8220,-0.0208,0.0102,-0.0717,0.6038,-0.4780,3.1616
140.9220,-0.1221,0.0342,-0.0093,1.1090,-0.7342,0.3220
141.0220,0.0628,-0.1843,0.0650,1.0539,-0.1308,-0.3316
141.1220,0.1073,0.0340,0.0354,1.1042,-0.5809,0.2071
141.2220,-0.0024,0.0321,0.1226,1.2502,-0.8419,0.0036
141.3220,0.0431,-0.0809,0.1588,1.5687,-0.9257,1.6604
141.4220,-0.0738,0.0606,0.1314,1.3987,-0.9784,3.0035
141.5220,0.0692,0.1866,0.1143,0.4314,-0.0542,0.7985
141.6220,-0.0632,-0.1376,0.1490,0.2375,-0.1117,0.7290
141.7220,-0.1887,-0.2440,0.0578,1.0563,-0.1260,-0.6333
141.8220,0.0295,-0.0811,0.0293,1.6046,-0.3990,-0.1736
141.9220,0.0450,0.0830,-0.0626,1.8488,-0.4014,0.4824
142.0220,0.0469,0.1224,-0.0019,1.1281,-0.3894,2.7138
142.1220,0.0397,0.3196,-0.0344,0.0124,-0.7605,2.4050
142.2220,-0.0440,-0.1486,-0.1942,0.2495,-1.1867,0.3412
142.3220,0.0575,0.0212,-0.1114,0.5056,-0.5331,0.4968
142.4220,-0.1588,-0.0084,-0.1380,0.9438,-0.6863,-0.1975
142.5220,0.0215,-0.1896,-0.0970,1.2766,-0.9353,0.0515
142.6220,-0.0978,-0.1446,-0.0930,1.7123,-0.9185,2.0171
142.7220,0.1308,0.2511,-0.0344,1.3484,-0.9520,1.9022
142.8220,-0.0320,-0.0063,0.0253,0.7259,-0.1021,0.7003
142.9220,-0.0112,0.0337,-0.0160,0.4985,-0.0039,0.4489
143.0220,0.0311,-0.0756,-0.0946,1.1281,-0.2386,-0.7171
143.1220,0.0290,-0.0377,-0.0631,1.4154,-0.0758,0.8296
143.2220,-0.0957,-0.0777,-0.0586,1.3867,-0.4493,1.6700
143.3220,0.0415,0.0390,-0.0242,1.2335,-0.4086,2.5893
143.4220,-0.0416,0.0587,-0.0887,0.7905,-0.3679,0.8679
143.5220,0.1297,0.1035,-0.1335,0.3763,-0.4780,0.9637
143.6220,0.0874,-0.0609,-0.0655,1.0180,-0.4349,-0.6333
143.7220,0.0655,0.0286,0.0125,1.1760,-0.6480,0.2526
143.8220,-0.0174,-0.0217,0.1005,1.1401,-0.6408,1.7442
143.9220,-0.0008,0.0641,0.1082,1.2383,-0.5905,2.1895
144.0220,0.1377,0.1930,0.2025,0.6014,0.5635,1.1887
144.1220,-0.0901,0.1000,0.2622,-0.1480,0.1062,1.2318
144.2220,-0.1170,-0.0790,0.1340,0.3428,0.0344,-0.3388
144.3220,0.0727,-0.1302,0.0003,1.0180,-0.1428,0.2143
144.4220,0.0295,-0.1147,-0.0461,1.5615,-0.2434,0.8344
144.5220,-0.0525,-0.0660,0.0759,1.5256,-0.1069,1.8352
144.6220,-0.1021,-0.1568,-0.0397,0.5870,-0.4157,2.3164
144.7220,0.0700,-0.0609,-0.0871,0.7307,-0.1548,0.8799
144.8220,-0.0525,0.0425,-0.0147,1.1305,-0.4325,-0.0467
144.9220,-0.0898,-0.0055,0.0293,1.0587,-0.1979,0.0802
145.0220,0.0815,0.0713,0.0573,1.0156,-0.3248,0.1880
145.1220,0.0397,-0.0396,0.0546,1.2239,-0.4971,1.4976
145.2220,-0.1564,0.0547,0.0027,1.3771,-0.8635,2.0530
145.3220,0.0109,0.3948,-0.0101,0.5104,0.0487,1.5215
145.4220,0.0557,0.1275,-0.0719,0.4314,0.2115,1.0475
145.5220,-0.0464,0.0068,-0.0943,0.9007,0.0918,0.3651
145.6220,-0.0621,-0.1161,-0.0277,1.4609,-0.2553,0.0635
145.7220,0.0064,0.0097,-0.0693,1.6261,-0.0135,0.3771
145.8220,0.0016,-0.0931,-0.0634,1.3891,-0.3822,1.7849
145.9220,0.0178,0.0617,-0.1146,0.6637,-0.3535,3.5662
146.0220,-0.1754,0.0436,-0.1836,0.4458,-0.6312,0.0539
146.1220,0.0628,-0.0825,-0.2116,0.9222,-0.4588,-0.1879
146.2220,0.1055,0.0326,-0.1503,1.2598,-0.4133,-0.2238
146.3220,-0.0885,-0.0204,-0.1002,1.4944,-0.6480,0.6357
146.4220,-0.0544,-0.0678,-0.0565,1.8416,-0.7653,1.1792
146.5220,-0.0397,-0.0220,-0.0477,1.5567,-0.4732,2.0099
146.6220,0.1748,0.2775,-0.0197,0.5655,0.1732,1.8471
146.7220,0.0426,-0.0572,0.1807,0.5296,-0.1739,0.6883
146.8220,-0.1458,-0.0889,0.1018,0.8887,0.1230,-0.2502
146.9220,-0.0456,-0.0886,0.0954,1.3197,-0.2338,-0.0826
147.0220,0.0186,-0.0215,0.0917,1.2023,-0.1979,0.7554
147.1220,-0.0890,-0.1211,0.1444,1.2023,-0.3200,2.1632
147.2220,-0.0395,0.2359,-0.0360,0.2973,-0.4612,2.4385
147.3220,-0.0712,0.1608,-0.0192,0.1609,-0.5355,0.9996
147.4220,0.0253,-0.0649,0.0235,0.6229,-0.2003,-0.7171
147.5220,-0.0056,-0.1408,-0.0810,1.1928,-0.8443,0.1520
147.6220,-0.0192,-0.1440,-0.0266,1.4992,-1.1268,0.6716
147.7220,-0.0083,-0.0702,0.0117,1.4585,-0.7916,2.2996
147.8220,0.1316,0.1246,-0.0224,1.1904,-0.3415,1.7131
147.9220,-0.0027,0.0420,-0.0032,0.8408,-0.0782,1.0044
148.0220,-0.1261,0.0262,0.1234,0.6277,-0.1021,0.8871
148.1220,-0.0163,-0.0337,0.0669,1.4035,-0.4110,-0.5710
148.2220,0.0634,-0.1070,-0.0288,1.2670,-0.2649,0.0060
148.3220,-0.0443,-0.2869,-0.1194,1.2287,-0.5929,1.9022
148.4220,-0.0259,0.0281,-0.1388,1.5854,-0.7054,2.3140
148.5220,0.0381,0.2077,-0.2254,1.2861,-0.7605,0.5447
148.6220,0.0852,0.0630,-0.1908,0.8241,-0.4229,0.3484
148.7220,-0.0118,-0.1360,-0.1524,1.5327,-0.8347,-0.5399
148.8220,0.0173,0.0134,-0.0669,1.3125,-0.6695,0.7171
148.9220,-0.1474,-0.0953,0.0346,1.7841,-0.7629,1.3683
149.0220,0.1073,0.1424,-0.0400,1.3628,-0.7222,2.3499
149.1220,0.1441,0.2104,0.0179,0.8696,0.3169,1.0690
149.2220,-0.1509,-0.0590,0.2137,0.8528,-0.2290,0.7219
149.3220,-0.1788,-0.0835,0.1527,1.0611,0.0679,-0.3555
149.4220,-0.0544,-0.0937,0.1420,1.3508,-0.2242,0.3244
149.5220,-0.0112,-0.1816,0.0266,1.6812,-0.4397,0.9038
149.6220,0.0418,-0.0289,0.0509,1.7339,-0.5474,2.0818
149.7220,-0.0051,0.2573,-0.0234,0.6134,-0.4086,1.2510
149.8220,0.1697,0.0388,-0.0863,0.2088,-0.3703,1.0594
149.9220,0.0847,-0.0361,-0.0618,0.8001,-0.5019,-0.6668
150.0220,-0.0011,-0.0239,0.0155,1.3292,-0.7437,0.1377
150.1220,-0.0131,0.0233,0.0957,1.8129,-1.1005,0.3340
150.2220,-0.0384,-0.0236,0.1383,1.5112,-0.2266,2.6276
150.3220,0.2981,0.2605,0.1274,0.9653,0.1828,2.7569
150.4220,0.0892,0.2160,0.2833,0.2399,0.4390,1.6029
150.5220,-0.1327,0.0787,0.2038,0.4242,-0.2338,-0.2933
150.6220,0.0541,-0.0081,0.1665,1.0467,-0.4181,-0.6811
150.7220,0.0423,-0.0041,0.0155,1.3675,0.0751,0.1736
150.8220,0.0429,-0.0297,-0.0226,1.3939,-0.4253,2.2446
150.9220,-0.1852,0.2655,0.0384,0.3883,-0.5666,3.5135
151.0220,-0.1453,0.0273,-0.0642,0.0364,-0.5929,0.7602
151.1220,0.1889,0.0715,-0.0933,0.3476,-0.4876,0.0156
151.2220,0.1199,-0.1030,-0.1066,0.6182,-0.7294,-0.5112
151.3220,0.0429,-0.2301,-0.0349,0.8456,-0.6911,0.6476
151.4220,-0.0288,-0.2834,0.1508,1.4394,-0.7318,1.7107
151.5220,0.0421,0.2471,0.1652,0.9294,-0.3104,3.2669
151.6220,0.0996,0.0713,0.1617,0.2926,0.4246,0.5303
151.7220,-0.2303,-0.1486,0.1207,0.6972,-0.1859,-0.0922
151.8220,-0.0936,-0.0657,-0.0312,1.2143,0.1230,-1.0211
151.9220,0.0866,0.0025,-0.1775,1.1449,-0.1404,0.1880
152.0220,0.1375,-0.0609,-0.1553,1.6812,-0.0734,1.4449
152.1220,-0.0323,0.0356,-0.0765,1.5495,-0.6384,2.7928
152.2220,-0.0597,0.2285,-0.1463,0.6660,-0.1404,0.6716
152.3220,0.0074,-0.0031,-0.1769,0.1297,0.0894,1.2127
152.4220,0.0165,-0.1403,-0.0562,0.8336,0.0823,-0.5806
152.5220,0.0983,0.0726,-0.0056,1.2335,-0.5690,0.2478
152.6220,-0.0949,-0.0260,0.0434,1.6668,-0.5881,0.9493
152.7220,-0.0435,-0.1358,0.1058,1.9900,-0.2793,2.8383
152.8220,0.1908,0.2120,0.2070,0.2949,0.4438,3.0538
152.9220,0.1233,-0.0609,0.2571,0.1130,-0.0087,0.3388
153.0220,-0.2433,-0.1043,0.0727,0.9725,0.1852,-1.2007
153.1220,0.0692,-0.0769,0.0365,1.4657,-0.1021,-0.3268
153.2220,0.0354,0.0633,-0.0775,1.5304,0.0104,0.7410
153.3220,-0.1066,-0.1259,-0.0469,1.5160,-0.1739,2.6731
153.4220,0.0983,0.4520,-0.1743,0.2926,-0.1380,3.1328
153.5220,-0.1759,-0.0721,-0.3014,-0.0642,-0.6264,0.3484
153.6220,0.1420,-0.0724,-0.2934,0.5511,-0.3750,-0.9445
153.7220,-0.0400,-0.0582,-0.2062,1.3364,-0.2074,-0.1161
153.8220,-0.0624,0.1304,-0.1266,1.3652,-0.2601,0.5184
153.9220,-0.0293,-0.0156,-0.0778,1.2670,-0.2721,2.0602
154.0220,0.3480,0.2117,-0.0357,0.8624,-0.0255,2.6851
154.1220,0.0149,0.2469,0.0962,0.4841,0.2355,1.0140
154.2220,-0.1037,0.1776,0.1468,0.3404,0.1589,0.3172
154.3220,-0.1988,-0.0033,0.0466,0.9964,0.2068,-0.5135
154.4220,-0.0746,-0.1307,-0.0003,1.2335,0.3432,0.4777
154.5220,-0.0555,-0.2914,-0.0453,1.3053,0.0655,1.6173
154.6220,-0.0246,0.0737,-0.0344,0.7427,-0.7605,3.3100
154.7220,-0.0296,0.1208,-0.1092,0.4817,-0.1715,0.3747
154.8220,0.0714,0.0657,-0.1220,0.3261,-0.2793,-0.0251
154.9220,0.0322,-0.1065,-0.0328,0.7881,-0.3942,-0.5088
155.0220,0.0511,0.0531,-0.0027,1.4178,-0.5355,0.3508
155.1220,-0.1271,-0.1635,0.0434,1.9829,-0.7078,1.7897
155.2220,-0.0307,0.0742,0.0072,1.6764,-0.2841,2.5415
155.3220,0.1228,0.3409,0.0450,-0.2773,0.2475,1.9070
155.4220,0.1036,-0.0012,0.1458,-0.1791,0.1445,0.9397
155.5220,-0.2060,-0.0271,0.0674,0.6182,0.1469,-0.6500
155.6220,0.0263,0.0523,0.0640,1.1640,0.0535,0.2478
155.7220,0.0205,-0.0004,-0.0490,1.2191,0.1852,0.4920
155.8220,-0.0243,-0.2218,-0.0666,1.3245,-0.1667,2.0195
155.9220,0.0330,0.1360,-0.1114,0.1704,0.1325,3.5159
156.0220,-0.0720,0.0721,-0.0280,0.3811,-0.7773,0.4178
156.1220,0.0477,-0.0212,0.0402,0.8193,-0.0039,-0.4537
156.2220,0.0125,-0.0686,0.0834,1.2095,-0.4708,-0.1688
156.3220,-0.0632,-0.0345,0.1122,1.1976,-0.6576,0.2813
156.4220,0.0812,0.0779,0.2222,0.9917,-0.4133,2.1895
156.5220,-0.0592,0.1315,0.1607,1.0276,-0.4014,1.7514
156.6220,0.0418,0.1840,0.2233,0.2016,0.1349,1.8902
156.7220,-0.0216,-0.0556,0.2737,-0.0905,0.3791,0.5998
156.8220,-0.0696,-0.0652,0.0546,0.4769,-0.0638,0.0563
156.9220,-0.0365,-0.0665,-0.0301,1.0300,-0.3176,-0.2669
157.0220,-0.0120,-0.0153,-0.0083,1.3340,-0.1787,0.0204
157.1220,-0.1088,-0.1323,-0.0877,1.4897,-0.2027,1.1935
157.2220,-0.0448,-0.1035,-0.0730,1.4394,-0.6025,1.9836
157.3220,0.1047,0.2050,0.0256,0.2016,-0.0782,1.2653
157.4220,-0.1287,-0.1923,-0.0725,0.2638,-0.3990,0.8224
157.5220,-0.0035,0.0142,-0.0091,0.7235,-0.3056,0.3915
157.6220,-0.0648,-0.0905,0.0834,0.9605,-0.5857,0.0084
157.7220,0.0176,0.0665,0.1109,1.5854,-0.8419,0.0012
157.8220,0.0277,-0.0201,0.0552,1.5878,-1.3471,1.5910
157.9220,-0.0176,0.0571,0.0866,1.1449,-0.7294,2.8575
158.0220,0.1753,0.1024,0.0493,-0.1743,-0.0542,2.0459
158.1220,0.0138,-0.1342,0.0277,-0.3419,-0.1308,1.1768
158.2220,-0.1008,0.0617,-0.1359,0.2782,-0.4325,0.5255
158.3220,-0.0256,-0.0073,-0.2417,1.1976,-0.8635,-0.3412
158.4220,-0.1205,-0.0316,-0.2758,1.4035,-0.3104,0.2957
158.5220,-0.1461,-0.2855,-0.1807,1.6261,-0.1189,1.2630
158.6220,-0.1583,-0.2322,-0.1231,1.8703,-0.6169,2.2350
158.7220,0.1343,0.1320,-0.2555,0.5655,-0.1907,1.6963
158.8220,0.0210,-0.0385,-0.1468,0.6229,-0.8754,0.7147
158.9220,0.0996,-0.0012,-0.0528,1.0371,-0.9592,0.0251
159.0220,-0.0909,-0.0319,0.0405,1.3316,-0.9592,0.3125
159.1220,-0.0235,0.1094,-0.0360,1.6644,-1.4022,0.2933
159.2220,0.0538,-0.0151,0.0051,1.5639,-1.0023,1.5957
159.3220,0.1156,0.0118,0.0381,1.6070,-1.0598,1.5910
159.4220,0.0748,0.1427,0.0917,0.8432,-0.3894,0.9349
159.5220,0.0429,-0.0303,0.1657,0.5942,-0.0207,0.3436
159.6220,-0.2385,-0.2514,0.0266,0.9174,-0.4421,-0.4441
159.7220,0.0322,-0.1566,-0.0895,1.2742,-0.4325,0.1377
159.8220,-0.0754,-0.1107,-0.1513,1.5064,-0.3248,-0.0610
159.9220,-0.3049,-0.0849,-0.1961,1.2311,-1.0933,1.3731
160.0220,0.0466,0.0742,-0.1737,1.4298,-0.5402,2.2996
160.1220,0.0210,0.1893,-0.1953,1.1401,-0.7222,0.7697
160.2220,0.1076,-0.0468,-0.1013,0.9055,-0.6049,0.4753
160.3220,-0.1253,-0.0782,0.2124,1.2742,-0.9305,0.2933
160.4220,0.0136,0.1928,0.2942,1.3891,-0.7461,0.0036
160.5220,0.0213,0.0079,0.0608,1.5854,-1.1771,0.4872
160.6220,0.1044,-0.0177,0.0125,1.5232,-1.5841,2.4193
160.7220,0.3288,0.1323,0.1753,0.7977,-0.1955,2.9652
160.8220,0.0162,-0.1448,0.2510,0.6134,-0.1284,0.2909
160.9220,-0.0483,-0.0039,0.2841,0.5631,-0.2386,0.7410
161.0220,-0.0336,0.0651,0.1450,1.0611,-0.4277,-0.5447
161.1220,-0.0669,0.0929,-0.0725,1.2000,-0.5666,0.2741
161.2220,0.0183,0.0433,-0.3174,1.3221,-0.5809,0.5926
161.3220,-0.0784,-0.0303,-0.6462,0.7570,-0.9377,1.9022
161.4220,-0.0349,0.0984,-1.0581,-0.0809,-1.0526,2.3427
161.5220,-0.0936,0.0228,-1.2915,-0.1264,-1.1747,0.9565
161.6220,0.0141,-0.0105,-1.2537,0.6014,-0.8132,0.0682
161.7220,-0.2129,-0.0561,-1.0624,0.8839,-0.8012,0.5064
161.8220,-0.2678,0.0633,-1.0549,1.1473,-1.0646,0.0658
161.9220,0.0061,-0.0260,-1.0469,1.4777,-0.5163,1.0020
162.0220,-0.0192,0.0931,-0.9622,1.2502,-0.2984,1.8232
162.1220,0.1689,0.0734,-0.7733,0.3620,0.3289,2.1560
162.2220,-0.1170,-0.0649,-0.7677,0.4625,-0.5283,1.5910
162.3220,-0.2087,-0.0465,-0.8148,0.8265,-0.5785,0.3125
162.4220,-0.3129,0.0388,-0.8836,1.3723,-0.4540,0.4417
162.5220,-0.3142,0.1150,-0.6813,1.2742,-0.2817,0.1832
162.6220,-0.2297,0.1144,-0.8196,1.5040,-0.4995,0.6620
162.7220,-0.2684,-0.0313,-0.7570,1.3340,-0.6384,0.9756
162.8220,-0.1882,0.0939,-0.7671,0.7355,-0.8922,1.0403
162.9220,-0.0627,0.1184,-0.7365,0.4913,-1.1484,0.8272
163.0220,0.1084,0.0380,-0.6091,0.5487,-1.0574,0.7075
163.1220,-0.2223,-0.1246,-0.5279,0.9198,-0.9712,0.6237
163.2220,-0.2566,-0.0465,-0.4985,1.0898,-1.2561,0.7219
163.3220,-0.0669,0.0694,-0.3541,1.0515,-0.6288,1.0594
163.4220,-0.0520,-0.1646,-0.2030,1.0970,-0.6360,1.0738
163.5220,0.6864,0.0505,-0.1767,0.9893,0.5060,2.2326
163.6220,-0.0728,-0.2770,-0.0533,0.9629,-0.7557,0.2574
163.7220,-0.1183,-0.0233,-0.0357,0.6349,-0.4660,1.6436
163.8220,-0.1165,0.2378,-0.1204,0.5631,-0.2027,0.3532
163.9220,-0.1850,0.2032,-0.2198,0.6110,-0.2290,0.6716
164.0220,-0.0608,0.0761,-0.4599,1.0132,-0.3966,0.2215
164.1220,0.0623,-0.0345,-0.5574,1.3819,-0.0662,0.8152
164.2220,-0.0970,-0.0891,-0.3619,1.3436,-0.6576,1.2127
164.3220,-0.1485,0.1070,-0.3555,0.9462,-0.7677,0.7147
164.4220,-0.0392,0.0412,-0.3416,0.6948,-0.8946,0.5375
164.5220,-0.1000,-0.0092,-0.2667,0.6613,-0.3511,1.1121
164.6220,-0.1074,0.0252,-0.2105,0.8360,-0.8323,0.9349
164.7220,-0.0166,0.0340,-0.2092,0.9294,-0.6192,0.7578
164.8220,-0.0080,-0.0558,-0.1007,0.9725,-0.5594,0.9326
164.9220,-0.0760,-0.0401,-0.0037,1.1904,-0.6264,0.8296
165.0220,0.0178,0.0055,0.0498,1.2167,-0.4493,0.8009
165.1220,0.0090,0.0049,0.1058,1.0683,-0.2577,1.3587
165.2220,0.0620,0.0289,0.1713,1.1114,-0.1596,1.1217
165.3220,0.0692,0.0113,0.1364,0.9845,-0.4971,0.9804
165.4220,0.0581,0.0220,0.1069,0.9677,-0.7366,0.7578
165.5220,-0.0365,0.0798,0.0517,1.1066,-1.3207,0.9062
165.6220,0.0128,0.1056,0.1378,1.4322,-1.2872,0.5758
165.7220,-0.0115,0.1179,0.1868,1.2526,-1.0694,0.6045
165.8220,-0.0264,0.0289,0.2244,1.1449,-1.0502,0.6572
165.9220,0.0706,-0.3202,0.3000,1.7147,-0.9209,1.0618
166.0220,0.4479,-0.0902,0.3651,0.8073,-0.1835,2.0818
166.1220,0.0402,0.0238,0.2366,0.3165,-0.5809,0.5854
166.2220,-0.0539,-0.2639,0.2156,0.5727,-0.0638,0.9756
166.3220,-0.0533,-0.0356,0.1346,1.0946,0.1517,0.8918
166.4220,-0.0467,0.0561,-0.0202,1.1808,-0.1045,0.3053
166.5220,-0.0485,-0.0164,-0.0570,1.4035,0.0176,0.6620
166.6220,0.1055,0.0542,-0.0807,1.3221,0.2163,1.7107
166.7220,0.0796,-0.0830,0.0957,1.5830,0.1517,0.6357
166.8220,0.0466,-0.1288,0.1498,1.9565,-0.1667,0.9493
166.9220,0.1081,0.0262,0.1319,1.4250,-0.4493,0.4441
167.0220,0.1601,0.1573,0.0749,0.8336,-0.0279,0.4226
167.1220,-0.0190,0.0153,0.1276,1.1473,-0.6863,0.8727
167.2220,-0.1474,0.0142,0.1175,1.3699,-0.6025,1.2725
167.3220,-0.0784,-0.0020,0.0821,1.4011,-0.9018,0.7123
167.4220,-0.0341,-0.0217,0.0869,1.7075,-0.7078,0.3436
167.5220,-0.0190,-0.1400,0.0229,1.8440,-0.7916,0.6285
167.6220,-0.0904,-0.1073,0.0445,1.9781,-1.0430,0.8871
167.7220,0.0429,-0.1033,0.1156,1.9637,-0.9640,1.2486
167.8220,0.2294,-0.1326,0.1721,1.7075,-0.5019,1.8759
167.9220,0.1188,0.1107,0.1204,1.8631,-0.6336,0.6668
168.0220,-0.1322,0.0657,0.0991,2.1600,-0.6671,1.3539
168.1220,-0.1301,0.0015,0.0618,2.5599,-0.4540,0.8152
168.2220,-0.1993,-0.0865,-0.0488,2.3228,-0.2625,1.1265
168.3220,-0.2521,-0.3143,-0.0234,1.4561,-0.4110,1.1145
168.4220,-0.0392,-0.4244,0.1114,1.6381,-0.7198,0.8966
168.5220,0.3173,-0.1587,-0.0959,1.4849,-0.5474,1.5503
168.6220,0.1993,0.1560,-0.0813,1.8416,-0.4133,1.6005
168.7220,-0.1964,0.0406,0.0674,0.8217,0.1469,1.2941
168.8220,-0.2428,-0.0545,0.3341,1.5926,-1.1508,-0.3292
168.9220,-0.1207,0.0745,0.1543,1.5471,-0.3463,0.4226
169.0220,-0.1879,0.1547,-0.0472,1.7099,-1.0287,0.2598
169.1220,-0.1898,0.0737,-0.0866,2.1217,-1.6320,0.0802
169.2220,-0.0794,0.1054,-0.0578,1.9206,-1.9265,0.9709
169.3220,-0.1636,0.3694,-0.0232,1.5447,-1.4812,0.7123
169.4220,-0.2438,0.2661,0.0141,1.1162,-1.6344,0.2334
169.5220,-0.0925,0.2567,0.1151,0.6038,-1.6081,0.2957
169.6220,-0.0816,0.0881,0.0879,0.3883,-1.7158,0.2167
169.7220,-0.0885,-0.0217,0.0600,0.3021,-1.6559,0.6333
169.8220,-0.0690,-0.0446,-0.0685,0.4577,-1.4620,0.6237
169.9220,0.0183,-0.0164,-0.1503,0.7929,-1.8834,0.5806
170.0220,0.0154,-0.0348,-0.1338,0.6613,-2.6160,0.5519
170.1220,0.0943,-0.0854,-0.1037,1.0970,-1.9456,0.5614
170.2220,-0.0547,0.0481,0.1164,0.8169,-2.3910,0.5806
170.3220,0.0583,-0.0119,0.0493,0.3787,-2.4891,-0.2550
170.4220,0.0700,-0.1630,-0.0099,0.8336,-2.4005,0.3962
170.5220,-0.0736,-0.1278,0.0141,1.4801,-2.4412,0.2598
170.6220,-0.0142,-0.0857,0.0336,1.5687,-2.2090,0.2382
170.7220,-0.0014,-0.0987,0.3315,0.4314,-1.1963,0.2406
170.8220,0.0842,-0.1795,0.2129,0.8552,-2.0438,-0.4321
170.9220,-0.1493,-0.1331,0.2739,1.3245,-2.1396,0.3627
171.0220,0.0551,0.1104,0.2334,1.0850,-1.8403,0.1616
171.1220,0.2337,0.1240,-0.0325,0.5870,-1.6990,-0.4058
171.2220,0.4090,0.2032,-0.1631,0.4745,-1.8858,-0.2406
171.3220,0.3314,0.2637,-0.0842,0.2040,-1.0670,0.6620
171.4220,0.1750,0.3228,-0.0682,0.4242,-0.8682,1.1815
171.5220,0.2704,0.3830,-0.0549,0.0603,-0.5019,1.0547
171.6220,0.3677,0.2495,-0.0773,-0.1576,-0.3655,1.6771
171.7220,0.4359,0.0958,-0.0410,-0.2054,-0.6767,2.3044
171.8220,0.3362,0.0659,-0.0085,-0.5119,0.1684,3.3172
171.9220,0.1223,0.1515,0.0003,-0.2677,0.8029,2.9604
172.0220,0.2358,0.1054,0.0416,-1.0243,0.9873,2.0171
172.1220,-0.0272,-0.1531,0.0173,-0.0450,0.7167,1.2175
172.2220,-0.1501,0.0753,0.3389,-0.7441,1.2482,0.9924
172.3220,0.0485,0.2836,0.2774,0.1992,-0.3248,0.9996
172.4220,-0.0269,-0.1563,0.2769,-1.1631,0.2475,0.4944
172.5220,0.0413,-0.0628,0.0173,-0.4712,0.8053,0.5710
172.6220,0.0149,-0.1177,0.4431,-0.4568,0.4127,-0.1784
172.7220,-0.2081,0.0585,0.0229,-0.0139,0.0104,1.1624
172.8220,-0.0858,-0.1603,-0.0285,-0.2461,-0.1069,0.8320
172.9220,-0.1711,0.0145,-0.1228,-0.1959,0.3815,1.2869
173.0220,-0.0858,-0.0353,-0.2057,-0.8016,0.4653,0.9565
173.1220,-0.0531,-0.1483,0.0520,-0.7250,0.1469,0.6524
173.2220,0.0053,-0.0111,0.0117,0.1681,-0.1835,1.3108
173.3220,0.0064,-0.0036,-0.0957,-0.0666,0.2091,0.9661
173.4220,0.0013,0.0025,-0.0005,-0.0977,-0.0399,1.0044
173.5220,0.0005,-0.0007,0.0011,-0.0905,-0.0231,1.0116
173.6220,-0.0008,0.0015,0.0000,-0.0977,-0.0327,1.0140
173.7220,0.0008,0.0007,0.0005,-0.0905,-0.0135,1.0163
173.8220,-0.0011,-0.0007,0.0000,-0.0498,-0.0422,0.9876
173.9220,0.0002,0.0012,0.0021,-0.0762,-0.0279,1.0116
174.0220,-0.0008,-0.0012,0.0003,-0.1025,-0.0279,1.0187
174.1220,-0.0016,-0.0012,0.0024,-0.0881,-0.0399,1.0163
174.2220,-0.0027,-0.0001,0.0029,-0.0857,-0.0279,1.0355
174.3220,-0.0019,-0.0015,0.0013,-0.0905,-0.0375,1.0355
174.4220,-0.0008,0.0007,0.0000,-0.0666,-0.0303,1.0259
174.5220,-0.0000,0.0004,0.0003,-0.0929,-0.0351,0.9900
174.6220,-0.0008,0.0004,-0.0016,-0.0642,-0.0518,1.0163
174.7220,0.0002,0.0012,-0.0019,-0.0857,-0.0566,0.9972
174.8220,-0.0003,0.0004,-0.0013,-0.0833,-0.0470,1.0187
174.9220,-0.0000,0.0015,-0.0032,-0.1025,-0.0494,1.0116
175.0220,0.0008,0.0020,-0.0064,-0.0929,-0.0231,1.0211
175.1220,-0.0011,0.0007,0.0104,-0.1839,0.0655,1.1001
175.2220,0.0024,-0.0023,0.0005,-0.2581,0.0751,1.0355
175.3220,0.0013,0.0009,-0.0011,-0.0762,-0.0351,1.0068
175.4220,0.0008,0.0007,0.0005,-0.1216,-0.0087,1.0403
175.5220,-0.0003,0.0001,0.0016,-0.0211,-0.0877,0.9852
175.6220,0.0008,0.0009,0.0027,-0.1073,0.0008,1.0044
175.7220,0.0008,0.0009,0.0045,-0.0355,-0.0446,0.9709
175.8220,-0.0016,-0.0001,0.0080,-0.1193,0.0416,1.0163
175.9220,-0.0008,0.0009,-0.0021,-0.0546,-0.0255,1.0331
176.0220,0.0008,0.0001,0.0003,-0.0905,0.0032,1.0283
176.1220,0.0008,0.0004,-0.0003,-0.0953,-0.0159,1.0020
176.2220,-0.0008,0.0020,0.0000,-0.0738,-0.0015,1.0211
176.3220,-0.0003,0.0001,-0.0008,-0.0857,-0.0279,1.0331
176.4220,0.0005,0.0012,-0.0003,-0.0905,-0.0303,1.0068
176.5220,-0.0000,0.0015,0.0005,-0.1025,-0.0279,1.0116
176.6220,0.0056,0.0071,0.0003,-0.1360,-0.1165,1.7155
176.7220,-0.0003,0.0007,0.0005,-0.0953,-0.0063,1.0116
176.8220,0.0002,0.0007,0.0003,-0.1001,-0.0351,0.9900
176.9220,0.0002,0.0009,0.0000,-0.0809,-0.0375,1.0116
177.0220,-0.0003,0.0017,-0.0003,-0.1097,-0.0183,1.0068
177.1220,-0.0003,0.0007,0.0000,-0.0762,-0.0303,1.0499
177.2220,-0.0000,-0.0001,0.0000,-0.1025,-0.0279,0.9948
177.3220,-0.0006,0.0009,0.0000,-0.0833,-0.0063,1.0116
177.4220,0.0002,0.0004,0.0008,-0.0953,-0.0399,1.0283
177.5220,-0.0006,0.0004,-0.0005,-0.0905,-0.0422,1.0020
177.6220,-0.0006,0.0004,-0.0005,-0.1049,-0.0231,1.0427
177.7220,0.0002,0.0009,-0.0003,-0.0690,-0.0375,1.0235
177.8220,-0.0006,0.0004,0.0003,-0.0474,-0.0399,1.0044
177.9220,-0.0000,0.0001,0.0005,-0.1169,-0.0327,1.0187
178.0220,-0.0006,0.0009,-0.0003,-0.0977,-0.0159,1.0283
178.1220,-0.0003,0.0004,0.0011,-0.0738,-0.0494,1.0187
178.2220,0.0005,0.0004,0.0005,-0.0618,-0.0303,1.0379
178.3220,-0.0006,-0.0095,0.0000,-0.0905,0.0416,0.6381
178.4220,0.0005,0.0009,-0.0003,-0.0905,-0.0399,1.0403
178.5220,0.0008,0.0001,0.0003,-0.0953,-0.0231,0.9900
178.6220,0.0029,-0.0036,-0.0008,-0.0594,-0.0638,1.2773
178.7220,-0.0000,0.0009,0.0000,-0.0977,-0.0279,1.0379
178.8220,-0.0003,0.0009,0.0000,-0.0857,-0.0303,1.0235
178.9220,-0.0014,0.0012,-0.0005,-0.0762,-0.0255,1.0020
179.0220,-0.0008,0.0004,0.0003,-0.1025,-0.0159,0.9996
179.1220,-0.0006,0.0012,-0.0003,-0.0881,-0.0183,1.0475
179.2220,0.0002,0.0004,0.0000,-0.0881,-0.0303,1.0116
179.3220,0.0008,0.0004,0.0003,-0.0857,-0.0183,0.9948
179.4220,-0.0046,0.0023,-0.0016,-0.0594,-0.0973,0.9134
179.5220,-0.0000,0.0001,0.0000,-0.0786,-0.0518,1.0211
179.6220,-0.0003,0.0004,0.0000,-0.0714,-0.0255,1.0068
