time,accel x,accel y,accel z,gyro x,gyro y,gyro z
38.000525,0.031113282,-0.049332641,0.940433502,11.044822693,-1.210868835,-24.096168518
38.001150,0.029770508,-0.049698852,0.943729401,11.166893005,-1.088798523,-24.378456116
38.002888,0.027939454,-0.055069946,0.940067291,11.372886658,-0.814140320,-24.241127014
38.003513,0.027695313,-0.055924438,0.940067291,11.723838806,-0.852287292,-24.126686096
38.017455,-0.001357422,-0.054581665,0.921878815,5.956016541,-1.004875183,-22.127784729
38.018199,0.001938477,-0.055924438,0.921512604,5.414329529,-1.348197937,-21.959938049
38.018826,0.003403320,-0.052872680,0.921024323,4.605613708,-1.111686707,-21.921791077
38.019452,0.005722656,-0.052750610,0.924076080,4.155479431,-1.401603699,-21.616615295
38.020078,0.004624024,-0.052262329,0.919437408,3.575645447,-1.332939148,-21.372474670
38.020704,0.004501953,-0.052872680,0.920413971,2.721153259,-1.226127625,-21.196998596
38.021331,0.007065430,-0.052750610,0.923709869,2.194725037,-1.401603699,-21.326698303
38.021956,0.008408204,-0.051774047,0.919681549,1.668296814,-1.477897644,-21.059669495
38.022581,0.009750977,-0.051407836,0.919559479,0.706993103,-1.462638855,-21.067298889
38.023206,0.009262696,-0.053605102,0.920780182,0.027976990,-1.798332214,-20.830787659
38.023831,0.012558594,-0.051896118,0.918582916,-0.895179749,-1.462638855,-20.640052795
38.024457,0.013779297,-0.052506469,0.921024323,-1.223243713,-1.310050964,-20.289100647
38.025083,0.012070313,-0.052628540,0.918460846,-2.199806213,-1.683891296,-20.098365784
38.025709,0.011948243,-0.049698852,0.919559479,-3.206886292,-1.554191589,-20.090736389
38.027468,0.014511719,-0.051163696,0.918949127,-4.580177307,-1.691520691,-19.709266663
38.028093,0.014755860,-0.053727172,0.920413971,-5.045570374,-1.828849792,-19.457496643
38.028719,0.015976563,-0.052872680,0.919193268,-6.083168030,-1.889884949,-19.327796936
38.029344,0.012924805,-0.054947875,0.921024323,-6.701148987,-1.912773132,-19.274391174
38.029969,0.018906251,-0.058121704,0.923709869,-7.464088440,-2.050102234,-19.266761780
38.030595,0.019394532,-0.060563110,0.923587799,-8.165992737,-2.179801941,-19.083656311
38.031220,0.019516602,-0.061295532,0.927982330,-8.928932190,-1.935661316,-18.786109924
38.031845,0.024155274,-0.061661743,0.923954010,-9.432472229,-2.202690125,-18.686927795
38.032472,0.021591797,-0.066178344,0.924198151,-10.294593811,-2.317131042,-18.442787170
38.033098,0.024765626,-0.070328735,0.927127838,-10.683692932,-2.202690125,-18.343605042
38.033725,0.025864258,-0.074967407,0.928714752,-11.385597229,-2.095878601,-18.053688049
38.034352,0.025864258,-0.075943969,0.928348541,-11.774696350,-2.332389832,-17.901100159
38.034978,0.026718751,-0.077530883,0.930912018,-12.201942444,-2.111137390,-17.763771057
38.035603,0.031113282,-0.081681274,0.934696198,-12.743629456,-1.989067078,-17.763771057
38.036230,0.025253907,-0.084855102,0.933719635,-13.010658264,-2.042472839,-17.336524963
38.037968,0.026962891,-0.096329711,0.936405182,-14.032997131,-1.943290710,-16.855873108
38.038594,0.025864258,-0.099747680,0.936893463,-14.277137756,-1.844108582,-16.726173401
38.039221,0.026718751,-0.099747680,0.937381744,-14.475502014,-1.905143738,-16.642250061
38.039847,0.025620118,-0.102799438,0.937259674,-14.437355042,-1.973808289,-16.268409729
38.040472,0.022446290,-0.106095336,0.936893463,-14.483131409,-1.722038269,-16.146339417
38.041097,0.022080079,-0.111344360,0.938114166,-14.544166565,-1.683891296,-15.833534241
38.041724,0.022690430,-0.111222290,0.935794830,-14.574684143,-2.004325867,-15.627540588
38.042351,0.018051758,-0.117814086,0.937259674,-14.605201721,-1.813591003,-15.444435120
38.042976,0.018906251,-0.118912719,0.934207916,-14.277137756,-1.645744324,-15.291847229
38.043603,0.020371094,-0.122818969,0.936161041,-14.101661682,-1.912773132,-15.223182678
38.044228,0.017807618,-0.121842407,0.933963776,-13.689674377,-1.836479187,-15.024818420
38.044853,0.015488282,-0.123307250,0.931766510,-13.514198303,-1.866996765,-14.879859924
38.045479,0.014145508,-0.130875617,0.932010651,-13.209022522,-1.775444031,-14.574684143
38.046104,0.017563477,-0.129288703,0.933841705,-13.018287659,-2.088249207,-14.414466858
38.046731,0.014145508,-0.127823859,0.931644440,-12.415565491,-1.912773132,-14.307655334
38.048470,0.016098633,-0.127213508,0.934574127,-11.194862366,-2.004325867,-13.506568909
38.049097,0.016098633,-0.130753547,0.930667877,-10.805763245,-2.210319519,-13.476051331
38.049724,0.016342774,-0.127213508,0.932498932,-10.500587463,-2.256095886,-13.483680725
38.063658,0.044174805,-0.076798461,0.923587799,-6.952919006,-4.049003601,-9.409584045
38.064411,0.041367188,-0.076798461,0.926761627,-7.105506897,-4.178703308,-9.348548889
38.065037,0.048813477,-0.070572875,0.923709869,-7.120765686,-4.094779968,-9.157814026
38.065663,0.046127930,-0.070939086,0.926151276,-7.189430237,-4.361808777,-9.028114319
38.066289,0.048691407,-0.069474243,0.930301666,-7.258094788,-4.110038757,-8.951820374
38.066916,0.051865235,-0.066666625,0.929691315,-7.189430237,-4.384696960,-8.715309143
38.067541,0.052597657,-0.065567993,0.929080963,-7.570899963,-4.125297546,-8.547462463
38.068167,0.053330079,-0.063736938,0.932010651,-7.204689026,-4.491508484,-8.440650940
38.068792,0.053330079,-0.062150024,0.931156158,-7.555641174,-4.598320007,-8.341468811
38.069417,0.053574219,-0.061905883,0.929813385,-7.265724182,-4.415214539,-8.051551819
38.070043,0.053940430,-0.058365844,0.929813385,-7.586158752,-4.399955750,-7.792152405
38.070669,0.054550782,-0.057633422,0.935184479,-7.342018127,-4.628837585,-7.815040588
38.071295,0.056259766,-0.055558227,0.929325104,-7.410682678,-4.430473328,-7.723487854
38.071920,0.058579102,-0.054093383,0.931400299,-7.288612366,-4.705131531,-7.570899963
38.073654,0.057968751,-0.052384399,0.932132721,-7.235206604,-4.834831238,-6.983436584
38.074279,0.060288087,-0.050309204,0.929935455,-6.807960510,-4.605949402,-6.945289612
38.074906,0.058823243,-0.046280883,0.930179596,-6.769813538,-4.613578796,-7.090248108
38.075531,0.060288087,-0.042618774,0.929080963,-6.663002014,-4.888237000,-6.724037170
38.076156,0.061630860,-0.039689086,0.931156158,-6.670631409,-4.537284851,-6.792701721
38.076782,0.059677735,-0.039200805,0.932010651,-6.510414124,-5.078971863,-6.594337463
38.077408,0.060532227,-0.036271118,0.931278229,-6.464637756,-4.972160339,-6.754554749
38.078035,0.061875001,-0.035050415,0.933841705,-6.411231995,-5.361259460,-6.403602600
38.078660,0.058945313,-0.032975219,0.931766510,-6.281532288,-5.147636414,-6.586708069
38.079287,0.063950196,-0.029801391,0.931400299,-6.273902893,-5.117118835,-6.373085022
38.079913,0.061264649,-0.025528930,0.935306549,-6.273902893,-5.201042175,-6.380714417
38.080540,0.060898438,-0.023819946,0.936161041,-6.174720764,-5.483329773,-6.334938049
38.081167,0.062485352,-0.020768188,0.936038971,-6.380714417,-5.445182800,-6.182350159
38.081792,0.062973633,-0.017106079,0.937870026,-6.418861389,-5.368888855,-6.228126526
38.083668,0.066635743,-0.011857056,0.935672760,-6.388343811,-5.735099792,-6.022132874
38.084295,0.067856446,-0.007828736,0.938846588,-6.128944397,-5.895317078,-5.953468323
38.084929,0.066635743,-0.007584595,0.938602448,-6.502784729,-6.055534363,-5.816139221
38.085555,0.065292969,-0.004044556,0.941287994,-6.457008362,-6.360710144,-5.961097717
38.086182,0.066025391,-0.001603150,0.939945221,-6.525672913,-6.314933777,-5.762733459
38.086808,0.067001954,-0.000992798,0.945926666,-6.655372620,-6.581962585,-5.739845276
38.087434,0.066391602,0.001326538,0.943729401,-6.586708069,-6.505668640,-5.762733459
38.088059,0.068100587,0.006087280,0.943119049,-6.571449280,-6.719291687,-5.739845276
38.088685,0.069809571,0.005476928,0.944950104,-6.518043518,-6.429374695,-5.739845276
38.089311,0.070541993,0.009261108,0.944705963,-6.708778381,-6.986320496,-5.617774963
38.089937,0.076157227,0.012068725,0.947635651,-6.487525940,-6.940544128,-5.800880432
38.090564,0.076035157,0.014265991,0.946659088,-6.449378967,-6.993949890,-5.755104065
38.091189,0.075424805,0.012312866,0.949588776,-6.601966858,-7.199943542,-5.625404358
38.091814,0.076157227,0.015242553,0.952030182,-6.563819885,-7.016838074,-5.663551331
38.092440,0.076035157,0.018538453,0.954593658,-6.632484436,-7.047355652,-5.808509827
38.094171,0.083603516,0.026595093,0.957401276,-6.373085022,-7.268608093,-5.625404358
38.094796,0.082382813,0.027571656,0.961185455,-6.174720764,-7.589042664,-5.739845276
38.095421,0.081650391,0.030745484,0.963016510,-6.251014709,-7.322013855,-5.877174377
38.096047,0.084458008,0.031966187,0.964237213,-6.243385315,-7.436454773,-5.732215881
38.096674,0.087509766,0.036238648,0.962284088,-6.113685608,-7.398307800,-5.991615295
38.110550,0.111191407,0.090437867,0.981082916,-5.831398010,-7.634819031,-7.830299377
38.111258,0.109238282,0.093367554,0.980472565,-6.006874084,-7.688224792,-7.959999084
38.111884,0.108994141,0.097640015,0.984134674,-6.006874084,-7.779777527,-8.272804260
38.112509,0.110336915,0.100813843,0.982791901,-6.098426819,-7.657707214,-8.127845764
38.113135,0.113999024,0.100081421,0.980960846,-6.014503479,-7.718742371,-8.173622131
38.113761,0.112290040,0.101790406,0.980106354,-6.159461975,-8.031547546,-8.669532776
38.114387,0.116318360,0.104231812,0.981693268,-6.510414124,-7.741630554,-8.791603088
38.115014,0.119858399,0.107771851,0.980838776,-6.273902893,-8.100212097,-8.753456116
38.115641,0.115952149,0.108992554,0.982425690,-6.563819885,-8.062065125,-8.944190979
38.116266,0.116440430,0.109969117,0.982303619,-6.647743225,-8.084953308,-9.203590393
38.116892,0.119492188,0.113020875,0.984256744,-6.624855042,-7.726371765,-9.409584045
38.117518,0.120102540,0.112654664,0.984134674,-6.708778381,-8.191764832,-9.722389221
38.118145,0.117172852,0.118025757,0.985843658,-6.876625061,-8.222282410,-9.897865295
38.118770,0.121079102,0.114729859,0.985599518,-7.013954163,-7.955253601,-10.096229553
38.120512,0.124619141,0.118636109,0.984989166,-7.044471741,-8.351982117,-10.561622620
38.121138,0.124985352,0.119246460,0.987308502,-7.372535706,-8.596122742,-10.943092346
38.121764,0.124130860,0.120833375,0.989627838,-7.486976624,-8.443534851,-11.149085999
38.122389,0.126816407,0.120833375,0.991458893,-7.479347229,-8.466423035,-11.355079651
38.123014,0.127548829,0.122176148,0.989383698,-7.296241760,-9.076774597,-11.530555725
38.123641,0.126572266,0.122298218,0.992069244,-7.555641174,-8.809745789,-11.644996643
38.124267,0.125229493,0.118880250,0.992679596,-7.631935120,-8.863151550,-11.912025452
38.124894,0.127182618,0.118269898,0.993656158,-7.563270569,-8.809745789,-12.156166077
38.125521,0.125351563,0.119612671,0.996219635,-7.441200256,-8.931816101,-12.491859436
38.126146,0.125961915,0.116072632,0.998416901,-7.479347229,-9.191215515,-12.926734924
38.126772,0.126450196,0.114485718,0.997074127,-7.578529358,-9.038627625,-13.010658264
38.127397,0.129257813,0.112898804,0.999637604,-7.647193909,-9.061515808,-12.987770081
38.128023,0.127548829,0.110091187,0.996829987,-7.280982971,-8.931816101,-13.361610413
38.128649,0.129379883,0.116682984,1.000736237,-7.113136292,-9.145439148,-13.552345276
38.129275,0.129379883,0.116682984,1.000736237,-7.113136292,-9.145439148,-13.552345276
38.130985,0.124130860,0.115950562,1.001590729,-6.739295959,-9.130180359,-14.269508362
38.131611,0.126083985,0.115340210,1.000247955,-6.930030823,-9.015739441,-14.757789612
38.132238,0.126694337,0.114485718,0.999515533,-6.891883850,-9.122550964,-14.887489319
38.132863,0.125229493,0.115218140,1.003055573,-6.693519592,-9.160697937,-15.177406311
38.133489,0.123886719,0.114485718,1.003299713,-6.495155334,-9.282768250,-15.368141174
38.134115,0.123276368,0.115340210,1.003177643,-6.594337463,-9.168327332,-15.803016663
38.134741,0.120224610,0.112410523,1.003665924,-6.220497131,-9.435356140,-16.199745178
38.135367,0.122421876,0.109236695,1.004398346,-6.258644104,-9.420097351,-16.283668518
38.135993,0.124985352,0.112776734,1.003421783,-6.113685608,-9.389579773,-16.550697327
38.136619,0.125229493,0.112776734,1.004154205,-6.098426819,-9.427726746,-16.451515198
38.137244,0.123032227,0.112044312,1.000858307,-5.884803772,-9.313285828,-16.810096741
38.137870,0.124985352,0.112044312,1.006473541,-5.762733459,-9.648979187,-17.267860413
38.138496,0.122299805,0.112288453,1.004520416,-5.922950745,-9.687126160,-17.351783752
38.139122,0.121811524,0.111678101,1.008914948,-5.671180725,-9.610832214,-17.702735901
38.139747,0.122666016,0.109969117,1.010379791,-5.900062561,-9.320915222,-17.908729553
38.141461,0.120834962,0.111433960,1.010623932,-5.861915588,-9.511650085,-18.580116272
38.142087,0.119614258,0.107771851,1.013065338,-5.816139221,-9.381950378,-18.816627502
38.142712,0.120957032,0.109724976,1.017704010,-5.854286194,-9.290397644,-19.251502991
38.143337,0.119980469,0.104964234,1.015506744,-6.060279846,-9.328544617,-19.175209045
38.157231,0.071030274,0.053938843,1.020999908,-8.791603088,-6.971061707,-21.906532288
38.157975,0.070541993,0.049300171,1.018192291,-8.852638245,-7.131278992,-22.104896545
38.158601,0.067856446,0.045149781,1.015750885,-8.768714905,-7.032096863,-22.082008362
38.159227,0.064804688,0.044173218,1.016483307,-8.822120667,-6.871879578,-21.959938049
38.159853,0.063339844,0.039778687,1.016605377,-8.738197327,-6.902397156,-22.082008362
38.160479,0.061508790,0.035384156,1.016727448,-8.814491272,-6.742179871,-22.280372620
38.161106,0.061508790,0.037947632,1.013797760,-8.822120667,-6.642997742,-22.120155334
38.161732,0.058579102,0.031844117,1.017826080,-8.783973694,-6.475151062,-22.440589905
38.162358,0.055771485,0.030013062,1.015384674,-8.562721252,-6.444633484,-22.349037170
38.162984,0.057114258,0.030501343,1.014530182,-8.516944885,-6.498039246,-22.135414124
38.163610,0.055039063,0.027937867,1.014896393,-8.265174866,-6.475151062,-22.242225647
38.164237,0.052231446,0.027937867,1.019901276,-8.333839417,-6.231010437,-22.242225647
38.164862,0.052109376,0.024641968,1.016117096,-8.234657288,-6.398857117,-22.425331116
38.165487,0.046982422,0.025496460,1.016117096,-8.104957581,-5.910575867,-22.387184143
38.167240,0.041733399,0.018172242,1.016971588,-7.670082092,-5.941093445,-22.387184143
38.167867,0.042954102,0.015242553,1.018070221,-7.670082092,-5.948722839,-22.272743225
38.168494,0.042954102,0.014021850,1.017093658,-7.563270569,-5.994499207,-22.303260803
38.169119,0.040878907,0.013045288,1.017948151,-7.280982971,-5.613029480,-22.493995667
38.169745,0.039414063,0.010970092,1.014774323,-7.296241760,-5.803764343,-22.120155334
38.170371,0.041123047,0.008894897,1.016361237,-7.158912659,-5.635917664,-22.471107483
38.170997,0.042709962,0.009505249,1.016605377,-6.998695374,-5.651176453,-22.486366272
38.171623,0.039658204,0.007430053,1.018314362,-6.815589905,-5.513847351,-22.371925354
38.172250,0.039414063,0.005354858,1.016971588,-6.731666565,-5.391777039,-22.425331116
38.172876,0.042709962,0.005965210,1.014163971,-6.464637756,-5.330741882,-22.204078674
38.173501,0.042587891,0.004378296,1.016361237,-6.189979553,-5.277336121,-22.082008362
38.174127,0.039902344,0.006331421,1.014652252,-6.045021057,-5.193412781,-22.448219299
38.174753,0.039047852,0.003523803,1.012699127,-5.808509827,-5.040824890,-22.425331116
38.175378,0.042343751,0.003890014,1.013309479,-5.663551331,-5.033195496,-22.234596252
38.176004,0.044418946,0.004134155,1.016239166,-5.571998596,-5.262077332,-22.204078674
38.177752,0.042832032,0.003279663,1.011112213,-5.053199768,-5.033195496,-22.104896545
38.178377,0.042709962,0.006209350,1.014530182,-4.999794006,-4.636466980,-22.020973206
38.179003,0.042221680,0.004256225,1.014163971,-4.931129456,-4.682243347,-22.188819885
38.179629,0.044418946,0.004256225,1.014408112,-4.938758850,-4.964530945,-21.975196838
38.180255,0.046372071,0.004134155,1.015018463,-4.778541565,-4.888237000,-21.914161682
38.180880,0.044785157,0.004012085,1.013675690,-4.480995178,-4.651725769,-21.975196838
38.181507,0.044541016,0.007307983,1.014286041,-4.694618225,-4.781425476,-21.937049866
38.182132,0.045151368,0.002669311,1.015995026,-4.526771545,-4.644096375,-21.921791077
38.182759,0.047470704,0.004012085,1.016239166,-4.267372131,-4.796684265,-21.700538635
38.183385,0.047592774,0.003401733,1.014652252,-4.084266663,-4.773796082,-21.715797424
38.184014,0.047714844,0.003157592,1.016971588,-4.343666077,-4.613578796,-21.883644104
38.184640,0.050888672,0.002058960,1.020145416,-3.801979065,-4.422843933,-21.837867737
38.185285,0.051132813,0.005354858,1.020023346,-3.840126038,-4.384696960,-21.845497131
38.185910,0.052109376,0.003401733,1.018680573,-3.824867249,-4.453361511,-21.731056213
38.186535,0.054794922,0.003035522,1.020999908,-3.466285706,-4.277885437,-21.670021057
38.188316,0.062485352,0.002791381,1.024173737,-3.214515686,-4.232109070,-21.654762268
38.188941,0.061508790,0.003279663,1.023929596,-3.237403870,-4.049003601,-21.586097717
38.189566,0.061020508,-0.000870728,1.025638580,-2.855934143,-3.743827820,-21.708168030
38.203442,0.087753907,0.020979859,1.033573151,2.316795349,-0.364006042,-21.837867737
38.204166,0.086899415,0.019515015,1.033451080,2.629600525,0.017463684,-22.036231995
38.204791,0.088974610,0.024275757,1.038089752,2.896629333,-0.035942078,-21.952308655
38.205418,0.090683594,0.028304078,1.034671783,2.965293884,0.398933411,-21.906532288
38.206043,0.090317383,0.030257203,1.036502838,3.094993591,0.620185852,-22.303260803
38.206669,0.092636719,0.028059937,1.034549713,3.445945740,0.604927063,-22.165931702
38.207296,0.092514649,0.031966187,1.034915924,3.384910583,0.719367981,-22.036231995
38.207923,0.091904297,0.034773804,1.032840729,3.697715759,1.131355286,-22.020973206
38.208550,0.091904297,0.035872437,1.036136627,3.590904236,1.100837708,-22.226966858
38.209175,0.096298829,0.038069703,1.037479401,3.758750916,1.283943176,-22.188819885
38.209801,0.094956055,0.036482789,1.033206940,3.972373962,1.718818665,-22.616065979
38.210427,0.094833985,0.038191773,1.033573151,4.010520935,1.535713196,-22.455848694
38.211054,0.094101563,0.043196656,1.033084869,3.949485779,2.085029602,-22.631324768
38.211679,0.091904297,0.046980835,1.030033112,3.842674255,2.191841125,-22.608436584
38.213427,0.096665040,0.048201539,1.032840729,4.056297302,2.634346008,-22.814430237
38.214053,0.095932618,0.049544312,1.029422760,4.002891541,2.672492981,-22.883094788
38.214678,0.095566407,0.053450562,1.029300690,3.926597595,2.474128723,-22.951759338
38.215305,0.097275391,0.055037476,1.027469635,3.728233337,2.809822083,-22.974647522
38.215930,0.095810547,0.055891968,1.028324127,3.728233337,2.878486633,-23.195899963
38.216556,0.094589844,0.055281617,1.024662018,3.850303650,3.122627258,-23.302711487
38.217182,0.094345704,0.056624390,1.025150299,3.484092712,3.298103333,-23.287452698
38.217808,0.093613282,0.056258179,1.026126862,3.606163025,3.069221497,-23.432411194
38.218433,0.093857422,0.057967164,1.021488190,3.552757263,3.290473938,-23.356117249
38.219060,0.093979493,0.062605835,1.025516510,3.239952087,3.359138489,-23.531593323
38.219686,0.093002930,0.063704468,1.020877838,3.300987244,3.511726379,-23.768104553
38.220312,0.090683594,0.064436890,1.023685455,3.056846619,3.794013977,-23.752845764
38.220938,0.092758790,0.066145875,1.021488190,2.782188416,3.717720032,-23.798622131
38.221564,0.091660157,0.067366578,1.020389557,2.629600525,3.542243958,-23.897804260
38.222190,0.088730469,0.068831421,1.019168854,2.538047791,3.877937317,-24.157203674
38.223935,0.089829102,0.072615601,1.016727448,2.065025330,4.076301575,-24.294532776
38.243082,0.083847657,0.081770875,0.983768463,-8.730567932,4.488288879,-28.048194885
38.243709,0.084824219,0.080428101,0.981815338,-9.051002502,4.656135559,-28.086341858
38.244334,0.085068360,0.080061890,0.981082916,-9.325660706,4.419624329,-28.223670959
38.244960,0.087387696,0.076033570,0.982791901,-9.508766174,4.534065247,-28.498329163
38.245585,0.088486329,0.075179078,0.981815338,-9.600318909,4.389106750,-28.727210999
38.246210,0.086411133,0.075057007,0.978153229,-9.836830139,4.251777649,-28.727210999
38.246836,0.083725587,0.073470093,0.973636627,-9.791053772,4.289924622,-28.689064026
38.247462,0.081528321,0.070906617,0.975833893,-9.775794983,4.076301575,-28.940834045
38.248089,0.078232422,0.070540406,0.975711823,-10.027565002,4.053413391,-29.154457092
38.248714,0.077866212,0.066878296,0.974857330,-9.928382874,3.992378235,-29.528297424
38.249341,0.080307618,0.067732789,0.972293854,-10.073341370,3.740608215,-29.467262268
38.249966,0.080795899,0.065535523,0.972904205,-10.103858948,3.870307922,-29.627479553
38.250591,0.080307618,0.063826539,0.970096588,-9.989418030,3.519355774,-29.825843811
38.251218,0.081040040,0.060530640,0.973758698,-10.080970764,3.496467590,-29.932655334
38.251844,0.082138672,0.055891968,0.965579987,-9.897865295,3.244697571,-30.161537170
38.253586,0.081528321,0.053816773,0.967044830,-9.554542542,3.206550598,-30.680335999
38.254211,0.080795899,0.053084351,0.964603424,-9.531654358,2.954780579,-30.649818420
38.254837,0.080307618,0.054182984,0.964725494,-9.089149475,2.634346008,-30.810035706
38.255463,0.082504883,0.053450562,0.966312408,-9.112037659,2.657234192,-30.954994202
38.269448,0.085922852,0.018538453,0.959842682,-4.877723694,1.238166809,-34.456886292
38.270223,0.083969727,0.020125367,0.958011627,-4.954017639,1.406013489,-34.708656311
38.270848,0.082138672,0.015120483,0.963382721,-4.702247620,1.398384094,-34.853614807
38.271473,0.082749024,0.015242553,0.959476471,-4.778541565,1.306831360,-34.746803284
38.272099,0.078476563,0.015852906,0.957889557,-4.580177307,1.375495911,-34.922279358
38.272725,0.078476563,0.014632202,0.956302643,-4.381813049,1.230537415,-34.815467834
38.273351,0.078476563,0.014021850,0.952396393,-4.648841858,1.146614075,-34.998573303
38.273976,0.076889649,0.008040405,0.953739166,-4.435218811,1.344978333,-35.143531799
38.274602,0.074936524,0.006575561,0.953983307,-4.297889709,1.215278625,-35.067237854
38.275229,0.072983399,0.004744506,0.951786041,-4.374183655,1.032173157,-35.235084534
38.275856,0.071396485,0.004012085,0.951541901,-4.236854553,1.230537415,-35.303749084
38.276483,0.070541993,0.000960327,0.950687408,-4.183448792,0.749885559,-35.479225159
38.277108,0.067856446,-0.003190064,0.948856354,-4.297889709,0.925361633,-35.280860901
38.277734,0.070541993,-0.005997681,0.948368073,-4.213966370,0.864326477,-35.547889709
38.279472,0.067734376,-0.009781861,0.948612213,-3.969825745,0.612556458,-35.784400940
38.280099,0.063339844,-0.014176392,0.944950104,-3.779090881,0.376045227,-35.509742737
38.280724,0.061630860,-0.015519165,0.946537018,-3.580726624,0.185310364,-35.631813049
38.281349,0.063217774,-0.017106079,0.944461823,-3.672279358,0.276863098,-35.799659729
38.281976,0.061508790,-0.018326782,0.944217682,-3.435768127,0.086128235,-35.898841858
38.282603,0.059677735,-0.022477172,0.943607330,-3.290809631,-0.104606628,-36.112464905
38.283230,0.058579102,-0.021256469,0.940799713,-2.871192932,0.009834290,-35.860694885
38.283857,0.056625977,-0.023942016,0.941287994,-3.183998108,-0.226676941,-35.998023987
38.284482,0.056625977,-0.023942016,0.941287994,-3.183998108,-0.226676941,-35.998023987
38.285108,0.052231446,-0.032120727,0.939579010,-2.581275940,-0.348747253,-36.257423401
38.285733,0.052231446,-0.032120727,0.939579010,-2.581275940,-0.348747253,-36.257423401
38.286359,0.052597657,-0.038224243,0.944339752,-2.390541077,-0.707328796,-36.127723694
38.286986,0.050034180,-0.033097290,0.937625885,-2.268470764,-0.638664246,-36.089576721
38.287629,0.046738282,-0.039689086,0.942630768,-1.894630432,-0.844657898,-35.998023987
38.288254,0.043564454,-0.044205688,0.940433502,-1.436866760,-1.081169128,-36.226905823
38.289990,0.043442383,-0.046158813,0.940067291,-1.345314026,-1.012504578,-36.089576721
38.290617,0.040024415,-0.046525024,0.931400299,-1.047767639,-1.256645203,-36.158241272
38.291242,0.038925782,-0.046769165,0.937259674,-0.918067932,-1.577079773,-36.211647034
38.291867,0.035996094,-0.048478149,0.934940338,-0.696815491,-1.676261902,-36.051429749
38.292493,0.031845704,-0.044449829,0.936527252,-0.734962463,-1.508415222,-36.066688538
38.293118,0.031479493,-0.049332641,0.935062408,-0.612892151,-1.859367371,-36.249794006
38.293745,0.028549805,-0.051774047,0.931278229,-0.612892151,-1.836479187,-36.059059143
38.294371,0.023911133,-0.051529907,0.933841705,-0.406898499,-2.156913757,-36.249794006
38.294996,0.024887696,-0.053483032,0.932498932,-0.071205139,-2.202690125,-36.150611877
38.295622,0.024155274,-0.056534790,0.930667877,-0.040687561,-2.454460144,-35.853065491
38.296248,0.021591797,-0.054215454,0.930789948,-0.063575745,-2.469718933,-35.936988831
38.296875,0.019638672,-0.055314086,0.932254791,0.066123962,-2.851188660,-36.104835510
38.297501,0.019760743,-0.053116821,0.932254791,0.119529724,-2.912223816,-35.860694885
38.298127,0.017319337,-0.057633422,0.935916901,0.134788513,-3.102958679,-36.127723694
38.298754,0.016953126,-0.058854125,0.933475494,0.333152771,-3.080070496,-35.738624573
38.300515,0.018540040,-0.058976196,0.935550690,0.340782166,-3.568351746,-36.013282776
38.301141,0.017563477,-0.061173461,0.938846588,0.134788513,-3.598869324,-35.662330627
38.301768,0.014023438,-0.060563110,0.936283112,0.470481873,-3.843009949,-35.525001526
38.302393,0.014877930,-0.063126586,0.939823151,0.409446716,-4.010856628,-35.563148499
38.316248,0.008530274,-0.067643188,0.953739166,-2.085365295,-5.147636414,-33.411659241
38.316969,0.010971680,-0.068497680,0.957157135,-1.887001038,-5.346000671,-33.358253479
38.317595,0.011459962,-0.068863891,0.955814362,-2.085365295,-5.368888855,-33.144630432
38.318222,0.010239258,-0.069474243,0.956668854,-2.077735901,-5.490959167,-33.030189514
38.318848,0.014023438,-0.071793579,0.958011627,-2.291358948,-5.277336121,-32.992042542
38.319474,0.010971680,-0.070206665,0.957889557,-2.253211975,-5.078971863,-32.969154358
38.320099,0.013901368,-0.072037719,0.958988190,-2.283729553,-5.315483093,-32.755531311
38.320725,0.013901368,-0.072159790,0.959232330,-2.413429260,-5.017936707,-32.641090393
38.321352,0.015610352,-0.072770141,0.961185455,-2.298988342,-5.468070984,-32.740272522
38.321978,0.014145508,-0.069840454,0.960208893,-2.276100159,-4.918754578,-32.404579163
38.322605,0.012802735,-0.073258422,0.959476471,-2.352394104,-5.201042175,-32.442726135
38.323231,0.010483399,-0.065812133,0.964115143,-2.344764709,-5.185783386,-32.236732483
38.323856,0.014267579,-0.068253540,0.964725494,-2.398170471,-5.132377625,-32.038368225
38.324481,0.016464844,-0.069352172,0.962284088,-2.527870178,-5.231559753,-32.053627014
38.326229,0.021591797,-0.068253540,0.966068268,-2.535499573,-5.422294617,-31.740821838
38.326854,0.019516602,-0.073258422,0.965457916,-2.573646545,-5.544364929,-31.740821838
38.327481,0.025131837,-0.071427368,0.961917877,-2.382911682,-5.414665222,-31.450904846
38.328107,0.028427735,-0.071549438,0.969364166,-2.237953186,-5.468070984,-31.382240295
38.328733,0.028061524,-0.072648071,0.967777252,-2.298988342,-5.399406433,-31.267799377
38.329359,0.030136719,-0.067887329,0.967777252,-2.360023499,-5.445182800,-31.183876038
38.329984,0.030136719,-0.064347290,0.972415924,-1.932777405,-5.284965515,-31.160987854
38.330610,0.031967774,-0.066422485,0.971195221,-1.970924377,-5.277336121,-31.183876038
38.331235,0.031601563,-0.064713500,0.968997955,-2.001441956,-5.506217957,-31.244911194
38.331862,0.032700196,-0.062272094,0.968265533,-2.123512268,-5.559623718,-30.893959045
38.332487,0.035751954,-0.062394165,0.971683502,-2.001441956,-5.483329773,-30.909217834
38.333114,0.032456055,-0.060074829,0.969852448,-1.925148010,-5.635917664,-30.817665100
38.333741,0.034897462,-0.057023071,0.966068268,-1.619972229,-5.635917664,-30.886329651
38.334367,0.032456055,-0.057511352,0.967044830,-1.925148010,-5.597770691,-30.855812073
38.334992,0.034897462,-0.054581665,0.968631744,-1.795448303,-5.796134949,-30.749000549
38.336727,0.040390626,-0.047379516,0.968631744,-1.742042542,-6.215751648,-30.840553284
38.337352,0.042465821,-0.043229125,0.968631744,-1.925148010,-6.253898621,-30.832923889
38.337977,0.043198243,-0.040055297,0.967288971,-1.764930725,-6.559074402,-30.886329651
38.338602,0.042465821,-0.041276000,0.973148346,-2.169288635,-6.650627136,-30.657447815
38.339227,0.047226563,-0.037735961,0.971439362,-2.138771057,-6.742179871,-30.726112366
38.339854,0.049179688,-0.035782836,0.974002838,-2.268470764,-7.016838074,-30.749000549
38.340479,0.050156251,-0.030900024,0.974369049,-2.375282288,-6.864250183,-30.665077209
38.341104,0.053208008,-0.032242797,0.977542877,-2.474464417,-7.108390808,-30.573524475
38.341730,0.058945313,-0.028824829,0.979862213,-2.726234436,-7.085502625,-30.512489319
38.342355,0.059799805,-0.025895141,0.980838776,-3.046669006,-7.039726257,-30.703224182
38.342980,0.059555665,-0.022721313,0.981937408,-3.199256897,-7.291496277,-30.573524475
38.343605,0.059189454,-0.024430297,0.983890533,-3.710426331,-7.199943542,-30.665077209
38.344231,0.061752930,-0.019547485,0.987430573,-3.679908752,-7.177055359,-30.375160217
38.344857,0.065903321,-0.018570922,0.986698151,-4.221595764,-7.291496277,-30.665077209
38.345483,0.064438477,-0.019425415,0.989994049,-4.381813049,-7.268608093,-30.596412659
38.347228,0.072250977,-0.015763305,0.989871979,-5.053199768,-7.177055359,-30.588783264
38.347854,0.073471680,-0.014054322,0.989871979,-5.381263733,-7.299125671,-30.390419006
38.348479,0.077622071,-0.012833619,0.993656158,-5.427040100,-6.993949890,-30.436195374
38.362407,0.083237305,-0.000504517,1.004520416,-9.173072815,-6.215751648,-30.947364807
38.363154,0.084213868,0.000227905,1.004398346,-9.173072815,-6.063163757,-31.199134827
38.363780,0.086777344,0.001570678,1.007938385,-9.028114319,-5.826652527,-31.061805725
38.364406,0.083481446,0.003401733,1.006351471,-9.028114319,-5.994499207,-31.016029358
38.365032,0.084458008,0.006697631,1.005619049,-9.028114319,-5.994499207,-31.222023010
38.365657,0.082138672,0.006575561,1.005008698,-9.066261292,-5.735099792,-31.366981506
38.366284,0.085556641,0.009993530,1.009281158,-9.035743713,-6.032646179,-31.366981506
38.366910,0.084702149,0.010970092,1.005863190,-8.921302795,-5.918205261,-31.443275452
38.367536,0.087753907,0.008894897,1.006717682,-9.157814026,-5.902946472,-31.511940002
38.368161,0.085190430,0.009993530,1.006717682,-9.066261292,-5.948722839,-31.435646057
38.368786,0.087143555,0.013777710,1.003787994,-9.302772522,-5.971611023,-31.725563049
38.369412,0.083237305,0.014632202,1.005619049,-9.112037659,-5.971611023,-31.618751526
38.370038,0.085678712,0.015608764,1.006839752,-9.142555237,-5.910575867,-31.740821838
38.370664,0.086655274,0.018172242,1.004764557,-9.012855530,-6.124198914,-31.763710022
38.372413,0.087265626,0.015852906,1.006351471,-9.379066467,-6.070793152,-31.977333069
38.373039,0.086411133,0.017195679,1.005374908,-9.356178284,-6.078422546,-31.984962463
38.373665,0.085678712,0.022932984,1.009891510,-9.363807678,-5.963981628,-32.053627014
38.374290,0.084946290,0.022688843,1.009281158,-9.371437073,-6.124198914,-32.206214905
38.374917,0.087387696,0.023665406,1.008548737,-9.752906799,-6.307304382,-32.213844299
38.375544,0.087387696,0.025862671,1.008426666,-9.585060120,-6.398857117,-32.648719788
38.376170,0.084335938,0.026595093,1.010501862,-9.684242249,-6.032646179,-32.747901917
38.376797,0.086411133,0.030623414,1.010379791,-9.897865295,-6.253898621,-32.663978577
38.377422,0.087998047,0.027571656,1.008548737,-9.913124084,-6.421745300,-32.671607971
38.378048,0.087509766,0.031233765,1.008426666,-10.035194397,-6.566703796,-32.679237366
38.378674,0.089584962,0.029402710,1.012577057,-10.050453186,-6.498039246,-32.824195862
38.379299,0.086899415,0.034285523,1.009769440,-10.286964417,-6.642997742,-33.037818909
38.379924,0.089951172,0.033308960,1.011478424,-10.515846252,-6.757438660,-32.908119202
38.380549,0.091049805,0.035140015,1.014163971,-10.233558655,-6.528556824,-33.152259827
38.381176,0.087875977,0.035262085,1.013919830,-10.309852600,-6.673515320,-33.281959534
38.382919,0.091782227,0.036971070,1.020633698,-10.622657776,-6.925285339,-33.312477112
38.383544,0.096298829,0.037947632,1.020633698,-10.668434143,-6.993949890,-33.671058655
38.384170,0.096542969,0.038313843,1.019657135,-10.637916565,-6.864250183,-33.823646545
38.384796,0.097641602,0.035872437,1.023685455,-10.828651428,-7.062614441,-33.831275940
38.385423,0.100083008,0.040022828,1.021732330,-10.866798401,-6.795585632,-33.716835022
38.386048,0.102280274,0.041731812,1.025760651,-11.072792053,-6.803215027,-33.930458069
38.386674,0.102768555,0.039900757,1.021976471,-11.057533264,-6.871879578,-33.938087463
38.387301,0.102524415,0.042952515,1.027103424,-11.149085999,-6.803215027,-34.136451721
38.387927,0.102036133,0.045149781,1.025638580,-11.149085999,-6.612480164,-34.212745667
38.388554,0.106918946,0.048933960,1.029666901,-11.202491760,-6.986320496,-34.380592346
38.389179,0.106918946,0.043929078,1.027347565,-11.080421448,-6.734550476,-34.235633850
38.389814,0.108261719,0.044661500,1.026615143,-11.171974182,-6.910026550,-34.365333557
38.390439,0.108261719,0.045271851,1.031253815,-11.301673889,-6.620109558,-34.418739319
38.391064,0.108627930,0.045149781,1.029911041,-11.454261780,-6.787956238,-34.510292053
38.391691,0.106918946,0.046858765,1.030277252,-11.278785706,-6.642997742,-34.784950256
38.393467,0.113632813,0.050398804,1.026981354,-11.385597229,-6.589591980,-34.937538147
38.394093,0.111923829,0.053938843,1.029544830,-11.271156311,-6.261528015,-35.250343323
38.394719,0.116196290,0.054427125,1.028446198,-11.309303284,-6.681144714,-35.151161194
38.408587,0.125351563,0.071150757,1.029056549,-12.278236389,-7.245719910,-37.935890198
38.409315,0.121323243,0.072005250,1.033329010,-12.194313049,-7.047355652,-38.309730530
38.409941,0.124741212,0.071639039,1.034305573,-12.179054260,-7.062614441,-38.210548401
38.410566,0.129379883,0.072981812,1.035404205,-12.118019104,-7.260978699,-38.286842346
38.411192,0.135727540,0.076888062,1.031620026,-12.415565491,-7.383049011,-38.515724182
38.411818,0.135117188,0.078841187,1.033084869,-12.262977600,-7.268608093,-38.767494202
38.412443,0.133774415,0.079695679,1.031620026,-12.011207581,-7.337272644,-38.775123596
38.413069,0.130112305,0.081892945,1.034671783,-12.095130920,-7.222831726,-38.904823303
38.413694,0.131333008,0.084090210,1.034549713,-12.102760315,-7.337272644,-39.042152405
38.414320,0.134750977,0.084944703,1.035770416,-12.484230042,-7.482231140,-39.156593323
38.414947,0.137192383,0.084090210,1.037113190,-12.369789124,-7.322013855,-39.538063049
38.415574,0.139267579,0.088362671,1.036258698,-12.308753967,-7.360160828,-39.675392151
38.416200,0.140488282,0.092024781,1.034671783,-12.331642151,-7.306755066,-39.545692444
38.416826,0.140732422,0.093001343,1.039066315,-12.552894592,-7.390678406,-39.721168518
38.418562,0.146225587,0.095442750,1.041873932,-12.865699768,-7.581413269,-40.110267639
38.419187,0.150009766,0.099349000,1.046878815,-12.865699768,-7.528007507,-40.423072815
38.419812,0.154892579,0.100813843,1.044925690,-13.117469788,-7.520378113,-40.720619202
38.420437,0.154282227,0.101912476,1.044681549,-13.109840393,-7.581413269,-40.667213440
38.421064,0.156845704,0.103621460,1.045780182,-13.147987366,-7.444084167,-40.987648010
38.421689,0.155869141,0.103987671,1.047855377,-13.392127991,-7.283866882,-41.094459534
38.422316,0.155625001,0.106184937,1.043094635,-13.537086487,-7.238090515,-41.048683167
38.422943,0.159409180,0.107283570,1.047122955,-13.598121643,-7.421195984,-41.567481995
38.423568,0.160874024,0.111678101,1.047122955,-13.704933167,-7.299125671,-41.666664124
38.424194,0.165512696,0.112776734,1.046390533,-13.743080139,-7.146537781,-41.842140198
38.424821,0.169174805,0.111678101,1.048709869,-14.063514709,-7.116020203,-41.948951721
38.425446,0.168320313,0.113875367,1.049442291,-13.994850159,-6.841362000,-42.154945374
38.426072,0.168320313,0.111800171,1.048954010,-14.147438049,-6.871879578,-42.284645081
38.426697,0.170395508,0.115950562,1.051639557,-14.177955627,-6.856620789,-42.421974182
38.427323,0.171738282,0.117415406,1.049930573,-14.109291077,-6.765068054,-42.864479065
38.429040,0.172714844,0.121321656,1.048343658,-14.650978088,-6.154716492,-43.192543030
38.429665,0.176987305,0.125838250,1.050174713,-14.513648987,-5.933464050,-43.451942444
38.430292,0.179916993,0.125594109,1.049198151,-14.879859924,-6.124198914,-43.657936096
38.430919,0.178696290,0.127791375,1.048709869,-14.841712952,-5.857170105,-43.932594299
38.431545,0.178452149,0.123152710,1.048465729,-14.834083557,-5.689323425,-43.978370667
38.432171,0.181992188,0.127791375,1.047855377,-15.070594788,-5.956352234,-44.344581604
38.432798,0.181259766,0.130476922,1.048587799,-15.139259338,-5.590141296,-44.397987366
38.433423,0.178452149,0.131453484,1.042850494,-15.322364807,-5.414665222,-44.665016174
38.434048,0.181381837,0.134261101,1.042850494,-15.543617249,-5.445182800,-44.802345276
38.434673,0.177231446,0.131209344,1.043094635,-15.566505432,-5.346000671,-45.130409241
38.435299,0.177597657,0.134871453,1.037235260,-16.054786682,-5.368888855,-45.405067444
38.435924,0.178085938,0.135725945,1.038333893,-16.092933655,-5.254447937,-45.664466858
38.436550,0.176010743,0.141219109,1.036869049,-16.283668518,-5.353630066,-45.687355042
38.437176,0.176376954,0.139998406,1.033329010,-16.260780334,-4.979789734,-45.954383850
38.437801,0.176376954,0.139998406,1.033329010,-16.260780334,-4.979789734,-45.954383850
38.439520,0.177841797,0.144270867,1.030887604,-17.191566467,-5.033195496,-46.747840881
38.440146,0.177963868,0.143660516,1.029300690,-17.496742249,-5.223930359,-46.999610901
38.440771,0.176254883,0.146590203,1.027591705,-17.771400452,-5.361259460,-47.007240295
38.454674,0.170639649,0.146712273,1.000736237,-23.081459045,-8.100212097,-53.393043518
38.455406,0.174179688,0.145369500,1.001468658,-23.241676331,-8.023918152,-54.217018127
38.456032,0.170395508,0.142683953,1.003177643,-23.249305725,-8.367240906,-54.163612366
38.456658,0.170029297,0.140120476,1.004032135,-23.462928772,-8.390129089,-54.682411194
38.457283,0.173813477,0.137801141,1.006473541,-23.470558167,-8.596122742,-54.789222717
38.457910,0.173813477,0.137801141,1.006473541,-23.470558167,-8.596122742,-54.789222717
38.458537,0.172226563,0.136092156,1.009037018,-23.584999084,-8.771598816,-55.330909729
38.459163,0.168808594,0.134871453,1.009769440,-23.531593323,-8.527458191,-55.498756409
38.459790,0.165390626,0.132185906,1.010868073,-23.592628479,-8.710563660,-55.872596741
38.460416,0.165634766,0.130110711,1.006717682,-23.699440002,-9.015739441,-56.284584045
38.461042,0.166000977,0.129744500,1.008548737,-23.562110901,-9.046257019,-56.688941956
38.461668,0.166245118,0.129500359,1.010135651,-23.554481506,-9.099662781,-56.795753479
38.462293,0.162949219,0.126204461,1.007816315,-23.249305725,-9.473503113,-57.139076233
38.462919,0.160141602,0.124007203,1.008426666,-23.356117249,-9.214103699,-57.383216858
38.464638,0.158554688,0.117537476,1.004642487,-23.157752991,-9.557426453,-58.306373596
38.465263,0.154892579,0.114851929,1.006961823,-22.944129944,-9.793937683,-58.901466370
38.465889,0.150375977,0.113265015,1.006717682,-22.905982971,-9.832084656,-59.122718811
38.466515,0.151718751,0.110945679,1.003299713,-22.524513245,-10.228813171,-59.397377014
38.467140,0.150253907,0.112898804,1.000736237,-22.638954163,-10.198295593,-59.786476135
38.467767,0.149887696,0.110823609,1.004398346,-22.371925354,-10.381401062,-60.045875549
38.468394,0.145981446,0.111800171,1.005496979,-22.249855042,-10.526359558,-60.503639221
38.469021,0.145615235,0.109358765,1.002323151,-22.242225647,-10.808647156,-60.793556213
38.469647,0.142441407,0.106795289,1.000858307,-22.074378967,-10.892570496,-61.007179260
38.470272,0.137314454,0.107283570,1.005374908,-22.082008362,-11.251152039,-61.335243225
38.470898,0.137070313,0.104964234,1.002445221,-22.249855042,-11.213005066,-61.617530823
38.471525,0.136093751,0.104598023,1.002933502,-21.982826233,-11.380851746,-61.930335999
38.472151,0.134873047,0.105208375,1.002933502,-22.005714417,-11.624992371,-62.410987854
38.472777,0.132797852,0.102522828,1.004520416,-21.906532288,-11.815727234,-62.678016663
38.473402,0.132309571,0.100935914,1.006595612,-22.059120178,-11.739433289,-63.097633362
38.475114,0.128525391,0.096907593,1.009281158,-22.318519592,-12.006462097,-63.891090393
38.494288,0.080551758,0.036604859,1.036258698,-26.766456604,-10.755241394,-69.018043518
38.494913,0.078476563,0.034529664,1.034793854,-26.896156311,-10.984123230,-69.002784729
38.495539,0.078232422,0.036360718,1.034549713,-27.071632385,-10.526359558,-69.285072327
38.496166,0.075180665,0.031599976,1.037113190,-27.117408752,-10.808647156,-69.353736877
38.496791,0.074204102,0.033431031,1.037601471,-27.353919983,-10.686576843,-69.422401428
38.497418,0.076401368,0.032454468,1.038455963,-27.392066956,-10.610282898,-69.521583557
38.498043,0.074570313,0.029158570,1.033817291,-27.567543030,-10.640800476,-69.521583557
38.498668,0.072983399,0.024519898,1.035282135,-27.483619690,-10.656059265,-69.697059631
38.499295,0.068833008,0.022688843,1.034305573,-27.765907288,-10.717094421,-69.712318420
38.499920,0.070297852,0.020735718,1.035770416,-27.941383362,-10.343254089,-69.674171448
38.500546,0.067612305,0.020125367,1.034793854,-27.971900940,-10.503471375,-69.910682678
38.501171,0.070786133,0.021346070,1.033329010,-28.200782776,-10.434806824,-69.933570862
38.501797,0.069077149,0.019392945,1.033329010,-28.376258850,-10.411918640,-70.162452698
38.502423,0.068222657,0.015974976,1.035037994,-28.696693420,-10.419548035,-70.139564514
38.503049,0.070541993,0.013533569,1.033573151,-28.490699768,-10.259330750,-70.200599670
38.504793,0.070053712,0.012801147,1.033817291,-28.956092834,-10.450065613,-70.337928772
38.505418,0.070786133,0.011336303,1.034793854,-29.040016174,-10.358512878,-70.398963928
38.519362,0.075668946,-0.011124634,1.062870026,-31.107582092,-7.566154480,-70.589698792
38.520116,0.076157227,-0.015275025,1.063724518,-31.176246643,-7.260978699,-70.315040588
38.520741,0.076157227,-0.015275025,1.062747955,-31.038917542,-7.207572937,-70.467628479
38.521366,0.079819337,-0.015763305,1.063114166,-31.061805725,-6.818473816,-70.467628479
38.521992,0.082993165,-0.015030884,1.065677643,-31.222023010,-6.505668640,-70.254005432
38.522617,0.085800782,-0.016739868,1.065677643,-30.901588440,-6.375968933,-70.192970276
38.523243,0.085678712,-0.016984008,1.065311432,-31.084693909,-5.941093445,-70.200599670
38.523869,0.085922852,-0.017594360,1.063602448,-30.779518127,-5.941093445,-70.040382385
38.524495,0.087509766,-0.017960571,1.061771393,-30.634559631,-5.223930359,-70.429481506
38.525122,0.086044922,-0.019181274,1.063724518,-30.771888733,-5.323112488,-70.192970276
38.525749,0.090927735,-0.015885375,1.060794830,-30.527748108,-5.178153992,-70.093788147
38.526374,0.088852540,-0.016739868,1.061771393,-30.680335999,-4.720390320,-69.994606018
38.527001,0.092636719,-0.016984008,1.058597565,-30.459083557,-4.430473328,-70.177711487
38.527626,0.091660157,-0.015763305,1.057865143,-30.428565979,-4.033744812,-70.116676331
38.529397,0.090195313,-0.016251586,1.053226471,-30.504859924,-3.637016296,-70.215858459
38.530022,0.092270508,-0.016251586,1.054935455,-30.283607483,-3.781974792,-70.223487854
38.530647,0.092392579,-0.017472290,1.051883698,-30.237831116,-3.431022644,-69.994606018
38.531272,0.091782227,-0.016495727,1.052005768,-30.481971741,-3.339469910,-70.124305725
38.531898,0.094223633,-0.017106079,1.051395416,-30.069984436,-3.301322937,-70.238746643
38.532524,0.091782227,-0.014664673,1.049198151,-30.352272034,-3.209770203,-70.284523010
38.533149,0.092636719,-0.015763305,1.051761627,-30.253089905,-2.927482605,-69.948829651
38.533775,0.094101563,-0.016251586,1.050540924,-30.062355042,-2.973258972,-70.345558167
38.534401,0.093247071,-0.016251586,1.048587799,-30.253089905,-2.721488953,-70.200599670
38.535027,0.093735352,-0.016251586,1.047733307,-30.077613831,-2.439201355,-70.421852112
38.535653,0.094833985,-0.015030884,1.049808502,-30.260719299,-2.500236511,-70.360816956
38.536279,0.093247071,-0.014664673,1.047855377,-30.085243225,-2.416313171,-70.421852112
38.536904,0.095932618,-0.017472290,1.047977448,-30.008949280,-2.050102234,-70.376075745
38.537531,0.098984376,-0.015030884,1.049442291,-29.787696838,-2.118766785,-70.307411194
38.538156,0.097153321,-0.015397095,1.049686432,-29.757179260,-1.912773132,-70.414222717
38.539897,0.099838868,-0.016251586,1.049564362,-29.703773499,-1.439750671,-70.444740295
38.540523,0.100449219,-0.016984008,1.048221588,-29.650367737,-1.012504578,-70.482887268
38.541149,0.104111329,-0.015763305,1.047122955,-29.688514709,-0.852287292,-70.521034241
38.541774,0.103745118,-0.017106079,1.052860260,-29.497779846,-0.867546082,-70.681251526
38.542399,0.106430665,-0.020646118,1.052127838,-29.558815002,-0.585258484,-70.536293030
38.543024,0.106918946,-0.019181274,1.050052643,-29.520668030,-0.272453308,-70.498146057
38.543651,0.107895508,-0.019181274,1.050296783,-29.184974670,-0.089347839,-70.574440002
38.544278,0.106918946,-0.021500610,1.047245026,-29.238380432,0.261604309,-70.574440002
38.544905,0.109970704,-0.019913696,1.050785065,-29.207862854,0.536262512,-70.765174866
38.545532,0.109604493,-0.022355102,1.045536041,-29.001869202,0.788032532,-70.452369690
38.546158,0.113144532,-0.022477172,1.048099518,-29.070533752,1.230537415,-70.566810608
38.546784,0.115952149,-0.022477172,1.047122955,-29.101051331,1.703559875,-70.650733948
38.547411,0.120590821,-0.022477172,1.044071198,-28.917945862,1.566230774,-70.688880920
38.548037,0.118759766,-0.023087524,1.043216705,-29.009498596,2.161323547,-70.665992737
38.548664,0.119614258,-0.021744750,1.039676666,-28.849281311,2.229988098,-70.681251526
38.550408,0.119858399,-0.023087524,1.033573151,-28.780616760,3.023445129,-70.673622131
38.551033,0.118759766,-0.024186157,1.028446198,-28.574623108,3.160774231,-70.650733948
38.564923,0.119492188,-0.013932251,0.970829010,-31.031288147,3.862678528,-71.322120667
38.565676,0.117416993,-0.014054322,0.971683502,-31.016029358,3.847419739,-71.322120667
38.566302,0.117172852,-0.017838500,0.969852448,-31.313575745,3.740608215,-71.299232483
38.566928,0.113999024,-0.018204711,0.968509674,-31.267799377,3.870307922,-71.352638245
38.567554,0.116440430,-0.022721313,0.972415924,-31.534828186,3.771125793,-71.482337952
38.568180,0.113999024,-0.026017211,0.972171783,-31.984962463,3.649055481,-71.398414612
38.568806,0.113876954,-0.026749633,0.973392487,-31.809486389,3.778755188,-71.383155823
38.569433,0.115830079,-0.028336547,0.973026276,-31.817115784,3.565132141,-71.345008850
38.570058,0.114121094,-0.029679321,0.968997955,-31.641639709,3.641426086,-71.390785217
38.570683,0.112656251,-0.028580688,0.970340729,-32.190956116,3.809272766,-71.467079163
38.571309,0.110092774,-0.028702758,0.971073151,-32.084144592,3.656684875,-71.520484924
38.571936,0.107163087,-0.027970336,0.968387604,-32.198585510,3.931343079,-71.398414612
38.572561,0.098129883,-0.031266235,0.969364166,-32.183326721,3.717720032,-71.184791565
38.573187,0.094711915,-0.039322875,0.965824127,-32.061256409,3.893196106,-71.535743713
38.574935,0.107407227,-0.037125610,0.948856354,-32.488502502,4.114448547,-72.031654358
38.575562,0.101547852,-0.043595336,0.951419830,-32.366432190,3.794013977,-71.650184631
38.576189,0.104965821,-0.046036743,0.958988190,-32.610572815,3.343879700,-71.261085510
38.576816,0.118881837,-0.041398071,0.953128815,-32.366432190,3.008186340,-71.306861877
38.577443,0.128525391,-0.044205688,0.948612213,-32.045997620,3.137886047,-71.077980042
38.578069,0.125107422,-0.053849243,0.950565338,-31.801856995,3.359138489,-70.917762756
38.578696,0.113999024,-0.056901000,0.956058502,-31.466163635,3.359138489,-70.902503967
38.579321,0.111191407,-0.044938110,0.955814362,-31.031288147,3.343879700,-70.719398499
38.579946,0.110092774,-0.037735961,0.956302643,-31.153358459,3.633796692,-71.100868225
38.580572,0.107285157,-0.040177368,0.955081940,-31.733192444,3.641426086,-71.200050354
38.581198,0.114121094,-0.048111938,0.961673737,-31.550086975,3.687202454,-71.329750061
38.581823,0.118027344,-0.052506469,0.955081940,-31.672157288,3.565132141,-71.367897034
38.582449,0.121079102,-0.047257446,0.953861237,-31.290687561,3.801643372,-70.978797913
38.583074,0.115585938,-0.045548461,0.948856354,-31.222023010,4.152595520,-71.276344299
38.583699,0.110703126,-0.048722290,0.951297760,-31.321205139,4.114448547,-71.200050354
38.585432,0.117905274,-0.050431274,0.943607330,-31.191505432,4.328071594,-71.345008850
38.586059,0.118149415,-0.052140258,0.940311432,-31.237281799,4.236518860,-71.352638245
38.586686,0.118637696,-0.057389282,0.937137604,-30.726112366,4.236518860,-71.093238831
38.587312,0.115830079,-0.054459594,0.930057526,-30.825294495,4.221260071,-71.070350647
38.587938,0.112412110,-0.053849243,0.925296783,-30.481971741,4.076301575,-70.856727600
38.588563,0.112290040,-0.052628540,0.923221588,-30.550636292,4.160224915,-71.131385803
38.589189,0.109360352,-0.051163696,0.919193268,-30.222572327,3.732978821,-70.803321838
38.589816,0.106918946,-0.052628540,0.916385651,-30.321754456,3.786384583,-70.894874573
38.590442,0.110458985,-0.051896118,0.912357330,-30.100502014,3.572761536,-70.826210022
38.591067,0.111069337,-0.053360961,0.911014557,-29.955543518,3.153144836,-70.780433655
38.591694,0.112900391,-0.055069946,0.913700104,-29.825843811,3.023445129,-71.108497620
38.592319,0.111435547,-0.056046508,0.909671783,-29.856361389,2.962409973,-70.879615784
38.592944,0.111191407,-0.053849243,0.909793854,-29.757179260,2.985298157,-71.032203674
38.593570,0.110214844,-0.049942993,0.909305573,-29.795326233,2.466499329,-70.788063049
38.594218,0.107773438,-0.047989868,0.907596588,-29.932655334,2.527534485,-70.849098206
38.595984,0.102402344,-0.051163696,0.905643463,-30.283607483,1.818000793,-71.070350647
38.596609,0.104111329,-0.050797485,0.905155182,-30.451454163,1.467048645,-70.910133362
38.597235,0.102036133,-0.050187133,0.901859283,-30.489601135,1.077949524,-70.788063049
38.611105,0.109360352,-0.092423461,0.917850494,-26.827491760,-3.125846863,-70.315040588
38.611819,0.109360352,-0.094376586,0.920902252,-26.255287170,-3.354728699,-69.910682678
38.612446,0.111069337,-0.096207641,0.921146393,-25.835670471,-3.148735046,-69.765724182
38.613072,0.112778321,-0.097428344,0.920780182,-25.026954651,-3.194511414,-69.628395081
38.613697,0.109848633,-0.099991821,0.924198151,-24.622596741,-3.308952332,-69.872535706
38.614323,0.109116212,-0.102921508,0.923099518,-23.806251526,-3.675163269,-69.925941467
38.614948,0.107651368,-0.103165649,0.924930573,-23.111976624,-3.431022644,-69.521583557
38.615573,0.105087891,-0.104874633,0.922000885,-22.524513245,-3.530204773,-69.597877502
38.616199,0.106918946,-0.106583618,0.925296783,-21.982826233,-3.431022644,-69.651283264
38.616825,0.105087891,-0.110123657,0.927982330,-21.204627991,-3.888786316,-69.803871155
38.617452,0.106552735,-0.107682250,0.929080963,-20.342506409,-3.720939636,-69.391883850
38.618077,0.103745118,-0.110611938,0.926151276,-19.678749084,-3.949821472,-69.491065979
38.618703,0.103989258,-0.110856079,0.929569244,-18.885292053,-4.117668152,-69.361366272
38.619328,0.104721680,-0.112076782,0.928348541,-18.213905334,-4.064262390,-69.231666565
38.621060,0.100937501,-0.112320922,0.931034088,-15.886940002,-4.544914246,-69.285072327
38.621685,0.097763672,-0.111832641,0.930179596,-15.108741760,-4.392326355,-69.025672913
38.622311,0.095688477,-0.114762329,0.929691315,-14.506019592,-4.827201843,-68.979896545
38.622936,0.098862305,-0.113419555,0.932498932,-13.636268616,-4.964530945,-68.949378967
38.623563,0.098618165,-0.112931274,0.934574127,-12.804664612,-5.078971863,-69.033302307
38.624188,0.100693360,-0.117325805,0.935794830,-11.858619690,-5.475700378,-69.010414124
38.624815,0.101914063,-0.117203735,0.932621002,-11.141456604,-5.620658875,-68.812049866
38.625441,0.099716797,-0.116105102,0.935672760,-10.286964417,-5.773246765,-68.705238342
38.626066,0.094711915,-0.114762329,0.939701080,-9.516395569,-5.948722839,-68.766273499
38.626691,0.092636719,-0.113541625,0.941532135,-8.585609436,-6.162345886,-68.598426819
38.627316,0.091538087,-0.114274047,0.942874908,-7.868446350,-6.337821960,-68.606056213
38.627942,0.092392579,-0.111100219,0.943851471,-7.128395081,-6.467521667,-68.689979553
38.628569,0.091293946,-0.112565063,0.945804596,-6.571449280,-6.681144714,-68.705238342
38.629194,0.092758790,-0.112442993,0.947757721,-5.694068909,-6.803215027,-68.689979553
38.629820,0.092758790,-0.111710571,0.951175690,-4.938758850,-6.871879578,-68.262733459
38.631550,0.087021485,-0.105851196,0.957279205,-2.955116272,-7.581413269,-68.453468323
38.632175,0.086655274,-0.106095336,0.960941315,-2.306617737,-7.749259949,-68.064369202
38.632802,0.086655274,-0.104508422,0.963382721,-1.650489807,-7.512748718,-68.216957092
38.633428,0.083847657,-0.097794555,0.964847565,-0.918067932,-7.970512390,-67.980445862
38.634053,0.084824219,-0.097306274,0.963748932,-0.521339417,-8.130729675,-67.957557678
38.634678,0.084091797,-0.094742797,0.970829010,-0.071205139,-8.207023621,-68.010963440
38.635305,0.085922852,-0.088761352,0.971195221,0.661216736,-8.367240906,-68.010963440
38.635932,0.084213868,-0.087784790,0.974246979,1.164756775,-8.321464539,-67.995704651
38.636559,0.081894532,-0.084855102,0.980594635,1.180015564,-8.550346375,-67.804969788
38.637186,0.083115235,-0.083512329,0.982669830,1.950584412,-8.413017273,-67.782081604
38.637812,0.084335938,-0.077408813,0.985721588,2.187095642,-8.474052429,-67.736305237
38.638437,0.084335938,-0.074234985,0.982669830,2.248130798,-8.420646667,-67.507423401
38.639062,0.085434571,-0.068253540,0.987796783,2.583824158,-8.641899109,-67.286170959
38.639688,0.087753907,-0.063492797,0.989139557,2.522789001,-8.611381531,-67.553199768
38.640313,0.083115235,-0.063004516,0.992069244,2.721153259,-8.481681824,-67.522682190
38.642057,0.090683594,-0.048356079,0.998783112,2.660118103,-8.962333679,-67.270912170
38.642682,0.088852540,-0.043351196,1.003299713,2.522789001,-8.710563660,-67.278541565
38.643309,0.091171876,-0.040665649,1.006595612,2.347312927,-8.649528503,-67.125953674
38.657215,0.123886719,0.022688843,1.031742096,-9.295143127,-5.170524597,-65.813697815
38.657962,0.125595704,0.024031617,1.034793854,-10.058082581,-4.911125183,-65.783180237
38.658587,0.123764649,0.026595093,1.030521393,-10.622657776,-4.743278503,-65.760292053
38.659213,0.125717774,0.026717164,1.028812408,-11.370338440,-4.857719421,-65.897621155
38.659838,0.121811524,0.031844117,1.028446198,-11.980690002,-4.529655457,-65.989173889
38.660463,0.121445313,0.028792359,1.028690338,-12.697853088,-4.621208191,-66.187538147
38.661088,0.122177735,0.032210328,1.029178619,-13.147987366,-4.560173035,-65.928138733
38.661714,0.118637696,0.032454468,1.029056549,-13.880409241,-4.636466980,-65.973915100
38.662339,0.116806641,0.033308960,1.029178619,-14.414466858,-4.689872742,-66.050209045
38.662965,0.119370118,0.034773804,1.025760651,-15.146888733,-4.689872742,-66.088356018
38.663592,0.122055665,0.036604859,1.021610260,-15.566505432,-4.804313660,-66.576637268
38.664218,0.120224610,0.035628296,1.023807526,-16.329444885,-5.170524597,-66.446937561
38.664843,0.121079102,0.031599976,1.020389557,-16.710914612,-5.124748230,-66.622413635
38.665468,0.121323243,0.033064820,1.021976471,-17.313636780,-5.124748230,-66.614784241
38.667209,0.123520508,0.033064820,1.021976471,-18.435157776,-5.750358582,-67.095436096
38.667836,0.128769532,0.031111695,1.024173737,-19.014991760,-6.040275574,-67.240394592
38.668461,0.127060547,0.029768921,1.023075104,-19.617713928,-6.002128601,-67.392982483
38.669086,0.125595704,0.031233765,1.029911041,-19.793190002,-6.467521667,-67.499794006
38.669713,0.133164063,0.028914429,1.027591705,-20.266212463,-6.452262878,-67.721046448
38.670340,0.131333008,0.027815796,1.030887604,-20.678199768,-6.734550476,-67.759193420
38.670966,0.135361329,0.025984742,1.033573151,-20.739234924,-6.963432312,-68.003334045
38.671591,0.136337891,0.025740601,1.039554596,-20.991004944,-6.871879578,-68.133033752
38.672217,0.138535157,0.024275757,1.038700104,-21.273292542,-7.138908386,-68.506874084
38.672842,0.138779297,0.021224000,1.042972565,-21.670021057,-7.138908386,-68.453468323
38.673468,0.141098633,0.016951539,1.048099518,-21.860755920,-7.291496277,-68.628944397
38.674093,0.142929688,0.015486694,1.048587799,-22.089637756,-7.169425964,-68.689979553
38.674718,0.146225587,0.015364624,1.051517487,-22.371925354,-6.795585632,-68.941749573
38.675344,0.146225587,0.014510131,1.056888580,-22.318519592,-7.062614441,-69.101966858
38.675970,0.147080079,0.012679077,1.060916901,-22.654212952,-7.016838074,-69.262184143
38.677702,0.149521485,0.003767944,1.067386627,-22.936500549,-7.077873230,-69.414772034
38.678328,0.152329102,0.004256225,1.064212799,-22.654212952,-6.742179871,-69.582618713
38.678955,0.152207032,0.001814819,1.069339752,-23.050941467,-6.589591980,-69.773353577
38.679580,0.154038087,0.000349975,1.065311432,-22.921241760,-6.520927429,-69.750465393
38.680207,0.149277344,-0.004044556,1.068729401,-22.959388733,-6.246269226,-70.086158752
38.680833,0.149887696,-0.003678345,1.072147369,-23.020423889,-6.124198914,-70.185340881
38.681459,0.150009766,-0.005021119,1.073612213,-22.883094788,-6.055534363,-70.421852112
38.682084,0.149643555,-0.008561158,1.076175690,-22.829689026,-5.544364929,-70.215858459
38.682710,0.145981446,-0.006485962,1.074954987,-22.875465393,-5.551994324,-70.315040588
38.683335,0.146347657,-0.011490845,1.073856354,-22.806800842,-5.544364929,-70.299781799
38.683960,0.142929688,-0.012467408,1.076663971,-22.898353577,-5.239189148,-70.589698792
38.684587,0.143662110,-0.012955689,1.078372955,-22.722877502,-4.811943054,-70.673622131
38.685213,0.139877930,-0.015397095,1.080081940,-22.860206604,-4.651725769,-70.833839417
38.685838,0.141831055,-0.017594360,1.080326080,-22.791542053,-4.377067566,-70.597328186
38.686463,0.138046876,-0.016861938,1.079227448,-22.684730530,-4.430473328,-70.826210022
38.688205,0.133164063,-0.021744750,1.080692291,-22.844947815,-3.682792664,-70.986427307
38.688831,0.132065430,-0.022599243,1.080081940,-22.967018127,-3.347099304,-70.986427307
38.689457,0.128403321,-0.025406860,1.081180573,-23.028053284,-3.324211121,-71.085609436
38.703311,0.083847657,-0.069108032,1.069828033,-23.691810608,-1.104057312,-69.918312073
38.704049,0.081162110,-0.070694946,1.069705963,-23.287452698,-1.157463074,-69.948829651
38.704676,0.079086915,-0.075089477,1.070316315,-22.959388733,-1.157463074,-69.887794495
38.705301,0.074936524,-0.077286743,1.070682526,-22.669471741,-1.233757019,-69.842018127
38.705926,0.075913087,-0.078141235,1.074344635,-22.341407776,-1.233757019,-69.666542053
38.706552,0.076889649,-0.080826782,1.074466705,-22.020973206,-1.393974304,-69.491065979
38.707179,0.079331055,-0.080338500,1.075687408,-21.723426819,-1.081169128,-69.643653870
38.707804,0.079086915,-0.081803344,1.076908112,-20.968116760,-1.271903992,-69.628395081
38.708430,0.077011719,-0.083878540,1.079227448,-20.441688538,-1.241386414,-69.681800842
38.709056,0.078110352,-0.084366821,1.081790924,-20.022071838,-0.989616394,-69.590248108
38.709681,0.079697266,-0.084122680,1.078861237,-19.411720276,-1.371086121,-69.559730530
38.710307,0.080429688,-0.085221313,1.083988190,-18.778480530,-1.470268250,-69.361366272
38.710933,0.082626954,-0.087296508,1.085697174,-18.061317444,-1.348197937,-69.292701721
38.711559,0.084458008,-0.085221313,1.085575104,-17.550148010,-1.195610046,-69.498695374
38.713314,0.091049805,-0.081437133,1.093387604,-15.452064514,-0.928581238,-69.193519592
38.713941,0.089096680,-0.081803344,1.095706940,-14.879859924,-1.172721863,-69.109596252
38.714568,0.090439454,-0.077897094,1.096805573,-14.269508362,-0.722587585,-69.178260803
38.715193,0.092026368,-0.074845336,1.098758698,-13.552345276,-0.768363953,-69.346107483
38.715818,0.096420899,-0.074845336,1.098880768,-12.911476135,-0.760734558,-69.040931702
38.716444,0.100815430,-0.073868774,1.098758698,-12.270606995,-0.859916687,-69.254554749
38.717070,0.102036133,-0.072037719,1.103641510,-11.667884827,-0.608146667,-68.949378967
38.717697,0.101547852,-0.065445922,1.105228424,-11.248268127,-0.386894226,-68.903602600
38.718323,0.106064454,-0.065079711,1.105838776,-10.561622620,-0.295341492,-68.949378967
38.718949,0.106308594,-0.061051391,1.104862213,-10.027565002,-0.112236023,-68.842567444
38.719574,0.108627930,-0.056534790,1.109012604,-9.424842834,0.131904602,-68.934120178
38.720200,0.108017579,-0.050431274,1.109867096,-9.211219788,0.337898254,-68.903602600
38.720827,0.111435547,-0.044571899,1.112430573,-8.799232483,0.719367981,-68.888343811
38.721452,0.112412110,-0.043717407,1.112064362,-8.402503967,0.551521301,-68.850196838
38.722078,0.115830079,-0.036759399,1.113773346,-8.188880920,0.864326477,-68.804420471
38.723803,0.125839844,-0.022477172,1.109256744,-7.517494202,1.520454407,-68.842567444
38.724430,0.128769532,-0.020279907,1.111331940,-7.509864807,1.520454407,-68.880714417
38.725057,0.130478516,-0.014542603,1.113285065,-7.342018127,1.581489563,-68.728126526
38.744310,0.178452149,0.046980835,1.126834869,-15.993751526,5.502998352,-71.505226135
38.744937,0.180527344,0.044661500,1.124149323,-15.856422424,5.365669250,-71.650184631
38.745563,0.184067383,0.043562867,1.126590729,-16.245521545,5.808174133,-71.688331604
38.746188,0.182724610,0.043684937,1.128665924,-16.115821838,5.937873840,-71.955360413
38.746814,0.181748047,0.040877320,1.130619049,-16.230262756,6.212532043,-72.146095276
38.747440,0.185043946,0.041243531,1.132572174,-16.192115784,6.471931458,-72.222389221
38.748065,0.182602540,0.037337281,1.130619049,-16.420997620,6.647407532,-72.420753479
38.748690,0.185410157,0.038802125,1.133182526,-16.161598206,6.792366028,-72.680152893
38.749317,0.190170899,0.038313843,1.134281158,-16.115821838,6.983100891,-72.832740784
38.749944,0.188828126,0.037459351,1.134647369,-16.100563049,7.318794250,-72.680152893
38.750571,0.187973633,0.035994507,1.134403229,-15.879310608,7.608711243,-73.038734436
38.751196,0.189438477,0.034285523,1.132083893,-15.963233948,7.959663391,-73.359169006
38.751821,0.187119141,0.037337281,1.133914948,-15.619911194,8.142768860,-73.321022034
38.752448,0.186875001,0.036360718,1.129642487,-15.650428772,8.615791321,-73.504127502
38.753075,0.187729493,0.033308960,1.132572174,-15.703834534,8.882820129,-73.977149963
38.767062,0.149155274,0.004866577,1.094242096,-19.259132385,12.979804993,-77.593482971
38.767830,0.146103516,-0.005875611,1.096683502,-19.900001526,12.743293762,-77.410377502
38.768456,0.143906251,-0.010392212,1.095584869,-20.029701233,12.522041321,-77.334083557
38.769083,0.147080079,-0.013443970,1.092533112,-20.685829163,12.659370422,-77.356971741
38.769708,0.148911133,-0.018937133,1.091312408,-20.861305237,12.583076477,-77.448524475
38.770335,0.148300782,-0.020035766,1.088260651,-21.067298889,12.499153137,-77.448524475
38.770961,0.143784180,-0.022477172,1.090091705,-21.441139221,12.827217102,-77.402748108
38.771587,0.138901368,-0.020401977,1.091068268,-21.494544983,12.964546204,-77.379859924
38.772212,0.131577149,-0.017228149,1.092655182,-22.173561096,12.987434387,-77.387489319
38.772839,0.124741212,-0.022477172,1.088260651,-22.486366272,12.972175598,-77.700294495
38.773464,0.124130860,-0.027970336,1.087039948,-22.997535706,13.033210754,-77.608741760
38.774090,0.120834962,-0.033219360,1.084232330,-23.340858459,12.987434387,-77.585853577
38.774716,0.123032227,-0.038102172,1.084842682,-23.455299377,13.002693176,-77.738441467
38.775341,0.122177735,-0.044571899,1.086673737,-23.867286682,13.162910461,-77.952064514
38.777084,0.115708008,-0.052994750,1.084842682,-24.019874573,13.468086243,-78.119911194
38.777711,0.110947266,-0.054581665,1.083744049,-24.309791565,13.307868958,-77.868141174
38.778336,0.107407227,-0.062882446,1.086063385,-24.111427307,13.544380188,-77.982582092
38.778962,0.105698243,-0.067276977,1.084964752,-24.355567932,14.063179016,-78.066505432
38.779587,0.099228516,-0.071793579,1.086307526,-24.378456116,13.986885071,-77.707923889
38.780214,0.096298829,-0.075577758,1.085453033,-24.653114319,13.925849915,-77.845252991
38.780841,0.090195313,-0.076066040,1.086917877,-24.256385803,13.864814758,-77.738441467
38.781467,0.084458008,-0.079239868,1.083988190,-24.447120667,13.956367493,-77.807106018
38.782093,0.077622071,-0.082169555,1.083744049,-24.378456116,13.887702942,-77.639259338
38.782718,0.082016602,-0.081681274,1.082401276,-24.355567932,14.169990540,-77.608741760
38.783345,0.076401368,-0.084244750,1.081424713,-24.355567932,14.353096008,-77.418006897
38.783970,0.072373047,-0.091324829,1.080814362,-24.576820374,14.116584778,-77.540077209
38.784596,0.073959962,-0.093522094,1.078983307,-24.378456116,14.101325989,-77.685035706
38.785222,0.078232422,-0.098649047,1.073856354,-24.286903381,14.284431458,-77.448524475
38.785848,0.082504883,-0.100235961,1.073246002,-24.233497620,14.147102356,-77.364601135
38.787595,0.071030274,-0.099503540,1.071781158,-23.417152405,14.765083313,-77.006019592
38.788221,0.065537110,-0.099015258,1.071537018,-23.409523010,14.765083313,-77.196754456
38.788847,0.065781251,-0.105240844,1.070316315,-23.424781799,14.673530579,-76.952613831
38.789474,0.065537110,-0.109147094,1.067264557,-23.371376038,14.597236633,-77.257789612
38.790100,0.065170899,-0.110611938,1.063968658,-22.829689026,14.795600891,-76.838172913
38.790726,0.066757813,-0.107804321,1.067020416,-22.921241760,15.116035461,-76.746620178
38.791352,0.057968751,-0.106827758,1.066654205,-22.547401428,15.016853333,-76.548255920
38.791977,0.053574219,-0.105240844,1.067264557,-22.394813538,15.428840637,-76.594032288
38.792603,0.044541016,-0.108658813,1.071659088,-22.539772034,15.375434875,-76.365150452
38.793230,0.040756837,-0.112320922,1.069217682,-22.539772034,15.085517883,-76.334632874
38.793855,0.043686524,-0.111954711,1.065555573,-22.539772034,15.238105774,-76.021827698
38.794481,0.040634766,-0.110978149,1.064334869,-22.417701721,15.001594543,-75.922645569
38.795106,0.044907227,-0.113419555,1.062625885,-22.165931702,15.245735168,-75.770057678
38.795733,0.041611329,-0.110245727,1.060306549,-22.310890198,15.405952454,-75.640357971
38.796358,0.038559571,-0.112198852,1.060794830,-22.043861389,15.451728821,-75.831092834
38.798109,0.036728516,-0.118302368,1.057010651,-21.967567444,15.306770325,-75.304664612
38.798736,0.036240235,-0.119645141,1.056034088,-21.692909241,15.589057922,-75.441993713
38.799362,0.034531251,-0.119889282,1.054813385,-21.959938049,15.390693665,-75.365699768
38.813326,0.053452149,-0.134415656,1.054813385,-17.283119202,17.839729309,-72.497047424
38.814053,0.056503907,-0.135026008,1.050418854,-16.825355530,18.205940247,-72.306312561
38.814678,0.050644532,-0.134659797,1.053714752,-16.474403381,18.320381165,-72.146095276
38.815304,0.048447266,-0.134415656,1.049808502,-16.291297913,18.717109680,-72.130836487
38.815931,0.046005860,-0.132340461,1.048831940,-16.131080627,18.488227844,-71.734107971
38.816556,0.046860352,-0.129654914,1.049442291,-15.993751526,18.816291809,-71.978248596
38.817182,0.050278321,-0.131119758,1.051273346,-15.780128479,18.823921204,-71.779884338
38.817808,0.048203126,-0.130631477,1.047000885,-15.528358459,18.938362122,-71.612037659
38.818434,0.051376954,-0.128800422,1.044193268,-15.223182678,19.007026672,-71.367897034
38.819059,0.045395508,-0.131119758,1.045902252,-14.788307190,19.060432434,-71.222938538
38.819685,0.043564454,-0.131119758,1.045536041,-14.940895081,19.167243958,-71.093238831
38.820312,0.042343751,-0.126359016,1.047122955,-14.773048401,19.136726379,-71.177162170
38.820938,0.046494141,-0.127701789,1.047855377,-14.277137756,19.754707336,-70.879615784
38.821563,0.044541016,-0.126725227,1.044559479,-14.422096252,19.495307922,-70.833839417
38.823315,0.040146485,-0.123673461,1.042728424,-13.796485901,19.869148254,-70.719398499
38.823940,0.038803712,-0.122818969,1.039554596,-13.651527405,19.907295227,-70.459999084
38.824565,0.034409180,-0.120377563,1.035404205,-13.277687073,19.953071594,-70.376075745
38.825191,0.035874024,-0.121598266,1.034305573,-13.353981018,19.899665833,-70.185340881
38.825816,0.035019532,-0.121232055,1.034549713,-13.109840393,20.044624329,-70.116676331
38.826442,0.035385743,-0.119523071,1.036502838,-12.697853088,20.075141907,-69.803871155
38.827068,0.031235352,-0.120621704,1.034793854,-12.629188538,20.151435852,-69.826759338
38.827694,0.031479493,-0.114640258,1.032596588,-12.545265198,20.036994934,-69.918312073
38.828320,0.032333985,-0.116715454,1.029666901,-12.095130920,20.151435852,-69.445289612
38.828946,0.027329102,-0.114151977,1.030033112,-11.881507874,19.815742493,-69.430030823
38.829573,0.028793946,-0.112320922,1.030765533,-12.041725159,19.945442200,-69.262184143
38.830198,0.027817383,-0.111588500,1.031009674,-11.500038147,20.090400696,-69.170631409
38.830823,0.025864258,-0.111100219,1.032108307,-11.263526917,20.181953430,-69.155372620
38.831448,0.026596680,-0.106705688,1.030399323,-11.118568420,19.968330383,-69.163002014
38.832073,0.024643555,-0.104264282,1.028079987,-10.889686584,19.968330383,-69.063819885
38.833813,0.031967774,-0.098649047,1.026737213,-10.698951721,20.105659485,-68.751014709
38.834439,0.031601563,-0.095231079,1.027591705,-10.439552307,19.960700989,-68.682350159
38.835066,0.030136719,-0.097306274,1.029666901,-10.363258362,20.189582825,-68.804420471
38.835693,0.031967774,-0.094376586,1.031742096,-10.180152893,20.014106750,-68.606056213
38.836319,0.039536133,-0.091813110,1.027957916,-10.157264709,19.876777649,-68.384803772
38.836946,0.045761719,-0.092545532,1.026493073,-10.027565002,19.983589172,-68.163551331
38.837571,0.043808594,-0.093277954,1.026126862,-9.798683167,19.731819153,-68.087257385
38.838196,0.044052735,-0.091935180,1.026493073,-9.516395569,19.853889465,-68.110145569
38.838821,0.043930665,-0.089005493,1.028202057,-9.424842834,20.136177063,-67.972816467
38.839446,0.043442383,-0.082169555,1.030155182,-9.058631897,20.159065247,-68.094886780
38.840073,0.042954102,-0.074479125,1.033206940,-9.127296448,20.265876770,-67.957557678
38.840698,0.044052735,-0.075333618,1.032474518,-9.119667053,20.471870422,-67.858375549
38.841324,0.048569337,-0.074357055,1.033939362,-8.829750061,20.204841614,-67.904151917
38.841951,0.052475587,-0.068497680,1.033451080,-8.852638245,20.593940735,-68.010963440
38.842578,0.054794922,-0.064347290,1.033573151,-8.776344299,20.647346497,-67.820228577
38.844333,0.057480469,-0.059830688,1.039432526,-8.448280334,20.738899231,-67.919410706
38.844960,0.057602540,-0.056534790,1.040653229,-8.547462463,20.906745911,-67.866004944
38.845585,0.065170899,-0.052628540,1.037601471,-8.486427307,21.410285950,-67.789710999
38.859517,0.108994141,0.029280640,0.987674713,-14.040626526,26.979743958,-68.445838928
38.860268,0.108505860,0.029646851,0.984134674,-14.818824768,26.911079407,-68.651832581
38.860895,0.108261719,0.028426148,0.979984283,-15.192665100,26.865303040,-68.758644104
38.861521,0.106796876,0.032088257,0.973026276,-15.581764221,26.865303040,-68.972267151
38.862257,0.108994141,0.032088257,0.967411041,-16.016639709,27.086555481,-69.033302307
38.862883,0.107529297,0.033675171,0.964359283,-16.352333069,27.078926086,-69.376625061
38.863509,0.108872071,0.034407593,0.959842682,-16.817726135,27.384101868,-69.117225647
38.864135,0.108627930,0.033919312,0.959232330,-17.176307678,27.056037903,-69.498695374
38.864760,0.106064454,0.032820679,0.952152252,-17.481483459,27.040779114,-69.658912659
38.865387,0.105942383,0.033186890,0.949344635,-17.847694397,26.956855774,-69.697059631
38.866012,0.107285157,0.033308960,0.948490143,-18.046058655,26.857673645,-69.964088440
38.866638,0.108872071,0.030745484,0.944217682,-18.641151428,26.758491516,-70.002235413
38.867265,0.105087891,0.028670289,0.938236237,-18.931068420,26.811897278,-70.559181213
38.867891,0.103745118,0.029768921,0.936771393,-19.205726624,26.605903625,-70.665992737
38.869627,0.097641602,0.025984742,0.930423737,-19.846595764,26.132881165,-71.207679749
38.870254,0.100449219,0.021712281,0.924442291,-19.869483948,25.942146301,-71.413673401
38.870880,0.101303712,0.017439820,0.920658112,-20.052589417,25.858222961,-71.375526428
38.871506,0.100693360,0.019881226,0.916019440,-20.258583069,25.659858704,-72.115577698
38.872132,0.097397462,0.012312866,0.915897369,-20.167030334,25.484382629,-72.115577698
38.872757,0.098129883,0.010481811,0.916507721,-20.350135803,24.973213196,-72.054542542
38.873384,0.101181641,0.011580444,0.914310455,-20.502723694,24.423896790,-72.291053772
38.874014,0.103867188,0.008284546,0.910282135,-20.434059143,24.515449524,-72.535194397
38.874639,0.103256837,0.004378296,0.912357330,-20.487464905,24.408638000,-72.565711975
38.875266,0.101914063,-0.002823853,0.911746979,-20.136512756,24.042427063,-72.634376526
38.875891,0.095444337,-0.003556275,0.914066315,-20.037330627,24.004280090,-72.664894104
38.876517,0.094223633,-0.002213501,0.911746979,-19.800819397,24.240791321,-73.282875061
38.877143,0.091782227,-0.002823853,0.909183502,-20.044960022,24.065315247,-73.511756897
38.877769,0.092636719,-0.008805298,0.908573151,-19.976295471,23.912727356,-73.687232971
38.878394,0.096298829,-0.009903931,0.907596588,-19.716896057,23.737251282,-73.946632385
38.880136,0.090073243,-0.012955689,0.899417877,-19.282020569,23.523628235,-73.870338440
38.880761,0.086044922,-0.014664673,0.898563385,-19.350685120,23.561775208,-74.289955139
38.881388,0.084824219,-0.016739868,0.899295807,-19.083656311,23.325263977,-74.297584534
38.882015,0.082993165,-0.020768188,0.897098541,-18.694557190,23.218452454,-74.534095764
38.882640,0.085556641,-0.022721313,0.892459869,-18.877662659,22.676765442,-74.854530334
38.883267,0.083359376,-0.025406860,0.889286041,-18.671669006,22.959053040,-74.694313049
38.883892,0.082993165,-0.027482055,0.884403229,-18.557228088,22.669136047,-74.885047913
38.884517,0.080063477,-0.029801391,0.879886627,-18.175758362,22.356330872,-75.030006409
38.885143,0.078232422,-0.026749633,0.879398346,-18.137611389,22.516548157,-75.037635803
38.885768,0.072495118,-0.029557250,0.878299713,-18.267311096,22.043525696,-75.228370667
38.886395,0.073227540,-0.029923461,0.878055573,-17.946876526,21.791755676,-75.190223694
38.887022,0.074204102,-0.032486938,0.873783112,-18.007911682,21.601020813,-75.274147034
38.887648,0.074692383,-0.035172485,0.873538971,-17.656959534,21.326362610,-75.510658264
38.888274,0.074936524,-0.034684204,0.870609283,-17.389930725,21.059333801,-75.701393127
38.888900,0.074936524,-0.037735961,0.868534088,-17.672218323,21.181404114,-75.785316467
38.890653,0.071396485,-0.037003540,0.865848541,-17.626441956,20.723640442,-76.059974670
38.891279,0.068710938,-0.037003540,0.867801666,-17.756141663,20.647346497,-75.991310120
38.891904,0.067001954,-0.041886352,0.865482330,-17.733253479,20.487129211,-76.082862854
38.905790,0.024155274,-0.112809204,0.837528229,-19.091285706,14.673530579,-74.961341858
38.906514,0.021958008,-0.109635375,0.837772369,-18.839515686,14.284431458,-74.961341858
38.907141,0.015976563,-0.108902954,0.838748932,-18.328346252,14.253913879,-74.648536682
38.907767,0.005844727,-0.111832641,0.841068268,-17.656959534,13.895332336,-74.122108459
38.908394,-0.007827148,-0.112809204,0.838016510,-17.283119202,13.391792297,-74.152626038
38.909019,-0.017104492,-0.110611938,0.840335846,-17.023719788,12.941658020,-73.725379944
38.909645,-0.023696288,-0.115616821,0.837894440,-16.749061584,12.255012512,-73.809303284
38.910271,-0.024794921,-0.118790649,0.838260651,-16.398109436,11.644660950,-73.557533264
38.910898,-0.025649413,-0.123551391,0.836307526,-15.787757874,11.522590637,-73.343910217
38.911524,-0.027480468,-0.129776984,0.833255768,-15.131629944,11.011421204,-73.237098694
38.912151,-0.032851562,-0.132462531,0.829227448,-14.277137756,10.752021790,-73.214210510
38.912777,-0.037612304,-0.132950813,0.831302643,-13.498939514,10.362922668,-72.970069885
38.913404,-0.049331054,-0.132828742,0.826541901,-12.362159729,9.729682922,-73.061622620
38.914029,-0.055556640,-0.134659797,0.831058502,-11.301673889,9.317695618,-72.809852600
38.915760,-0.054213867,-0.138077766,0.837039948,-8.631385803,7.265388489,-72.413124084
38.916387,-0.057143554,-0.137833625,0.839969635,-7.624305725,6.693183899,-72.214759827
38.917014,-0.055922851,-0.136002570,0.844364166,-6.380714417,6.128608704,-72.191871643
38.917640,-0.056777343,-0.131363899,0.848026276,-5.716957092,5.548774719,-72.062171936
38.918267,-0.062270507,-0.126481086,0.854129791,-4.404701233,5.243598938,-71.924842834
38.918892,-0.059951171,-0.123307250,0.857547760,-3.565467834,4.648506165,-71.741737366
38.919518,-0.063735351,-0.120743774,0.862674713,-2.604164124,4.099189758,-71.345008850
38.920145,-0.059340820,-0.119645141,0.865848541,-2.192176819,3.603279114,-71.261085510
38.920771,-0.063002929,-0.113541625,0.870731354,-1.253761292,3.023445129,-71.444190979
38.921396,-0.061904296,-0.110001586,0.874881744,-0.384010315,2.840339661,-71.314491272
38.922023,-0.058974609,-0.104142211,0.876224518,0.264488220,2.504646301,-71.100868225
38.922648,-0.055678710,-0.098282836,0.880374908,0.851951599,1.879035950,-70.902503967
38.923273,-0.057875976,-0.087906860,0.884769440,1.553855896,1.703559875,-70.574440002
38.923898,-0.055800781,-0.085099243,0.887088776,2.049766541,1.276313782,-70.772804260
38.924523,-0.053481445,-0.080094360,0.890384674,2.698265076,0.780403137,-70.673622131
38.926263,-0.035048828,-0.051529907,0.897953033,3.636680603,-0.112236023,-70.696510315
38.926888,-0.031630859,-0.037858032,0.895267487,4.071556091,-0.402153015,-70.597328186
38.927514,-0.031020507,-0.027970336,0.899295807,4.468284607,-0.440299988,-70.521034241
38.928140,-0.030898437,-0.020401977,0.900638580,3.934226990,-0.455558777,-70.688880920
38.928765,-0.030654296,-0.012223267,0.909549713,4.117332458,-1.027763367,-70.551551819
38.929392,-0.034804687,-0.004776978,0.918338776,3.781639099,-1.256645203,-70.528663635
38.930017,-0.037734374,0.008284546,0.923954010,3.796897888,-1.668632507,-70.078529358
38.930644,-0.031508788,0.015974976,0.932987213,3.331504822,-2.248466492,-69.719947815
38.931271,-0.021743163,0.025496460,0.942630768,3.140769958,-2.416313171,-69.269813538
38.931896,-0.009780273,0.035994507,0.947635651,2.324424744,-2.790153503,-69.452919006
38.932522,0.003159180,0.040511109,0.953250885,1.782737732,-2.576530457,-69.300331116
38.933147,0.014145508,0.047713257,0.960453033,1.324974060,-2.561271667,-69.292701721
38.933774,0.023544922,0.056502320,0.968143463,0.905357361,-2.095878601,-69.536842346
38.934400,0.023178712,0.066267945,0.972660065,0.150047302,-1.409233093,-69.513954163
38.935025,0.029282227,0.077254273,0.974369049,-0.452674866,-1.004875183,-69.483436584
38.936757,0.034409180,0.102766968,0.990360260,-3.183998108,-0.135124207,-69.407142639
38.937384,0.042832032,0.103011109,0.996829987,-4.122413635,0.124275208,-69.407142639
38.938013,0.048203126,0.110091187,0.996219635,-4.992164612,0.200569153,-69.224037170
38.951918,0.174179688,0.189681023,0.996829987,-21.647132874,7.013618469,-73.458351135
38.952652,0.178940430,0.184920281,0.995975494,-22.768653870,7.234870911,-73.710121155
38.953277,0.181503907,0.184676141,0.995243073,-23.157752991,7.601081848,-74.358619690
38.953903,0.181992188,0.183089226,0.994632721,-23.882545471,7.761299133,-74.694313049
38.954528,0.186875001,0.184187859,0.992801666,-24.920143127,7.936775208,-74.999488831
38.955153,0.191025391,0.181624383,0.987552643,-25.377906799,8.005439758,-75.464881897
38.955779,0.193833008,0.180037469,0.984867096,-26.110328674,8.043586731,-75.960792542
38.956405,0.197128907,0.174056023,0.984378815,-26.346839905,8.325874329,-76.487220764
38.957032,0.195297852,0.170638055,0.983890533,-27.056373596,8.417427063,-76.883949280
38.957659,0.200424805,0.166243523,0.981327057,-27.147926331,8.379280090,-77.532447815
38.958284,0.199692383,0.164046258,0.979007721,-27.376808167,8.409797668,-77.761329651
38.958911,0.201279297,0.157820672,0.979740143,-27.887977600,8.325874329,-78.509010315
38.959538,0.204086915,0.151473016,0.979007721,-27.727760315,8.432685852,-78.776039124
38.960164,0.205307618,0.146346062,0.976078033,-28.116859436,8.486091614,-79.119361877
38.961871,0.207871094,0.126082391,0.977176666,-27.880348206,8.310615540,-80.446876526
38.962497,0.209946290,0.120100953,0.982059479,-27.887977600,8.188545227,-80.912269592
38.963122,0.209946290,0.120100953,0.982059479,-27.887977600,8.188545227,-80.912269592
38.963748,0.207138672,0.114851929,0.986820221,-27.437843323,8.028327942,-81.507362366
38.964373,0.207016602,0.107405640,0.985965729,-27.178443909,8.074104309,-82.262672424
38.964999,0.207382813,0.099715210,0.985843658,-27.071632385,8.135139465,-82.613624573
38.965625,0.206040040,0.093245484,0.987552643,-26.369728088,8.501350403,-83.300270081
38.966251,0.204941407,0.088240601,0.986454010,-26.270545959,8.150398254,-83.605445862
38.966878,0.204208985,0.081160523,0.989139557,-25.896705627,8.508979797,-84.147132874
38.967505,0.201889649,0.075789429,0.988285065,-25.438941956,8.364021301,-84.337867737
38.968130,0.202500001,0.067000367,0.987918854,-24.881996155,8.570014954,-84.940589905
38.968756,0.198105469,0.062972046,0.988895416,-24.592079163,8.714973450,-85.573829651
38.969381,0.194443360,0.058089234,0.989627838,-23.874916077,8.653938293,-85.741676331
38.970015,0.191879883,0.050642945,0.981571198,-23.203529358,8.531867981,-86.184181213
38.970641,0.187729493,0.045027710,0.978885651,-22.646583557,8.562385559,-86.565650940
38.972379,0.182602540,0.026961304,0.968875885,-20.624794006,8.531867981,-87.900794983
38.973012,0.180161133,0.019515015,0.968753815,-19.900001526,8.341133118,-88.099159241
38.973638,0.178940430,0.017928101,0.964237213,-19.297279358,8.249580383,-88.831581116
38.974263,0.176132813,0.012068725,0.962039948,-18.458045959,8.386909485,-88.808692932
38.974888,0.172104493,0.005110717,0.961795807,-17.862953186,8.333503723,-89.327491760
38.975513,0.173325196,0.001814819,0.961429596,-17.275489807,8.196174622,-89.281715393
38.994715,0.052109376,-0.182999641,0.965824127,-7.052101135,6.021797180,-89.831031799
38.995342,0.055527344,-0.187272102,0.967166901,-6.670631409,6.021797180,-89.434303284
38.995968,0.050278321,-0.193375617,0.969852448,-6.365455627,6.235420227,-89.174903870
38.996593,0.048447266,-0.190812141,0.974613190,-6.029762268,6.326972961,-89.129127502
38.997219,0.045395508,-0.191300422,0.971195221,-5.625404358,6.594001770,-88.625587463
38.997844,0.040512696,-0.193253547,0.976078033,-5.152381897,6.609260559,-88.442481995
38.998469,0.034287110,-0.194962531,0.977787018,-5.030311584,6.723701477,-88.083900452
38.999096,0.036972657,-0.199723274,0.979496002,-5.121864319,6.716072083,-87.885536194
38.999723,0.031967774,-0.200333625,0.975955963,-4.931129456,7.021247864,-87.786354065
39.000349,0.033432618,-0.200089484,0.978275299,-4.709877014,7.120429993,-87.412513733
39.000976,0.031723633,-0.198136359,0.979007721,-4.610694885,7.143318176,-87.038673401
39.001601,0.030747071,-0.197770149,0.978885651,-4.496253967,7.669746399,-86.733497620
39.015510,0.003037110,-0.205826789,0.987308502,-8.646644592,10.202705383,-78.531898499
39.016244,0.002915039,-0.205216438,0.985721588,-8.707679749,10.423957825,-78.470863342
39.016871,0.003281250,-0.209366828,0.989505768,-9.035743713,10.523139954,-77.875770569
39.017498,0.003159180,-0.207413703,0.990604401,-9.211219788,10.942756653,-77.402748108
39.018123,0.006699219,-0.213639289,0.992313385,-9.577430725,10.904609680,-77.143348694
39.018749,0.006699219,-0.213273078,0.989871979,-9.691871643,10.874092102,-76.708473206
39.019374,0.011093751,-0.216568977,0.993534088,-9.470619202,11.423408508,-76.464332581
39.019999,0.016220704,-0.218522102,0.994022369,-9.951271057,11.553108215,-76.006568909
39.020626,0.012680665,-0.222672492,0.998172760,-9.562171936,11.797248840,-75.556434631
39.021251,0.015122071,-0.225113899,0.999759674,-9.371437073,12.377082825,-75.289405823
39.021876,0.016953126,-0.227433234,0.998905182,-9.462989807,12.346565247,-75.007118225
39.022501,0.019272462,-0.229508430,1.003299713,-9.165443420,12.705146790,-74.602760315
39.023127,0.017685547,-0.228898078,1.006839752,-9.005226135,12.720405579,-74.244178772
39.023752,0.019272462,-0.230240852,1.003299713,-8.570350647,13.071357727,-73.755897522
39.025507,0.023300782,-0.234513313,1.008548737,-7.609046936,14.086067200,-72.886146545
39.026133,0.026230469,-0.232804328,1.007205963,-7.258094788,14.200508118,-72.642005920
39.026758,0.020249024,-0.235734016,1.009647369,-6.945289612,14.437019348,-72.313941956
39.027383,0.023300782,-0.233658820,1.003787994,-6.472267151,14.742195129,-72.130836487
39.028012,0.022812501,-0.233658820,1.005130768,-5.854286194,14.948188782,-71.756996155
39.028637,0.024887696,-0.233902961,1.000736237,-5.488075256,15.360176086,-71.650184631
39.029263,0.030136719,-0.234147102,1.001712799,-4.450477600,15.375434875,-71.352638245
39.029888,0.030380860,-0.233658820,0.999881744,-4.030860901,15.589057922,-71.093238831
39.030513,0.030747071,-0.228165656,0.996097565,-3.412879944,15.505134583,-70.833839417
39.031139,0.028671876,-0.227555305,0.991214752,-2.665199280,15.901863098,-70.665992737
39.031766,0.033432618,-0.226090461,0.992313385,-2.215065002,15.894233704,-70.635475159
39.032392,0.035996094,-0.222672492,0.987430573,-1.551307678,15.985786438,-70.429481506
39.033017,0.037216797,-0.220841438,0.988285065,-0.811256409,16.107856750,-70.017494202
39.033642,0.038803712,-0.211442024,0.984989166,-0.261940002,16.146003723,-69.948829651
39.034268,0.043320313,-0.207779914,0.985355377,0.333152771,16.466438293,-69.697059631
39.035988,0.048935547,-0.199357063,0.980106354,1.286827087,16.504585266,-69.201148987
39.036614,0.050034180,-0.191544563,0.978763580,1.714073181,16.252815247,-69.414772034
39.037240,0.053574219,-0.191300422,0.980350494,2.034507751,16.458808899,-69.048561096
39.037866,0.054550782,-0.187638313,0.978397369,2.179466248,16.634284973,-69.018043518
39.038491,0.056992188,-0.185563117,0.979007721,2.652488708,16.542732239,-68.743385315
39.039117,0.059921876,-0.181290656,0.978641510,2.683006287,16.496955872,-68.537391663
39.039742,0.063339844,-0.175675422,0.979740143,2.866111755,16.252815247,-68.621315002
39.040368,0.065903321,-0.172013313,0.977787018,2.766929626,16.512214661,-68.331398010
39.040994,0.066269532,-0.165177375,0.974002838,2.866111755,16.451179504,-68.178810120
39.041619,0.071030274,-0.159073859,0.977298737,2.858482361,16.458808899,-68.071998596
39.042244,0.075913087,-0.155655891,0.974002838,2.904258728,16.542732239,-67.850746155
39.042870,0.079575196,-0.151139289,0.972049713,2.484642029,16.641914368,-67.660011292
39.043496,0.083847657,-0.146866828,0.969974518,2.324424744,16.588508606,-67.644752502
39.044121,0.083481446,-0.144669563,0.971073151,2.171836853,16.786872864,-67.492164612
39.044746,0.088486329,-0.139054328,0.964115143,1.645408630,16.596138000,-67.293800354
39.046483,0.091049805,-0.131485969,0.955814362,0.653587341,16.802131653,-67.118324280
39.047109,0.095810547,-0.128312141,0.954105377,0.378929138,16.619026184,-66.973365784
39.047735,0.097519532,-0.125382453,0.954959869,0.157676697,16.512214661,-66.706336975
39.048360,0.099960938,-0.124772094,0.953495026,-0.391639709,16.443550110,-66.691078186
39.063022,0.085800782,-0.150895149,0.927005768,-10.279335022,13.452827454,-64.852394104
39.063770,0.087021485,-0.153336555,0.926883698,-10.462440491,13.101875305,-65.210975647
39.064395,0.088852540,-0.155900031,0.931034088,-10.996498108,13.292610168,-64.760841370
39.065021,0.089340821,-0.152115852,0.932254791,-11.316932678,13.216316223,-64.501441956
39.065647,0.091782227,-0.152604133,0.934696198,-11.904396057,13.338386536,-64.577735901
39.066274,0.093247071,-0.153702766,0.934329987,-12.118019104,13.216316223,-64.417518616
39.066899,0.089951172,-0.156510383,0.937259674,-12.743629456,13.033210754,-64.432777405
39.067524,0.088852540,-0.164078742,0.942508698,-13.018287659,13.056098938,-64.226783752
39.068149,0.093735352,-0.172501594,0.944950104,-13.689674377,13.017951965,-63.967384338
39.068776,0.101303712,-0.169938117,0.940433502,-14.078773499,12.934028625,-63.387550354
39.069402,0.105087891,-0.170060188,0.938480377,-14.422096252,12.964546204,-63.631690979
39.070027,0.106918946,-0.171402961,0.936893463,-14.918006897,13.101875305,-63.410438538
39.070652,0.108017579,-0.179947883,0.934329987,-15.040077209,13.544380188,-63.418067932
39.071278,0.106796876,-0.182999641,0.934696198,-15.261329651,13.574897766,-63.517250061
39.072989,0.100083008,-0.185441047,0.924808502,-15.597023010,13.651191711,-63.120521545
39.073615,0.089951172,-0.188614875,0.921024323,-15.803016663,13.475715637,-62.784828186
39.074240,0.084946290,-0.193253547,0.922611237,-16.115821838,13.216316223,-62.563575745
39.074866,0.085922852,-0.194596320,0.917240143,-16.260780334,13.223945618,-62.555946350
39.075491,0.085068360,-0.198868781,0.915042877,-16.070045471,12.567817688,-62.525428772
39.076116,0.086411133,-0.205216438,0.912113190,-16.710914612,12.621223450,-62.182106018
39.076743,0.087143555,-0.211442024,0.906742096,-16.611732483,12.697517395,-61.983741760
39.077368,0.090317383,-0.216568977,0.904300690,-16.718544006,12.239753723,-61.899818420
39.077993,0.088974610,-0.223771125,0.907352448,-16.626991272,12.804328918,-61.777748108
39.078620,0.085190430,-0.225480109,0.905399323,-16.634620667,12.239753723,-61.609901428
39.079246,0.080673829,-0.228653938,0.902103424,-16.420997620,11.972724915,-61.365760803
39.079871,0.076767579,-0.229874641,0.899906158,-16.329444885,11.942207336,-61.312355042
39.080497,0.078720704,-0.233536750,0.901371002,-16.329444885,11.171638489,-61.388648987
39.081122,0.076889649,-0.239518195,0.905277252,-16.321815491,11.209785461,-61.098731995
39.081747,0.077866212,-0.246842414,0.903202057,-16.123451233,11.003791809,-60.763038635
39.083486,0.074082032,-0.259781867,0.904544830,-15.558876038,10.378181458,-60.221351624
39.084112,0.070908204,-0.264542609,0.909549713,-15.360511780,9.874641418,-59.984840393
39.084738,0.070541993,-0.267106086,0.905887604,-14.963783264,10.141670227,-59.641517639
39.085364,0.068344727,-0.273331672,0.907596588,-14.933265686,9.752571106,-59.534706116
39.085989,0.064804688,-0.277237922,0.907352448,-14.460243225,9.325325012,-59.458412170
39.086615,0.064560547,-0.284562141,0.905643463,-14.170326233,9.416877747,-59.298194885
39.087241,0.062729493,-0.287125617,0.906009674,-13.933815002,8.989631653,-58.893836975
39.087866,0.059311524,-0.290787727,0.905765533,-13.399757385,8.814155579,-58.649696350
39.088492,0.059067383,-0.297623664,0.902469635,-13.186134338,8.745491028,-58.405555725
39.089119,0.055161133,-0.301407844,0.906986237,-12.705482483,8.508979797,-58.184303284
39.089746,0.055283204,-0.301041633,0.904300690,-12.118019104,8.058845520,-57.924903870
39.090372,0.052475587,-0.306778938,0.907108307,-11.316932678,8.211433411,-57.512916565
39.090998,0.044418946,-0.313248664,0.908695221,-11.057533264,7.860481262,-57.428993225
39.091623,0.044663087,-0.312638313,0.907108307,-10.210670471,7.761299133,-57.070411682
39.092250,0.039780274,-0.317276984,0.909915924,-9.920753479,7.547676086,-56.551612854
39.093981,0.032211915,-0.323258430,0.914798737,-8.219398499,7.097541809,-55.926002502
39.094607,0.028305665,-0.329484016,0.912601471,-7.479347229,7.051765442,-55.567420959
39.108415,-0.037856445,-0.304947883,0.942630768,1.767478943,2.016365051,-46.114601135
39.109132,-0.038833007,-0.302750617,0.948246002,2.255760193,1.695930481,-46.023048401
39.109758,-0.036391601,-0.294693977,0.953006744,2.339683533,1.673042297,-45.412696838
39.110384,-0.036147460,-0.294083625,0.954105377,2.148948669,1.360237122,-45.214332581
39.111013,-0.038710937,-0.290299445,0.960941315,2.080284119,1.612007141,-44.512428284
39.111638,-0.036513671,-0.283219367,0.963993073,2.278648376,1.383125305,-44.428504944
39.112264,-0.035537109,-0.277115852,0.968265533,2.263389587,1.161872864,-43.894447327
39.112890,-0.035537109,-0.274308234,0.970462799,2.240501404,1.009284973,-43.627418518
39.113517,-0.027358398,-0.271256477,0.975223541,2.042137146,1.024543762,-43.169654846
39.114143,-0.029555663,-0.265641242,0.982181549,1.866661072,1.451789856,-42.582191467
39.114768,-0.027236328,-0.260026008,0.985477448,1.881919861,1.001655579,-42.177833557
39.115395,-0.026015624,-0.252579719,0.986942291,1.721702576,1.055061340,-41.735328674
39.116020,-0.025405273,-0.247818977,0.988773346,1.569114685,1.138984680,-41.567481995
39.116646,-0.021987304,-0.240983039,0.992313385,1.439414978,1.001655579,-41.186012268
39.118383,-0.010146484,-0.231705695,1.005374908,0.813804626,1.161872864,-39.812721252
39.119012,-0.006850586,-0.225846320,1.009403229,0.630699158,1.337348938,-39.789833069
39.119639,-0.005507812,-0.221085578,1.010990143,0.600181580,1.322090149,-39.156593323
39.120264,0.000229492,-0.218033820,1.019412994,0.401817322,1.749336243,-38.942970276
39.120889,0.001572266,-0.212174445,1.022220612,0.127159119,1.802742004,-38.851417542
39.121516,0.006210938,-0.205704719,1.025882721,-0.170387268,1.734077454,-38.317359924
39.122141,0.009995118,-0.204728156,1.031375885,-0.429786682,2.016365051,-37.836708069
39.122767,0.016098633,-0.199479133,1.033573151,-0.643409729,2.420722961,-37.775672913
39.123393,0.016953126,-0.195206672,1.039310455,-0.895179749,2.664863586,-37.356056213
39.124020,0.020126954,-0.194108039,1.041751862,-1.017250061,2.916633606,-37.150062561
39.124645,0.026108399,-0.190079719,1.044071198,-1.131690979,3.031074524,-36.844886780
39.125271,0.027695313,-0.186661750,1.043827057,-1.246131897,3.458320618,-36.532081604
39.125898,0.030014649,-0.183243781,1.048343658,-1.650489807,3.740608215,-36.326087952
39.126524,0.031845704,-0.182389289,1.047367096,-1.566566467,3.969490051,-35.929359436
39.127149,0.035874024,-0.177994758,1.049198151,-1.688636780,4.007637024,-35.898841858
39.128887,0.040756837,-0.171525031,1.047855377,-1.612342834,4.343330383,-35.547889709
39.129512,0.040146485,-0.170304328,1.052738190,-1.368202209,4.839241028,-35.067237854
39.130138,0.041977540,-0.167740852,1.054203033,-1.368202209,4.991828918,-35.273231506
39.130764,0.045639649,-0.165177375,1.050296783,-0.994361877,5.052864075,-35.051979065
39.131389,0.047470704,-0.162613899,1.051151276,-0.658668518,5.251228333,-34.937538147
39.132015,0.044052735,-0.158341438,1.052860260,-0.544227600,5.495368958,-34.952796936
39.132641,0.045517579,-0.154435188,1.054203033,-0.506080627,5.693733215,-34.784950256
39.133267,0.046372071,-0.149308234,1.054203033,-0.277198792,5.930244446,-34.876502991
39.133892,0.046494141,-0.146988899,1.054569244,0.165306091,6.075202942,-34.952796936
39.134519,0.045273438,-0.145890266,1.054691315,0.523887634,6.151496887,-34.746803284
39.135144,0.052475587,-0.143448859,1.050662994,0.760398865,6.197273254,-34.502662659
39.135769,0.055283204,-0.141373664,1.052249908,0.989280701,6.281196594,-34.731544495
39.136394,0.054916993,-0.138321906,1.054080963,1.447044373,6.403266907,-34.655250549
39.137019,0.055405274,-0.130753547,1.055057526,1.569114685,6.731330872,-34.372962952
39.137645,0.056015626,-0.126725227,1.060062408,1.920066833,6.861030579,-34.540809631
39.139388,0.061630860,-0.111710571,1.059329987,2.179466248,7.059394836,-34.319557190
39.140014,0.066757813,-0.110367797,1.061893463,2.347312927,7.005989075,-34.426368713
39.140641,0.066879883,-0.105973266,1.060916901,2.354942322,7.654487610,-34.357704163
39.141267,0.075913087,-0.099259399,1.062503815,2.446495056,7.593452454,-34.166969299
39.155111,0.101547852,-0.052506469,1.063846588,-1.108802795,10.202705383,-35.105384827
39.155860,0.097031251,-0.047257446,1.063968658,-1.307167053,10.362922668,-35.250343323
39.156486,0.094345704,-0.045182250,1.061527252,-1.490272522,10.645210266,-35.494483948
39.157111,0.094345704,-0.042862915,1.055912018,-1.673377991,10.507881165,-35.647071838
39.157737,0.094956055,-0.042984985,1.051151276,-2.070106506,10.568916321,-35.685218811
39.158364,0.096665040,-0.045182250,1.049564362,-2.031959534,10.263740540,-35.799659729
39.158991,0.096542969,-0.041153930,1.049686432,-2.154029846,10.271369934,-35.753883362
39.159616,0.099716797,-0.043351196,1.043216705,-2.207435608,10.515510559,-35.746253967
39.160241,0.100205079,-0.041031860,1.045169830,-2.459205627,10.225593567,-35.921730042
39.160866,0.103989258,-0.040421508,1.050052643,-2.466835022,10.095893860,-35.921730042
39.161491,0.105209962,-0.039200805,1.049198151,-2.527870178,10.340034485,-36.059059143
39.162118,0.109970704,-0.037858032,1.052616119,-2.634681702,10.156929016,-36.333717346
39.162744,0.111679688,-0.037247680,1.054080963,-3.206886292,10.271369934,-36.272682190
39.163371,0.114487305,-0.033097290,1.057254791,-3.260292053,10.530769348,-36.204017639
39.165106,0.118271485,-0.026261352,1.061038971,-4.313148499,10.607063293,-36.661781311
39.165731,0.120590821,-0.031510375,1.061527252,-5.121864319,10.774909973,-36.890663147
39.166358,0.123154297,-0.031876586,1.060306549,-5.320228577,10.576545715,-36.989845276
39.166984,0.125961915,-0.032731079,1.061527252,-5.701698303,10.973274231,-37.058509827
39.167609,0.128403321,-0.037125610,1.059085846,-5.800880432,10.919868469,-37.226356506
39.168234,0.129135743,-0.039689086,1.056644440,-6.365455627,10.958015442,-37.104286194
39.168859,0.126083985,-0.041520141,1.051151276,-6.380714417,11.316596985,-37.119544983
39.169484,0.130112305,-0.044693969,1.049442291,-6.846107483,11.080085754,-37.172950745
39.170111,0.126694337,-0.043961547,1.050662994,-6.731666565,11.133491516,-37.432350159
39.170736,0.128159180,-0.043229125,1.048709869,-7.052101135,10.980903625,-37.546791077
39.171362,0.128037110,-0.047501586,1.048465729,-7.128395081,11.186897278,-37.340797424
39.171989,0.127060547,-0.047379516,1.049320221,-7.235206604,11.308967590,-37.295021057
39.172614,0.128037110,-0.049088500,1.048831940,-7.433570862,11.324226379,-37.417091370
39.173239,0.126816407,-0.051529907,1.048221588,-7.265724182,11.362373352,-37.233985901
39.173865,0.124863282,-0.052628540,1.051883698,-7.548011780,11.415779114,-37.333168030
39.175606,0.122299805,-0.053971313,1.049930573,-7.998146057,11.598884583,-37.516273499
39.176233,0.121201172,-0.052750610,1.046512604,-8.188880920,11.499702454,-37.272132874
39.176859,0.117172852,-0.057999633,1.046268463,-8.349098206,11.637031555,-37.287391663
39.177484,0.114975587,-0.058365844,1.047245026,-8.486427307,11.682807922,-37.180580139
39.178111,0.113754883,-0.062027954,1.048343658,-8.318580627,11.743843079,-37.287391663
39.178738,0.110458985,-0.064835571,1.047977448,-8.730567932,11.644660950,-37.264503479
39.179365,0.112167969,-0.067887329,1.043949127,-8.478797913,11.537849426,-37.172950745
39.179992,0.112290040,-0.070694946,1.041263580,-8.700050354,11.461555481,-37.165321350
39.180617,0.111069337,-0.071793579,1.041751862,-8.364356995,11.575996399,-37.226356506
39.181242,0.110458985,-0.073624633,1.039676666,-8.486427307,11.545478821,-37.058509827
39.181867,0.105332032,-0.074601196,1.038211823,-8.143104553,11.392890930,-36.883033752
39.182492,0.107529297,-0.075943969,1.037479401,-8.463539124,11.705696106,-37.172950745
39.183118,0.105332032,-0.076066040,1.037845612,-8.227027893,11.247932434,-36.944068909
39.183744,0.102158204,-0.077530883,1.038211823,-8.249916077,11.064826965,-37.027992249
39.184370,0.099472657,-0.077652954,1.038211823,-8.097328186,11.186897278,-36.913551331
39.186118,0.100571290,-0.080826782,1.037601471,-8.013404846,10.950386047,-36.600746155
39.186744,0.100571290,-0.079972290,1.039676666,-7.952369690,10.729133606,-36.554969788
39.187369,0.103623047,-0.082535766,1.042850494,-7.776893616,10.698616028,-36.318458557
39.201180,0.110581055,-0.065079711,1.056034088,-3.595985413,10.378181458,-33.732093811
39.201903,0.112290040,-0.059952758,1.059574127,-2.840675354,10.393440247,-33.640541077
39.202529,0.110703126,-0.055314086,1.058841705,-3.023780823,10.645210266,-33.663429260
39.203155,0.112534180,-0.055924438,1.058597565,-2.779640198,10.294258118,-33.564247131
39.203782,0.112778321,-0.051529907,1.061527252,-2.680458069,10.256111145,-33.426918030
39.204408,0.111801758,-0.049576782,1.061649323,-2.482093811,10.767280579,-33.419288635
39.205033,0.115585938,-0.044816040,1.062015533,-2.466835022,10.507881165,-33.167518616
39.205659,0.117539063,-0.044205688,1.062015533,-1.986183167,10.538398743,-33.236183167
39.206284,0.117294922,-0.043107055,1.064579010,-2.207435608,10.629951477,-33.129371643
39.206909,0.119980469,-0.041886352,1.065067291,-1.864112854,10.614692688,-33.060707092
39.207535,0.121567383,-0.038712524,1.064334869,-1.703895569,10.858833313,-32.992042542
39.208160,0.119858399,-0.032853149,1.065799713,-1.825965881,11.034309387,-33.114112854
39.208862,0.125961915,-0.027848266,1.068973541,-1.307167053,10.866462708,-32.679237366
39.209488,0.126206055,-0.024552368,1.069828033,-1.413978577,10.797798157,-32.816566467
39.211229,0.133164063,-0.018692993,1.074588776,-1.063026428,11.179267883,-32.511390686
39.211855,0.133896485,-0.016007446,1.074466705,-0.689186096,11.339485168,-32.595314026
39.212481,0.136826172,-0.011246704,1.074344635,-0.590003967,10.973274231,-32.686866760
39.213106,0.138901368,-0.006241822,1.073734283,-0.628150940,11.446296692,-32.480873108
39.213732,0.145737305,-0.002213501,1.070560455,-0.338233948,11.614143372,-32.786048889
39.214358,0.157822266,0.013045288,1.069705963,-0.292457581,11.408149719,-32.839454651
39.214983,0.164902344,0.027571656,1.065677643,-0.460304260,11.598884583,-32.969154358
39.215608,0.158676758,0.035994507,1.060916901,-0.445045471,11.865913391,-33.243812561
39.216233,0.154648438,0.038680054,1.055057526,-0.803627014,12.369453430,-33.449806213
39.216859,0.150375977,0.028304078,1.054569244,-0.605262756,12.239753723,-33.754981995
39.217486,0.135361329,0.026717164,1.055301666,-0.757850647,12.308418274,-33.892311096
39.218111,0.128037110,0.032210328,1.055179596,-0.857032776,12.079536438,-33.472694397
39.218737,0.122421876,0.031599976,1.063358307,-1.238502502,11.560737610,-33.121742249
39.219363,0.124252930,0.027815796,1.072513580,-1.909889221,10.866462708,-32.862342834
39.219989,0.140732422,0.024153687,1.075809479,-1.948036194,10.584175110,-32.656349182
39.221732,0.192246094,0.030867554,1.083011627,-1.848854065,11.331855774,-32.480873108
39.222359,0.192978516,0.036360718,1.088382721,-1.787818909,11.827766418,-32.557167053
39.222985,0.192246094,0.046004273,1.092533112,-1.467384338,12.277900696,-33.014930725
39.223611,0.182602540,0.054427125,1.096073151,-1.459754944,12.613594055,-33.259071350
39.224236,0.181503907,0.058699585,1.096317291,-1.551307678,12.834846497,-33.396400452
39.224862,0.178940430,0.061263062,1.096317291,-1.787818909,13.078987122,-33.892311096
39.225488,0.186264649,0.058211304,1.099124908,-1.810707092,13.033210754,-33.892311096
39.244712,0.245712891,0.088240601,1.049930573,6.947837830,15.779792786,-42.330421448
39.245339,0.246323243,0.088484742,1.050662994,7.466636658,16.054450989,-43.047584534
39.245965,0.246811524,0.094954468,1.054447174,7.680259705,15.772163391,-43.207801819
39.246592,0.248520508,0.097762085,1.059329987,7.809959412,15.940010071,-43.764747620
39.247217,0.246323243,0.098982789,1.060428619,7.802330017,16.191780090,-44.191993713
39.247844,0.250107408,0.101302125,1.062503815,7.756553650,16.092597961,-44.329322815
39.248471,0.250717759,0.104475953,1.064456940,7.878623962,16.130744934,-44.970191956
39.249096,0.250717759,0.104964234,1.060916901,7.436119080,16.168891907,-45.321144104
39.249722,0.250107408,0.106184937,1.057987213,7.283531189,16.321479797,-45.694984436
39.250348,0.246567383,0.106184937,1.057254791,6.726585388,16.451179504,-45.954383850
39.250974,0.249008790,0.104964234,1.056400299,6.833396912,16.489326477,-46.312965393
39.251600,0.243637696,0.100081421,1.052494049,6.299339294,16.741096497,-46.732582092
39.265508,0.179794922,0.019270875,0.999149323,0.317893982,16.687690735,-53.415931702
39.266259,0.174057618,0.013777710,0.993656158,0.203453064,16.733467102,-53.728736877
39.266885,0.169052735,0.006819702,0.990726471,-0.071205139,16.748725891,-53.743995667
39.267511,0.165634766,0.002303100,0.990604401,-0.116981506,16.702949524,-54.285682678
39.268138,0.162216797,-0.003922486,0.987186432,-0.216163635,16.702949524,-54.178871155
39.268765,0.154038087,-0.010514283,0.989261627,-0.155128479,16.702949524,-54.354347229
39.269392,0.148422852,-0.020401977,0.982913971,-0.391639709,16.527473450,-54.682411194
39.270017,0.146225587,-0.023331665,0.979618073,-0.208534241,16.458808899,-54.789222717
39.270644,0.137192383,-0.030900024,0.978031158,-0.116981506,16.496955872,-54.827369690
39.271269,0.129868165,-0.038224243,0.978031158,-0.010169983,16.451179504,-55.056251526
39.271894,0.121445313,-0.050919555,0.981937408,0.058494568,16.405403137,-54.728187561
39.272520,0.123642579,-0.056290649,0.985843658,0.256858826,15.810310364,-54.834999084
39.273147,0.126328126,-0.055924438,0.984989166,0.470481873,16.039192200,-54.995216370
39.273774,0.125961915,-0.055680297,0.979862213,0.455223083,15.482246399,-54.949440002
39.275511,0.132675782,-0.081192993,0.972537994,1.355491638,16.443550110,-55.788673401
39.276138,0.129135743,-0.076066040,0.969730377,1.988731384,16.611396790,-55.994667053
39.276763,0.117172852,-0.073990844,0.971927643,2.408348083,16.741096497,-56.376136780
39.277389,0.101181641,-0.080582641,0.966068268,2.621971130,16.405403137,-56.162513733
39.278014,0.091293946,-0.085221313,0.965091705,2.591453552,16.016304016,-56.284584045
39.278641,0.090317383,-0.086808227,0.958133698,3.072105408,15.825569153,-56.231178284
39.279266,0.095810547,-0.092911743,0.956058502,2.911888123,15.314399719,-56.292213440
39.279893,0.098129883,-0.102799438,0.951297760,3.156028748,15.421211243,-56.284584045
39.280518,0.099106446,-0.109513305,0.945682526,3.560386658,15.367805481,-56.528724670
39.281143,0.099838868,-0.116349243,0.945682526,4.086814880,15.390693665,-56.612648010
39.281770,0.092636719,-0.114884399,0.941532135,4.514060974,15.238105774,-56.643165588
39.282395,0.084946290,-0.113053344,0.938602448,4.956565857,15.291511536,-56.704200745
39.283022,0.080063477,-0.110489868,0.935184479,5.353294373,14.726936340,-56.612648010
39.283648,0.077988282,-0.113785766,0.935428619,5.315147400,14.421760559,-56.688941956
39.284273,0.078720704,-0.115983032,0.934574127,5.513511658,14.314949036,-56.841529846
39.286000,0.083481446,-0.120743774,0.927616119,5.963645935,13.696968079,-56.849159241
39.286625,0.081650391,-0.123551391,0.927127838,6.184898376,13.483345032,-56.933082581
39.287250,0.081894532,-0.122818969,0.929203033,6.451927185,13.178169250,-57.032264709
39.287876,0.073349610,-0.122086547,0.925907135,6.573997498,13.231575012,-57.169593811
39.288503,0.072617188,-0.121232055,0.929080963,6.795249939,12.895881653,-57.055152893
39.289130,0.068466797,-0.121720336,0.924930573,6.818138123,12.682258606,-57.299293518
39.289757,0.072983399,-0.124405883,0.924686432,6.535850525,12.415229797,-57.123817444
39.290383,0.071030274,-0.128800422,0.923465729,6.665550232,12.216865540,-57.169593811
39.291013,0.071274415,-0.129899055,0.922733307,6.520591736,11.759101868,-57.261146545
39.291639,0.074082032,-0.129410774,0.922000885,6.581626892,11.667549133,-57.078041077
39.292265,0.072983399,-0.137101203,0.920536041,6.604515076,11.354743958,-57.146705627
39.292891,0.073471680,-0.141373664,0.921634674,6.871543884,11.057197571,-57.039894104
39.293517,0.077011719,-0.140519172,0.920902252,6.673179626,10.950386047,-57.116188049
39.294143,0.077133790,-0.142960578,0.920291901,6.680809021,10.736763000,-57.261146545
39.294770,0.078232422,-0.141861945,0.922611237,6.810508728,10.484992981,-57.032264709
39.296508,0.083481446,-0.153824836,0.927249908,6.947837830,10.446846008,-56.971229553
39.297134,0.080795899,-0.154435188,0.926761627,6.772361755,9.897529602,-56.879676819
39.297761,0.078232422,-0.157364875,0.932010651,6.558738708,9.882270813,-56.833900452
39.311612,0.064926758,-0.212540656,0.942630768,5.200706482,9.500801086,-53.385414124
39.312345,0.064682618,-0.215104133,0.943485260,5.429588318,9.340583801,-53.080238342
39.312970,0.064072266,-0.214127570,0.942508698,5.322776794,9.386360168,-53.049720764
39.313596,0.063583985,-0.219254524,0.943851471,5.353294373,9.401618958,-52.622474670
39.314221,0.065415040,-0.219498664,0.941654205,5.627952576,9.256660461,-52.446998596
39.314847,0.066025391,-0.222916633,0.946414948,5.421958923,9.287178040,-52.355445862
39.315472,0.067368165,-0.227555305,0.947757721,5.544029236,9.073554993,-52.118934631
39.316098,0.066147462,-0.229508430,0.947025299,5.673728943,9.241401672,-51.714576721
39.316725,0.067368165,-0.233414680,0.949710846,5.666099548,9.264289856,-51.561988831
39.317351,0.065781251,-0.234391242,0.953617096,5.605064392,9.172737122,-51.188148499
39.317977,0.068466797,-0.235856086,0.950199127,5.742393494,9.111701965,-51.142372131
39.318603,0.070664063,-0.235489875,0.950321198,5.788169861,9.241401672,-50.562538147
39.319229,0.067978516,-0.241349250,0.956668854,6.024681091,9.493171692,-50.501502991
39.319856,0.070664063,-0.244401008,0.956546783,5.956016541,9.203254700,-50.257362366
39.321593,0.071152344,-0.246598274,0.961185455,6.619773865,9.714424133,-49.387611389
39.322218,0.071640626,-0.248185188,0.963382721,6.612144470,9.577095032,-48.739112854
39.322845,0.070908204,-0.250260383,0.963993073,6.726585388,9.676277161,-48.655189514
39.323470,0.071152344,-0.252335578,0.960697174,6.932579041,9.889900208,-48.296607971
39.324097,0.071762696,-0.255265266,0.966800690,7.108055115,9.973823547,-48.166908264
39.324722,0.072128907,-0.253556281,0.968021393,7.298789978,9.981452942,-47.701515198
39.325349,0.074326172,-0.256363899,0.971805573,7.436119080,10.294258118,-47.495521545
39.325976,0.074082032,-0.254654914,0.969730377,7.611595154,10.156929016,-47.152198792
39.326603,0.074814454,-0.256363899,0.967777252,8.031211853,10.294258118,-46.625770569
39.327230,0.076279297,-0.255631477,0.966068268,8.031211853,10.576545715,-46.595252991
39.327856,0.081894532,-0.258561164,0.970340729,8.481346130,10.515510559,-46.076454163
39.328482,0.078476563,-0.255631477,0.972293854,8.252464294,10.866462708,-46.015419006
39.329107,0.080673829,-0.256608039,0.971683502,8.572898865,11.019050598,-45.389808655
39.329733,0.079331055,-0.259049445,0.970340729,8.656822205,11.049568176,-45.496620178
39.330359,0.080551758,-0.257218391,0.971805573,9.183250427,11.102973938,-44.710792542
39.332086,0.085190430,-0.252701789,0.967899323,9.602867126,11.926948547,-43.932594299
39.332713,0.089584962,-0.253068000,0.964969635,9.572349548,11.888801575,-43.574012756
39.333338,0.086533204,-0.250260383,0.967288971,9.908042908,12.125312805,-43.375648499
39.333963,0.090805665,-0.252823859,0.962284088,9.900413513,11.888801575,-42.734779358
39.334588,0.090805665,-0.250382453,0.965335846,9.999595642,12.239753723,-42.368568420
39.335215,0.092636719,-0.246842414,0.962406158,10.159812927,12.323677063,-42.032875061
39.335840,0.095078126,-0.246232063,0.960453033,10.030113220,12.316047668,-42.040504456
39.336465,0.097031251,-0.246109992,0.960208893,10.190330505,12.621223450,-41.483558655
39.337091,0.097885743,-0.243790656,0.959964752,10.083518982,12.766181946,-41.330970764
39.337717,0.100571290,-0.240738899,0.957401276,10.091148376,12.438117981,-40.705360413
39.338344,0.102402344,-0.237931281,0.958255768,10.136924744,12.621223450,-40.560401917
39.338969,0.103134766,-0.239029914,0.954593658,10.083518982,12.758552551,-40.354408264
39.339594,0.100937501,-0.237443000,0.954959869,10.030113220,12.689888000,-39.652503967
39.340221,0.103867188,-0.234147102,0.956790924,9.999595642,13.010322571,-39.362586975
39.340848,0.109482422,-0.231949836,0.955448151,9.869895935,12.590705872,-38.904823303
39.342565,0.115585938,-0.222916633,0.950321198,9.770713806,12.842475891,-38.523353577
39.343191,0.119736329,-0.228531867,0.949954987,9.328208923,13.422309875,-38.294471741
39.343818,0.124741212,-0.225846320,0.950565338,9.259544373,13.117134094,-38.134254456
39.344444,0.123276368,-0.220719367,0.943851471,8.824668884,13.536750793,-37.745155334
39.358277,0.131699219,-0.187027961,0.910892487,2.881370544,10.103523254,-32.419837952
39.358995,0.130478516,-0.188370734,0.904788971,2.576194763,9.538948059,-32.183326721
39.359620,0.132065430,-0.188736945,0.907596588,2.377830505,9.409248352,-32.015480042
39.360246,0.134628907,-0.186905891,0.905399323,2.042137146,9.256660461,-31.862892151
39.360872,0.134995118,-0.187027961,0.905765533,1.797996521,9.172737122,-31.504310608
39.361498,0.137314454,-0.186173469,0.902835846,1.530967712,8.798896790,-31.634010315
39.362123,0.138535157,-0.188859016,0.903202057,1.469932556,8.676826477,-31.466163635
39.362748,0.139267579,-0.185563117,0.903202057,1.477561951,8.356391907,-31.016029358
39.363373,0.139633790,-0.188981086,0.904178619,1.187644958,8.081733704,-30.810035706
39.364000,0.137558594,-0.187516242,0.904911041,1.065574646,8.257209778,-30.710853577
39.364627,0.138168946,-0.187638313,0.903568268,0.790916443,7.936775208,-30.703224182
39.365253,0.135971680,-0.188004524,0.901004791,0.790916443,7.761299133,-30.634559631
39.365879,0.135361329,-0.184830695,0.906009674,0.615440369,7.402717590,-30.245460510
39.366504,0.135117188,-0.185807258,0.906009674,0.302635193,7.128059387,-30.092872620
39.368228,0.136337891,-0.188126594,0.907840729,0.287376404,6.502449036,-29.627479553
39.368855,0.135605469,-0.187272102,0.904544830,0.058494568,6.258308411,-29.398597717
39.369481,0.133530274,-0.185929328,0.903812408,0.165306091,5.937873840,-29.055274963
39.370107,0.133041993,-0.190690070,0.905643463,0.066123962,5.937873840,-28.895057678
39.370732,0.131455079,-0.189347297,0.906009674,0.111900330,5.502998352,-28.719581604
39.371357,0.130112305,-0.189713508,0.903568268,0.089012146,5.388557434,-28.650917053
39.371983,0.128281251,-0.191178352,0.906742096,0.226341248,5.228340149,-28.467811584
39.372609,0.126083985,-0.193863899,0.904544830,0.356040955,4.846870422,-28.109230042
39.373236,0.126572266,-0.189713508,0.904544830,0.470481873,4.709541321,-27.949012756
39.373863,0.127060547,-0.191788703,0.905033112,0.531517029,4.221260071,-27.758277893
39.374490,0.122666016,-0.191544563,0.907230377,0.684104919,4.045783997,-27.514137268
39.375115,0.121445313,-0.191788703,0.906253815,0.661216736,3.992378235,-27.323402405
39.375742,0.121079102,-0.190812141,0.910037994,0.844322205,3.626167297,-27.285255432
39.376368,0.118149415,-0.192643195,0.909793854,0.821434021,3.534614563,-27.094520569
39.376994,0.120468751,-0.192521125,0.911014557,1.012168884,3.275215149,-26.873268127
39.378702,0.118271485,-0.190690070,0.916751862,1.530967712,2.489387512,-26.110328674
39.379328,0.119492188,-0.192276984,0.914676666,1.836143494,2.252876282,-25.995887756
39.379954,0.119980469,-0.190445930,0.918582916,1.843772888,2.054512024,-25.843299866
39.380581,0.121079102,-0.191056281,0.922245026,2.118431091,1.848518372,-25.606788635
39.381206,0.121323243,-0.191910774,0.921390533,2.316795349,1.825630188,-25.507606506
39.381831,0.123520508,-0.190690070,0.926029205,2.477012634,1.703559875,-25.255836487
39.382457,0.122666016,-0.192399055,0.926883698,2.576194763,1.322090149,-25.026954651
39.383082,0.125961915,-0.189713508,0.925052643,3.110252380,1.451789856,-24.958290100
39.383707,0.126816407,-0.186417609,0.928226471,3.430686951,1.390754700,-24.752296448
39.384333,0.126083985,-0.186783820,0.933109283,3.506980896,1.238166809,-24.401344299
39.384960,0.126450196,-0.187150031,0.932498932,3.819786072,1.093208313,-24.347938538
39.385585,0.129135743,-0.186539680,0.935062408,3.918968201,1.016914368,-24.073280334
39.386210,0.129746094,-0.184586555,0.938846588,4.155479431,0.604927063,-24.134315491
39.386836,0.131943360,-0.184220344,0.941776276,4.422508240,0.734626770,-23.699440002
39.387462,0.130478516,-0.183121711,0.940311432,4.651390076,0.696479797,-23.462928772
39.389177,0.132431641,-0.181290656,0.943607330,5.162559509,0.604927063,-23.058570862
39.389803,0.128403321,-0.182023078,0.945926666,5.620323181,0.505744934,-22.822059631
39.390428,0.134262696,-0.184220344,0.943851471,5.894981384,0.391304016,-22.730506897
39.391055,0.132431641,-0.178360969,0.947635651,6.215415955,0.307380676,-22.455848694
39.404818,0.119736329,-0.148453742,0.968875885,11.174522400,-1.050651550,-18.618263245
39.405517,0.119980469,-0.147110969,0.975101471,11.693321228,-1.187980652,-18.320716858
39.406142,0.119125977,-0.144425422,0.976566315,12.006126404,-1.226127625,-18.107093811
39.406767,0.121201172,-0.140763313,0.974491119,12.067161560,-1.363456726,-17.916358948
39.407392,0.122421876,-0.140152961,0.979373932,11.891685486,-1.325309753,-17.870582581
39.408017,0.122421876,-0.136368781,0.977542877,12.219749451,-1.348197937,-17.618812561
39.408642,0.121201172,-0.136612922,0.982303619,12.204490662,-1.378715515,-17.542518616
39.409267,0.121201172,-0.136612922,0.982303619,12.204490662,-1.378715515,-17.542518616
39.409893,0.117172852,-0.132828742,0.981449127,12.555442810,-1.310050964,-17.328895569
39.410518,0.122788087,-0.131974250,0.982425690,12.791954041,-1.424491882,-17.267860413
39.411145,0.127670899,-0.125992805,0.987064362,12.730918884,-1.424491882,-17.183937073
39.411770,0.128647462,-0.118912719,0.984622955,12.997947693,-1.302421570,-17.153419495
39.412396,0.123764649,-0.113175415,0.982181549,12.959800720,-1.195610046,-17.077125549
39.413022,0.122421876,-0.108414672,0.983890533,13.043724060,-1.035392761,-16.955055237
39.426852,0.121811524,-0.056778930,0.988407135,11.746726990,-0.524223328,-14.879859924
39.428798,0.123520508,-0.051896118,0.985233307,11.685691833,-0.974357605,-14.872230530
39.429424,0.124008790,-0.045670532,0.987918854,11.655174255,-0.951469421,-14.902748108
39.430051,0.126572266,-0.046769165,0.988162994,11.700950623,-1.172721863,-14.879859924
39.430676,0.127304688,-0.044816040,0.990970612,11.586509705,-1.119316101,-15.017189026
39.431302,0.129624024,-0.039200805,0.993534088,11.792503357,-1.180351257,-14.925636292
39.431927,0.129746094,-0.035294555,0.992801666,11.571250916,-1.058280945,-14.948524475
39.432552,0.128891602,-0.037125610,0.990360260,11.411033630,-1.226127625,-15.032447815
39.433179,0.128281251,-0.029068969,0.991703033,11.266075134,-0.859916687,-15.177406311
39.433804,0.132553712,-0.026383422,0.990848541,10.938011169,-0.928581238,-15.314735413
39.434430,0.129501954,-0.021378540,0.991458893,11.105857849,-1.088798523,-15.261329651
39.435056,0.131333008,-0.020279907,0.988040924,10.747276306,-1.264274597,-15.505470276
39.435681,0.131455079,-0.019547485,0.986942291,10.396324158,-1.325309753,-15.436805725
39.436307,0.133774415,-0.016495727,0.985355377,10.320030212,-1.317680359,-15.703834534
39.436932,0.132309571,-0.013443970,0.983524323,9.984336853,-1.241386414,-15.780128479
39.437558,0.138168946,-0.014176392,0.975223541,9.839378357,-1.432121277,-15.848793030
39.439293,0.136459962,-0.011612915,0.968631744,9.465538025,-1.744926453,-16.001380920
39.439919,0.133652344,-0.012345337,0.966800690,9.427391052,-2.271354675,-16.123451233
39.440545,0.134750977,-0.009415650,0.965579987,9.015403748,-2.240837097,-16.329444885
39.441172,0.134873047,-0.007096314,0.964969635,8.954368591,-2.446830750,-16.573585510
39.441797,0.138413087,-0.008561158,0.965824127,9.030662537,-2.912223816,-16.832984924
39.442423,0.137558594,-0.008439087,0.964237213,8.756004333,-2.904594421,-16.764320374
39.443048,0.138901368,-0.005265259,0.965702057,8.824668884,-3.339469910,-17.038978577
39.443673,0.137436524,-0.008317017,0.969364166,8.481346130,-3.377616882,-16.977943420
39.444299,0.138535157,-0.007096314,0.970584869,8.466087341,-3.957450867,-17.275489807
39.444924,0.140976563,-0.002335572,0.973636627,8.328758240,-3.713310242,-17.405189514
39.445550,0.139389649,-0.004044556,0.974124908,8.275352478,-3.972709656,-17.733253479
39.446175,0.139267579,-0.002335572,0.976810455,7.878623962,-4.201591492,-17.786659241
39.446801,0.139877930,-0.001969361,0.977664948,7.756553650,-4.346549988,-17.916358948
39.447427,0.137802735,-0.002579712,0.976566315,7.787071228,-4.491508484,-18.145240784
39.448054,0.140488282,-0.002701783,0.979862213,7.550559998,-4.682243347,-18.305458069
39.449775,0.137192383,-0.008927369,0.974246979,7.405601501,-5.330741882,-18.763221741
39.450400,0.137192383,-0.011734986,0.976078033,7.367454529,-5.483329773,-19.220985413
39.451025,0.132553712,-0.014786744,0.973392487,7.268272400,-5.635917664,-19.152320862
39.464915,0.125595704,-0.060196899,0.996585846,12.250267029,-8.901298523,-23.600257874
39.465670,0.124375001,-0.063614868,0.998538971,12.868247986,-9.381950378,-23.867286682
39.466296,0.125717774,-0.064957641,0.996463776,12.982688904,-9.236991882,-23.790992737
39.466921,0.122788087,-0.066422485,1.001834869,13.120018005,-9.114921570,-23.905433655
39.467547,0.121567383,-0.067154907,1.004032135,13.303123474,-9.183586121,-23.996986389
39.468173,0.125473633,-0.066666625,1.006717682,13.577781677,-9.107292175,-24.058021545
39.468798,0.123520508,-0.069352172,1.007083893,13.692222595,-9.214103699,-24.248756409
39.469423,0.121323243,-0.070572875,1.006717682,13.745628357,-9.275138855,-24.401344299
