time,gyro x,gyro y,gyro z,accel x,accel y,accel z
26.741467,0.282175660,0.466067493,0.724799514,2.865165710,-5.273658752,-3.131378174
26.761900,0.284617066,0.376223743,0.955756545,-4.405647278,-3.091651917,2.277862549
26.762525,0.281443238,0.366946399,0.954535842,-4.817634583,-2.511817932,2.293121338
26.763150,0.279612184,0.361819446,0.948554397,-4.512458801,-2.420265198,2.583038330
26.763777,0.283518434,0.363284290,0.934638381,-4.130989075,-2.176124573,3.017913818
26.764403,0.277659059,0.361941516,0.926825881,-4.146247864,-1.428443909,2.857696533
26.765030,0.275705934,0.355471790,0.922675490,-3.734260559,-1.275856018,3.078948975
26.765656,0.272776246,0.358401477,0.922431350,-3.200202942,-1.222450256,3.132354736
26.766282,0.271677613,0.363284290,0.921332717,-2.956062317,-0.863868713,3.315460205
26.766908,0.272287965,0.373416126,0.924506545,-2.551704407,-0.467140198,3.597747803
26.767534,0.264353395,0.378543079,0.926703811,-2.566963196,0.127952576,3.819000244
26.768161,0.262766480,0.386599720,0.929389358,-2.338081360,0.349205017,3.872406006
26.768787,0.263132691,0.389773548,0.933661819,-2.460151672,0.318687439,4.261505127
26.769413,0.261179566,0.399905384,0.937934279,-3.032356262,0.806968689,4.360687256
26.770040,0.257883668,0.399172962,0.935004592,-2.864509583,0.929039001,4.459869385
26.771730,0.255076051,0.414065540,0.924750686,-4.428535461,1.394432068,4.925262451
26.772355,0.259592652,0.414431751,0.919989944,-4.642158508,1.264732361,4.925262451
26.772981,0.257029176,0.412234485,0.910712600,-4.817634583,1.707237244,5.215179443
26.773606,0.259104371,0.410769641,0.906684279,-4.787117004,1.600425720,5.100738525
26.774233,0.263132691,0.411868274,0.902655959,-4.886299133,1.592796326,5.123626709
26.774859,0.268137574,0.412600696,0.895942092,-4.855781555,1.524131775,5.253326416
26.775485,0.267405152,0.413211048,0.890204787,-4.710823059,1.707237244,5.177032471
26.776111,0.266916871,0.416506946,0.889350295,-4.558235168,1.905601501,5.337249756
26.776737,0.268625855,0.421633899,0.890204787,-4.176765442,1.897972107,5.291473389
26.777364,0.271921754,0.422976673,0.888984084,-4.001289368,2.088706970,5.222808838
26.777989,0.270823121,0.431155384,0.890326858,-3.757148743,2.035301208,5.123626709
26.778614,0.275095582,0.436404407,0.890448928,-3.650337219,2.111595154,5.108367920
26.779240,0.276926637,0.439212024,0.891913772,-3.703742981,2.439659119,5.260955811
26.779865,0.275705934,0.445681751,0.892402053,-3.780036926,2.531211853,5.161773682
26.780491,0.279490113,0.448123157,0.892279983,-3.886848450,2.325218201,5.085479736
26.782195,0.278391480,0.451052845,0.882392287,-3.818183899,2.615135193,4.803192139
26.782822,0.278147340,0.452517688,0.882392287,-3.940254211,2.874534607,4.765045166
26.783447,0.279612184,0.451419055,0.879706740,-3.841072083,3.042381287,4.528533936
26.784074,0.281443238,0.455813587,0.877753615,-3.520637512,3.217857361,4.642974854
26.784699,0.278513551,0.456423938,0.879706740,-3.314643860,3.042381287,4.169952393
26.785324,0.276194215,0.460208118,0.881537795,-3.322273254,3.278892517,4.055511475
26.785951,0.275950074,0.467654407,0.882514358,-3.314643860,3.408592224,3.963958740
26.786576,0.277781129,0.468508899,0.881904006,-2.872138977,3.278892517,3.864776611
26.787201,0.274119020,0.472659290,0.883857131,-3.108650208,3.431480408,3.689300537
26.787828,0.270945191,0.473147571,0.888251662,-3.146797180,3.370445251,3.666412354
26.788455,0.273020387,0.475833118,0.894111037,-3.650337219,3.896873474,3.361236572
26.789080,0.268869996,0.478030384,0.893744826,-3.429084778,4.034202576,3.162872314
26.789705,0.270212770,0.479983509,0.897040725,-4.024177551,3.553550720,2.750885010
26.790330,0.266672730,0.479129016,0.897895217,-3.986030579,4.064720154,2.666961670
26.790956,0.269968629,0.481204212,0.897406936,-4.344612122,4.141014099,2.621185303
26.792647,0.266794801,0.476199329,0.899604201,-4.626899719,4.324119568,2.384674072
26.793272,0.269724488,0.471560657,0.896918654,-4.817634583,4.438560486,1.850616455
26.793898,0.266184449,0.468875110,0.897651076,-4.741340637,4.209678650,1.911651611
26.794525,0.265452027,0.465823352,0.898139358,-5.092292786,4.560630798,1.553070068
26.795150,0.265452027,0.459475696,0.898627639,-4.840522766,4.850547791,1.522552490
26.809488,0.249827027,0.438967884,0.865180373,-1.437812805,5.613487244,-1.742828369
26.810187,0.251658082,0.439944446,0.865668654,-1.163154602,5.674522400,-1.788604736
26.810813,0.252878785,0.438723743,0.862128615,-1.086860657,5.537193298,-2.246368408
26.811438,0.252878785,0.440676868,0.861274123,-0.987678528,5.430381775,-1.887786865
26.812063,0.253244996,0.440066516,0.857245803,-0.934272766,5.590599060,-2.528656006
26.812689,0.254099488,0.445193470,0.856269240,-0.590950012,5.415122986,-2.505767822
26.813315,0.252024293,0.444216907,0.851996779,-0.667243958,5.308311462,-2.421844482
26.813941,0.249582887,0.444583118,0.847480178,-0.766426086,5.277793884,-2.536285400
26.814567,0.251658082,0.447879016,0.845160842,-0.430732727,4.987876892,-2.810943604
26.815194,0.250681520,0.443972766,0.838935256,-0.583320618,4.682701111,-2.803314209
26.815820,0.254953980,0.441897571,0.838446975,-0.247627258,4.903953552,-3.184783936
26.816445,0.252756715,0.440921009,0.835761428,-0.278144836,4.530113220,-3.055084229
26.817070,0.253611207,0.439334095,0.832709670,-0.125556946,4.491966248,-3.222930908
26.817695,0.257517457,0.440554798,0.832099319,-0.026374817,4.278343201,-3.314483643
26.819464,0.257639527,0.438479602,0.826972365,0.057548523,3.713768005,-3.734100342
26.820090,0.258738160,0.432131946,0.829779983,0.141471863,3.797691345,-3.901947021
26.820717,0.256907105,0.435305774,0.828070998,0.431388855,3.545921326,-3.818023682
26.821342,0.260447145,0.435549915,0.824775100,0.187248230,3.172080994,-3.955352783
26.821967,0.258371949,0.434085071,0.823798537,0.431388855,2.905052185,-3.932464600
26.822592,0.258127809,0.435794055,0.820624709,0.088066101,2.699058533,-4.153717041
26.823219,0.260325074,0.433352649,0.813666701,0.377983093,2.493064880,-4.092681885
26.823844,0.258249879,0.428103626,0.816596389,0.049919128,2.210777283,-4.321563721
26.824471,0.258249879,0.427249134,0.810370803,0.286430359,2.279441833,-4.313934326
26.825098,0.261179566,0.423342884,0.805854201,0.187248230,1.905601501,-4.291046143
26.825723,0.260447145,0.421389759,0.806952834,0.576347351,1.508872986,-4.313934326
26.826348,0.259592652,0.417727649,0.806830764,0.416130066,1.470726013,-4.214752197
26.826973,0.258738160,0.417605579,0.803901076,0.362724304,1.226585388,-4.413116455
26.827598,0.260080934,0.411990345,0.802558303,0.881523132,1.073997498,-4.542816162
26.828223,0.260569215,0.410769641,0.806098342,0.858634949,0.868003845,-4.512298584
26.829902,0.263376832,0.406619251,0.815009475,0.919670105,-0.009376526,-4.565704346
26.830529,0.262156129,0.406375110,0.813544631,0.934928894,-0.024635315,-4.458892822
26.831154,0.258738160,0.406619251,0.816474319,0.942558289,-0.200111389,-4.611480713
26.831780,0.262766480,0.402957141,0.815986037,0.904411316,-0.192481995,-4.733551025
26.832405,0.263743043,0.401004016,0.820624709,0.599235535,-0.634986877,-4.535186768
26.833032,0.260569215,0.396853626,0.821723342,0.698417664,-0.802833557,-4.405487061
26.833658,0.260203004,0.392092884,0.822577834,0.477165222,-0.856239319,-4.321563721
26.834284,0.263987184,0.388308704,0.824775100,0.553459167,-1.252967834,-4.428375244
26.834911,0.270212770,0.393679798,0.822455764,0.553459167,-1.252967834,-4.329193115
26.835537,0.294382691,0.414187610,0.810126662,0.095695496,-1.016456604,-4.413116455
26.836164,0.278025270,0.419070423,0.810004592,-0.507026672,-0.459510803,-4.344451904
26.836789,0.258860230,0.385012805,0.837104201,-0.079780579,-0.612098694,-4.107940674
26.837414,0.259470582,0.362185657,0.855170608,0.393241882,-1.512367249,-3.856170654
26.838039,0.276438355,0.374026477,0.853705764,-0.079780579,-1.176673889,-3.589141846
26.838665,0.275339723,0.390261829,0.851996779,-0.987678528,-0.528175354,-3.901947021
26.840373,0.269602418,0.329592884,0.897040725,0.667900085,-1.169044495,-3.871429443
26.840999,0.269480348,0.360598743,0.880317092,0.294059753,-1.771766663,-3.215301514
26.841625,0.226511598,0.366458118,0.870917678,-0.453620911,-1.779396057,-3.642547607
26.842251,0.255686402,0.374636829,0.864447951,-0.522285461,-2.321083069,-3.932464600
26.842876,0.319651246,0.406497180,0.838080764,-0.857978821,-2.115089417,-3.734100342
26.858654,0.308298707,0.383303821,0.874823928,2.483695984,-5.906898499,-0.659454346
26.859359,0.316111207,0.408572376,0.870429397,2.811759949,-5.868751526,-0.514495850
26.859985,0.318308473,0.429202259,0.859931350,2.674430847,-6.036598206,-0.323760986
26.860610,0.296946168,0.436404407,0.859565139,2.415031433,-6.593544006,0.042449951
26.861236,0.285715699,0.434817493,0.863105178,2.010673523,-7.074195862,0.225555420
26.861861,0.285715699,0.434817493,0.863105178,2.010673523,-7.074195862,0.225555420
26.862487,0.300242066,0.424441516,0.861029983,1.827568054,-7.234413147,0.263702393
26.863112,0.317942262,0.413333118,0.862128615,1.537651062,-7.539588928,0.118743896
26.863739,0.319285035,0.397830188,0.862494826,1.362174988,-7.318336487,0.057708740
26.864365,0.313791871,0.392092884,0.864570022,2.270072937,-6.952125549,0.339996338
26.864992,0.309031129,0.394534290,0.862006545,2.743095398,-6.769020081,0.576507568
26.865618,0.300242066,0.397952259,0.866401076,3.139823914,-6.822425842,0.446807861
26.866243,0.298288941,0.402590930,0.866889358,3.475517273,-7.013160706,0.248443604
26.866868,0.301584840,0.407839954,0.870063186,3.910392761,-7.219154358,0.271331787
26.868597,0.302927613,0.419680774,0.892035842,4.398674011,-6.685096741,0.904571533
26.869223,0.295481324,0.426028430,0.901313186,4.528373718,-6.784278870,0.889312744
26.869849,0.292551637,0.431155384,0.905219436,4.139274597,-6.608802795,0.683319092
26.870475,0.290842652,0.433108509,0.909980178,3.757804871,-6.570655823,0.652801514
26.871101,0.292795777,0.434207141,0.911933303,3.620475769,-6.631690979,0.698577881
26.871728,0.295481324,0.434451282,0.911200881,3.338188171,-6.410438538,0.851165771
26.872353,0.288767457,0.437014759,0.908393264,3.338188171,-6.402809143,0.774871826
26.872979,0.286692262,0.431643665,0.906806350,2.842277527,-6.402809143,1.064788818
26.873605,0.292429566,0.428958118,0.905585647,2.758354187,-6.410438538,0.790130615
26.874231,0.289499879,0.430789173,0.900580764,2.544731140,-6.219703674,0.927459717
26.874856,0.289133668,0.427493274,0.899970412,2.369255066,-6.028968811,0.721466064
26.875483,0.285715699,0.426516712,0.901557326,2.346366882,-5.716163635,0.828277588
26.876110,0.288035035,0.424197376,0.897529006,2.270072937,-5.616981506,0.736724854
26.876736,0.288279176,0.424319446,0.899237990,2.544731140,-5.235511780,0.652801514
26.877363,0.289255738,0.426516712,0.897895217,2.346366882,-5.517799377,0.591766357
26.879052,0.289866090,0.426394641,0.906562209,2.346366882,-4.785377502,0.515472412
26.879677,0.289866090,0.423831165,0.910102248,2.483695984,-4.655677795,0.477325439
26.880303,0.291453004,0.425418079,0.905463576,2.186149597,-4.442054749,0.439178467
26.880930,0.294016480,0.426028430,0.909613967,1.980155945,-4.365760803,0.553619385
26.881555,0.292795777,0.425296009,0.908515334,2.102226257,-4.266578674,0.515472412
26.882180,0.292673707,0.422244251,0.905341506,1.797050476,-3.877479553,0.454437256
26.882805,0.294748902,0.422122180,0.897040725,1.774162292,-3.747779846,0.423919678
26.883431,0.293284059,0.418215930,0.897773147,1.652091980,-3.717262268,0.355255127
26.884057,0.296702027,0.414065540,0.892402053,1.682609558,-3.450233459,0.294219971
26.884682,0.297312379,0.413088977,0.883979201,1.499504089,-3.236610413,0.538360596
26.885307,0.295359254,0.412966907,0.882026076,1.606315613,-2.992469788,0.484954834
26.885934,0.297068238,0.410525501,0.875434279,1.873344421,-2.878028870,0.286590576
26.886561,0.295847535,0.409793079,0.877631545,2.048820496,-2.855140686,0.370513916
26.887188,0.297922730,0.411257923,0.875190139,2.010673523,-2.740699768,0.141632080
26.887813,0.296946168,0.410891712,0.873359084,2.521842957,-2.710182190,0.286590576
26.889502,0.291697145,0.412478626,0.877143264,2.781242371,-2.420265198,0.492584229
26.890127,0.295115113,0.412966907,0.877143264,2.361625671,-2.298194885,0.301849365
26.890753,0.294382691,0.418338001,0.874945998,2.392143250,-2.214271545,0.401031494
26.891379,0.293772340,0.421755970,0.875312209,2.353996277,-2.061683655,0.431549072
26.892011,0.291575074,0.423464954,0.873114944,2.270072937,-1.870948792,0.324737549
26.906121,0.288889527,0.415896595,0.835273147,1.118034363,-1.725990295,-0.171173096
26.906786,0.292795777,0.416506946,0.835029006,1.247734070,-1.573402405,-0.178802490
26.907413,0.289866090,0.413333118,0.833075881,1.110404968,-1.519996643,-0.033843994
26.908039,0.291086793,0.413821399,0.833075881,1.209587097,-1.825172424,-0.277984619
26.908664,0.289499879,0.416262805,0.834784865,1.163810730,-1.619178772,-0.178802490
26.909290,0.291697145,0.414675891,0.834296584,1.125663757,-1.886207581,-0.148284912
26.909915,0.290476441,0.413333118,0.836982131,0.912040710,-2.054054260,-0.194061279
26.910540,0.293284059,0.413211048,0.831122756,0.797599792,-2.038795471,0.034820557
26.911167,0.290476441,0.413577259,0.831122756,0.660270691,-2.260047913,0.050079346
26.911793,0.290476441,0.413211048,0.829779983,0.713676453,-2.160865784,-0.079620361
26.912419,0.290354371,0.409548938,0.828925490,0.484794617,-2.328712463,-0.133026123
26.913044,0.290964723,0.411257923,0.823554397,0.522941589,-2.466041565,-0.201690674
26.913669,0.290110230,0.407595813,0.824042678,0.332206726,-2.656776428,-0.064361572
26.914294,0.287180543,0.407473743,0.824286819,0.477165222,-2.504188538,0.004302979
26.914920,0.288645387,0.405032337,0.825263381,0.187248230,-2.908546448,0.301849365
26.916612,0.291819215,0.401858509,0.824042678,0.065177917,-3.290016174,0.294219971
26.917237,0.292917848,0.399783313,0.823554397,-0.003486633,-3.221351624,0.179779053
26.917863,0.294504762,0.397219837,0.824042678,-0.056892395,-3.694374084,0.172149658
26.918488,0.294626832,0.398928821,0.827338576,-0.201850891,-3.572303772,0.370513916
26.919113,0.295115113,0.397341907,0.824530959,-0.194221497,-3.686744690,0.469696045
26.919738,0.296702027,0.391482532,0.823310256,-0.484138489,-4.136878967,0.385772705
26.920364,0.298655152,0.390505970,0.827582717,-0.201850891,-4.205543518,0.751983643
26.920991,0.297556520,0.387820423,0.826728225,-0.239997864,-4.030067444,0.530731201
26.921617,0.297800660,0.385256946,0.827704787,-0.537544250,-4.388648987,0.690948486
26.922242,0.301828980,0.381350696,0.826239944,-0.301033020,-4.762489319,0.866424561
26.922869,0.301340699,0.381594837,0.825507522,-0.445991516,-4.686195374,0.805389404
26.923495,0.299265504,0.380129993,0.824775100,-0.438362122,-4.983741760,0.988494873
26.924121,0.298166871,0.381106555,0.823676467,-0.476509094,-4.701454163,1.171600342
26.924748,0.299997926,0.380252063,0.825385451,-0.377326965,-5.151588440,1.423370361
26.925373,0.302073121,0.376467884,0.824653029,-0.049263000,-5.273658752,1.583587646
26.927065,0.299997926,0.379641712,0.821967483,-0.239997864,-5.410987854,1.553070068
26.927691,0.296702027,0.378787220,0.822089553,-0.056892395,-5.372840881,1.865875244
26.928316,0.296824098,0.378176868,0.825751662,0.118583679,-5.594093323,1.904022217
26.928941,0.299753785,0.376956165,0.827826858,-0.041633606,-5.540687561,2.163421631
26.929568,0.297312379,0.380862415,0.825873733,0.255912781,-5.586463928,2.453338623
26.930194,0.300119996,0.381472766,0.835273147,0.248283386,-5.777198792,2.438079834
26.930821,0.296702027,0.383303821,0.835761428,0.210136414,-5.853492737,2.621185303
26.931446,0.297556520,0.384768665,0.840400100,0.370353699,-5.853492737,2.766143799
26.932072,0.298655152,0.388796985,0.843818069,-0.034004211,-5.838233948,3.017913818
26.932698,0.297922730,0.392825305,0.849067092,0.072807312,-6.021339417,3.147613525
26.933324,0.301951051,0.394534290,0.846015334,-0.148445129,-5.838233948,3.040802002
26.933949,0.302561402,0.397952259,0.849677444,-0.400215149,-6.158668518,3.597747803
26.934574,0.308542848,0.401492298,0.852851272,-0.827461243,-5.586463928,3.658782959
26.935199,0.315867066,0.416751087,0.853827834,-1.453071594,-5.739051819,3.796112061
26.935825,0.309641480,0.413577259,0.859076858,-2.177864075,-5.090553284,3.765594482
26.937522,0.300486207,0.390628040,0.890815139,-2.635627747,-5.586463928,4.612457275
26.938147,0.299509645,0.391482532,0.896552444,-3.184944153,-5.220252991,4.635345459
26.938774,0.313791871,0.396609485,0.899115920,-3.276496887,-5.060035706,4.765045166
26.939401,0.315744996,0.401736438,0.899360061,-3.619819641,-4.907447815,4.910003662
26.953188,0.315012574,0.411013782,0.944037795,-5.420356750,-0.985939026,8.305084229
26.953889,0.311594605,0.411868274,0.948920608,-5.489021301,-0.375587463,8.511077881
26.954515,0.312327027,0.414309680,0.949408889,-5.611091614,-0.131446838,8.648406982
26.955141,0.308909059,0.413821399,0.947211623,-5.702644348,-0.268775940,8.862030029
26.955766,0.310495973,0.416262805,0.948676467,-5.595832825,0.463645935,8.823883057
26.956391,0.310495973,0.418460071,0.948066115,-5.954414368,0.723045349,8.640777588
26.957018,0.304636598,0.420291126,0.950019240,-6.030708313,0.600975037,9.075653076
26.957644,0.303171754,0.422366321,0.950995803,-6.183296204,1.409690857,9.106170654
26.958270,0.301706910,0.420535266,0.953193069,-6.236701965,1.409690857,9.205352783
26.958895,0.303904176,0.427127063,0.950385451,-6.251960754,1.508872986,9.228240967
26.959522,0.305613160,0.427371204,0.951850295,-6.129890442,2.065818787,9.235870361
26.960149,0.299631715,0.428591907,0.949775100,-6.442695618,2.271812439,9.350311279
26.960774,0.301340699,0.431277454,0.949897170,-6.503730774,2.828758240,9.296905518
26.961400,0.299875855,0.432620227,0.947821975,-6.518989563,3.126304626,9.174835205
26.963144,0.298044801,0.430911243,0.945014358,-6.427436829,3.820579529,9.289276123
26.963769,0.297678590,0.430178821,0.942206740,-6.496101379,4.034202576,9.159576416
26.964396,0.297190309,0.434939563,0.942572951,-6.549507141,4.308860779,8.976470947
26.965023,0.296091676,0.436648548,0.940009475,-6.145149231,4.903953552,8.999359131
26.965649,0.295237184,0.443484485,0.936591506,-6.358772278,4.781883240,9.197723389
26.966274,0.294748902,0.446170032,0.934760451,-6.503730774,5.140464783,8.945953369
26.966899,0.295115113,0.446780384,0.931830764,-6.465583801,5.331199646,9.068023682
26.967525,0.293284059,0.444705188,0.931830764,-6.587654114,5.888145447,9.022247314
26.968151,0.294382691,0.449588001,0.929511428,-6.900459290,6.208580017,8.915435791
26.968777,0.294138551,0.448611438,0.927192092,-6.869941711,6.223838806,8.984100342
26.969402,0.295115113,0.452761829,0.923896194,-7.251411438,6.666343689,8.854400635
26.970029,0.290354371,0.454837024,0.919257522,-7.075935364,6.818931580,8.839141846
26.970656,0.288035035,0.451785266,0.917914748,-7.373481750,7.055442810,8.518707275
26.971283,0.291453004,0.456912220,0.912421584,-7.358222961,7.085960388,8.419525146
26.971908,0.292795777,0.458377063,0.907538772,-7.327705383,7.452171326,8.541595459
26.973610,0.289133668,0.458132923,0.897651076,-7.281929016,7.749717712,8.327972412
26.974236,0.286081910,0.459841907,0.893012404,-7.655769348,7.940452576,7.999908447
26.974862,0.287058473,0.457156360,0.892279983,-7.709175110,7.940452576,7.954132080
26.975487,0.284861207,0.456668079,0.888251662,-7.602363586,8.283775330,7.626068115
26.976114,0.284372926,0.456301868,0.884711623,-7.930427551,8.215110779,7.404815674
26.976739,0.285959840,0.453738391,0.881659865,-7.815986633,8.390586853,7.236968994
26.977364,0.280954957,0.454104602,0.877631545,-7.617622375,8.665245056,7.397186279
26.977989,0.284983277,0.455447376,0.877387404,-7.953315735,8.489768982,6.939422607
26.978615,0.279123902,0.454837024,0.873725295,-7.976203918,8.955162048,6.718170166
26.979240,0.276682496,0.448245227,0.872260451,-7.831245422,8.939903259,6.550323486
26.979865,0.277414918,0.448001087,0.870063186,-7.693916321,9.016197205,6.252777100
26.980490,0.277903199,0.444705188,0.869574904,-7.846504211,8.871238708,6.268035889
26.981116,0.277903199,0.441287220,0.870429397,-7.594734192,9.260337830,6.130706787
26.981741,0.277048707,0.435916126,0.872992873,-7.747322083,9.191673279,5.825531006
26.982366,0.276072145,0.435183704,0.872382522,-7.495552063,9.092491150,5.726348877
26.984065,0.272410035,0.433840930,0.867377639,-7.259040833,9.496849060,5.199920654
26.984690,0.267527223,0.422976673,0.865058303,-7.167488098,9.367149353,5.016815186
26.985315,0.263132691,0.418215930,0.863349319,-6.740242004,9.252708435,4.810821533
26.985940,0.262156129,0.417361438,0.860907912,-6.526618958,9.229820251,4.620086670
26.986566,0.259592652,0.417117298,0.855903029,-6.267219543,9.115379333,4.505645752
27.017803,0.300608277,0.436160266,0.932196975,-19.740730286,16.378562927,-1.185882568
27.018545,0.300852418,0.433474720,0.931708694,-20.236640930,16.378562927,-1.300323486
27.019170,0.300974488,0.437991321,0.929633498,-20.663887024,16.729515076,-1.162994385
27.019795,0.299875855,0.442263782,0.929389358,-21.182685852,17.004173279,-1.140106201
27.020444,0.296702027,0.445803821,0.928779006,-21.609931946,17.355125427,-1.063812256
27.021071,0.294504762,0.443484485,0.934516311,-22.281318665,17.431419373,-1.056182861
27.021696,0.294016480,0.439334095,0.930732131,-22.838264465,17.660301208,-0.926483154
27.022321,0.298411012,0.440432727,0.936591506,-23.280769348,17.873924255,-0.682342529
27.022947,0.300730348,0.437747180,0.932074904,-23.753791809,18.217247009,-0.651824951
27.023572,0.303171754,0.433230579,0.935370803,-24.005561829,18.369834900,-0.613677979
27.024199,0.299753785,0.432864368,0.935737014,-24.562507629,18.705528259,-0.537384033
27.024824,0.301218629,0.428225696,0.936591506,-24.844795227,18.980186462,-0.384796143
27.025449,0.302317262,0.425906360,0.936957717,-25.386482239,19.064109802,-0.239837646
27.026074,0.300119996,0.424807727,0.936591506,-25.668769836,19.231956482,-0.316131592
27.027768,0.302073121,0.422488391,0.939032912,-26.454597473,19.941490173,0.164520264
27.028394,0.304880738,0.421389759,0.936469436,-26.698738098,20.231407166,0.088226318
27.029019,0.305857301,0.417239368,0.932685256,-27.202278137,20.467918396,0.576507568
27.029644,0.302927613,0.418093860,0.935492873,-27.675300598,20.635765076,0.668060303
27.030270,0.305124879,0.416140735,0.933661819,-27.850776672,20.979087830,0.576507568
27.030895,0.308542848,0.410647571,0.930732131,-28.270393372,21.047752380,1.049530029
27.031520,0.313791871,0.408450305,0.932929397,-28.491645813,21.162193298,1.308929443
27.032145,0.310373902,0.402468860,0.935370803,-28.880744934,21.879356384,1.652252197
27.032770,0.310862184,0.400637805,0.937445998,-29.346138000,22.016685486,1.705657959
27.033397,0.314280152,0.400637805,0.937079787,-29.147773743,22.314231873,1.858245850
27.034022,0.316233277,0.398928821,0.934394240,-29.353767395,22.657554626,2.171051025
27.034647,0.315622926,0.395877063,0.935614944,-29.513984680,22.779624939,2.354156494
27.035272,0.315256715,0.392825305,0.938666701,-29.811531067,22.878807068,2.888214111
27.035898,0.315989137,0.392214954,0.938910842,-30.048042297,23.359458923,2.956878662
27.036523,0.312082887,0.390628040,0.938056350,-29.773384094,23.771446228,3.315460205
27.038234,0.311472535,0.396731555,0.935248733,-30.307441711,24.549644470,3.834259033
27.038861,0.308420777,0.396853626,0.932807326,-30.208259583,24.595420837,4.101287842
27.039486,0.309519410,0.395144641,0.929267287,-30.406623840,24.900596619,4.307281494
27.040111,0.310129762,0.396731555,0.930243850,-30.612617493,25.205772400,4.559051514
27.040738,0.306223512,0.397586048,0.929389358,-30.460029602,25.243919373,4.772674561
27.041364,0.305979371,0.397219837,0.927192092,-30.437141418,25.701683044,5.169403076
27.041991,0.305246949,0.398440540,0.922919631,-30.582099915,25.900047302,5.070220947
27.042617,0.304392457,0.399539173,0.922553420,-30.574470520,25.968711853,5.344879150
27.043242,0.299509645,0.401858509,0.923041701,-30.734687805,26.045005798,5.642425537
27.043868,0.302805543,0.402957141,0.922309279,-30.559211731,26.418846130,5.917083740
27.044493,0.302195191,0.402835071,0.924994826,-30.742317200,26.487510681,6.130706787
27.045118,0.297068238,0.399661243,0.924384475,-30.788093567,26.792686462,6.268035889
27.045745,0.297800660,0.402224720,0.920966506,-30.887275696,26.662986755,6.374847412
27.046371,0.299143434,0.402590930,0.924140334,-31.047492981,26.937644958,6.878387451
27.046998,0.294016480,0.397830188,0.923041701,-31.047492981,26.930015564,6.992828369
27.048714,0.290720582,0.395999134,0.911078811,-31.398445129,26.998680115,7.359039307
27.049340,0.289499879,0.392337024,0.902533889,-31.467109680,26.914756775,7.557403564
27.049967,0.285349488,0.387698352,0.902778029,-31.375556946,27.067344666,7.839691162
27.050593,0.285471559,0.386843860,0.895575881,-31.390815735,27.364891052,7.786285400
27.065635,0.232615113,0.387088001,0.814521194,-20.999580383,20.322959900,8.564483643
27.066379,0.235544801,0.389529407,0.813056350,-20.358711243,19.483726501,8.625518799
27.067010,0.235544801,0.394534290,0.809394240,-19.862800598,18.423240662,8.595001221
27.067636,0.242502809,0.400271595,0.806220412,-19.344001770,17.950218201,8.007537842
27.068262,0.241892457,0.406863391,0.801337600,-19.092231750,17.301719666,8.015167236
27.068887,0.250437379,0.414187610,0.792792678,-18.481880188,16.416709900,7.900726318
27.069512,0.249827027,0.417971790,0.787787795,-18.222480774,15.844505310,7.755767822
27.070137,0.248240113,0.418582141,0.778754592,-17.886787415,15.318077087,7.778656006
27.070763,0.242869020,0.415164173,0.771796584,-17.596870422,14.692466736,7.565032959
27.071390,0.242991090,0.411868274,0.773627639,-17.169624329,14.646690369,7.366668701
27.072016,0.241526246,0.409304798,0.773993850,-16.803413391,14.280479431,7.107269287
27.072641,0.233103395,0.402835071,0.771918654,-16.338020325,14.043968201,6.847869873
27.073267,0.231150270,0.399783313,0.777167678,-15.803962708,13.914268494,6.794464111
27.073892,0.231150270,0.394656360,0.781806350,-15.308052063,13.456504822,6.390106201
27.075613,0.221140504,0.414309680,0.779364944,-14.430671692,13.021629333,5.840789795
27.076238,0.223337770,0.425173938,0.781928420,-14.239936829,12.815635681,5.466949463
27.076863,0.220041871,0.432376087,0.779853225,-14.613777161,12.571495056,5.589019775
27.077490,0.222239137,0.433230579,0.783149123,-14.728218079,11.922996521,5.573760986
27.078116,0.225901246,0.433474720,0.778266311,-15.308052063,11.411827087,5.604278564
27.078742,0.235788941,0.432254016,0.782416701,-15.247016907,11.007469177,5.360137939
27.079368,0.238962770,0.433474720,0.781195998,-15.521675110,10.587852478,5.360137939
27.079994,0.242991090,0.432498157,0.785712600,-15.453010559,10.427635193,5.283843994
27.080619,0.245798707,0.433352649,0.788886428,-15.643745422,9.939353943,5.474578857
27.081244,0.250925660,0.430667102,0.795478225,-15.506416321,9.618919373,5.543243408
27.081869,0.250315309,0.432620227,0.802680373,-15.536933899,9.176414490,5.444061279
27.082496,0.255198121,0.431643665,0.805854201,-15.803962708,8.939903259,5.581390381
27.083122,0.256540895,0.435427845,0.815009475,-15.781074524,8.489768982,5.451690674
27.083748,0.260080934,0.436282337,0.827460647,-15.918403625,8.436363220,5.489837646
27.084375,0.265085816,0.438479602,0.835883498,-16.132026672,8.161705017,5.611907959
27.086072,0.263498902,0.435794055,0.858466506,-16.719490051,7.681053162,5.619537354
27.086697,0.267649293,0.430422962,0.868964553,-17.070442200,7.787864685,5.596649170
27.087322,0.268137574,0.423587024,0.874823928,-17.032295227,7.574241638,5.703460693
27.087947,0.269846559,0.421023548,0.880439162,-17.497688293,7.696311951,5.489837646
27.088574,0.271311402,0.415652454,0.887153029,-17.322212219,7.620018005,5.283843994
27.089201,0.272287965,0.407717884,0.886664748,-17.551094055,7.436912537,5.268585205
27.089827,0.271799684,0.400271595,0.882514358,-17.490058899,7.543724060,5.115997314
27.090454,0.267649293,0.396853626,0.886664748,-17.657905579,7.345359802,5.093109131
27.091079,0.266794801,0.382327259,0.884711623,-17.406135559,7.391136169,4.719268799
27.091704,0.267771363,0.373782337,0.889716506,-16.803413391,6.742637634,4.459869385
27.092329,0.270456910,0.363894641,0.889594436,-16.536384583,6.956260681,4.276763916
27.092954,0.266916871,0.353518665,0.889472365,-15.941291809,7.017295837,3.864776611
27.093579,0.267893434,0.352297962,0.886176467,-15.254646301,6.895225525,3.597747803
27.094204,0.268137574,0.342166126,0.887153029,-14.613777161,6.956260681,3.307830811
27.094830,0.266672730,0.340945423,0.886298537,-13.911872864,6.742637634,3.178131104
27.096540,0.269724488,0.327029407,0.891791701,-11.806159973,6.544273376,2.430450439
27.097166,0.273874879,0.321292102,0.894233108,-11.294990540,6.651084900,2.048980713
27.097791,0.273264527,0.320315540,0.899970412,-10.280281067,6.696861267,1.789581299
27.098417,0.278391480,0.314334095,0.900092483,-9.540229797,6.643455505,1.842987061
27.099043,0.278025270,0.314578235,0.896552444,-8.678108215,6.658714294,1.575958252
27.112796,0.288645387,0.330935657,0.864325881,-0.919013977,6.612937927,4.543792725
27.113476,0.294260621,0.331668079,0.860785842,-0.644355774,6.429832458,4.742156982
27.114102,0.289866090,0.331912220,0.862738967,-0.255256653,6.323020935,4.757415771
27.114728,0.284861207,0.332278430,0.859443069,-0.201850891,6.223838806,5.100738525
27.115353,0.285471559,0.329104602,0.857734084,0.095695496,6.170433044,5.306732178
27.115979,0.294870973,0.330081165,0.855414748,0.263542175,6.109397888,5.497467041
27.116606,0.291330934,0.330935657,0.854560256,0.851005554,5.949180603,5.825531006
27.117231,0.292307496,0.332522571,0.849067092,0.950187683,5.689781189,5.848419189
27.117857,0.290110230,0.335452259,0.852118850,1.575798035,5.590599060,5.878936768
27.118484,0.286814332,0.337039173,0.848822951,1.850456238,5.552452087,6.054412842
27.119110,0.285349488,0.337771595,0.850043654,2.079338074,5.376976013,6.329071045
27.119736,0.289011598,0.337649524,0.849677444,2.994865417,5.483787537,6.359588623
27.120362,0.288401246,0.341921985,0.847968459,3.322929382,5.232017517,6.550323486
27.120988,0.294016480,0.346072376,0.846991897,3.383964539,5.033653259,6.680023193
27.122763,0.287180543,0.353884876,0.843573928,4.795402527,4.926841736,7.359039307
27.123390,0.285593629,0.360354602,0.839667678,4.955619812,4.972618103,7.442962646
27.124016,0.288157105,0.360842884,0.840278029,5.237907410,4.873435974,7.503997803
27.124642,0.288401246,0.363650501,0.836127639,5.535453796,4.644554138,7.694732666
27.125268,0.294993043,0.368899524,0.839423537,5.672782898,4.995506287,7.771026611
27.125893,0.292185426,0.377444446,0.831733108,6.199211121,4.903953552,8.038055420
27.126519,0.284861207,0.381106555,0.832099319,6.183952332,5.109947205,8.121978760
27.127144,0.286936402,0.385989368,0.835639358,6.382316589,5.102317810,8.312713623
27.127769,0.284617066,0.384768665,0.837836623,6.489128113,4.934471130,8.549224854
27.128396,0.281199098,0.389041126,0.838935256,6.702751160,4.903953552,8.694183350
27.129021,0.278757691,0.387332141,0.842353225,6.412834167,4.667442322,8.762847900
27.129647,0.276560426,0.385745227,0.844916701,6.397575378,4.911582947,8.785736084
27.130272,0.277903199,0.392825305,0.844794631,6.740898132,4.751365662,8.770477295
27.130898,0.275339723,0.411135852,0.839057326,6.565422058,4.591148376,8.923065186
27.131524,0.269724488,0.415774524,0.836615920,6.534904480,4.873435974,8.907806396
27.133226,0.276926637,0.441043079,0.829169631,5.169242859,4.980247498,9.060394287
27.133853,0.262400270,0.435305774,0.833075881,4.871696472,4.919212341,9.304534912
27.134478,0.242380738,0.414309680,0.847846389,4.688591003,4.766624451,9.258758545
27.135105,0.229075074,0.380129993,0.865058303,5.230278015,4.171531677,9.098541260
27.135731,0.231150270,0.375003040,0.863227248,5.085319519,3.675621033,8.907806396
27.136357,0.232737184,0.394656360,0.849921584,4.978507996,3.393333435,8.907806396
27.136984,0.232004762,0.416018665,0.831366897,4.680961609,3.645103455,8.389007568
27.137609,0.231028199,0.440798938,0.819892287,4.688591003,3.523033142,8.045684814
27.138235,0.221872926,0.450808704,0.805610061,3.979057312,3.179710388,8.282196045
27.138860,0.201243043,0.446536243,0.803779006,3.452629089,2.462547302,8.320343018
27.139485,0.202219605,0.429324329,0.808661819,3.315299988,1.814048767,7.915985107
27.140111,0.217600465,0.416995227,0.814643264,2.865165710,1.897972107,7.694732666
27.140737,0.227732301,0.402713001,0.821723342,2.926200867,1.585166931,7.221710205
27.141362,0.224314332,0.391238391,0.824530959,3.139823914,1.753013611,7.236968994
27.141988,0.219553590,0.392703235,0.822089553,3.757804871,1.974266052,7.030975342
27.143682,0.219309449,0.429812610,0.815375686,3.147453308,1.157920837,5.787384033
27.144308,0.231516480,0.435916126,0.815986037,2.872795105,0.845115662,5.764495850
27.144933,0.240183473,0.439089954,0.815863967,2.529472351,1.035850525,5.535614014
27.145558,0.225290895,0.415774524,0.834662795,2.247184753,0.936668396,5.421173096
27.146184,0.240549684,0.405520618,0.843451858,2.178520203,0.967185974,5.215179443
27.146809,0.249827027,0.420046985,0.840278029,1.842826843,1.234214783,4.917633057
27.160601,0.248972535,0.191653445,0.623359084,-5.374580383,-1.787025452,-1.056182861
27.161315,0.250315309,0.214236453,0.634467483,-0.941902161,-0.551063538,-1.231658936
27.161942,0.205881715,0.263796985,0.667060256,3.383964539,0.059288025,-1.422393799
27.162568,0.205637574,0.323123157,0.709296584,7.183403015,-0.245887756,-1.857269287
27.163194,0.222239137,0.384036243,0.759955764,9.197563171,-0.940162659,-1.819122314
27.163819,0.244333863,0.425540149,0.821845412,9.235710144,-1.359779358,-1.483428955
27.164444,0.264353395,0.457034290,0.884223342,8.228630066,-1.527626038,-1.239288330
27.165071,0.267405152,0.489993274,0.936835647,6.656974792,-1.169044495,-1.391876221
27.165698,0.260813355,0.518191516,0.969428420,4.253715515,-1.199562073,-0.880706787
27.166324,0.264353395,0.534304798,0.977729201,1.041740417,-1.413185120,-0.705230713
27.166950,0.276804566,0.554446399,0.970282912,-2.765327454,-1.687843323,-0.079620361
27.167576,0.277414918,0.564944446,0.948676467,-6.137519836,-1.939613342,0.149261475
27.168201,0.273020387,0.558840930,0.921454787,-8.670478821,-1.611549377,0.294219971
27.168826,0.304880738,0.558596790,0.886664748,-10.867744446,-2.145606995,0.790130615
27.170548,0.317698121,0.437747180,0.895087600,-13.675361633,0.906150818,1.415740967
27.171175,0.349924684,0.430422962,0.907050490,-12.248664856,1.226585388,1.865875244
27.171801,0.355906129,0.471804798,0.908515334,-13.576179504,2.828758240,1.713287354
27.172427,0.386057496,0.515505970,0.925727248,-14.773994446,4.949729919,1.125823975
27.173052,0.446482301,0.582400501,0.951362014,-16.246467590,7.902305603,1.255523682
27.173677,0.391428590,0.579226673,1.018378615,-17.421394348,10.641258240,1.934539795
27.174303,0.297312379,0.500003040,1.121161819,-17.657905579,10.374229431,2.605926514
27.174929,0.406199098,0.584109485,1.131415725,-20.534187317,10.229270935,2.857696533
27.175555,0.592112184,0.806033313,1.069892287,-29.758125305,15.852134705,2.087127686
27.176180,0.540232301,0.766970813,1.153754592,-37.822395325,23.054283142,0.622283936
27.176805,0.404368043,0.416262805,1.392035842,-34.633308411,23.878257751,1.842987061
27.177430,0.327341676,0.266848743,1.477729201,-29.758125305,19.743125916,4.375946045
27.178057,0.209787965,0.320437610,1.403144240,-34.335762024,18.026512146,3.063690186
27.178682,0.386179566,0.505740345,1.268012404,-43.307929993,21.017234802,-1.925933838
27.179308,0.486887574,0.502566516,1.248847365,-47.794013977,27.181785583,-5.832183838
27.181037,0.431833863,0.600588977,1.118720412,-44.856697083,31.812828064,0.538360596
27.181662,-0.115041137,0.200442508,1.234687209,-45.406013489,27.898948669,-0.613677979
27.182289,-0.130299926,-0.214352414,1.366767287,-38.577705383,18.118064880,-4.420745850
27.182916,0.255686402,-0.118405148,1.208442092,-35.319953918,12.869041443,-7.617462158
27.183541,0.386301637,0.137332156,0.943549514,-37.570625305,16.195457458,-10.798919678
27.184167,0.385203004,0.248782352,0.748847365,-32.664924622,20.422142029,-12.668121338
27.184792,0.343577027,0.340579212,0.574775100,-23.837715149,21.124046326,-11.256683350
27.185418,0.089182496,0.364138782,0.476264358,-18.527656555,17.339866638,-8.738983154
27.186045,-0.084767699,0.314212024,0.433417678,-16.643196106,10.595481873,-9.334075928
27.186671,0.065622926,0.166506961,0.458564162,-14.964729309,5.178611755,-12.355316162
27.187298,0.371164918,0.133547977,0.466742873,-10.303169250,5.109947205,-13.888824463
27.187925,0.439280152,0.098757938,0.499213576,-3.017097473,8.299034119,-12.851226807
27.188551,0.377390504,0.118899539,0.511054397,5.962699890,11.388938904,-11.165130615
27.189177,0.203684449,0.142337039,0.539740920,12.997001648,12.243431091,-10.394561768
27.189803,0.096750855,0.258059680,0.580024123,16.277641296,10.587852478,-10.928619385
27.191532,0.386301637,0.573489368,0.730292678,12.554496765,6.284873962,-8.662689209
27.192159,0.353953004,0.540652454,0.823432326,11.127799988,7.017295837,-6.885040283
27.192785,0.235422730,0.456668079,0.943305373,10.563224792,6.757896423,-6.068695068
27.193411,0.244089723,0.461062610,0.994574904,8.526176453,5.407493591,-5.710113525
27.207147,0.376413941,0.530154407,0.987861037,19.359916687,-12.460548401,-9.730804443
27.207838,0.306833863,0.522097766,1.042426467,18.085807800,-11.331398010,-8.525360107
27.208465,0.233835816,0.505984485,1.085517287,13.851493835,-10.591346741,-8.738983154
27.209091,0.181955934,0.463626087,1.130683303,9.868949890,-10.858375549,-9.509552002
27.209718,0.198679566,0.525515735,1.106757522,7.412284851,-12.086708069,-9.623992920
27.210344,0.228342652,0.577273548,1.049994826,4.040092468,-12.193519592,-9.181488037
27.210970,0.267527223,0.537722766,1.009101272,0.980705261,-12.452919006,-8.769500732
27.211595,0.240671754,0.451296985,0.982367873,-0.972419739,-12.025672913,-8.189666748
27.212221,0.165232301,0.435794055,0.936347365,-1.514106750,-11.361915588,-8.090484619
27.212847,0.136301637,0.448611438,0.891181350,-1.720100403,-11.712867737,-8.738983154
27.213474,0.182444215,0.432254016,0.864447951,-2.360969543,-11.949378967,-8.800018311
27.214100,0.182688355,0.363650501,0.889350295,-2.284675598,-12.315589905,-8.532989502
27.214726,0.177073121,0.350344837,0.901801467,-0.651985168,-11.537391663,-8.227813721
27.215353,0.172190309,0.380374134,0.897895217,0.873893738,-10.545570374,-8.655059814
27.217118,0.146433473,0.391970813,0.950507522,0.599235535,-8.981544495,-8.342254639
27.217745,0.145212770,0.402102649,0.963813186,-0.156074524,-8.317787170,-8.243072510
27.218370,0.149485230,0.376223743,0.998847365,-0.964790344,-8.073646545,-8.342254639
27.218996,0.158640504,0.348757923,1.024726272,-1.453071594,-8.020240784,-7.861602783
27.219622,0.177683473,0.339724720,1.034491897,-2.025276184,-7.097084045,-7.647979736
27.220247,0.195994020,0.320437610,1.046332717,-2.338081360,-6.456214905,-7.441986084
27.220873,0.202952027,0.313235462,1.044623733,-2.414375305,-5.250770569,-7.136810303
27.221499,0.174631715,0.308474720,1.044501662,-2.895027161,-4.648048401,-7.113922119
27.222125,0.181589723,0.328738391,1.020209670,-3.062873840,-4.274208069,-6.862152100
27.222752,0.216257691,0.335208118,0.996039748,-3.177314758,-3.854591370,-6.587493896
27.223379,0.227610230,0.312380970,0.984076858,-3.421455383,-2.885658264,-6.183135986
27.224010,0.201731324,0.269046009,1.001166701,-2.284675598,-2.481300354,-5.572784424
27.224656,0.220774293,0.284304798,0.986762404,-1.346260071,-2.183753967,-5.404937744
27.225281,0.220530152,0.293826282,0.985785842,-1.331001282,-1.008827209,-5.435455322
27.225908,0.221140504,0.315921009,0.992011428,-1.208930969,-0.261146545,-4.977691650
27.227614,0.218210816,0.338870227,1.023383498,-1.392036438,0.967185974,-4.039276123
27.228241,0.216623902,0.339114368,1.032904983,-1.613288879,1.470726013,-3.886688232
27.228866,0.222483277,0.354006946,1.040839553,-2.505928040,2.042930603,-3.337371826
27.229493,0.214060426,0.359255970,1.045356154,-3.413825989,2.691429138,-3.276336670
27.230118,0.221750855,0.358523548,1.048041701,-4.626899719,3.141563416,-3.047454834
27.230744,0.232493043,0.361209095,1.040595412,-5.397468567,3.782432556,-2.505767822
27.231369,0.229929566,0.365603626,1.022040725,-6.770759583,3.927391052,-2.017486572
27.231995,0.218332887,0.357669055,1.007636428,-7.442146301,4.446189880,-1.819122314
27.232622,0.230784059,0.351321399,0.987250686,-8.037239075,4.675071716,-1.605499268
27.233249,0.240427613,0.343508899,0.973578811,-8.533149719,4.942100525,-1.239288330
27.233874,0.250681520,0.339602649,0.962348342,-8.426338196,5.750816345,-1.147735596
27.234499,0.256662965,0.323001087,0.957221389,-8.144050598,6.025474548,-1.117218018
27.235124,0.258494020,0.317874134,0.946357131,-7.945686340,6.506126404,-0.537384033
27.235751,0.250681520,0.314089954,0.945014358,-7.274299622,7.116477966,-0.590789795
27.236376,0.252024293,0.317019641,0.949286819,-6.625801086,7.520835876,-0.369537354
27.238060,0.251658082,0.338137805,0.957831740,-6.312995911,8.848350525,0.317108154
27.238687,0.247751832,0.348879993,0.956733108,-6.572395325,9.237449646,0.477325439
27.239314,0.243845582,0.345095813,0.959662795,-7.289558411,9.123008728,0.896942139
27.239939,0.240793824,0.346804798,0.955268264,-7.861763000,9.252708435,1.125823975
27.271244,0.225901246,0.420169055,0.803168654,2.582878113,-3.137428284,2.110015869
27.271981,0.225168824,0.426028430,0.799628615,2.231925964,-3.503639221,1.995574951
27.272607,0.226877809,0.431643665,0.801703811,2.132743835,-4.045326233,1.591217041
27.273232,0.227732301,0.437625110,0.799262404,1.919120789,-4.281837463,1.217376709
27.273859,0.224802613,0.448367298,0.800849319,1.728385925,-4.678565979,0.919830322
27.274485,0.226145387,0.451663196,0.799506545,1.514762878,-5.319435120,0.431549072
27.275110,0.223581910,0.457644641,0.798529983,0.919670105,-5.723793030,0.332366943
27.275736,0.223459840,0.457278430,0.795478225,0.439018250,-6.151039124,-0.209320068
27.276361,0.226267457,0.458621204,0.797309279,0.110954285,-6.616432190,-0.438201904
27.276988,0.225290895,0.461306751,0.796088576,-0.346809387,-6.730873108,-0.789154053
27.277613,0.225901246,0.461795032,0.798896194,-0.606208801,-7.524330139,-1.353729248
27.278239,0.227732301,0.454959095,0.799384475,-0.713020325,-7.943946838,-1.498687744
27.278866,0.224436402,0.453982532,0.805487990,-0.972419739,-8.233863831,-1.979339600
27.279493,0.225901246,0.450198352,0.809760451,-0.781684875,-8.478004456,-2.345550537
27.281204,0.224314332,0.458254993,0.829413772,-1.697212219,-9.294349670,-3.665435791
27.281829,0.221018434,0.459963977,0.831855178,-2.132087708,-9.553749084,-3.856170654
27.282454,0.220408082,0.458987415,0.834174514,-2.704292297,-9.706336975,-4.397857666
27.283079,0.217234254,0.460086048,0.839301467,-3.261238098,-10.186988831,-4.626739502
27.283704,0.216623902,0.458621204,0.838935256,-3.719001770,-10.675270081,-5.061614990
27.284330,0.215647340,0.455447376,0.839423537,-4.115730286,-10.812599182,-5.649078369
27.284955,0.216379762,0.445193470,0.838080764,-4.680305481,-11.224586487,-6.076324463
27.285582,0.219675660,0.438357532,0.839301467,-4.771858215,-11.331398010,-6.412017822
27.286209,0.219675660,0.431765735,0.837470412,-5.015998840,-11.583168030,-6.717193604
27.286834,0.219675660,0.428347766,0.837592483,-5.046516418,-11.934120178,-7.113922119
27.287459,0.221018434,0.422854602,0.840155959,-5.061775208,-11.934120178,-7.564056396
27.288084,0.222727418,0.418460071,0.843207717,-5.077033997,-11.979896545,-7.785308838
27.288710,0.223948121,0.411990345,0.843451858,-4.977851868,-12.269813538,-8.304107666
27.289337,0.225657105,0.410281360,0.850043654,-4.871040344,-12.208778381,-8.510101318
27.289964,0.224070191,0.405764759,0.854438186,-4.985481262,-12.613136292,-8.861053467
27.291673,0.227488160,0.402835071,0.864325881,-5.115180969,-12.399513245,-9.349334717
27.292300,0.231760621,0.402468860,0.866645217,-4.916816711,-12.628395081,-9.349334717
27.292927,0.234568238,0.404544055,0.870917678,-5.023628235,-12.636024475,-9.730804443
27.293554,0.231150270,0.401614368,0.875312209,-5.489021301,-12.681800842,-9.631622314
27.294180,0.232981324,0.396121204,0.881904006,-5.572944641,-12.803871155,-9.944427490
27.294806,0.238230348,0.393435657,0.881904006,-5.893379211,-13.086158752,-9.883392334
27.295433,0.244822145,0.388308704,0.885810256,-5.946784973,-12.864906311,-9.982574463
27.296059,0.247873902,0.380374134,0.888617873,-6.198554993,-12.941200256,-10.058868408
27.296684,0.254343629,0.377932727,0.893256545,-6.015449524,-13.063270569,-9.837615967
27.297309,0.257639527,0.378298938,0.905829787,-6.236701965,-13.055641174,-9.952056885
27.297936,0.259348512,0.375003040,0.909247756,-6.053596497,-12.811500549,-9.936798096
27.298562,0.263865113,0.374148548,0.918891311,-6.251960754,-12.796241760,-9.944427490
27.299187,0.269114137,0.371585071,0.922187209,-6.602912903,-12.674171448,-9.990203857
27.299812,0.272532105,0.370974720,0.926703811,-6.877571106,-12.658912659,-9.715545654
27.300437,0.276438355,0.370730579,0.928656936,-7.045417786,-12.590248108,-9.768951416
27.302136,0.284739137,0.367312610,0.936347365,-7.762580872,-12.361366272,-9.288299561
27.302761,0.286692262,0.359744251,0.934760451,-8.083015442,-12.239295959,-9.379852295
27.303386,0.286692262,0.352297962,0.938422561,-7.861763000,-12.338478088,-8.929718018
27.304011,0.290232301,0.343875110,0.939521194,-7.785469055,-12.094337463,-8.731353760
27.317834,0.273996949,0.336306751,0.964423537,-4.695564270,-6.486732483,-3.322113037
27.318534,0.274973512,0.339236438,0.966498733,-4.466682434,-6.418067932,-3.093231201
27.319160,0.277414918,0.337893665,0.966010451,-4.451423645,-6.387550354,-2.879608154
27.319786,0.280466676,0.340701282,0.962592483,-4.428535461,-6.006080627,-2.505767822
27.320412,0.282419801,0.340823352,0.960761428,-3.917366028,-5.899269104,-2.376068115
27.321037,0.286326051,0.339358509,0.961615920,-3.924995422,-5.716163635,-2.070892334
27.321662,0.286326051,0.341067493,0.960273147,-3.711372375,-5.502540588,-1.620758057
27.322287,0.293284059,0.343142688,0.961371779,-3.604560852,-5.449134827,-1.231658936
27.322912,0.290476441,0.346194446,0.965888381,-3.680854797,-5.327064514,-1.124847412
27.323539,0.289133668,0.346438587,0.962714553,-3.406196594,-5.166847229,-0.743377686
27.324164,0.292063355,0.344119251,0.962836623,-3.345161438,-5.365211487,-0.346649170
27.324790,0.291575074,0.346560657,0.962836623,-3.276496887,-4.999000549,-0.224578857
27.325415,0.289133668,0.343875110,0.960273147,-3.307014465,-4.854042053,0.065338135
27.326040,0.290842652,0.347903430,0.958197951,-3.238349915,-5.082923889,0.278961182
27.327807,0.289377809,0.344729602,0.948310256,-2.818733215,-4.648048401,1.186859131
27.328432,0.288279176,0.343875110,0.949164748,-2.757698059,-4.739601135,1.560699463
27.329059,0.285837770,0.342288196,0.947211623,-2.368598938,-4.327613831,1.835357666
27.329684,0.286448121,0.341677845,0.947211623,-2.406745911,-4.213172913,1.904022217
27.330310,0.288523316,0.340457141,0.947455764,-2.467781067,-4.190284729,2.140533447
27.330935,0.288767457,0.337405384,0.945258498,-1.994758606,-4.182655334,2.201568604
27.331562,0.290964723,0.337405384,0.952094436,-1.689582825,-3.953773499,2.750885010
27.332188,0.291086793,0.338748157,0.956977248,-1.750617981,-4.121620178,2.758514404
27.332813,0.292063355,0.340090930,0.957709670,-1.666694641,-3.938514709,2.956878662
27.333439,0.292063355,0.337039173,0.959418654,-1.590400696,-4.037696838,3.300201416
27.334066,0.291453004,0.339358509,0.959784865,-1.254707336,-3.778297424,3.674041748
27.334691,0.291330934,0.337649524,0.964057326,-1.247077942,-3.969032288,3.880035400
27.335316,0.288523316,0.335452259,0.960395217,-1.079231262,-3.839332581,3.925811768
27.335941,0.288157105,0.335330188,0.961615920,-0.964790344,-3.534156799,4.154693604
27.336568,0.287058473,0.335818470,0.957587600,-1.018196106,-3.465492249,4.368316650
27.338278,0.280466676,0.333499134,0.951606154,-0.476509094,-3.198463440,5.070220947
27.338903,0.281199098,0.329470813,0.953437209,-0.095039368,-3.190834045,5.245697021
27.339528,0.279978395,0.332156360,0.951239944,0.171989441,-3.015357971,5.421173096
27.340155,0.276316285,0.327639759,0.953315139,0.164360046,-2.801734924,5.589019775
27.340781,0.273996949,0.329226673,0.955512404,0.782341003,-2.771217346,5.787384033
27.341408,0.270090699,0.333132923,0.959296584,0.873893738,-2.794105530,5.627166748
27.342034,0.271189332,0.332400501,0.959540725,1.072257996,-2.542335510,6.168853760
27.342660,0.269602418,0.336795032,0.963324904,1.148551941,-2.511817932,6.191741943
27.343285,0.266672730,0.336550891,0.966010451,1.339286804,-2.427894592,6.588470459
27.343910,0.265940309,0.340335071,0.968329787,1.217216492,-2.427894592,6.779205322
27.344537,0.262034059,0.343508899,0.968573928,1.194328308,-2.290565491,6.985198975
27.345163,0.264719605,0.343753040,0.969550490,1.324028015,-2.298194885,6.947052002
27.345790,0.263376832,0.347415149,0.972724319,0.881523132,-2.023536682,7.282745361
27.346416,0.263743043,0.348025501,0.972236037,1.293510437,-2.099830627,7.481109619
27.347042,0.263010621,0.345950305,0.973334670,0.820487976,-2.137977600,7.641326904
27.348724,0.263376832,0.348635852,0.973945022,0.812858582,-1.855690002,8.129608154
27.349351,0.261301637,0.348757923,0.975776076,0.789970398,-1.802284241,8.228790283
27.349978,0.260325074,0.346926868,0.973578811,0.774711609,-1.672584534,8.457672119
27.350603,0.259470582,0.350588977,0.975531936,0.599235535,-1.397926331,8.732330322
27.351229,0.260325074,0.353640735,0.975531936,0.614494324,-1.321632385,9.014617920
27.365017,0.252390504,0.372561634,0.977362990,-4.504829407,3.042381287,12.249481201
27.365733,0.257395387,0.376345813,0.979316115,-5.046516418,3.652732849,12.531768799
27.366358,0.256907105,0.373782337,0.975776076,-5.313545227,3.591697693,12.470733643
27.366985,0.256785035,0.375613391,0.979438186,-5.496650696,3.927391052,12.585174561
27.367611,0.255808473,0.371340930,0.977851272,-5.763679504,4.247825623,12.737762451
27.368238,0.254343629,0.369265735,0.983100295,-6.061225891,4.263084412,12.836944580
27.368864,0.255442262,0.370974720,0.980658889,-6.282478333,4.690330505,13.035308838
27.369489,0.256662965,0.373660266,0.983588576,-6.503730774,4.812400818,13.195526123
27.370114,0.257273316,0.372073352,0.980903029,-6.824165344,5.071800232,13.073455811
27.370740,0.257273316,0.371463001,0.981757522,-7.297187805,5.476158142,13.302337646
27.371367,0.255686402,0.369754016,0.983344436,-7.678657532,5.552452087,13.546478271
27.371992,0.258127809,0.367434680,0.981757522,-8.121162415,5.994956970,13.378631592
27.372617,0.252146363,0.370242298,0.983832717,-8.174568176,6.178062439,13.836395264
27.373242,0.254953980,0.368411243,0.981025100,-8.731513977,6.536643982,13.874542236
27.374962,0.258249879,0.363528430,0.977607131,-9.380012512,7.429283142,14.156829834
27.375589,0.255686402,0.365603626,0.978339553,-9.608894348,7.696311951,14.324676514
27.376216,0.257151246,0.365481555,0.978705764,-9.807258606,7.978599548,14.400970459
27.376841,0.253367066,0.368533313,0.975531936,-9.807258606,8.245628357,14.675628662
27.377466,0.254343629,0.370364368,0.977729201,-9.814888000,8.436363220,14.706146240
27.378092,0.255930543,0.370852649,0.978949904,-10.181098938,8.695762634,14.744293213
27.378718,0.253855348,0.373171985,0.978583694,-10.257392883,8.779685974,14.820587158
27.379343,0.253977418,0.374270618,0.976630569,-10.699897766,9.123008728,15.087615967
27.379968,0.257761598,0.375735462,0.978217483,-11.020332336,9.390037537,14.980804443
27.380593,0.258494020,0.379031360,0.983222365,-11.233955383,9.657066345,15.369903564
27.381220,0.258005738,0.381472766,0.980170608,-11.378913879,10.030906677,15.064727783
27.381845,0.258127809,0.380862415,0.983954787,-11.661201477,10.130088806,15.148651123
27.382470,0.256174684,0.384768665,0.981025100,-11.859565735,10.091941833,15.270721436
27.383095,0.255320191,0.386721790,0.982367873,-12.302070618,10.664146423,15.430938721
27.383721,0.258127809,0.389041126,0.983832717,-12.843757629,10.732810974,15.583526611
27.385430,0.263743043,0.396609485,0.985907912,-13.515144348,11.617820740,15.614044189
27.386056,0.262644410,0.400393665,0.988349319,-14.308601379,11.327903748,15.476715088
27.386682,0.266428590,0.398440540,0.984443069,-14.392524719,11.854331970,15.408050537
27.387307,0.264963746,0.399172962,0.985297561,-14.865547180,11.884849548,15.522491455
27.387933,0.268015504,0.401370227,0.985663772,-14.957099915,12.205284119,15.392791748
27.388559,0.266428590,0.401126087,0.983588576,-15.369087219,12.251060486,15.408050537
27.389185,0.269358277,0.401980579,0.982856154,-15.750556946,12.479942322,15.400421143
27.389810,0.268381715,0.401126087,0.982245803,-16.025215149,12.815635681,15.499603271
27.390437,0.273874879,0.401980579,0.974311233,-16.223579407,12.746971130,15.430938721
27.391062,0.272898316,0.401614368,0.976142287,-16.254096985,12.861412048,15.278350830
27.391687,0.275583863,0.400393665,0.973822951,-16.383796692,13.029258728,15.209686279
27.392314,0.274241090,0.401370227,0.970160842,-16.444831848,13.052146912,15.347015381
27.392940,0.275950074,0.402346790,0.966376662,-16.650825500,13.090293884,15.118133545
27.393565,0.275950074,0.400881946,0.968329787,-16.437202454,13.425987244,15.095245361
27.394191,0.276194215,0.401858509,0.966742873,-16.635566711,13.372581482,15.026580811
27.395902,0.272410035,0.405398548,0.963080764,-16.482978821,13.487022400,14.652740479
27.396527,0.275339723,0.402713001,0.961982131,-16.673713684,13.815086365,14.515411377
27.397153,0.274241090,0.409915149,0.958930373,-16.330390930,13.540428162,14.446746826
27.397779,0.274973512,0.405886829,0.956000686,-16.460090637,13.906639099,14.339935303
27.411550,0.256174684,0.470828235,0.938788772,-13.621955872,12.891929626,9.686004639
27.412245,0.253489137,0.476321399,0.941474319,-13.744026184,12.777488708,9.174835205
27.412870,0.251902223,0.477297962,0.945014358,-13.522773743,12.998741150,8.686553955
27.413496,0.252756715,0.478762805,0.944892287,-13.492256165,12.869041443,8.305084229
27.414121,0.255320191,0.483279407,0.947699904,-13.538032532,12.853782654,7.870208740
27.414747,0.252268434,0.484988391,0.947821975,-13.408332825,12.746971130,7.702362061
27.415372,0.248850465,0.487063587,0.946845412,-13.507514954,12.952964783,6.931793213
27.415997,0.250437379,0.487918079,0.947944045,-13.278633118,13.143699646,6.664764404
27.416622,0.248240113,0.490359485,0.947333694,-13.400703430,13.067405701,6.466400146
27.417247,0.248728395,0.489138782,0.947211623,-13.148933411,12.998741150,5.680572510
27.417872,0.249582887,0.493533313,0.947577834,-13.393074036,13.113182068,5.436431885
27.418499,0.246042848,0.492190540,0.948310256,-13.301521301,13.113182068,4.826080322
27.419124,0.245676637,0.492800891,0.946967483,-13.309150696,13.418357849,4.543792725
27.419750,0.243479371,0.495486438,0.945868850,-13.278633118,13.288658142,4.116546631
27.421518,0.241160035,0.493045032,0.948066115,-13.164192200,13.654869080,2.529632568
27.422144,0.241648316,0.495242298,0.949408889,-13.194709778,13.754051208,2.155792236
27.422769,0.243601441,0.494754016,0.948188186,-13.126045227,13.837974548,1.522552490
27.423394,0.242869020,0.496707141,0.945990920,-12.973457336,13.914268494,1.400482178
27.424020,0.240671754,0.493777454,0.943549514,-13.003974915,14.143150330,0.729095459
27.424646,0.242380738,0.492922962,0.945990920,-13.072639465,14.089744568,0.355255127
27.425271,0.244944215,0.490481555,0.949042678,-13.065010071,14.310997009,0.034820557
27.425897,0.244944215,0.489627063,0.942939162,-12.843757629,14.249961853,-0.613677979
27.426524,0.245798707,0.489016712,0.943183303,-12.797981262,14.570396423,-0.934112549
27.427149,0.245188355,0.487063587,0.944159865,-12.897163391,14.707725525,-1.147735596
27.427775,0.243601441,0.485842884,0.943061233,-12.683540344,14.532249451,-1.819122314
27.428402,0.244944215,0.486453235,0.943427444,-12.729316711,14.883201599,-2.093780518
27.429027,0.245798707,0.482424915,0.942328811,-12.569099426,14.928977966,-2.543914795
27.429653,0.244700074,0.478152454,0.939887404,-12.637763977,15.005271912,-2.933013916
27.430305,0.244089723,0.479006946,0.940497756,-12.630134583,15.432518005,-3.200042725
27.432018,0.246286988,0.468142688,0.939399123,-12.614875793,15.424888611,-4.176605225
27.432645,0.243723512,0.464724720,0.940497756,-12.668281555,15.279930115,-4.428375244
27.433272,0.245310426,0.460818470,0.940619826,-12.500434875,15.691917419,-4.771697998
27.433899,0.242869020,0.459353626,0.941596389,-12.759834290,15.676658630,-4.962432861
27.434526,0.243845582,0.454226673,0.935859084,-12.408882141,15.562217712,-5.046356201
27.435151,0.244333863,0.451785266,0.936469436,-12.439399719,15.752952576,-5.588043213
27.435777,0.244700074,0.446780384,0.934394240,-12.454658508,15.607994080,-5.733001709
27.436402,0.246653199,0.442141712,0.935859084,-12.637763977,16.050498962,-6.099212646
27.437028,0.241648316,0.440432727,0.933051467,-12.576728821,15.737693787,-6.152618408
27.437654,0.242624879,0.436526477,0.937079787,-12.561470032,15.791099548,-6.320465088
27.438279,0.246164918,0.432620227,0.935614944,-12.363105774,15.821617126,-6.518829346
27.438905,0.248484254,0.428469837,0.932074904,-12.469917297,15.989463806,-6.755340576
27.439530,0.246653199,0.424319446,0.932563186,-12.256294250,16.050498962,-6.900299072
27.440155,0.245310426,0.420779407,0.933539748,-12.462287903,16.081016541,-6.984222412
27.440782,0.244455934,0.419436634,0.928534865,-12.370735168,16.378562927,-7.205474854
27.442505,0.244700074,0.411746204,0.926459670,-12.088447571,16.393821716,-7.335174561
27.443131,0.244822145,0.406008899,0.925971389,-11.874824524,16.103904724,-7.441986084
27.443758,0.240305543,0.398806751,0.931586623,-12.195259094,16.370933533,-7.426727295
27.444383,0.240427613,0.400271595,0.926825881,-11.760383606,16.378562927,-7.525909424
27.458188,0.221872926,0.332156360,0.961615920,-10.379463196,19.453208923,-6.625640869
27.458906,0.224680543,0.330081165,0.955756545,-10.379463196,19.392173767,-6.282318115
27.459533,0.224314332,0.326785266,0.955512404,-10.333686829,19.697349548,-6.259429932
27.460158,0.226999879,0.326052845,0.954535842,-10.684638977,19.849937439,-6.350982666
27.460785,0.225901246,0.325076282,0.950263381,-10.806709290,20.170372009,-5.938995361
27.461410,0.224558473,0.319583118,0.949408889,-10.593086243,20.261924744,-5.847442627
27.462035,0.227732301,0.316409290,0.954657912,-10.600715637,20.544212341,-5.534637451
27.462660,0.227732301,0.316409290,0.954657912,-10.600715637,20.544212341,-5.534637451
27.463287,0.223826051,0.313845813,0.949897170,-10.532051086,20.925682068,-5.282867432
27.463912,0.225535035,0.313601673,0.948554397,-10.532051086,21.040122986,-5.305755615
27.464538,0.225657105,0.310549915,0.949408889,-10.562568665,21.352928162,-4.901397705
27.465164,0.225535035,0.311770618,0.948920608,-10.615974426,21.520774841,-4.626739502
27.465790,0.222605348,0.307131946,0.947333694,-10.547309875,21.612327576,-4.336822510
27.466415,0.223581910,0.304934680,0.946357131,-10.684638977,21.894615173,-4.283416748
27.468139,0.223581910,0.298464954,0.944526076,-10.844856262,22.504966736,-3.520477295
27.468764,0.222483277,0.296145618,0.940863967,-11.096626282,22.955101013,-3.222930908
27.469389,0.228830934,0.288455188,0.939887404,-11.211067200,22.604148865,-2.826202393
27.470016,0.226023316,0.286135852,0.939643264,-11.211067200,23.115318298,-2.620208740
27.470642,0.219431520,0.282351673,0.936835647,-10.890632629,23.420494080,-2.353179932
27.471268,0.219309449,0.282107532,0.934638381,-11.211067200,23.512046814,-1.727569580
27.471893,0.221628785,0.280032337,0.937079787,-11.272102356,23.489158630,-1.643646240
27.472518,0.223215699,0.275393665,0.931586623,-11.356025696,24.091880798,-1.201141357
27.473144,0.224314332,0.272952259,0.931098342,-11.401802063,23.809593201,-1.025665283
27.473769,0.222727418,0.273318470,0.929999709,-11.211067200,24.122398376,-0.438201904
27.474395,0.226511598,0.272586048,0.934882522,-11.455207825,24.305503845,-0.171173096
27.475020,0.223581910,0.270877063,0.929389358,-11.485725403,24.503868103,0.202667236
27.475645,0.226145387,0.271975696,0.928901076,-11.470466614,24.610679626,0.729095459
27.476271,0.223581910,0.267825305,0.927924514,-11.676460266,24.763267517,0.851165771
27.476897,0.224192262,0.271731555,0.925483108,-11.439949036,24.854820251,1.446258545
27.478608,0.221140504,0.272219837,0.921576858,-11.638313293,25.312583923,2.529632568
27.479235,0.225657105,0.273806751,0.919867873,-11.897712708,25.373619080,2.796661377
27.479860,0.225657105,0.273440540,0.917426467,-11.790901184,25.350730896,3.201019287
27.480486,0.225779176,0.276004016,0.920478225,-11.745124817,25.442283630,3.803741455
27.481111,0.225901246,0.278079212,0.917914748,-12.035041809,25.564353943,4.086029053
27.481737,0.227121949,0.282595813,0.916816115,-11.958747864,25.648277283,4.414093018
27.482364,0.229685426,0.284304798,0.915473342,-11.951118469,25.266807556,4.566680908
27.482991,0.230539918,0.286746204,0.914252639,-11.829048157,25.839012146,4.986297607
27.483616,0.231272340,0.288211048,0.917426467,-12.195259094,25.831382751,5.337249756
27.484241,0.235788941,0.294070423,0.917914748,-12.042671204,26.121299744,5.474578857
27.484866,0.235666871,0.301394641,0.917060256,-12.019783020,26.235740662,6.031524658
27.485491,0.238352418,0.304324329,0.919379592,-12.103706360,26.319664001,6.092559814
27.486118,0.240915895,0.310183704,0.920356154,-12.218147278,26.518028259,6.420623779
27.486745,0.242136598,0.312136829,0.918158889,-12.370735168,26.716392517,6.641876221
27.487370,0.245554566,0.316043079,0.917060256,-12.515693665,26.518028259,6.718170166
27.489075,0.250071168,0.327029407,0.916083694,-12.996345520,26.746910095,7.465850830
27.489700,0.252024293,0.328860462,0.913642287,-12.653022766,26.960533142,7.771026611
27.490327,0.256785035,0.335208118,0.914374709,-12.920051575,27.090232849,7.862579346
27.490953,0.255686402,0.337771595,0.910956740,-13.042121887,27.334373474,7.977020264
27.522274,0.222361207,0.354129016,0.907050490,-12.904792786,18.881004333,4.749786377
27.522999,0.212107301,0.341311634,0.907416701,-12.874275208,19.125144958,4.436981201
27.523625,0.212107301,0.334841907,0.910712600,-12.797981262,19.178550720,4.536163330
27.524252,0.212107301,0.334841907,0.910712600,-12.797981262,19.178550720,4.536163330
27.524877,0.218210816,0.331546009,0.916571975,-12.897163391,19.148033142,4.261505127
27.525504,0.220652223,0.333010852,0.915839553,-12.843757629,19.109886169,4.368316650
27.526129,0.219553590,0.339846790,0.916571975,-12.950569153,19.437950134,4.467498779
27.526755,0.215036988,0.336062610,0.919013381,-12.790351868,19.712608337,4.353057861
27.527380,0.219309449,0.334719837,0.923407912,-12.904792786,19.659202576,4.597198486
27.528009,0.212595582,0.333132923,0.927436233,-12.889533997,19.582908630,4.398834229
27.528636,0.215647340,0.333865345,0.929145217,-13.049751282,20.048301697,4.551422119
27.529261,0.219919801,0.331912220,0.932441115,-13.339668274,19.987266541,4.726898193
27.529886,0.230906129,0.326663196,0.935126662,-13.576179504,20.246665955,4.551422119
27.530512,0.225901246,0.326663196,0.934760451,-13.454109192,20.300071716,4.498016357
27.532236,0.224314332,0.323611438,0.941230178,-13.789802551,20.704429626,4.566680908
27.532862,0.220896363,0.323367298,0.941108108,-14.133125305,20.689170837,4.665863037
27.533488,0.220286012,0.326052845,0.937690139,-13.980537415,20.803611755,4.620086670
27.534113,0.225535035,0.331423938,0.936469436,-14.232307434,21.269004822,4.330169678
27.534739,0.230906129,0.334475696,0.934394240,-14.491706848,21.169822693,4.391204834
27.535365,0.224558473,0.334719837,0.933417678,-14.430671692,21.360557556,4.482757568
27.535991,0.223337770,0.340213001,0.934882522,-14.362007141,21.566551208,4.574310303
27.536617,0.226267457,0.335452259,0.937079787,-14.575630188,21.627586365,4.337799072
27.537243,0.229563355,0.333987415,0.941352248,-15.033393860,21.490257263,4.292022705
27.537869,0.230173707,0.328372180,0.945014358,-15.010505676,21.589439392,4.673492432
27.538496,0.236155152,0.328982532,0.946967483,-15.079170227,21.597068787,4.612457275
27.539121,0.236277223,0.327151477,0.948798537,-15.170722961,21.833580017,4.818450928
27.539748,0.233713746,0.329226673,0.943915725,-15.498786926,22.192161560,4.757415771
27.540374,0.227121949,0.328860462,0.946723342,-15.643745422,22.062461853,4.879486084
27.541000,0.233835816,0.337649524,0.936713576,-15.620857239,21.978538513,5.093109131
27.542722,0.240671754,0.336062610,0.925971389,-16.200691223,22.047203064,5.329620361
27.543347,0.243357301,0.328982532,0.926825881,-15.651374817,22.062461853,5.566131592
27.543974,0.241648316,0.326419055,0.928046584,-15.613227844,21.879356384,5.581390381
27.544599,0.242869020,0.329592884,0.927802444,-15.536933899,22.237937927,5.642425537
27.545225,0.246531129,0.332400501,0.926947951,-15.262275696,22.398155212,5.718719482
27.545850,0.248728395,0.340090930,0.928901076,-15.285163879,22.314231873,5.985748291
27.546477,0.243601441,0.346072376,0.930854201,-14.819770813,22.100608826,6.039154053
27.547103,0.240305543,0.353762805,0.926337600,-14.804512024,21.925132751,6.092559814
27.547729,0.237253785,0.351931751,0.925727248,-15.071540833,21.963279724,6.115447998
27.548354,0.243479371,0.348757923,0.931830764,-14.911323547,21.711509705,6.428253174
27.548979,0.248850465,0.345584095,0.936103225,-14.903694153,21.505516052,6.451141357
27.549606,0.244333863,0.349246204,0.937690139,-14.850288391,21.474998474,6.855499268
27.550231,0.239573121,0.355349720,0.942084670,-14.644294739,21.619956970,6.626617432
27.550856,0.237742066,0.358523548,0.941474319,-14.987617493,21.803062439,6.741058350
27.551481,0.240793824,0.362673938,0.944281936,-14.796882629,21.597068787,6.947052002
27.553189,0.221384645,0.358035266,0.945136428,-14.827400208,21.230857849,7.534515381
27.553815,0.217722535,0.354861438,0.944281936,-14.781623840,21.192710876,7.542144775
27.554442,0.221018434,0.353640735,0.946601272,-14.636665344,21.070640564,7.870208740
27.555068,0.222483277,0.357791126,0.946235061,-14.850288391,20.841758728,7.931243896
27.568936,0.197947145,0.371707141,0.977607131,-13.019233704,21.490257263,10.632049561
27.569684,0.193918824,0.371707141,0.982123733,-12.828498840,21.513145447,10.647308350
27.570309,0.185984254,0.371218860,0.983588576,-12.950569153,21.482627869,11.082183838
27.570935,0.188791871,0.371218860,0.985907912,-13.026863098,21.711509705,10.624420166
27.571560,0.192820191,0.375369251,0.981513381,-13.164192200,22.047203064,10.731231689
27.572187,0.191111207,0.383181751,0.979438186,-13.240486145,22.268455505,10.944854736
27.572813,0.192209840,0.392459095,0.974311233,-13.660102844,22.611778259,10.761749268
27.573440,0.187449098,0.388919055,0.980414748,-14.003425598,23.183982849,10.853302002
27.574066,0.185740113,0.378665149,0.987494826,-14.102607727,23.077171326,11.013519287
27.574691,0.179514527,0.367434680,0.993720412,-14.392524719,23.374717712,11.051666260
27.575318,0.174509645,0.352420032,1.003852248,-14.316230774,23.405235291,10.799896240
27.575944,0.186350465,0.352175891,1.004340529,-14.156013489,23.687522888,10.845672607
27.576570,0.194773316,0.359011829,0.995429397,-14.575630188,23.679893494,10.441314697
27.577197,0.197092652,0.374026477,0.985053420,-14.674812317,23.847740173,10.395538330
27.578905,0.183786988,0.384158313,0.963935256,-14.850288391,23.702781677,10.120880127
27.579530,0.184763551,0.384768665,0.952216506,-15.109687805,23.641746521,10.166656494
27.580156,0.188181520,0.374758899,0.945990920,-15.498786926,23.245018005,9.731781006
27.580783,0.206736207,0.374148548,0.933661819,-15.521675110,23.519676208,9.693634033
27.581409,0.222971559,0.373171985,0.929267287,-15.201240540,24.267356873,9.579193115
27.582035,0.213694215,0.368167102,0.927314162,-15.445381165,24.496238708,9.449493408
27.582661,0.204416871,0.361087024,0.926337600,-14.957099915,24.572532654,9.251129150
27.583286,0.204050660,0.354739368,0.930976272,-14.339118958,24.442832947,9.045135498
27.583911,0.208201051,0.354006946,0.930732131,-14.300971985,24.236839294,9.006988525
27.584537,0.209421754,0.355960071,0.932929397,-14.072090149,24.320762634,8.869659424
27.585162,0.214548707,0.358645618,0.933905959,-14.224678040,24.702232361,8.732330322
27.585788,0.220774293,0.362429798,0.933661819,-14.117866516,24.763267517,8.678924561
27.586415,0.214182496,0.359988391,0.935370803,-13.972908020,24.526756287,8.755218506
27.587042,0.206980348,0.363284290,0.938178420,-14.186531067,24.404685974,8.633148193
27.587668,0.208567262,0.363284290,0.935248733,-14.384895325,24.160545349,8.419525146
27.589379,0.222361207,0.361819446,0.922187209,-14.972358704,24.030845642,8.350860596
27.590011,0.222239137,0.358157337,0.919135451,-15.079170227,23.824851990,8.327972412
27.590637,0.222483277,0.357180774,0.909369826,-15.041023254,23.763816833,8.419525146
27.591263,0.217844605,0.350833118,0.904609084,-15.102058411,23.321311951,8.076202393
27.591890,0.217356324,0.343997180,0.903632522,-14.835029602,23.260276794,8.404266357
27.592515,0.220408082,0.343630970,0.896308303,-14.568000793,22.932212830,8.640777588
27.593141,0.218088746,0.344729602,0.893866897,-14.476448059,22.695701599,8.305084229
27.593768,0.218699098,0.343386829,0.891425490,-14.346748352,22.672813416,8.472930908
27.594395,0.217966676,0.344973743,0.888984084,-13.713508606,22.642295837,8.587371826
27.595020,0.215525270,0.345706165,0.890204787,-13.698249817,22.001426697,8.266937256
27.595645,0.214060426,0.348879993,0.893988967,-13.415962219,21.886985779,8.427154541
27.596271,0.210764527,0.349612415,0.893622756,-12.973457336,21.467369080,8.289825439
27.596898,0.210764527,0.350100696,0.897529006,-13.080268860,21.413963318,8.160125732
27.597525,0.212473512,0.346804798,0.903144240,-13.065010071,21.108787537,8.022796631
27.598152,0.205637574,0.347659290,0.908149123,-12.683540344,20.826499939,8.327972412
27.599860,0.206980348,0.345706165,0.908393264,-12.950569153,19.605796814,8.312713623
27.600485,0.205027223,0.344973743,0.909613967,-12.820869446,19.262474060,8.297454834
27.601110,0.201609254,0.339236438,0.907538772,-12.637763977,19.033592224,8.350860596
27.601736,0.202341676,0.342654407,0.904731154,-12.614875793,18.736045837,8.083831787
27.615502,0.207834840,0.328372180,0.928779006,-7.655769348,13.219993591,9.991180420
27.616195,0.209421754,0.327883899,0.928779006,-7.518440247,12.724082947,10.143768311
27.616821,0.209055543,0.330935657,0.927436233,-7.342964172,12.548606873,10.242950439
27.617447,0.210032105,0.329959095,0.930243850,-7.442146301,12.533348083,10.265838623
27.618072,0.212839723,0.334231555,0.933295608,-7.152229309,12.090843201,10.616790771
27.618699,0.216379762,0.331057727,0.930976272,-7.060676575,11.831443787,10.509979248
27.619326,0.214670777,0.331301868,0.935492873,-6.831794739,11.854331970,10.677825928
27.619952,0.214792848,0.328005970,0.935126662,-6.633430481,11.251609802,10.860931396
27.620578,0.216013551,0.329104602,0.935248733,-6.549507141,11.221092224,10.815155029
27.621204,0.213938355,0.323977649,0.936957717,-6.274848938,10.908287048,10.815155029
27.621831,0.216745973,0.322024524,0.937445998,-6.213813782,10.900657654,11.166107178
27.622456,0.219797730,0.321414173,0.934882522,-5.641609192,10.992210388,11.044036865
27.623081,0.218699098,0.324954212,0.936347365,-5.603462219,10.618370056,11.364471436
27.623707,0.218088746,0.325930774,0.936347365,-5.267768860,10.320823669,11.387359619
27.625475,0.215647340,0.326541126,0.940009475,-4.352241516,10.152976990,11.288177490
27.626100,0.213328004,0.332278430,0.940741897,-4.108100891,9.946983337,11.356842041
27.626727,0.213816285,0.337161243,0.941474319,-3.955513000,10.107200623,11.326324463
27.627352,0.212229371,0.334841907,0.943427444,-3.848701477,10.053794861,11.585723877
27.627977,0.214182496,0.339114368,0.944648147,-3.627449036,9.817283630,11.494171143
27.628603,0.208933473,0.336428821,0.944648147,-3.474861145,9.611289978,11.471282959
27.629230,0.209421754,0.337161243,0.948310256,-3.520637512,9.420555115,11.578094482
27.629856,0.206980348,0.338504016,0.946235061,-3.429084778,9.153526306,11.593353271
27.630482,0.201609254,0.339358509,0.946967483,-3.253608704,9.420555115,11.486541748
27.631109,0.201731324,0.339114368,0.946235061,-3.299385071,9.229820251,11.738311768
27.631735,0.198679566,0.341311634,0.947699904,-3.253608704,8.962791443,11.478912354
27.632360,0.200510621,0.345462024,0.947944045,-3.200202942,9.161155701,11.723052979
27.632986,0.197214723,0.344607532,0.947455764,-3.162055969,9.000938416,11.814605713
27.633612,0.192576051,0.346682727,0.946845412,-3.543525696,9.130638123,11.646759033
27.634237,0.190989137,0.347659290,0.948554397,-3.162055969,9.275596619,11.730682373
27.635975,0.189524293,0.347293079,0.944526076,-3.245979309,9.184043884,11.707794189
27.636601,0.185862184,0.349856555,0.947211623,-3.459602356,9.184043884,11.745941162
27.637227,0.185495973,0.348025501,0.948432326,-3.261238098,9.222190857,11.745941162
27.637852,0.182932496,0.349856555,0.948554397,-3.436714172,9.618919373,11.799346924
27.638478,0.181223512,0.349002063,0.952094436,-3.772407532,9.458702087,11.730682373
27.639104,0.180857301,0.349002063,0.946112990,-3.871589661,9.466331482,11.631500244
27.639730,0.175486207,0.344973743,0.950629592,-4.230171204,9.702842712,11.860382080
27.640357,0.173044801,0.342532337,0.947089553,-4.108100891,9.649436951,11.600982666
27.640982,0.170359254,0.338992298,0.950385451,-4.329353333,9.626548767,11.875640869
27.641609,0.170237184,0.337649524,0.945624709,-4.504829407,9.954612732,11.768829346
27.642235,0.166208863,0.333132923,0.946967483,-4.558235168,10.053794861,11.578094482
27.642862,0.165232301,0.332034290,0.945136428,-4.863410950,10.343711853,11.776458740
27.643488,0.166575074,0.331423938,0.938544631,-4.878669739,10.603111267,11.539947510
27.644113,0.164621949,0.329714954,0.939643264,-4.985481262,10.885398865,11.662017822
27.644739,0.162302613,0.328494251,0.939887404,-4.909187317,10.893028259,11.394989014
27.646454,0.161326051,0.326663196,0.940619826,-5.115180969,12.128990173,11.288177490
27.647079,0.160105348,0.329226673,0.941840529,-5.160957336,12.373130798,10.876190186
27.647704,0.157908082,0.330447376,0.941596389,-5.511909485,12.769859314,10.891448975
27.648330,0.159494996,0.327395618,0.943427444,-5.855232239,13.303916931,10.807525635
27.662138,0.175242066,0.314456165,0.928656936,-12.874275208,20.040672302,6.123077393
27.662854,0.180613160,0.309329212,0.925361037,-13.087898254,20.277183533,5.718719482
27.663481,0.179148316,0.310671985,0.927558303,-13.293891907,20.330589294,5.604278564
27.664106,0.182078004,0.308108509,0.925727248,-13.568550110,20.429771423,5.383026123
27.664732,0.184153199,0.307131946,0.927192092,-13.286262512,20.521324158,5.047332764
27.665359,0.185495973,0.305789173,0.924750686,-13.560920715,20.849388123,4.978668213
27.665985,0.184519410,0.306643665,0.922187209,-13.476997375,21.146934509,4.566680908
27.666611,0.185495973,0.306155384,0.920112014,-13.446479797,20.963829041,4.215728760
27.667238,0.189890504,0.308963001,0.926703811,-13.278633118,20.841758728,4.017364502
27.667865,0.188547730,0.308108509,0.922553420,-13.454109192,21.154563904,3.948699951
27.668492,0.189402223,0.310671985,0.921698928,-13.110786438,21.291893005,3.620635986
27.669118,0.188425660,0.312747180,0.923285842,-13.415962219,21.185081482,3.658782959
27.669743,0.189768434,0.313357532,0.920722365,-13.171821594,21.154563904,3.132354736
27.670368,0.190500855,0.316775501,0.926337600,-13.339668274,21.566551208,2.949249268
27.672098,0.194162965,0.326907337,0.919501662,-13.232856750,21.673362732,2.201568604
27.672724,0.193064332,0.324954212,0.922187209,-12.790351868,21.474998474,2.171051025
27.673349,0.191843629,0.322879016,0.920966506,-13.133674622,21.803062439,1.766693115
27.673975,0.190989137,0.325320423,0.917914748,-12.889533997,21.772544861,1.659881592
27.674600,0.189158082,0.328616321,0.922065139,-13.385444641,21.673362732,1.064788818
27.675226,0.190256715,0.329959095,0.922431350,-13.194709778,21.726768494,1.064788818
27.675853,0.191111207,0.331790149,0.923896194,-13.148933411,21.665733337,0.790130615
27.676478,0.190012574,0.333377063,0.923774123,-13.042121887,21.635215759,0.790130615
27.677104,0.191355348,0.337405384,0.925727248,-13.309150696,22.009056091,0.523101807
27.677730,0.190622926,0.337649524,0.925727248,-13.400703430,21.665733337,-0.163543701
27.678355,0.192942262,0.341311634,0.928779006,-13.225227356,21.520774841,-0.064361572
27.678981,0.192576051,0.341433704,0.929755569,-13.278633118,21.673362732,-0.331390381
27.679606,0.193674684,0.341921985,0.929023147,-13.385444641,21.642845154,-0.590789795
27.680231,0.192331910,0.337893665,0.929389358,-13.469367981,21.330039978,-0.903594971
27.680856,0.194651246,0.336795032,0.929023147,-13.560920715,21.230857849,-1.071441650
27.682563,0.197458863,0.336184680,0.928779006,-13.583808899,21.322410583,-1.628387451
27.683188,0.195627809,0.334963977,0.928779006,-13.370185852,21.322410583,-1.918304443
27.683815,0.194895387,0.331546009,0.928901076,-13.309150696,21.154563904,-1.887786865
27.684440,0.195383668,0.330569446,0.929023147,-13.438850403,21.444480896,-2.070892334
27.685066,0.193674684,0.331790149,0.925849319,-13.141304016,21.207969666,-2.185333252
27.685691,0.193796754,0.323611438,0.929511428,-13.156562805,20.879905701,-2.475250244
27.686316,0.194895387,0.322879016,0.929755569,-12.897163391,21.085899353,-2.933013916
27.686942,0.195749879,0.318728626,0.930121779,-12.569099426,20.803611755,-2.810943604
27.687567,0.196848512,0.319827259,0.929633498,-12.447029114,21.200340271,-2.841461182
27.688193,0.195505738,0.320925891,0.932074904,-11.935859680,20.811241150,-2.963531494
27.688820,0.196726441,0.321170032,0.929511428,-12.027412415,21.001976013,-3.016937256
27.689446,0.193674684,0.321414173,0.928168654,-11.607795715,20.902793884,-3.345001221
27.690072,0.192209840,0.319583118,0.933173537,-11.508613586,20.933311462,-3.482330322
27.690698,0.191233277,0.317996204,0.931830764,-11.371284485,20.742576599,-3.482330322
27.691324,0.188547730,0.313479602,0.933905959,-10.944038391,20.742576599,-3.566253662
27.693043,0.190378785,0.312747180,0.935370803,-10.539680481,20.551841736,-3.467071533
27.693669,0.192576051,0.310061634,0.938178420,-9.967475891,20.300071716,-3.848541260
27.694296,0.190867066,0.312380970,0.934394240,-9.929328918,20.216148376,-3.634918213
27.694921,0.189158082,0.310671985,0.937812209,-9.822517395,19.994895935,-3.711212158
27.708985,0.191599488,0.302249134,0.934394240,-7.648139954,18.629234314,-1.513946533
27.709679,0.190989137,0.303103626,0.936103225,-7.709175110,18.255393982,-1.361358643
27.710306,0.189768434,0.303469837,0.935370803,-7.877021790,18.224876404,-1.018035889
27.710931,0.188425660,0.302127063,0.936469436,-7.938056946,18.041770935,-1.025665283
27.711558,0.190500855,0.298464954,0.939277053,-8.006721497,18.079917908,-0.804412842
27.712183,0.191965699,0.296389759,0.937812209,-7.899909973,18.018882751,-0.773895264
27.712809,0.191721559,0.296267688,0.934150100,-7.945686340,18.194358826,-0.567901611
27.713436,0.193064332,0.295779407,0.935492873,-8.189826965,17.873924255,-0.430572510
27.714063,0.195139527,0.296145618,0.934882522,-8.495002747,18.049400330,-0.285614014
27.714688,0.192576051,0.296267688,0.931464553,-8.609443665,17.584007263,-0.056732178
27.715313,0.193308473,0.294680774,0.931098342,-8.327156067,17.934959412,-0.064361572
27.715939,0.189768434,0.289797962,0.925605178,-8.517890930,17.973106384,0.103485107
27.716564,0.194040895,0.289187610,0.926581740,-8.449226379,17.866294861,0.095855713
27.717189,0.194040895,0.289187610,0.926581740,-8.449226379,17.866294861,0.095855713
27.718959,0.194651246,0.277957141,0.923529983,-8.556037903,17.622154236,0.523101807
27.719586,0.191721559,0.276370227,0.915473342,-8.647590637,17.477195740,0.919830322
27.720213,0.193308473,0.274905384,0.919989944,-8.479743958,17.767112732,0.927459717
27.720839,0.191599488,0.279177845,0.917792678,-8.777290344,17.751853943,1.118194580
27.721465,0.189036012,0.272830188,0.919867873,-8.456855774,17.309349060,1.179229736
27.722090,0.189768434,0.269290149,0.915717483,-8.571296692,17.355125427,1.141082764
27.722715,0.190012574,0.268557727,0.917182326,-8.243232727,17.484825134,1.331817627
27.723341,0.186350465,0.261111438,0.917060256,-8.166938782,17.301719666,1.522552490
27.723967,0.184153199,0.258059680,0.914496779,-8.456855774,17.194908142,1.537811279
27.724592,0.182444215,0.255984485,0.917792678,-7.991462708,16.988914490,1.553070068
27.725218,0.181101441,0.258303821,0.916938186,-7.915168762,16.966026306,1.835357666
27.725843,0.182566285,0.255984485,0.916694045,-8.266120911,16.782920837,1.949798584
27.726470,0.179880738,0.256838977,0.913520217,-7.800727844,17.027061462,2.155792236
27.727095,0.176951051,0.257327259,0.908881545,-7.899909973,17.049949646,2.529632568
27.727721,0.175974488,0.253176868,0.905707717,-8.052497864,16.729515076,2.331268311
27.729428,0.169138551,0.250247180,0.907660842,-7.770210266,16.729515076,2.850067139
27.730053,0.166941285,0.248538211,0.906195998,-7.762580872,16.744773865,3.101837158
27.730679,0.165598512,0.246463016,0.905463576,-8.006721497,16.340415955,2.964508057
27.731305,0.165598512,0.244754031,0.908881545,-7.854133606,16.698997498,3.323089600
27.731931,0.168406129,0.246951297,0.907538772,-7.983833313,16.615074158,3.613006592
27.732557,0.163645387,0.244265750,0.909369826,-8.182197571,16.393821716,3.559600830
27.733183,0.161936402,0.251712024,0.909980178,-8.289009094,16.851585388,3.834259033
27.733809,0.157419801,0.250247180,0.906195998,-8.311897278,16.698997498,4.101287842
27.734436,0.156809449,0.250125110,0.910346389,-8.411079407,16.615074158,4.208099365
27.735063,0.157908082,0.248049930,0.908515334,-8.655220032,16.554039001,4.086029053
27.735690,0.158762574,0.246096805,0.909491897,-8.830696106,16.576927185,4.414093018
27.736316,0.158152223,0.246218875,0.909003615,-9.074836731,16.653221130,4.726898193
27.736942,0.157297730,0.243777469,0.912665725,-9.219795227,16.508262634,4.673492432
27.737569,0.155954957,0.242434695,0.914985061,-9.219795227,16.401451111,4.635345459
27.738195,0.158152223,0.243655398,0.914374709,-9.578376770,16.630332947,4.826080322
27.739954,0.164621949,0.236697391,0.914496779,-10.394721985,16.775291443,5.604278564
27.740579,0.162668824,0.238040164,0.913031936,-10.310798645,16.805809021,5.650054932
27.741205,0.161448121,0.232791141,0.914130569,-10.608345032,16.561668396,5.772125244
27.741830,0.163889527,0.231692508,0.909980178,-10.440498352,16.409080505,5.558502197
27.742456,0.164499879,0.231936648,0.914740920,-10.776191711,16.599815369,6.130706787
27.773821,0.157053590,0.271731555,0.942695022,-11.783271790,17.866294861,12.508880615
27.774580,0.154245973,0.273318470,0.940986037,-11.729866028,18.140953064,12.775909424
27.775206,0.153757691,0.273684680,0.940619826,-12.050300598,18.118064880,12.852203369
27.775831,0.152292848,0.273806751,0.939154983,-11.989265442,18.057029724,13.088714600
27.776456,0.151316285,0.271853626,0.936347365,-12.088447571,18.346946716,13.401519775
27.777082,0.149851441,0.274661243,0.938666701,-12.515693665,18.209617615,13.569366455
27.777708,0.145578980,0.277224720,0.939765334,-12.500434875,18.438499451,13.805877686
27.778333,0.146677613,0.279299915,0.941230178,-12.805610657,18.819969177,13.988983154
27.778959,0.146921754,0.280764759,0.940863967,-13.087898254,18.865745544,14.477264404
27.779586,0.147898316,0.284548938,0.942328811,-13.141304016,18.911521912,14.606964111
27.780212,0.146677613,0.281253040,0.940863967,-13.415962219,19.079368591,14.828216553
27.780837,0.148996949,0.283450305,0.940863967,-13.652473450,19.109886169,14.935028076
27.781464,0.151804566,0.286013782,0.945746779,-14.011054993,19.277732849,15.163909912
27.782089,0.155100465,0.285891712,0.948920608,-14.224678040,19.178550720,15.491973877
27.783806,0.158762574,0.285281360,0.945136428,-15.170722961,19.529502869,15.980255127
27.784433,0.162302613,0.286257923,0.943793654,-15.384346008,19.430320740,16.178619385
27.785058,0.162302613,0.286257923,0.943793654,-15.384346008,19.430320740,16.178619385
27.785684,0.163767457,0.285159290,0.945014358,-15.727668762,19.720237732,16.170989990
27.786309,0.166819215,0.289920032,0.942328811,-15.941291809,19.689720154,16.338836670
27.786935,0.172068238,0.286135852,0.941108108,-16.276985168,19.682090759,16.392242432
27.787560,0.177805543,0.284060657,0.943305373,-16.254096985,20.017784119,16.788970947
27.788185,0.179514527,0.286624134,0.940375686,-16.437202454,20.277183533,16.888153076
27.788812,0.183420777,0.285647571,0.939643264,-16.750007629,20.193260193,17.231475830
27.789438,0.187693238,0.285769641,0.938788772,-17.017036438,20.292442322,17.170440674
27.790065,0.191599488,0.285159290,0.939765334,-17.093330383,20.475547791,17.307769775
27.790691,0.191477418,0.285281360,0.937079787,-17.467170715,20.475547791,17.437469482
27.791317,0.198923707,0.286257923,0.938300490,-17.306953430,20.437400818,17.452728271
27.791943,0.198923707,0.288333118,0.937201858,-17.490058899,20.567100525,17.529022217
27.792570,0.200998902,0.288211048,0.940131545,-17.642646790,20.467918396,17.719757080
27.794289,0.209910035,0.287112415,0.940497756,-18.008857727,20.406883240,17.696868896
27.794914,0.213205934,0.292117298,0.941718459,-18.008857727,20.773094177,17.704498291
27.795539,0.218821168,0.292117298,0.939154983,-18.245368958,20.383995056,17.879974365
27.796164,0.220163941,0.293460071,0.937079787,-18.069892883,20.391624451,17.803680420
27.796791,0.222239137,0.292971790,0.936713576,-18.016487122,20.696800232,17.689239502
27.797418,0.224558473,0.293582141,0.933783889,-18.230110168,20.475547791,17.857086182
27.798045,0.224314332,0.294924915,0.932929397,-18.466621399,20.246665955,17.956268311
27.798671,0.226999879,0.292117298,0.930854201,-18.428474426,20.185630798,17.696868896
27.799298,0.227121949,0.294436634,0.928779006,-17.894416809,20.208518982,17.658721924
27.799924,0.224924684,0.294558704,0.926703811,-18.474250793,19.918601990,17.521392822
27.800549,0.228708863,0.298953235,0.930610061,-18.100410461,19.941490173,17.452728271
27.801176,0.230051637,0.294924915,0.925238967,-18.123298645,19.888084412,17.391693115
27.801801,0.228098512,0.296389759,0.920966506,-18.153816223,19.773643494,17.345916748
27.802426,0.231516480,0.297854602,0.919135451,-18.245368958,19.659202576,17.529022217
27.803051,0.232370973,0.293460071,0.919013381,-18.039375305,19.445579529,17.292510986
27.804763,0.230906129,0.297000110,0.907660842,-17.917304993,18.804710388,16.880523682
27.805388,0.229929566,0.296755970,0.905463576,-17.963081360,18.842857361,16.987335205
27.806014,0.230051637,0.296511829,0.903754592,-17.795234680,18.598716736,16.682159424
27.806639,0.228953004,0.294192493,0.902289748,-17.688423157,18.507164001,16.705047607
27.820465,0.215159059,0.275393665,0.896552444,-14.560371399,10.992210388,15.064727783
27.821182,0.215647340,0.274661243,0.902655959,-14.224678040,10.275047302,15.087615967
27.821807,0.221750855,0.279544055,0.903144240,-13.621955872,10.221641541,14.812957764
27.822432,0.219797730,0.286257923,0.902045608,-13.164192200,9.809654236,14.843475342
27.823058,0.223215699,0.290896595,0.902411819,-12.508064270,9.626548767,14.484893799
27.823684,0.219309449,0.294680774,0.901191115,-12.164741516,8.939903259,14.416229248
27.824309,0.215891480,0.298953235,0.903022170,-11.691719055,8.878868103,14.408599854
27.824934,0.216990113,0.301516712,0.905219436,-11.462837219,8.260887146,14.256011963
27.825559,0.216745973,0.302371204,0.905219436,-11.127143860,8.093040466,14.301788330
27.826185,0.215403199,0.303225696,0.905585647,-10.715156555,7.635276794,14.172088623
27.826810,0.215891480,0.303469837,0.903388381,-10.585456848,7.375877380,14.141571045
27.827436,0.214182496,0.304202259,0.905463576,-10.265022278,7.307212830,13.866912842
27.828061,0.209299684,0.306155384,0.908515334,-10.020881653,6.742637634,13.996612549
27.828686,0.204783082,0.308718860,0.909736037,-9.463935852,6.384056091,13.744842529
27.830427,0.199289918,0.315432727,0.909858108,-8.777290344,5.697410583,13.561737061
27.831053,0.195017457,0.314700305,0.913642287,-8.388191223,5.323570251,13.500701904
27.831678,0.192331910,0.318362415,0.915473342,-8.304267883,5.087059021,13.447296143
27.832304,0.187082887,0.321780384,0.919623733,-7.884651184,5.247276306,13.409149170
27.832931,0.181467652,0.323977649,0.920722365,-7.785469055,4.705589294,13.668548584
27.833556,0.179758668,0.326785266,0.924994826,-7.831245422,4.232566833,13.348114014
27.834183,0.172190309,0.327151477,0.926093459,-8.021980286,4.102867126,13.325225830
27.834809,0.168161988,0.330691516,0.928290725,-7.739692688,3.851097107,13.363372803
27.835436,0.166575074,0.333132923,0.929999709,-7.724433899,3.538291931,13.424407959
27.836062,0.160593629,0.333254993,0.931952834,-7.861763000,3.729026794,13.287078857
27.836687,0.156931520,0.332156360,0.933661819,-7.594734192,3.362815857,13.248931885
27.837314,0.150461793,0.333621204,0.934028029,-8.006721497,3.408592224,13.485443115
27.837941,0.148752809,0.336184680,0.935859084,-7.800727844,3.057640076,13.149749756
27.838566,0.143625855,0.336306751,0.935248733,-7.922798157,2.973716736,13.401519775
27.839195,0.139109254,0.335330188,0.937568069,-7.693916321,2.866905212,13.317596436
27.840892,0.131174684,0.337283313,0.943183303,-8.044868469,2.821128845,13.332855225
27.841517,0.127146363,0.336795032,0.945136428,-7.976203918,2.874534607,13.325225830
27.842144,0.127024293,0.339724720,0.949164748,-7.823616028,2.813499451,13.340484619
27.842769,0.122141480,0.340090930,0.952582717,-7.983833313,2.721946716,13.020050049
27.843395,0.119944215,0.341677845,0.953803420,-7.930427551,2.775352478,13.027679443
27.844022,0.118113160,0.342288196,0.956977248,-8.014350891,2.950828552,12.882720947
27.844648,0.114206910,0.340579212,0.961371779,-8.189826965,2.653282166,13.050567627
27.845275,0.112864137,0.343264759,0.962470412,-8.243232727,2.798240662,12.859832764
27.845902,0.113352418,0.344607532,0.967231154,-8.495002747,2.782981873,13.035308838
27.846527,0.109812379,0.344607532,0.967963576,-8.472114563,2.737205505,12.875091553
27.847152,0.110544801,0.343386829,0.969306350,-8.678108215,2.943199158,12.844573975
27.847777,0.104929566,0.344363391,0.968329787,-8.815437317,3.034751892,12.836944580
27.848404,0.105539918,0.342532337,0.972236037,-8.914619446,3.217857361,12.890350342
27.849029,0.102854371,0.339968860,0.969184279,-8.945137024,3.202598572,12.783538818
27.849654,0.102610230,0.340701282,0.972724319,-8.884101868,3.446739197,12.653839111
27.851364,0.103586793,0.338504016,0.971991897,-8.990913391,3.896873474,12.539398193
27.851990,0.102488160,0.340090930,0.975531936,-8.906990051,4.057090759,12.547027588
27.852616,0.099314332,0.339114368,0.977729201,-8.754402161,4.354637146,12.714874268
27.853242,0.101389527,0.339724720,0.976264358,-8.739143372,4.560630798,12.341033936
27.867070,0.093943238,0.312503040,0.987616897,-11.546760559,11.388938904,11.562835693
27.867810,0.093210816,0.311038196,0.987128615,-12.065559387,11.442344666,11.318695068
27.868437,0.088450074,0.303836048,0.986029983,-12.141853333,11.846702576,11.326324463
27.869063,0.090403199,0.300051868,0.987006545,-12.408882141,12.144248962,11.417877197
27.869688,0.085886598,0.294436634,0.986274123,-12.675910950,12.571495056,11.379730225
27.870315,0.084299684,0.289309680,0.985175490,-13.003974915,13.097923279,11.517059326
27.870940,0.083933473,0.283938587,0.986152053,-13.286262512,13.616722107,11.242401123
27.871565,0.083445191,0.282229602,0.981635451,-13.461738586,14.028709412,11.280548096
27.872191,0.080881715,0.276980579,0.981879592,-13.797431946,14.310997009,11.250030518
27.872816,0.077097535,0.271609485,0.981635451,-14.026313782,14.890830994,11.394989014
27.873441,0.074167848,0.269290149,0.978583694,-14.369636536,15.066307068,11.326324463
27.874067,0.074534059,0.267337024,0.975287795,-14.674812317,15.440147400,11.333953857
27.874693,0.072825074,0.262088001,0.974189162,-14.934211731,15.958946228,11.326324463
27.875319,0.070383668,0.255862415,0.974189162,-15.079170227,16.119163513,11.349212646
27.877062,0.062327027,0.245608523,0.971259475,-15.834480286,17.530601501,11.562835693
27.877688,0.058909059,0.245364383,0.969916701,-16.109138489,17.927330017,11.585723877
27.878315,0.059885621,0.240847781,0.965400100,-16.315132141,18.278282166,11.570465088
27.878941,0.058542848,0.233401492,0.965644240,-16.666084290,18.652122498,11.440765381
27.879568,0.058420777,0.230105594,0.967597365,-17.169624329,18.888633728,11.524688721
27.880194,0.056223512,0.224612430,0.965155959,-17.413764954,19.590538025,11.799346924
27.880820,0.054880738,0.224368289,0.961493850,-17.650276184,19.994895935,11.822235107
27.881447,0.052561402,0.218264773,0.959662795,-17.940193176,20.391624451,11.776458740
27.882072,0.054880738,0.216433719,0.959174514,-18.245368958,20.986717224,11.730682373
27.882698,0.056833863,0.213992313,0.958075881,-18.603950500,20.933311462,11.600982666
27.883324,0.059641480,0.208377078,0.953925490,-18.909126282,21.375816345,11.745941162
27.883950,0.062937379,0.208377078,0.952460647,-19.549995422,21.833580017,12.257110596
27.884575,0.063547730,0.205447391,0.951239944,-19.633918762,22.329490662,11.944305420
27.885200,0.065989137,0.199954227,0.948798537,-19.878059387,22.451560974,12.157928467
27.885825,0.064524293,0.199465945,0.947821975,-20.030647278,23.168724060,12.157928467
27.887560,0.074778199,0.191409305,0.950385451,-20.908027649,23.542564392,12.547027588
27.888185,0.080393434,0.192874148,0.949530959,-21.228462219,23.641746521,12.516510010
27.888812,0.086252809,0.192874148,0.945746779,-21.136909485,23.809593201,12.608062744
27.889438,0.091379762,0.193850711,0.949286819,-21.449714661,23.809593201,12.836944580
27.890064,0.095774293,0.194338992,0.950385451,-21.503120422,24.152915955,13.012420654
27.890690,0.102244020,0.193606570,0.950751662,-21.701484680,23.962181091,12.905609131
27.891316,0.112864137,0.196536258,0.947699904,-21.793037415,24.023216248,13.264190674
27.891941,0.116892457,0.198367313,0.951484084,-21.876960754,23.809593201,13.248931885
27.892566,0.125315309,0.198855594,0.947944045,-21.930366516,24.122398376,13.302337646
27.893191,0.131296754,0.200564578,0.942695022,-21.625190735,23.595970154,13.317596436
27.893817,0.137278199,0.202395633,0.940131545,-21.770149231,23.855369568,13.432037354
27.894442,0.148874879,0.202029422,0.936957717,-21.693855286,23.657005310,13.584625244
27.895067,0.152536988,0.203128055,0.934516311,-21.548896790,23.435752869,13.798248291
27.895693,0.156809449,0.201174930,0.930487990,-21.587043762,23.481529236,13.554107666
27.896320,0.168161988,0.207278445,0.928779006,-21.236091614,23.550193787,13.813507080
27.898041,0.180246949,0.212649539,0.920112014,-20.557075500,23.229759216,13.973724365
27.898667,0.182932496,0.216067508,0.924262404,-20.335823059,23.077171326,14.233123779
27.899293,0.193308473,0.219119266,0.921454787,-20.030647278,22.710960388,14.164459229
27.899920,0.196726441,0.223757938,0.919013381,-19.755989075,22.726219177,14.027130127
27.913692,0.190867066,0.311038196,0.899360061,-12.698799133,12.190025330,14.446746826
27.914390,0.185862184,0.312869251,0.896552444,-12.157112122,11.388938904,14.492523193
27.915016,0.182810426,0.315310657,0.895087600,-12.019783020,11.106651306,14.568817139
27.915643,0.178782105,0.320925891,0.899970412,-11.584907532,10.275047302,14.118682861
27.916268,0.177317262,0.318118274,0.894355178,-11.081367493,9.687583923,14.393341064
27.916894,0.170969605,0.316653430,0.899482131,-10.821968079,8.955162048,14.118682861
27.917519,0.168772340,0.320559680,0.898749709,-10.554939270,8.382957458,14.187347412
27.918144,0.164866090,0.319949329,0.901191115,-9.944587708,7.665794373,14.187347412
27.918770,0.158640504,0.320925891,0.900702834,-9.509712219,7.139366150,13.882171631
27.919396,0.158152223,0.322024524,0.900336623,-9.166389465,6.437461853,14.088165283
27.920023,0.154856324,0.321902454,0.903266311,-8.540779114,5.773704529,14.011871338
27.920649,0.150583863,0.319216907,0.903510451,-8.166938782,5.315940857,13.973724365
27.921276,0.148142457,0.324832141,0.904731154,-7.770210266,4.583518982,14.133941650
27.921901,0.142893434,0.322146595,0.905097365,-7.304817200,4.049461365,13.859283447
27.923666,0.135325074,0.314334095,0.909858108,-5.847602844,1.928489685,13.546478271
27.924292,0.132883668,0.313235462,0.910712600,-5.496650696,1.745384216,13.706695557
27.924919,0.130198121,0.313235462,0.913642287,-4.924446106,1.073997498,13.348114014
27.925544,0.128367066,0.310794055,0.915473342,-4.466682434,0.517051697,13.371002197
27.926169,0.123728395,0.307009876,0.918158889,-3.650337219,-0.230628967,13.393890381
27.926796,0.123118043,0.305545032,0.916938186,-3.429084778,-0.863868713,13.378631592
27.927422,0.122507691,0.300784290,0.921820998,-2.635627747,-1.176673889,13.287078857
27.928048,0.120798707,0.301394641,0.922187209,-1.979499817,-1.619178772,13.157379150
27.928674,0.117380738,0.301272571,0.924750686,-1.315742493,-2.290565491,13.111602783
27.929301,0.119333863,0.300906360,0.929999709,-0.796943665,-2.496559143,12.829315186
27.929926,0.117746949,0.302371204,0.931342483,-0.079780579,-3.160316467,12.783538818
27.930552,0.115671754,0.298220813,0.932319045,0.812858582,-3.618080139,12.829315186
27.931177,0.113840699,0.300784290,0.934638381,1.201957703,-3.999549866,12.623321533
27.931803,0.115427613,0.301394641,0.936713576,1.865715027,-4.480201721,12.608062744
27.932430,0.112131715,0.299807727,0.938910842,2.498954773,-4.831153870,12.249481201
27.934125,0.109446168,0.307864368,0.950263381,4.330009460,-5.678016663,12.127410889
27.934751,0.112742066,0.309695423,0.952582717,4.978507996,-5.761940002,12.188446045
27.935376,0.112864137,0.310061634,0.956611037,5.359977722,-6.212074280,12.051116943
27.936010,0.107493043,0.309573352,0.961860061,5.703300476,-6.601173401,11.715423584
27.936635,0.107126832,0.310671985,0.964301467,6.077140808,-6.669837952,11.799346924
27.937260,0.106150270,0.310794055,0.971259475,6.397575378,-6.852943420,11.715423584
27.937887,0.109568238,0.309817493,0.972113967,6.519645691,-7.020790100,11.463653564
27.938514,0.109568238,0.309573352,0.980414748,7.099479675,-7.440406799,11.211883545
27.939139,0.114328980,0.304812610,0.982123733,7.076591492,-7.379371643,11.105072021
27.939765,0.111765504,0.302004993,0.986274123,7.282585144,-7.577735901,11.250030518
27.940391,0.113352418,0.301150501,0.989447951,7.450431824,-7.669288635,10.921966553
27.941017,0.113596559,0.300662220,0.991523147,7.656425476,-7.547218323,10.799896240
27.941644,0.115427613,0.295169055,0.994941115,7.755607605,-7.821876526,11.013519287
27.942306,0.116648316,0.298098743,0.994819045,7.816642761,-7.936317444,10.746490479
27.942933,0.119211793,0.293948352,0.996528029,7.755607605,-7.829505920,10.647308350
27.944644,0.119578004,0.283328235,0.998847365,8.167594910,-8.073646545,10.464202881
27.945271,0.122385621,0.282839954,0.998847365,8.442253113,-7.638771057,10.311614990
27.945896,0.126413941,0.280520618,0.997748733,8.320182800,-7.882911682,10.403167725
27.946521,0.128733277,0.278445423,0.998237014,8.762687683,-7.837135315,10.258209229
27.960347,0.110911012,0.260501087,1.007880569,4.474967957,-3.602821350,8.457672119
27.961064,0.113352418,0.254031360,1.008002639,4.047721863,-3.366310120,8.480560303
27.961691,0.112986207,0.247073367,1.007392287,3.544181824,-3.099281311,8.419525146
27.962316,0.111399293,0.242312625,1.006781936,3.437370300,-2.893287659,8.419525146
27.962943,0.114206910,0.240847781,1.006293654,3.010124207,-2.786476135,8.427154541
27.963569,0.111277223,0.237918094,1.006293654,2.376884460,-2.275306702,8.205902100
27.964194,0.112009645,0.233035281,1.004096389,2.155632019,-2.199012756,8.297454834
27.964820,0.110788941,0.232424930,1.002997756,1.903862000,-2.069313049,8.221160889
27.965445,0.111155152,0.229373172,1.000800490,1.705497742,-1.848060608,8.137237549
27.966071,0.109324098,0.225466922,0.995673537,1.324028015,-1.634437561,7.816802979
27.966698,0.112619996,0.221072391,0.992865920,1.179069519,-1.519996643,7.885467529
27.967325,0.113230348,0.220339969,0.994696975,1.064628601,-1.062232971,7.977020264
27.967952,0.113352418,0.221560672,0.994696975,0.942558289,-0.909645081,7.954132080
27.968577,0.114817262,0.215335086,0.989325881,1.102775574,-0.947792053,7.893096924
27.970302,0.111155152,0.212527469,0.990546584,1.018852234,-0.573951721,7.778656006
27.970928,0.117014527,0.212039188,0.985175490,1.041740417,0.059288025,7.854949951
27.971553,0.114206910,0.210330203,0.984931350,0.843376160,-0.017005920,7.862579346
27.972179,0.116160035,0.211672977,0.987494826,0.728935242,-0.017005920,7.877838135
27.972805,0.114206910,0.211062625,0.987006545,0.851005554,0.532310486,8.114349365
27.973430,0.116160035,0.213015750,0.986274123,0.561088562,0.585716248,7.771026611
27.974057,0.116648316,0.206912234,0.986762404,0.851005554,0.822227478,8.213531494
27.974684,0.114084840,0.209963992,0.985663772,0.706047058,1.028221130,8.137237549
27.975310,0.114939332,0.210086063,0.983588576,0.614494324,0.990074158,8.312713623
27.975936,0.116892457,0.208499148,0.983710647,0.553459167,1.264732361,8.244049072
27.976562,0.116526246,0.212283328,0.985175490,0.210136414,1.203697205,8.320343018
27.977188,0.116037965,0.211917117,0.980414748,-0.102668762,1.478355408,8.396636963
27.977813,0.117380738,0.212893680,0.977973342,-0.011116028,1.470726013,8.671295166
27.978439,0.120066285,0.212405398,0.976630569,-0.133186340,1.524131775,8.846771240
27.979065,0.121775270,0.209231570,0.974921584,-0.087409973,1.417320251,8.915435791
27.980758,0.129221559,0.212405398,0.968207717,-0.377326965,1.417320251,9.411346436
27.981383,0.134348512,0.211428836,0.964911819,-0.224739075,1.356285095,9.495269775
27.982011,0.135813355,0.214846805,0.963446975,-0.156074524,1.356285095,9.678375244
27.982637,0.136301637,0.212161258,0.961493850,-0.171333313,1.348655701,9.724151611
27.983262,0.139841676,0.215945438,0.957831740,0.004142761,1.135032654,10.136138916
27.983887,0.142649293,0.215579227,0.954535842,0.225395203,1.119773865,9.937774658
27.984514,0.144480348,0.217044070,0.949653029,0.423759460,0.890892029,10.281097412
27.985139,0.150705934,0.218142703,0.943915725,0.446647644,0.806968689,10.639678955
27.985766,0.152536988,0.220828250,0.943061233,0.934928894,0.440757751,10.746490479
27.986391,0.157419801,0.222537234,0.943915725,1.087516785,0.486534119,10.906707764
27.987017,0.156809449,0.227175906,0.937079787,1.430839539,0.623863220,10.937225342
27.987643,0.154978395,0.225344852,0.933661819,1.858085632,0.333946228,11.196624756
27.988268,0.159128785,0.229739383,0.931098342,2.003044128,-0.177223206,11.021148682
27.988894,0.157053590,0.230838016,0.926947951,2.590507507,-0.154335022,11.448394775
27.989521,0.161326051,0.230105594,0.927924514,2.720207214,-0.543434143,11.684906006
27.991225,0.162302613,0.239627078,0.921943069,3.803581238,-1.451332092,11.990081787
27.991850,0.160593629,0.241580203,0.923041701,3.979057312,-1.458961487,12.295257568
27.992477,0.162790895,0.240969852,0.918525100,4.467338562,-1.977760315,12.409698486
27.993103,0.159861207,0.243899539,0.913276076,4.650444031,-2.359230042,12.806427002
27.993729,0.159861207,0.246951297,0.914374709,4.963249207,-2.481300354,12.844573975
27.994355,0.158762574,0.247927859,0.911567092,5.161613464,-2.847511292,12.684356689
28.025699,0.091990113,0.227908328,0.957709670,15.377372742,-14.581520081,11.692535400
28.026451,0.095163941,0.229617313,0.966864944,15.285820007,-14.390785217,11.715423584
28.027076,0.095896363,0.229373172,0.966987014,15.674919128,-14.200050354,11.440765381
28.027702,0.101877809,0.232180789,0.973456740,15.285820007,-13.902503967,11.143218994
28.028329,0.101145387,0.238772586,0.976020217,15.285820007,-13.650733948,10.708343506
28.028955,0.103098512,0.237307742,0.979804397,15.194267273,-13.368446350,10.410797119
28.029582,0.107004762,0.239749148,0.982978225,14.919609070,-13.254005432,10.235321045
28.030209,0.109690309,0.240237430,0.987128615,14.919609070,-12.872535706,9.983551025
28.030834,0.112742066,0.245486453,0.992255569,14.576286316,-12.613136292,9.609710693
28.031460,0.113840699,0.246951297,0.995673537,14.522880554,-12.368995667,9.708892822
28.032087,0.115061402,0.247439578,1.004828811,14.164299011,-11.689979553,9.090911865
28.032713,0.120554566,0.251956165,1.008735061,14.004081726,-11.712867737,8.923065186
28.033340,0.125437379,0.256472766,1.010321975,13.683647156,-11.331398010,8.877288818
28.033966,0.127268434,0.260256946,1.016303420,12.958854675,-10.843116760,8.427154541
28.035685,0.128855348,0.268801868,1.021308303,11.989921570,-9.866554260,7.984649658
28.036311,0.131418824,0.268557727,1.025946975,11.516899109,-9.698707581,7.915985107
28.036938,0.133371949,0.269290149,1.031806350,11.036247253,-9.225685120,7.664215088
28.037564,0.134592652,0.269656360,1.031928420,10.265678406,-9.034950256,7.748138428
28.038190,0.135813355,0.262698352,1.029975295,9.548515320,-8.821327209,7.427703857
28.038815,0.141428590,0.260623157,1.033271194,8.823722839,-8.363563538,7.351409912
28.039440,0.141184449,0.256961048,1.036445022,8.564323425,-8.020240784,7.084381104
28.040065,0.143503785,0.250979602,1.039374709,8.098930359,-7.516700745,6.779205322
28.040692,0.145334840,0.251345813,1.038642287,7.641166687,-7.074195862,7.122528076
28.041319,0.146677613,0.248416141,1.039862990,7.427543640,-6.959754944,6.695281982
28.041944,0.148020387,0.241336063,1.040351272,7.221549988,-6.303627014,6.481658936
28.042570,0.148508668,0.240969852,1.039740920,7.091850281,-6.006080627,6.443511963
28.043197,0.151804566,0.242434695,1.041571975,6.824821472,-5.533058167,6.199371338
28.043878,0.151560426,0.241580203,1.044501662,6.794303894,-5.220252991,6.115447998
28.044503,0.151682496,0.239138797,1.043891311,6.634086609,-4.846412659,5.932342529
28.046210,0.155954957,0.237673953,1.049506545,5.947441101,-3.747779846,5.825531006
28.046836,0.154245973,0.232424930,1.045966506,5.970329285,-3.068763733,5.840789795
28.047462,0.155344605,0.231326297,1.050361037,5.749076843,-2.702552795,5.802642822
28.048088,0.157297730,0.232547000,1.051093459,5.504936218,-2.412635803,5.672943115
28.048714,0.155344605,0.232424930,1.048774123,5.466789246,-1.947242737,5.733978271
28.049339,0.156565309,0.233523563,1.050727248,5.222648621,-1.550514221,5.474578857
28.049966,0.156809449,0.234133914,1.055610061,5.283683777,-1.092750549,5.894195557
28.050593,0.155222535,0.233523563,1.051215529,4.726737976,-0.810462952,5.733978271
28.051220,0.154978395,0.233279422,1.052680373,4.589408875,-0.474769592,5.718719482
28.051846,0.155222535,0.233401492,1.055121779,4.238456726,-0.116188049,5.833160400
28.052472,0.156931520,0.232424930,1.056098342,4.124015808,0.265281677,5.970489502
28.053097,0.153879762,0.229739383,1.056342483,3.475517273,0.471275330,6.176483154
28.053722,0.153147340,0.230593875,1.057441115,3.292411804,1.081626892,6.062042236
28.054349,0.152292848,0.227542117,1.059028029,2.773612976,1.180809021,6.443511963
28.054975,0.153391480,0.228152469,1.059638381,2.346366882,1.325767517,6.458770752
28.056676,0.155466676,0.217410281,1.046332717,1.255363464,2.210777283,6.969940186
28.057302,0.154734254,0.217166141,1.045966506,1.148551941,2.485435486,7.092010498
28.057929,0.155344605,0.214114383,1.042548537,0.919670105,2.844017029,7.427703857
28.058556,0.157175660,0.212405398,1.039130569,0.629753113,3.156822205,7.603179932
28.059183,0.160959840,0.207034305,1.032660842,0.309318542,3.370445251,7.755767822
28.073062,0.176462770,0.229617313,0.973090529,0.583976746,5.544822693,12.981903076
28.073781,0.175730348,0.230838016,0.969794631,0.294059753,4.949729919,13.454925537
28.074407,0.175974488,0.235354617,0.965155959,0.049919128,4.781883240,13.691436768
28.075032,0.175852418,0.236941531,0.957587600,-0.125556946,4.781883240,13.889801025
28.075657,0.169504762,0.238772586,0.954291701,-0.285774231,4.614036560,14.141571045
28.076284,0.172678590,0.236941531,0.950019240,-0.262886047,4.446189880,14.362823486
28.076910,0.171946168,0.238162234,0.944281936,-0.178962708,4.011314392,14.317047119
28.077536,0.168772340,0.235964969,0.941596389,-0.453620911,4.003684998,14.721405029
28.078163,0.167917848,0.238772586,0.939399123,-0.255256653,3.790061951,14.858734131
28.078788,0.164499879,0.235842898,0.936713576,-0.323921204,3.637474060,14.996063232
28.079413,0.164377809,0.236941531,0.931952834,-0.186592102,3.324668884,15.133392334
28.080039,0.161081910,0.236453250,0.929267287,-0.011116028,3.263633728,15.194427490
28.080665,0.159128785,0.239627078,0.928779006,0.072807312,2.767723083,15.316497803
28.081291,0.156199098,0.238650516,0.926825881,0.049919128,2.546470642,15.476715088
28.083019,0.153757691,0.242678836,0.921332717,0.767082214,1.531761169,15.568267822
28.083645,0.147287965,0.243533328,0.918036819,1.156181335,1.409690857,15.797149658
28.084270,0.146067262,0.247195438,0.917060256,1.308769226,0.913780212,15.697967529
28.084896,0.140818238,0.248049930,0.912909865,1.781791687,0.509422302,15.720855713
28.085522,0.142893434,0.249270633,0.911200881,1.888603210,0.143211365,15.850555420
28.086147,0.137644410,0.250857532,0.910468459,2.361625671,-0.146705627,15.804779053
28.086772,0.138010621,0.254275501,0.906562209,2.704948425,-0.360328674,15.629302979
28.087397,0.134592652,0.256228626,0.906073928,2.727836609,-0.856239319,15.720855713
28.088023,0.129099488,0.261355579,0.904609084,3.231376648,-1.329261780,15.659820557
28.088648,0.127512574,0.262942493,0.905463576,3.544181824,-1.542884827,15.667449951
28.089275,0.128489137,0.265994251,0.904487014,3.765434265,-1.886207581,15.102874756
28.089902,0.121164918,0.270388782,0.903510451,3.925651550,-2.214271545,15.324127197
28.090527,0.117991090,0.275759876,0.905707717,3.994316101,-2.496559143,15.301239014
28.091153,0.115915895,0.276858509,0.907172561,4.566520691,-2.832252502,14.973175049
28.091779,0.116160035,0.281253040,0.912665725,4.467338562,-3.068763733,14.919769287
28.093495,0.109446168,0.288455188,0.914985061,4.749626160,-3.717262268,14.507781982
28.094121,0.111765504,0.292849720,0.919013381,4.810661316,-3.625709534,14.179718018
28.094747,0.107493043,0.293338001,0.923652053,4.932731628,-4.091102600,14.095794678
28.095374,0.107981324,0.297488391,0.929023147,4.925102234,-4.274208069,13.844024658
28.096008,0.106150270,0.298342884,0.935126662,4.947990417,-4.777748108,13.287078857
28.096634,0.104197145,0.302737415,0.939643264,4.986137390,-4.854042053,12.661468506
28.097261,0.108469605,0.301394641,0.940741897,4.764884949,-5.136329651,12.859832764
28.097886,0.112375855,0.304324329,0.946845412,4.795402527,-5.311805725,12.241851807
28.098511,0.113474488,0.304080188,0.950263381,4.955619812,-5.540687561,12.005340576
28.099137,0.116770387,0.302371204,0.954779983,5.001396179,-5.807716370,11.532318115
28.099763,0.117991090,0.302859485,0.953681350,4.841178894,-5.830604553,10.876190186
28.100388,0.118845582,0.308108509,0.957221389,4.986137390,-6.013710022,10.639678955
28.101013,0.122751832,0.307864368,0.963080764,5.077690125,-6.303627014,10.097991943
28.101640,0.127024293,0.304934680,0.963935256,5.337089539,-6.410438538,9.769927979
28.102265,0.128977418,0.307498157,0.968818069,5.436271667,-6.463844299,9.418975830
28.103955,0.140452027,0.309207141,0.979071975,5.970329285,-6.479103088,7.824432373
28.104580,0.140085816,0.303836048,0.980658889,6.061882019,-6.501991272,7.420074463
28.105206,0.146677613,0.304934680,0.985297561,6.382316589,-6.440956116,6.977569580
28.105831,0.148020387,0.308352649,0.985541701,6.618827820,-6.517250061,6.580841064
28.106458,0.151804566,0.308474720,0.991889358,6.908744812,-6.418067932,6.161224365
28.120216,0.182566285,0.296511829,1.055243850,6.466239929,-2.038795471,-0.270355225
28.120890,0.179880738,0.294924915,1.053534865,6.496757507,-1.466590881,-0.186431885
28.121515,0.180491090,0.293582141,1.055610061,6.611198425,-1.306373596,-0.438201904
28.122141,0.182078004,0.292239368,1.055610061,6.176322937,-1.230079651,-0.552642822
28.122766,0.183054566,0.290652454,1.056342483,6.405204773,-0.940162659,-0.476348877
28.123393,0.182688355,0.287844837,1.058905959,6.512016296,-0.505287170,-0.705230713
28.124019,0.184031129,0.288088977,1.058051467,6.527275085,-0.268775940,-0.796783447
28.124645,0.181833863,0.284793079,1.057074904,6.801933289,0.059288025,-0.995147705
28.125270,0.183054566,0.281985462,1.059394240,6.687492371,0.265281677,-0.987518311
28.125895,0.182688355,0.279299915,1.061713576,6.931632996,0.654380798,-0.827301025
28.126520,0.184519410,0.280276477,1.055121779,7.152885437,1.043479919,-1.010406494
28.127145,0.183298707,0.279421985,1.054145217,7.229179382,1.203697205,-0.789154053
28.127770,0.185862184,0.281497180,1.055854201,7.221549988,1.249473572,-1.216400146
28.128396,0.183298707,0.279421985,1.053901076,7.259696960,1.791160583,-0.819671631
28.129022,0.183542848,0.278079212,1.052314162,7.557243347,1.981895447,-0.949371338
28.130699,0.178537965,0.280764759,1.052314162,7.786125183,2.523582458,-0.751007080
28.131325,0.179636598,0.281253040,1.052558303,7.664054871,2.767723083,-0.644195557
28.131952,0.177683473,0.284793079,1.049872756,7.892936707,3.065269470,-0.857818604
28.132577,0.180246949,0.280886829,1.045966506,7.778495789,3.286521912,-0.789154053
28.133202,0.174387574,0.284671009,1.045600295,7.572502136,3.416221619,-0.453460693
28.133827,0.174387574,0.285647571,1.043891311,7.641166687,3.904502869,-0.659454346
28.134452,0.177073121,0.290042102,1.042548537,7.572502136,4.285972595,-0.186431885
28.135079,0.174509645,0.287844837,1.041327834,7.374137878,4.301231384,-0.552642822
28.135705,0.175730348,0.292361438,1.040717483,7.320732117,4.430931091,-0.171173096
28.136332,0.178049684,0.295535266,1.038031936,7.145256042,5.117576599,-0.308502197
28.136957,0.174875855,0.302127063,1.033515334,6.756156921,5.125205994,-0.178802490
28.137583,0.174631715,0.299441516,1.034980178,6.504386902,5.338829041,-0.010955811
28.138209,0.172556520,0.302371204,1.032294631,6.222099304,5.651634216,-0.094879150
28.138834,0.171335816,0.300540149,1.031684279,5.665153503,6.139915466,0.042449951
28.139460,0.174021363,0.305300891,1.028022170,5.863517761,6.185691833,0.187408447
28.141169,0.172678590,0.305667102,1.017402053,4.604667664,7.078330994,0.484954834
28.141794,0.173655152,0.305056751,1.013739944,4.291862488,6.994407654,0.355255127
28.142420,0.172556520,0.306033313,1.012153029,4.017204285,7.284324646,0.446807861
28.143046,0.169504762,0.303469837,1.006659865,3.780693054,7.711570740,0.507843018
28.143671,0.169504762,0.301882923,1.004340529,3.185600281,7.894676208,0.744354248
28.144297,0.169748902,0.299197376,0.999335647,3.071159363,8.032005310,0.774871826
28.144923,0.165476441,0.300296009,0.992865920,2.926200867,8.138816833,0.729095459
28.145548,0.167673707,0.298220813,0.986274123,2.483695984,8.482139587,0.889312744
28.146173,0.163279176,0.294314563,0.985053420,2.613395691,8.611839294,0.736724854
28.146798,0.162668824,0.298220813,0.980903029,1.819938660,8.680503845,0.820648193
28.147425,0.161570191,0.288211048,0.974799514,2.025932312,8.794944763,1.156341553
28.148050,0.161203980,0.291384876,0.970160842,1.537651062,9.184043884,1.186859131
28.148675,0.158762574,0.287356555,0.965278029,1.560539246,9.138267517,1.240264893
28.149300,0.154490113,0.285037220,0.963324904,1.522392273,9.458702087,1.095306396
28.149925,0.150339723,0.286990345,0.960883498,1.110404968,9.527366638,1.286041260
28.151623,0.148508668,0.278201282,0.949042678,0.896781921,9.679954529,1.644622803
28.152248,0.143992066,0.276614368,0.945380569,0.767082214,9.740989685,1.774322510
28.152873,0.139841676,0.272463977,0.943549514,0.851005554,9.718101501,1.812469482
28.153499,0.135691285,0.270999134,0.944648147,0.774711609,9.893577576,2.216827393
28.167301,0.108957887,0.272219837,0.902045608,3.376335144,7.177513123,4.856597900
28.168012,0.111643434,0.277957141,0.901801467,3.643363953,7.391136169,4.787933350
28.168638,0.111033082,0.279666126,0.902655959,3.628105164,7.253807068,5.100738525
28.169265,0.111765504,0.285891712,0.900824904,3.788322449,7.032554626,4.932891846
28.169892,0.114084840,0.289553821,0.900946975,4.062980652,6.864707947,5.108367920
28.170518,0.113840699,0.286868274,0.903266311,3.979057312,6.841819763,5.085479736
28.171144,0.113840699,0.286013782,0.906684279,4.322380066,6.437461853,5.024444580
28.171769,0.112253785,0.289553821,0.908393264,4.192680359,6.551902771,4.971038818
28.172395,0.109446168,0.289553821,0.906806350,4.368156433,6.490867615,5.077850342
28.173022,0.112742066,0.296267688,0.912543654,4.413932800,6.055992126,4.871856689
28.173649,0.111155152,0.303469837,0.909369826,4.505485535,5.842369080,4.833709717
28.174275,0.110056520,0.302371204,0.910956740,4.337638855,5.651634216,4.993927002
28.174902,0.110422730,0.304080188,0.912909865,4.276603699,5.735557556,4.879486084
28.175527,0.108347535,0.305056751,0.913031936,4.391044617,5.590599060,4.383575439
28.177252,0.107126832,0.302737415,0.906928420,4.192680359,4.934471130,4.002105713
28.177877,0.104563355,0.303347766,0.907050490,4.230827332,4.797142029,4.086029053
28.178503,0.102366090,0.299563587,0.908393264,4.215568542,4.629295349,3.605377197
28.179129,0.102854371,0.299807727,0.907050490,3.910392761,4.430931091,3.208648682
28.179755,0.102366090,0.297000110,0.908881545,4.337638855,4.194419861,3.239166260
28.180381,0.099924684,0.296878040,0.903876662,4.238456726,4.224937439,2.964508057
28.181010,0.103830934,0.295657337,0.905463576,4.619926453,4.034202576,2.445709229
28.181636,0.099924684,0.295046985,0.909247756,4.566520691,4.011314392,2.438079834
28.182262,0.099070191,0.292117298,0.909736037,4.726737976,3.584068298,2.132904053
28.182888,0.099192262,0.291506946,0.909125686,4.856437683,3.606956482,1.873504639
28.183513,0.096750855,0.292483509,0.913276076,4.978507996,3.423851013,1.484405518
28.184139,0.098459840,0.287966907,0.915473342,5.016654968,3.362815857,1.331817627
28.184765,0.094431520,0.288821399,0.914985061,5.245536804,3.050010681,1.232635498
28.185391,0.095041871,0.289065540,0.917182326,5.352348328,3.202598572,0.820648193
28.186016,0.095041871,0.289065540,0.917182326,5.352348328,3.202598572,0.820648193
28.187722,0.090036988,0.283328235,0.919745803,5.337089539,2.660911560,-0.293243408
28.188349,0.091623902,0.279055774,0.917060256,5.428642273,2.538841248,-0.300872803
28.188974,0.091745973,0.278079212,0.918769240,5.588859558,2.271812439,-0.361907959
28.189600,0.088083863,0.278567493,0.919135451,5.794853210,2.058189392,-0.522125244
28.190226,0.085886598,0.274905384,0.917670608,5.466789246,2.218406677,-0.979888916
28.190852,0.086252809,0.272708118,0.919989944,5.771965027,2.126853943,-1.109588623
28.191478,0.085032105,0.273684680,0.920844436,5.970329285,1.844566345,-1.361358643
28.192104,0.081125855,0.271365345,0.921698928,5.703300476,1.897972107,-1.506317139
28.192729,0.081247926,0.272586048,0.922187209,5.886405945,1.897972107,-1.834381104
28.193355,0.078684449,0.268191516,0.924628615,5.764335632,1.905601501,-2.147186279
28.193980,0.079050660,0.268191516,0.927558303,5.649894714,1.669090271,-1.986968994
28.194605,0.072214723,0.268801868,0.930121779,5.489677429,1.638572693,-2.330291748
28.195232,0.074900270,0.267337024,0.933417678,5.604118347,1.699607849,-2.360809326
28.195858,0.070871949,0.266116321,0.936103225,5.382865906,1.646202087,-2.612579346
28.196485,0.073191285,0.265383899,0.938666701,5.062431335,1.348655701,-2.978790283
28.198207,0.068186402,0.262942493,0.946601272,4.337638855,1.508872986,-3.306854248
28.198832,0.065989137,0.261721790,0.948066115,4.047721863,1.463096619,-3.573883057
28.199457,0.067331910,0.261477649,0.949408889,3.818840027,1.279991150,-3.741729736
28.200083,0.068674684,0.258914173,0.956122756,3.887504578,1.249473572,-3.879058838
28.200708,0.067453980,0.257571399,0.953193069,3.528923035,1.234214783,-3.886688232
28.201334,0.070627809,0.257571399,0.957831740,3.170341492,1.127403259,-4.100311279
28.215100,0.102366090,0.229861453,0.974555373,2.308219910,2.348106384,-6.198394775
28.215786,0.104929566,0.231204227,0.975531936,2.682060242,2.370994568,-6.228912354
28.216412,0.102488160,0.226565555,0.978949904,2.727836609,2.500694275,-6.366241455
28.217037,0.105051637,0.232302859,0.976996779,2.735466003,2.493064880,-6.373870850
28.217663,0.104685426,0.226687625,0.979438186,2.788871765,2.645652771,-6.274688721
28.218288,0.105784059,0.227542117,0.977729201,2.941459656,2.821128845,-6.274688721
28.218914,0.104807496,0.228640750,0.981147170,2.857536316,2.592247009,-6.160247803
28.219541,0.105051637,0.230715945,0.977362990,3.071159363,2.920310974,-6.343353271
28.220168,0.104807496,0.232424930,0.979560256,3.185600281,2.905052185,-6.022918701
28.220794,0.102366090,0.234133914,0.977729201,3.162712097,2.668540955,-6.022918701
28.221420,0.104807496,0.236331180,0.972236037,3.231376648,2.851646423,-6.053436279
28.222045,0.107248902,0.235720828,0.973700881,3.620475769,3.225486755,-5.969512939
28.222670,0.109079957,0.240969852,0.967475295,3.506034851,2.729576111,-6.030548096
