time,gyro x,gyro y,gyro z,accel x,accel y,accel z
49.698140,1.889137268,-4.461692810,0.616683960,0.066600218,0.165263548,1.022431850
49.736439,3.651527405,11.338783264,-6.112442017,0.049144164,0.109599486,0.984345913
49.750724,2.018836975,9.431434631,-4.464492798,0.010081664,0.100566283,0.991303921
49.766067,1.873878479,6.745887756,-3.259048462,0.008372679,0.101664916,1.002778530
49.804391,5.131629944,2.152992249,0.624313354,0.029246703,0.106791869,0.986787319
49.842666,0.523475647,11.865211487,-2.259597778,0.036204711,0.089091673,0.939546108
49.856953,0.859169006,12.330604553,-1.923904419,0.030101195,0.091044798,0.944673061
49.872287,1.576332092,9.568763733,-0.077590942,0.011302367,0.087504759,0.946382046
49.910597,0.676063538,-3.927635193,4.233016968,-0.001392946,0.076274291,0.949189663
49.948882,0.309852600,-12.190269470,7.673873901,0.008128539,0.105815306,0.990205288
49.963159,1.324562073,-11.473106384,8.459701538,0.008128539,0.115458861,0.981904507
49.978491,2.606300354,-7.879661560,7.887496948,0.034861937,0.111308470,0.961396694
50.016814,-0.872703552,2.297950745,6.300582886,0.054271117,0.102763548,0.951020718
50.055120,1.614479065,7.318092346,6.735458374,0.058909789,0.133036986,0.967133999
50.069414,1.606849670,11.560035706,6.994857788,0.077830687,0.116313353,0.950166225
50.084765,0.187782288,14.192176819,5.438461304,0.090648070,0.120097533,0.946015835
50.123092,-0.872703552,20.562721252,1.349105835,0.073314086,0.159282103,0.999970913
50.161377,4.269508362,10.934425354,3.370895386,0.044871703,0.141703978,0.954438686
50.175662,0.149635315,4.823280334,4.263534546,0.053782836,0.142070189,0.946259975
50.191015,-1.895042419,2.229286194,4.324569702,0.057567015,0.151957884,0.976289272
50.229328,2.545265198,-8.497642517,4.423751831,0.052195922,0.206279173,1.032929897
50.281194,-0.712486267,-10.260032654,2.844467163,0.051341429,0.156474486,1.019013882
50.295527,-1.048179626,-11.251853943,2.356185913,0.038646117,0.171489134,1.079682827
50.310904,0.882057190,-11.991905212,3.233566284,0.034251586,0.176249877,1.100434780
50.349232,7.107643127,-15.623497009,3.927841187,0.006907836,0.151835814,1.041352749
50.387516,3.743080139,-17.836021423,8.871688843,0.008494750,0.163432494,1.012300014
50.401829,3.735450745,-15.898155212,8.551254272,0.030833617,0.170634642,1.012422085
50.417187,5.162147522,-7.605003357,8.024826050,0.035960570,0.178691283,0.952973843
50.455485,-5.953880310,19.876075745,3.340377808,0.084788695,0.077739134,0.854951382
50.493777,-1.429649353,30.679298401,4.713668823,0.050975218,0.145610228,0.898042202
50.523058,0.164894104,30.938697815,2.379074097,0.070506468,0.094096556,0.806245327
50.537361,-7.243247986,25.979591370,2.096786499,0.031077757,0.017558470,0.847871304
50.575547,-2.230735779,-0.151084900,2.401962280,-0.004810914,0.133647338,0.816255093
50.613851,-13.842674255,-22.772239685,16.363754272,0.035594359,0.043803588,0.854585171
50.628150,-11.561485291,-24.282859802,9.749069214,0.070994750,0.098979369,0.867646694
50.643539,-1.666160583,-28.303550720,1.005783081,-0.044605836,0.114238158,0.790009975
50.681877,-15.460105896,-35.467552185,20.064010620,0.007762328,0.014506713,0.814912319
50.720169,-9.234519958,-27.082847595,7.841720581,-0.022633180,0.083964720,0.865693569
50.734452,-15.223594666,-26.373313904,18.149032593,-0.024464235,0.038676634,0.867890835
50.749839,-18.664451599,-23.802207947,22.429122925,0.022166625,0.045146361,0.912812710
50.788148,-5.297752380,0.581336975,5.911483765,0.089549437,0.112162963,1.002046108
50.826447,-19.854637146,8.126808167,16.134872437,0.063548461,0.060527220,0.998628139
50.840732,-19.641014099,11.758399963,15.738143921,0.136790648,0.121928588,1.057832241
50.856131,-7.174583435,21.905494690,0.456466675,0.150462523,0.195292845,1.066865444
50.894462,-16.123863220,18.861366272,4.286422729,0.025584593,0.015239134,1.009858608
50.932759,-1.879783630,10.140968323,0.204696655,0.117747679,0.173808470,1.122285366
50.947050,2.858070374,7.165504456,-1.908645630,0.081981078,0.116191283,1.052949429
50.962410,-6.312461853,-5.117820740,3.935470581,0.040599242,-0.033466920,1.078584194
51.000688,-8.776756287,-18.812583923,11.145248413,0.139720336,0.104838744,1.225923061
51.039004,5.833534241,-19.545005798,-1.031265259,0.067942992,-0.077290162,1.037080288
51.053295,-12.042137146,-20.422386169,11.221542358,0.075023070,-0.052754030,1.127168179
51.068675,-10.676475525,-17.355369568,11.366500854,0.146556273,0.030131713,1.148652554
51.107001,12.776283264,2.976966858,-5.837783813,0.116404906,0.013774291,1.008393764
51.159231,-0.773521423,15.252662659,-2.000198364,0.118602172,0.089702025,1.111299038
51.173570,11.860755920,16.336036682,-1.489028931,0.098826781,0.069682494,1.010713100
51.188960,10.189918518,16.351295471,-1.496658325,0.097850218,0.002055541,0.956025600
51.227278,-4.801841736,17.243934631,-0.390396118,0.145579711,0.080912963,1.095185757
51.265592,13.958839417,15.039039612,-3.877029419,0.061107054,0.016581908,0.924165249
51.279880,-1.444908142,14.192176819,1.059188843,0.071116820,-0.022602662,0.971040249
51.295224,-4.077049255,14.260841370,0.021591187,0.089305297,0.049296752,1.008515835
51.333510,10.098365784,8.767677307,0.685348511,0.030955687,0.041240111,0.947846889
51.371832,-0.399681091,3.778053284,0.692977905,0.114451781,0.061137572,1.047212124
51.386110,4.681495667,2.664161682,-2.763137817,0.099192992,0.072856322,1.051118374
51.401471,11.883644104,-2.767967224,-2.297744751,0.060496703,0.035746947,0.983613491
51.439772,-2.261253357,-3.660606384,1.181259155,0.099803343,0.045756713,1.034516811
51.478070,9.800819397,-3.225730896,-0.253067017,0.066478148,0.011210814,0.986665249
51.492355,6.253150940,-1.821922302,-0.024185181,0.074168578,-0.011738405,0.990693569
51.507691,2.354530334,1.054359436,0.799789429,0.090403929,-0.009419069,1.029389858
51.546013,13.104347229,9.545875549,-9.179458618,0.069651976,0.029765502,1.047456264
51.584304,1.759437561,11.735511780,-7.180557251,0.067942992,0.028056517,1.031587124
51.598612,7.244972229,10.026527405,-10.262832642,0.069285765,0.090190306,1.045625210
51.613992,10.090736389,5.960060120,-11.880264282,0.043773070,0.066996947,1.022187710
51.652276,-0.628562927,-9.787010193,-0.375137329,0.035350218,0.028300658,0.971772671
51.690562,0.729469299,-13.151573181,-4.563674927,-0.006764039,0.033915892,1.009126186
51.704857,2.995399475,-14.944480896,-2.175674438,-0.004200563,0.046489134,0.985444546
51.720204,3.071693420,-17.057823181,0.120773315,0.006419554,0.019511595,0.901093960
51.758492,-3.497215271,-12.213157654,-2.404556274,0.037059203,0.061381713,0.958711147
51.796814,0.218299866,-13.281272888,3.416671753,-0.010548219,-0.006245241,0.867646694
51.827558,-10.195823669,-6.460594177,1.127853394,0.060984984,0.029155150,0.960298061
51.841882,-7.800193787,-4.515098572,-2.892837524,0.042918578,0.056865111,0.978852749
51.880055,-0.559898376,-3.591941833,1.806869507,0.008372679,0.009623900,0.920991421
51.918337,2.255348206,2.992225647,-0.214920044,0.052073851,0.105204955,0.940888882
51.932626,4.109291077,2.847267151,-3.060684204,0.036937132,0.096415892,0.919770718
51.947997,2.140907288,-0.051902771,-0.115737915,-0.001148805,0.065043822,0.889253139
51.986269,-0.231834412,-1.402305603,-0.779495239,0.026194945,0.145366088,0.872651577
52.024541,-9.287925720,-3.492759705,0.273361206,0.023997679,0.092753783,0.899629116
52.038841,-10.943504333,-3.149436951,2.775802612,0.026194945,0.113505736,0.974214077
52.054214,-9.730430603,-1.165794373,3.119125366,0.044749632,0.098002806,1.025849819
52.092504,1.568702698,3.297401428,-4.639968872,0.046092406,0.035869017,1.008149624
52.146348,3.949073792,6.700111389,-2.000198364,0.051219359,0.058574095,1.081391811
52.160672,4.933265686,6.898475647,-1.725540161,0.047679320,0.030009642,1.041352749
52.176035,-3.558250427,6.593299866,1.684799194,0.058299437,-0.031025514,1.046113491
52.214336,0.454811096,11.170936584,-6.104812622,0.059031859,0.079448119,1.050508022
52.252656,-9.890647888,9.484840393,3.386154175,0.056468382,-0.015644655,1.032807827
52.266941,-7.586570740,12.422157288,-0.039443970,0.099192992,0.078715697,1.080781460
52.282296,-1.925559998,13.070655823,-3.518447876,0.085276976,0.076030150,1.073457241
52.320624,-4.771324158,4.952980042,3.592147827,0.025706664,-0.019672975,0.989839077
52.358906,2.552894592,13.238502502,-4.021987915,0.098216429,0.064555541,0.969453335
52.373212,-1.933189392,10.652137756,-7.050857544,0.015086547,0.043071166,0.936860561
52.388601,-3.665061951,6.356788635,-2.084121704,-0.015675172,0.065287963,0.915132046
52.426903,-1.360984802,8.515907288,4.263534546,0.101024047,0.119487181,1.014985561
52.465219,2.636817932,14.115882874,-4.144058228,-0.005421266,-0.008930787,0.903901577
52.479500,-1.605125427,10.667396545,1.257553101,0.015452757,-0.018818483,0.930146694
52.494878,-2.032371521,9.667945862,0.845565796,0.069529906,0.064433470,0.991914272
52.533193,5.848793030,9.347511292,-3.304824829,0.031321898,0.018779173,0.912080288
52.571474,-4.458518982,1.443458557,0.502243042,0.052317992,0.042949095,1.012177944
52.585756,3.621009827,-1.730369568,-3.754959106,0.064402953,0.094462767,1.032929897
52.601107,6.771949768,-2.783226013,-5.143508911,0.049632445,0.081035033,1.030610561
52.639448,0.790504456,-6.002830505,2.829208374,0.028392211,0.045268431,1.045503139
52.677731,7.923988342,-6.704734802,-2.671585083,0.028026000,0.048686400,1.090302944
52.692027,9.686378479,-8.116172791,0.815048218,0.000804320,0.021708861,1.015717983
52.707387,5.261329651,-8.207725525,3.744735718,0.019847289,-0.034931764,1.014497280
52.745702,3.422645569,-1.913475037,-5.593643188,0.052440062,0.078715697,1.113008022
52.784009,-0.651451111,-6.018089294,2.104415894,0.009715453,-0.014423952,0.976777554
52.798299,-5.717369080,-4.629539490,2.493515015,0.038401976,0.014384642,1.001801968
52.813647,-5.557151794,-0.517295837,-3.892288208,0.032542601,0.041240111,1.041596889
52.851968,-1.444908142,1.771522522,0.265731812,0.004832640,0.017558470,1.007173061
52.890250,-3.077598572,4.502845764,-2.007827759,0.013377562,0.003764525,0.996797085
52.904526,-3.085227966,2.229286194,-2.244338989,-0.007984743,-0.001362428,1.004853725
52.919880,0.904945374,-4.675315857,2.195968628,-0.022999391,0.050395384,0.972260952
52.973921,-3.558250427,-9.298728943,2.684249878,0.000438109,0.048930541,0.955903530
53.012265,2.102760315,-19.667076111,8.642807007,-0.025684938,0.067973509,0.935273647
53.026554,2.888587952,-19.117759705,9.665145874,-0.000416383,0.061137572,0.917695522
53.041916,0.584510803,-14.952110291,6.804122925,0.029124632,0.042827025,0.932221889
53.080273,0.515846252,-9.344505310,5.385055542,0.005809203,0.047953978,0.905244350
53.118548,-2.108665466,4.457069397,3.538742065,0.050975218,0.070292845,0.962739468
53.132845,-0.842185974,7.257057190,0.921859741,0.046824828,0.079326048,0.974458218
53.164178,1.713661194,9.614540100,2.333297729,0.011180297,0.049296752,0.958955288
53.202577,0.981239319,19.586158752,-5.479202271,0.074290648,0.059916869,1.071382046
53.240887,-2.490135193,12.818885803,0.906600952,-0.003468141,-0.049091920,1.025605679
53.255210,-5.610557556,11.254859924,1.219406128,0.028392211,-0.006733522,1.065888882
53.270612,0.653175354,10.949684143,-3.022537231,0.046702757,0.015483275,1.113374233
53.308949,5.864051819,-0.799583435,-3.243789673,-0.025562868,-0.008930787,0.977876186
53.347246,-12.553306580,-3.996299744,1.471176147,0.029368773,0.051249877,1.052827358
53.361540,-9.234519958,-2.890037537,-1.435623169,0.008494750,0.082011595,1.073579311
53.376902,-3.260704041,-2.561973572,-1.939163208,-0.019459352,0.083354369,1.074800014
53.415265,-5.251976013,-7.467674255,11.778488159,0.000071898,-0.049946412,0.989106655
53.453551,-3.718467712,5.387855530,3.935470581,0.037303343,-0.021504030,1.053559780
53.467863,1.141456604,11.155677795,2.607955933,0.026927367,0.006694213,0.999238491
53.483218,0.203041077,13.520790100,3.065719604,0.020579711,-0.019795045,0.979951382
53.521559,-0.369163513,22.782875061,-2.724990845,0.048289672,0.046855345,1.012910366
53.559879,2.095130920,16.671730042,0.830307007,0.009471312,0.010234252,0.937104702
53.574175,-0.849815369,14.825416565,1.150741577,0.017527953,0.009013548,0.946748257
53.589559,-1.742454529,10.720802307,-0.726089478,0.020091429,0.021708861,0.988374233
53.627904,7.130531311,-1.173423767,4.713668823,-0.003590211,0.034037963,0.954804897
53.666227,2.430824280,-3.775047302,3.012313843,0.038157836,0.058207884,0.988008022
53.680520,3.888038635,-4.560874939,3.126754761,0.016185179,0.037578002,0.994233608
53.707223,5.261329651,-0.975059509,4.095687866,0.027171507,0.068705931,0.982270718
53.745636,5.467323303,7.302833557,1.417770386,0.028514281,0.055522338,1.023408413
53.783916,5.680946350,6.364418030,2.455368042,0.024730101,0.037578002,1.032441616
53.798208,6.176856995,8.096290588,3.012313843,0.020701781,0.034404173,1.004609585
53.813542,3.384498596,9.912086487,3.370895386,0.031199828,0.004741088,1.004487514
53.851888,4.292396545,14.504981995,-4.128799438,0.022654906,0.084697142,1.076997280
53.890199,2.674964905,7.005287170,-1.679763794,0.013255492,0.009135619,0.945283413
53.904477,-6.053062439,1.664710999,-3.114089966,0.007029906,-0.011860475,0.959199429
53.919816,-9.417625427,-2.172874451,-3.129348755,-0.004078493,-0.008198366,0.996186733
53.958154,-1.139732361,-11.610435486,-2.038345337,-0.030445680,0.035746947,1.004121304
53.996459,-6.022544861,-15.234397888,-3.701553345,-0.032276735,0.014506713,0.971772671
54.010746,-5.290122986,-16.905235291,-2.999649048,-0.050099000,0.027079955,0.979829311
54.026108,-0.964256287,-20.651268005,1.440658569,-0.052662477,0.035746947,0.954560757
54.064467,-7.670494080,-20.323204041,1.051559448,-0.023487672,-0.025166139,0.925508022
54.102768,-1.895042419,-12.113975525,-2.374038696,-0.021656618,0.066752806,0.951264858
54.117063,-0.208946228,-9.695457458,-2.282485962,-0.024586305,0.056865111,0.922334194
54.132417,-1.612754822,-7.109092712,-2.198562622,-0.022999391,0.015239134,0.904145718
54.170754,-1.811119080,-0.463890076,-3.671035767,0.002879515,0.107280150,1.027314663
54.209056,1.568702698,9.378028870,-5.448684692,0.003245726,-0.016621217,0.916230679
54.223336,-7.121177673,12.223793030,-8.714065552,0.008738890,0.065165892,0.989228725
54.238692,-4.099937439,12.132240295,-9.896621704,0.003367797,0.113871947,1.022065639
54.277064,3.834632874,13.352943420,-5.280838013,0.001658812,0.038798705,0.943330288
54.315365,-0.819297791,10.392738342,-6.837234497,0.007884398,0.092387572,1.103364468
54.329655,5.032447815,7.691932678,-8.782730103,0.004710570,0.098369017,1.077729702
54.345006,6.771949768,3.755165100,-6.715164185,-0.019215211,0.009135619,0.999604702
54.394871,6.573585510,8.119178772,-13.352737427,-0.010304078,0.032817259,1.110200405
54.433275,-5.053611755,-1.058982849,-9.415969849,-0.049488649,-0.029072389,0.975190639
54.447562,-8.326622009,-3.218101501,-7.737503052,-0.056324586,0.011088744,1.014741421
54.474653,-1.391502380,-5.659507751,-8.622512817,-0.019825563,0.035014525,1.011079311
54.513095,-5.038352966,-11.663841248,-2.023086548,-0.088429078,-0.015644655,0.978608608
54.551427,-5.755516052,-2.607749939,-5.868301392,-0.006886110,-0.033344850,1.039033413
54.565726,-4.649253845,1.031471252,-8.744583130,-0.018482789,-0.011250123,1.026216030
54.581076,-3.504844666,2.626014709,-9.126052856,-0.090870485,0.053569213,0.987031460
54.619433,-0.697227478,3.686500549,6.529464722,-0.004566774,0.075908080,1.013886929
54.657731,5.017189026,7.623268127,-1.427993774,-0.043140993,-0.014301881,0.963960171
54.672035,1.049903870,8.172584534,3.019943237,-0.001026735,-0.077778444,0.959199429
54.687399,-1.414390564,10.858131409,1.494064331,0.032298461,-0.076923952,0.985566616
54.725745,3.697303772,14.894081116,-8.759841919,-0.044605836,0.010112181,0.959809780
54.764071,2.034095764,10.987831116,-5.692825317,-0.001270875,0.063823119,0.956391811
54.778370,3.025917053,11.201454163,-8.500442505,-0.013722047,0.066874877,0.953340054
54.793733,3.865150452,5.212379456,-7.897720337,-0.076710328,0.075419798,0.948701382
54.832103,2.736000061,-1.989768982,0.792160034,-0.044605836,0.104106322,0.945771694
54.870427,-1.483055115,-1.524375916,-2.175674438,-0.097584352,0.033183470,0.994599819
54.884727,-3.558250427,-2.256797791,0.982894897,-0.077808961,0.063578978,0.992280483
54.900096,-0.865074158,-0.639366150,2.462997437,-0.053639039,0.033427611,1.040742397
54.938456,-11.103721619,5.761695862,-8.988723755,-0.125050172,0.004741088,1.095674038
54.976764,6.100563049,-5.278038025,0.685348511,-0.096851930,0.072856322,1.036469936
54.991063,1.843360901,-11.190818787,8.375778198,-0.124683961,-0.051411256,1.042817593
55.006422,-4.222007751,-10.473655701,11.839523315,-0.065846071,-0.075581178,1.046113491
55.044767,-0.323387146,-6.674217224,3.965988159,-0.091358766,-0.060932741,1.072236538
55.083073,-1.673789978,-0.463890076,2.638473511,-0.035328493,-0.089619264,1.038545132
55.097365,-3.169151306,-2.188133240,4.377975464,-0.068409547,-0.057148561,1.041718960
55.124731,0.653175354,-5.194114685,5.499496460,-0.069508180,0.019145384,1.001924038
55.163165,-3.474327087,-7.910179138,7.231369019,-0.026051149,0.098857298,0.963960171
55.201460,3.819374084,-5.270408630,7.940902710,-0.061451539,0.087870970,1.037080288
55.215749,9.793190002,-2.813743591,8.749618530,-0.040577516,0.050761595,0.981782436
55.216432,9.419349670,0.093055725,7.513656616,-0.033131227,-0.021504030,0.925263882
55.231659,1.973060608,2.412391663,7.383956909,-0.016163453,-0.093037233,0.924653530
55.270011,5.452064514,13.513160706,-1.565322876,-0.022389039,0.144145384,0.981660366
55.308315,1.065162659,13.238502502,0.960006714,-0.033253297,0.063823119,0.940522671
55.322613,1.339820862,11.628700256,0.166549683,-0.039356813,0.099101439,0.949800014
55.337985,3.849891663,8.493019104,3.195419312,-0.045582399,0.114848509,0.965058804
55.376314,4.986671448,10.453773499,-4.166946411,-0.008717164,0.105937377,0.967866421
55.414640,-0.079246521,2.374244690,3.653182983,-0.073780641,0.006816283,0.987153530
55.428923,-0.201316833,0.627113342,5.324020386,0.021312132,0.066996947,1.026948452
55.444253,0.294593811,2.534461975,0.921859741,-0.002125368,0.056376830,1.032929897
55.482588,0.798133850,10.407997131,-5.555496216,-0.015919313,-0.042011842,1.053559780
55.520889,-2.169700623,8.737159729,-1.992568970,0.016673461,0.014628783,1.054170132
55.535162,-2.627464294,8.546424866,-7.233963013,0.007640257,0.036235228,1.043061733
55.550504,-1.971336365,5.349708557,-7.531509399,-0.045460328,0.014262572,1.029633999
55.588885,-2.505393982,-0.326560974,-0.008926392,-0.020924196,0.034404173,1.066133022
55.627193,-3.352256775,0.588966370,-1.016006470,-0.019947633,-0.076191530,1.072358608
55.641476,-2.284141541,-0.311302185,-0.932083130,-0.006519899,-0.049458131,1.044282436
55.656818,-0.094505310,-0.654624939,-2.427444458,-0.011768922,-0.008930787,1.035127163
55.695171,-3.535362244,6.394935608,-7.539138794,-0.016163453,-0.044087037,0.958711147
55.733450,1.110939026,7.524085999,-7.455215454,-0.045582399,0.034892455,0.977143764
55.762166,2.201942444,5.914283752,-6.631240845,-0.045338258,-0.004658327,0.937348843
55.776481,0.096229553,2.458168030,-5.738601685,-0.043018922,-0.005756959,0.929780483
55.814688,3.491310120,3.465248108,-7.439956665,-0.048145875,0.076884642,0.927461147
55.866560,-1.513572693,-4.400657654,2.302780151,-0.052662477,0.133159056,0.927827358
55.880890,1.484779358,-3.614830017,0.479354858,-0.020802125,0.096660033,0.940278530
55.896245,-4.183860779,4.754615784,-5.898818970,0.005687132,0.060161009,0.935639858
55.934567,-1.010032654,9.469581604,-7.211074829,-0.118580446,0.102641478,1.005952358
55.972859,-0.964256287,18.640113831,-13.779983521,-0.003101930,-0.049580202,1.021821499
55.987157,-3.253074646,17.533851624,-19.425735474,-0.057423219,-0.082783327,1.048432827
56.002541,-10.790916443,2.793861389,-18.227920532,-0.120411500,0.010356322,1.082978725
56.040892,3.857521057,-21.009849548,11.351242065,-0.094654664,-0.120014772,1.058076382
56.079203,-1.948448181,-17.759727478,-10.049209595,-0.143849000,-0.065693483,1.105805874
56.093497,-4.885765076,-19.766258240,-0.245437622,-0.152271852,-0.139790162,1.073579311
56.108870,-9.501548767,-18.469261169,0.837936401,-0.136890993,-0.136372194,1.099824429
56.147220,5.612281799,-15.211509705,0.303878784,-0.099049196,-0.012837037,1.196504116
56.185507,-0.552268982,-0.875877380,-0.893936157,-0.105030641,-0.145161256,1.049897671
56.199823,-4.183860779,3.160072327,-0.314102173,-0.104420289,-0.082050905,1.067842007
56.215183,5.093482971,9.210182190,-3.030166626,-0.133473024,0.002177611,1.146577358
56.253515,8.328346252,4.678321838,4.339828491,-0.105274782,-0.079609498,0.942719936
56.291833,9.907630920,-9.756492615,2.867355347,-0.133961305,0.061503783,0.991792202
56.306125,12.631324768,-11.358665466,5.468978882,-0.118702516,0.056987181,0.964082241
56.321491,11.097816467,-10.343955994,3.599777222,-0.105763063,0.051494017,0.910859585
56.359857,3.033546448,1.985145569,-0.550613403,-0.080860719,0.062846556,0.925752163
56.398140,5.368141174,6.593299866,-0.565872192,-0.111378297,0.087260619,0.924531460
56.412432,3.979591370,8.454872131,0.982894897,-0.087330446,0.067973509,0.929292202
56.427788,2.934364319,8.729530334,-1.305923462,-0.082081422,0.092387572,0.931489468
56.466119,2.102760315,4.022193909,-1.557693481,-0.105030641,0.014140502,0.926362514
56.504435,2.987770081,-0.082420349,0.113143921,-0.058765993,0.011699095,0.937226772
56.518716,-0.247093201,0.489784241,-0.771865845,-0.055836305,0.012797728,0.956269741
56.534060,0.080970764,0.009132385,-1.786575317,-0.061817750,0.008281127,0.955903530
56.586173,-2.177330017,-5.361961365,-0.947341919,-0.051075563,0.014018431,1.034516811
56.624534,-7.937522888,-15.646385193,3.698959351,-0.096119508,-0.058613405,1.051484585
56.638852,-4.633995056,-19.186424255,0.807418823,-0.056568727,-0.008076295,1.088105679
56.654203,-1.345726013,-20.101951599,0.647201538,-0.061451539,-0.019672975,1.086152554
56.692543,-8.204551697,-12.365745544,8.322372437,-0.026173219,-0.082661256,1.066010952
56.730856,15.339759827,12.376380920,-2.267227173,-0.051197633,0.016215697,1.030244350
56.745157,15.133766174,16.412330627,0.761642456,-0.023853883,-0.127949342,0.946626186
56.760505,-7.609458923,24.797035217,-3.167495728,-0.027638063,-0.077778444,0.970429897
56.798892,0.759986877,21.455360413,-4.227981567,-0.082325563,0.069560423,1.009126186
56.837196,-2.284141541,0.451637268,5.247726440,-0.104176149,-0.046528444,0.922090054
56.851476,-5.671592712,-1.417564392,5.522384644,-0.076466188,0.011699095,0.969819546
56.880896,8.931068420,-6.979393005,3.515853882,-0.083180055,0.081035033,0.988374233
56.919321,-4.428001404,2.587867737,7.528915405,-0.030445680,-0.052509889,0.915864468
56.957639,10.228065491,27.322364807,-7.203445435,-0.035694703,0.201640502,0.987397671
56.971952,17.140296936,27.604652405,-5.631790161,-0.054371461,0.169780150,0.943208218
56.987325,14.561561584,23.606849670,4.645004272,-0.085743532,0.031840697,0.820893764
57.025691,-12.354942322,32.479835510,-5.921707153,0.013011351,0.118754759,0.960786343
57.064037,12.226966858,18.312049866,-0.810012817,-0.067555055,0.113383666,0.866548061
57.094973,-16.825767517,12.322975159,2.310409546,-0.008839235,-0.018574342,0.982514858
57.109306,-17.542930603,10.667396545,-7.005081177,-0.034351930,0.181376830,1.084687710
57.147547,17.781166077,-15.119956970,2.257003784,-0.142384157,-0.079121217,0.950532436
57.185864,-15.437217712,-9.191917419,-0.260696411,0.029734984,0.133891478,1.116059780
57.200148,-5.839439392,-6.346153259,-8.820877075,-0.044972047,0.143168822,1.129853725
57.215509,17.208961487,-10.450767517,-0.062332153,-0.052174196,0.041728392,0.972138882
57.253882,-24.973960876,-16.409324646,5.484237671,-0.106861696,-0.199238405,0.921601772
57.292179,4.376319885,-13.197349548,-8.202896118,-0.043995485,0.082988158,1.062837124
57.306467,8.854774475,-19.224571228,-3.732070923,-0.120045289,-0.139057741,0.923432827
57.337385,-17.947288513,-14.311241150,2.257003784,0.017527953,0.015605345,1.029023647
57.375797,6.695655823,-19.003318787,-4.395828247,-0.142628297,0.011943236,0.984956264
57.414119,-9.883018494,-8.329795837,-3.815994263,0.057811156,0.040629759,1.015595913
57.428416,-7.754417419,-4.949974060,-16.946182251,-0.050953493,0.089824095,1.019624233
57.443770,4.307655334,-9.962486267,-9.202346802,-0.148853883,0.106913939,0.996308804
57.482117,2.255348206,-18.095420837,-0.192031860,-0.121143922,-0.064838991,0.888642788
57.520435,-7.083030701,8.256507874,-10.369644165,-0.009815797,0.131694213,1.070649624
57.534721,7.130531311,15.718055725,-15.412673950,-0.048756227,0.116191283,1.024995327
57.550102,12.349037170,16.046119690,-15.382156372,-0.079273805,0.074443236,0.940156460
57.588490,-16.825767517,16.976905823,-20.852432251,-0.069386110,0.072368041,1.043183804
57.626822,17.949012756,-9.985374451,-5.135879517,-0.143238649,0.018535033,0.953095913
57.641111,15.416053772,-13.021873474,-2.313003540,-0.098927125,-0.094624147,0.921113491
57.656479,-17.733665466,-7.688926697,-12.261734009,-0.049122438,-0.041401491,1.022309780
57.694857,10.022071838,-21.574424744,-6.409988403,-0.210011110,0.041484252,1.132783413
57.733163,-10.607810974,-7.582115173,-5.746231079,-0.042774782,-0.107807741,1.073579311
57.747450,-7.624717712,0.886512756,-8.752212524,-0.041309938,-0.027119264,1.122041225
57.762808,3.079322815,9.133888245,-7.752761841,-0.057545289,-0.081562623,1.123750210
57.801161,-4.809471130,15.145851135,-4.899368286,-0.032276735,-0.058735475,1.045747280
57.839457,0.752357483,22.470069885,-11.842117310,-0.020680055,0.010234252,1.121064663
57.853742,7.702735901,22.843910217,-9.827957153,-0.033985719,-0.021259889,1.097383022
57.869102,7.779029846,21.478248596,-9.080276489,-0.034596071,-0.048481569,1.066621304
57.907475,5.154518127,9.683204651,-14.191970825,-0.064869508,0.003886595,0.963105679
57.945774,-1.277061462,-14.151023865,-8.569107056,-0.170948610,-0.045796022,0.933076382
57.960062,-2.116294861,-20.910667419,-5.463943481,-0.164600953,-0.045429811,0.943818569
57.975422,-3.398033142,-32.232688904,-2.824172974,-0.161915407,-0.032612428,0.978852749
58.013766,3.346351624,-36.657737732,2.653732300,-0.138233766,-0.015644655,0.976411343
58.067796,0.950721741,-1.532005310,-2.755508423,-0.093800172,-0.032490358,0.954682827
58.082127,0.256446838,10.331703186,-1.473770142,-0.094532594,-0.000874147,0.962861538
58.097511,-0.269981384,16.137672424,-0.794754028,-0.088062868,0.025981322,0.966889858
58.135888,2.667335510,37.911964417,-6.532058716,-0.025440797,0.020854369,1.027802944
58.174190,8.198646545,45.846534729,-4.647598267,-0.063038453,-0.032124147,0.992280483
58.188475,6.314186096,46.639991760,-2.473220825,-0.031300172,-0.027851686,0.982881069
58.203843,2.896217346,47.998023987,-9.477005005,0.005565062,-0.029438600,0.995088100
58.242186,6.520179749,27.848793030,-10.644302368,-0.128101930,-0.048969850,1.032075405
58.280487,2.301124573,-11.953758240,-3.915176392,-0.105396852,-0.117207155,0.944062710
58.294774,-1.154991150,-18.309043884,-3.327713013,-0.101246461,-0.131611452,0.975068569
58.310127,-1.948448181,-25.961326599,-1.946792603,-0.080860719,-0.104145631,1.043061733
58.348482,1.896766663,-33.712791443,-4.151687622,-0.106861696,-0.117817506,1.022553921
58.402782,-5.465599060,-30.065940857,-2.976760864,-0.079884157,-0.064961061,1.015717983
58.417136,-4.946800232,-24.847434998,-2.366409302,-0.056568727,-0.037006959,1.051850796
58.432501,0.378517151,-6.666587830,-7.348403931,0.007029906,-0.048603639,1.084565639
58.470847,6.001380920,27.719093323,-26.841506958,-0.018482789,-0.053364381,0.936128139
58.509154,-0.872703552,26.795936584,-22.485122681,-0.124439821,-0.022480592,0.899995327
58.523462,-0.857444763,25.567604065,-22.637710571,-0.116383180,-0.021015748,0.906831264
58.538836,0.103858948,21.897865295,-24.224624634,-0.108082399,-0.014423952,0.900117397
58.577167,-3.687950134,5.914283752,-22.218093872,-0.151173219,-0.014057741,0.908418179
58.615459,-2.947898865,1.687599182,-21.195755005,-0.106129274,-0.031025514,0.942842007
58.629764,-3.466697693,-1.745628357,-22.805557251,-0.096119508,-0.039814577,0.952241421
58.645122,-3.405662537,-4.454063416,-23.118362427,-0.098805055,-0.047749147,0.954560757
58.683442,-3.916831970,-10.458396912,-23.232803345,-0.118824586,-0.019795045,0.989839077
58.721722,-2.345176697,-3.332542419,-28.252944946,-0.085621461,-0.038105592,0.985932827
58.736027,-1.994224548,3.030372620,-30.465469360,-0.061695680,-0.037495241,0.998383999
58.751390,-1.895042419,6.463600159,-33.540115356,-0.054859743,-0.051411256,1.005097866
58.789698,-1.025291443,6.196571350,-39.437637329,-0.096974000,-0.089130983,1.034394741
58.828012,0.149635315,-10.038780212,-42.016372681,-0.137501344,-0.070576295,1.044160366
58.842320,-0.170799255,-15.425132751,-42.657241821,-0.159840211,-0.065449342,1.039887905
58.857664,-1.628013611,-27.487205505,-39.941177368,-0.175587282,-0.052265748,1.055390835
58.907242,5.810646057,-28.913902283,-36.218032837,-0.106251344,-0.102436647,1.090791225
58.945639,1.301673889,6.394935608,-43.893203735,-0.029713258,-0.109882936,1.069550991
58.959942,1.095680237,12.719703674,-46.746597290,-0.034229860,-0.084736452,1.066133022
58.975280,1.759437561,17.198158264,-49.477920532,-0.087452516,-0.042500123,1.046113491
59.013604,2.530006409,9.248329163,-44.328079224,-0.104420289,-0.034199342,0.968965054
59.051890,-1.803489685,3.045631409,-49.455032349,-0.058277711,-0.040424928,0.977632046
59.066172,-0.620933533,1.290870667,-50.233230591,-0.082325563,-0.003803834,0.958711147
59.081494,-2.184959412,0.367713928,-50.340042114,-0.074390993,0.009990111,0.966523647
59.119812,-1.284690857,-7.368492126,-49.188003540,-0.077076539,0.015605345,0.981172085
59.158104,-6.594749451,-12.396263123,-47.234878540,-0.122364625,0.018046752,0.971406460
59.172421,-6.129356384,-13.311790466,-46.044692993,-0.113697633,0.021708861,0.991914272
59.187779,-2.902122498,-15.028404236,-48.470840454,-0.107960328,0.015483275,1.012422085
59.226109,-0.331016541,-14.555381775,-46.349868774,-0.140797243,0.005229369,0.981050014
59.264427,-0.094505310,0.619483948,-46.220169067,-0.060841188,-0.012470827,1.055634975
59.278722,2.461341858,6.578041077,-49.485549927,-0.057179078,-0.021015748,1.066377163
59.294056,7.466224670,16.351295471,-53.735122681,-0.090504274,-0.009052858,1.045258999
59.332358,4.628089905,7.859779358,-50.042495728,-0.149830446,-0.032856569,0.961762905
59.370655,3.079322815,-5.941795349,-46.937332153,-0.129078493,-0.029072389,0.994355679
59.384948,5.116371155,-12.533592224,-46.342239380,-0.117725953,-0.011860475,0.988740444
59.400276,4.612831116,-11.885093689,-45.716629028,-0.097096071,-0.026997194,0.991425991
59.438595,-2.665611267,2.175880432,-49.294815063,-0.047901735,-0.080219850,1.038300991
59.476892,2.552894592,9.194923401,-52.659378052,-0.079517946,-0.012104616,1.079926968
59.491197,4.841712952,8.775306702,-52.377090454,-0.084034547,-0.034077272,1.063813686
59.506535,3.903297424,7.623268127,-53.124771118,-0.102100953,-0.073872194,1.000825405
59.544865,-6.617637634,1.519752502,-52.613601685,-0.147022828,-0.006489381,1.020967007
59.583164,3.476051331,-7.231163025,-47.532424927,-0.119923219,-0.000752077,1.085053921
59.597460,5.787757874,-5.270408630,-47.555313110,-0.104786500,-0.028584108,1.059052944
59.612797,6.497291565,-0.219749451,-50.202713013,-0.094288453,-0.032002077,0.946015835
59.662669,-0.544639587,-3.469871521,-51.072463989,-0.141529664,-0.096821412,0.965913296
59.701042,-4.855247498,-25.076316833,-41.406021118,-0.196949586,0.020121947,0.950776577
59.715357,-5.152793884,-28.417991638,-35.943374634,-0.158131227,0.018535033,0.991181850
59.730720,-2.268882751,-30.722068787,-34.562454224,-0.093678102,-0.044819459,0.958100796
59.769063,-4.458518982,-12.167381287,-41.482315063,-0.027027711,-0.068989381,0.931245327
59.807355,-7.472129822,-2.035545349,-47.417984009,-0.111378297,-0.086567506,0.901338100
59.821658,-7.754417419,-9.161399841,-47.448501587,-0.128346071,-0.130634889,0.917451382
59.848836,-15.086265564,-24.214195251,-40.368423462,-0.173512086,-0.093769655,0.865937710
59.887276,-13.918968201,-30.584739685,-36.675796509,-0.077808961,-0.069721803,0.978486538
59.925589,-15.360923767,-7.620262146,-40.330276489,-0.072804078,-0.122944459,0.978486538
59.939904,-17.840476990,5.036903381,-43.145523071,-0.115650758,-0.111469850,1.024873257
59.955255,-16.551109314,9.690834045,-42.184219360,-0.138233766,-0.083515748,1.061616421
59.993569,-3.985496521,28.810096741,-40.192947388,-0.123219118,-0.071186647,1.107148647
60.031882,-0.666709900,41.894508362,-39.002761841,-0.141651735,-0.088276491,1.062837124
60.046188,-0.971885681,40.383888245,-38.155899048,-0.140797243,-0.082905397,1.080171108
60.061548,-0.262351990,34.791542053,-34.364089966,-0.130543336,-0.031757936,1.103974819
60.099894,1.652626038,33.967567444,-30.938491821,-0.029347047,0.062480345,1.181123257
60.138213,7.840065002,51.683021545,-42.649612427,0.001292601,0.072001830,1.106050014
60.152505,7.176307678,52.201820374,-44.106826782,-0.026051149,0.078349486,1.067842007
60.167857,4.017738342,42.787147522,-44.823989868,-0.092823610,0.081889525,1.045991421
60.206209,5.940345764,8.378578186,-34.989700317,-0.175953493,0.123881713,1.047456264
60.244480,8.007911682,-35.810874939,-21.600112915,-0.176685914,0.060038939,0.911469936
60.258808,-1.971336365,-44.256614685,-19.524917603,-0.126026735,0.025493041,0.957124233
60.274175,-3.909202576,-43.936180115,-20.600662231,-0.102223024,0.029399291,1.006928921
60.312519,5.581764221,-30.485557556,-27.238235474,-0.106495485,0.046611205,1.006562710
60.350843,2.407936096,-29.661582947,-21.355972290,-0.199146852,0.036967650,0.929902554
60.365145,3.994850159,-30.157493591,-18.334732056,-0.190724000,0.022197142,0.932832241
60.380499,2.392677307,-28.059410095,-18.639907837,-0.150440797,-0.064961061,0.908174038
60.418873,-4.794212341,-12.030052185,-19.204483032,-0.124806032,0.049785033,1.012544155
60.457170,4.795936584,12.902809143,-19.692764282,-0.098194703,0.012553588,1.023896694
60.471472,3.773597717,16.458106995,-20.371780396,-0.087940797,-0.037495241,1.016328335
60.486828,-0.323387146,18.617225647,-21.111831665,-0.094654664,-0.016377077,1.049531460
60.525177,2.850440979,15.328956604,-18.464431763,-0.103809938,0.061869994,1.071382046
60.563465,5.970863342,7.470680237,-19.563064575,-0.127125368,-0.019184694,0.999848843
60.577763,3.094581604,-7.254051208,-13.886795044,-0.173878297,0.010844603,0.961274624
60.593115,0.218299866,-13.555931091,-10.697708130,-0.170826539,0.023295775,0.966523647
60.643448,0.111488342,-7.650779724,-10.148391724,-0.077198610,0.014750853,1.120698452
60.681866,3.849891663,14.138771057,-13.482437134,-0.042896852,-0.049702272,1.051362514
60.696164,0.035194397,25.529457092,-18.502578735,-0.028492555,-0.037006959,1.067719936
60.711517,-0.643821716,30.503822327,-20.898208618,-0.043507203,-0.041523561,1.083833218
60.749891,4.269508362,28.535438538,-22.729263306,-0.115650758,0.011699095,1.117280483
60.788217,10.647682190,-0.677513123,-11.285171509,-0.172047243,0.005107298,1.010835171
60.802507,10.060218811,-5.758689880,-8.912429810,-0.156422243,-0.029194459,0.983247280
60.817863,5.360511780,-10.786460876,-8.805618286,-0.116261110,-0.074482545,1.001191616
60.856210,8.503822327,-17.698692322,-8.958206177,-0.163014039,-0.007465944,1.017671108
60.894495,12.509254456,-30.813621521,-5.425796509,-0.162159547,0.024760619,0.921723843
60.908825,11.769203186,-34.429954529,-5.235061646,-0.186817750,-0.032246217,0.864717007
60.937499,-3.794761658,-44.432090759,3.721847534,-0.180225953,-0.005024537,0.938691616
60.975899,-1.322837830,-28.509544373,5.636825562,-0.075733766,-0.047993287,1.015717983
61.014222,-0.537010193,25.704933167,-9.965286255,-0.007740602,-0.051289186,1.035005093
61.028518,1.995948792,34.806800842,-13.543472290,-0.026295289,-0.023579225,1.037934780
61.043897,6.520179749,40.780616760,-15.229568481,-0.086109743,-0.011372194,0.974336147
61.082269,-4.069419861,24.644447327,-9.995803833,-0.119923219,0.002910033,0.920747280
61.120548,-1.444908142,3.762794495,-7.172927856,-0.122120485,0.022319213,0.979829311
61.134857,3.071693420,-8.299278259,-5.814895630,-0.111866578,-0.007343873,0.974702358
61.150202,4.719642639,-12.503074646,-4.189834595,-0.101978883,-0.044575319,0.965302944
61.188531,-2.627464294,-9.191917419,-4.876480103,-0.045216188,0.004130736,1.015717983
61.226839,3.643898010,-3.248619080,-7.073745728,-0.067799196,-0.030659303,0.993379116
61.241134,2.980140686,-2.935813904,-6.272659302,-0.059498414,-0.054096803,0.978974819
61.256487,-3.008934021,-2.119468689,-8.820877075,-0.043140993,-0.045307741,1.004487514
61.294838,3.880409241,-4.774497986,-8.897171021,-0.067555055,-0.076679811,1.043427944
61.333120,-0.544639587,12.086463928,-12.879714966,0.004466429,-0.150166139,1.023042202
61.347441,0.569252014,17.335487366,-15.839920044,-0.002003297,-0.170185670,1.045381069
61.362830,1.233009338,21.798683167,-17.876968384,-0.035084352,-0.140888795,1.039887905
61.414734,-2.001853943,17.968727112,-23.240432739,-0.161305055,-0.032856569,0.931489468
61.453137,-4.641624451,-16.958641052,-7.584915161,-0.241139039,-0.081440553,0.921601772
61.467439,-5.869956970,-23.283409119,-3.693923950,-0.209400758,-0.094868287,0.922334194
61.482769,-8.624168396,-26.792930603,-2.358779907,-0.148975953,-0.059101686,0.972138882
61.521105,-0.460716248,-22.062705994,1.707687378,-0.131886110,-0.039814577,1.055634975
61.559431,1.385597229,-19.316123962,4.889144897,-0.079640016,-0.038349733,0.944550991
61.573722,-0.247093201,-16.241477966,4.408493042,-0.059864625,-0.050678834,0.927094936
61.589077,-3.176780701,-12.144493103,3.325119019,-0.046436891,-0.063984498,0.918672085
61.627400,-8.784385681,7.363868713,-3.152236938,-0.004810914,-0.047260866,1.003144741
61.665686,-3.550621033,19.807411194,-9.751663208,0.007640257,-0.047382936,1.041596889
61.679977,-1.086326599,19.067359924,-11.102066040,-0.014698610,-0.025288209,1.026338100
61.695320,0.134376526,17.434669495,-10.667190552,-0.014942750,-0.031391725,1.011445522
61.733661,0.790504456,8.538795471,-15.427932739,-0.008839235,-0.041035280,0.975923061
61.771943,-1.422019958,-12.457298279,-16.259536743,-0.089649782,0.000346556,0.963349819
61.786240,-1.124473572,-18.865989685,-14.390335083,-0.104664430,-0.008686647,0.972627163
61.801589,-1.193138123,-30.241416931,-10.995254517,-0.093067750,-0.041035280,1.013276577
61.839898,-1.010032654,-39.976524353,-12.322769165,-0.089649782,-0.072163209,1.048188686
61.878217,0.340370178,-38.290428162,-5.990371704,-0.094044313,-0.082661256,1.101045132
61.892502,1.164344788,-33.651756287,-4.906997681,-0.068287477,-0.101826295,1.110688686
61.907845,3.201393127,-16.012596130,-5.883560181,-0.028004274,-0.165791139,1.093354702
61.946158,1.812843323,14.108253479,-16.633377075,-0.023487672,-0.152363405,1.006684780
61.984456,-4.748435974,4.846168518,-13.841018677,-0.196705446,-0.101093873,0.872041225
61.998746,-9.425254822,-9.893821716,-3.899917603,-0.167652711,-0.084980592,0.919526577
62.014079,-10.333152771,-12.716697693,-1.458511353,-0.126392946,-0.102314577,0.964082241
62.052372,-3.489585876,12.300086975,-7.668838501,0.037913695,-0.203510866,1.129243374
62.090662,3.193763733,40.277076721,-23.034439087,-0.010670289,-0.189594850,1.026704311
62.104962,1.446632385,39.643836975,-23.270950317,-0.046192750,-0.165180787,0.995088100
62.120312,-1.376243591,29.527259827,-22.477493286,-0.093189821,-0.113789186,0.980073452
62.158647,1.805213928,-5.880760193,-16.808853149,-0.122364625,-0.091816530,0.965302944
62.196918,-4.839988708,-31.599449158,-13.062820435,-0.134327516,-0.097675905,0.957856655
62.226179,-5.061241150,-31.782554626,-11.376724243,-0.052052125,-0.113789186,1.041230679
62.240508,-3.764244080,-27.029441833,-14.054641724,-0.035572633,-0.125752077,1.053559780
62.278689,-0.849815369,0.482154846,-20.196304321,-0.011524782,-0.122822389,1.073579311
62.330965,6.756690979,22.035194397,-27.314529419,-0.003101930,-0.100849733,0.998261929
62.345298,5.932716370,28.108192444,-31.983718872,0.019236937,-0.073139772,0.973115444
62.360673,6.367591858,30.122352600,-36.454544067,0.014720336,-0.061176881,0.957002163
62.399013,3.971961975,26.650978088,-35.828933716,-0.023243532,-0.101215944,0.921479702
62.437318,2.148536682,30.572486877,-47.372207642,0.036448851,-0.149189577,0.984467983
62.451626,3.361610413,30.068946838,-51.347122192,0.017650023,-0.158100709,0.988862514
62.467000,1.919654846,23.606849670,-52.651748657,-0.031544313,-0.196430787,0.963960171
62.505307,0.065711975,1.802040100,-50.202713013,-0.017872438,-0.161274537,1.033418179
62.543612,-0.086875916,-15.180992126,-51.743850708,-0.037159547,-0.208637819,1.052949429
62.557913,3.331092834,-20.559715271,-52.193984985,-0.029591188,-0.175800905,1.032441616
62.573252,3.010658264,-21.223472595,-52.361831665,-0.033741578,-0.171284303,1.007050991
62.611535,-2.505393982,-22.932456970,-57.702407837,-0.066944703,-0.163349733,0.923554897
62.649844,-11.759849548,-32.507347107,-52.811965942,-0.132130250,-0.092915162,0.978852749
62.664150,-11.607261658,-33.644126892,-46.891555786,-0.093189821,-0.063007936,1.009492397
62.679494,-11.935325623,-29.562400818,-46.113357544,-0.071095094,-0.070210084,1.028657436
62.717839,-7.128807068,0.306678772,-53.567276001,-0.029102907,-0.054585084,1.080293179
62.756136,-0.079246521,32.197547913,-52.956924438,-0.031056032,-0.035786256,1.034394741
62.770443,0.737098694,37.431312561,-54.147109985,-0.010914430,-0.052265748,1.026704311
62.785813,1.233009338,46.067787170,-57.580337524,-0.011524782,-0.058369264,1.007905483
62.824131,-0.369163513,41.009498596,-56.619033813,-0.088917360,-0.018086061,1.044282436
62.862447,7.916358948,20.135475159,-53.017959595,-0.054249391,-0.052631959,1.045503139
62.876743,8.435157776,15.077186584,-53.323135376,-0.051441774,-0.064106569,1.027680874
62.892097,6.970314026,4.312110901,-55.642471313,-0.054127321,-0.055317506,1.019380093
62.930418,9.388832092,-13.586448669,-52.819595337,-0.066944703,-0.108540162,1.021211147
62.968708,8.572486877,-34.445213318,-51.896438599,-0.038014039,-0.124775514,1.028169155
62.983018,9.091285706,-40.289329529,-54.765090942,-0.046803102,-0.109028444,1.008637905
62.998378,8.603004456,-41.319297791,-55.062637329,-0.059986696,-0.100727662,0.999726772
63.036681,4.933265686,-39.411949158,-53.315505981,-0.037525758,-0.111836061,1.046723843
63.075007,4.742530823,-15.158103943,-59.701309204,0.011180297,-0.119282350,1.069795132
63.089312,4.551795959,-6.681846619,-62.089309692,0.000682250,-0.109882936,1.076631069
63.104639,6.611732483,7.646156311,-63.996658325,-0.044972047,-0.100605592,1.071015835
63.142931,9.343055725,20.936561584,-60.181961060,-0.084644899,-0.110493287,0.983979702
63.181244,3.895668030,28.565956116,-59.182510376,-0.074757203,-0.134052858,0.925141811
63.195536,1.789955139,29.336524963,-59.991226196,-0.071339235,-0.141743287,0.883271694
63.210884,-2.825828552,25.651527405,-62.112197876,-0.098438844,-0.108418092,0.935273647
63.264467,-1.399131775,2.786231995,-48.898086548,-0.150929078,-0.032124147,1.002046108
63.302877,0.943092346,0.978065491,-47.479019165,-0.095265016,-0.076435670,0.948213100
63.317170,0.027565002,0.451637268,-47.059402466,-0.097584352,-0.079975709,0.936860561
63.332536,-2.909751892,-2.035545349,-44.785842896,-0.103321657,-0.074360475,0.934541225
63.370859,-3.985496521,-5.537437439,-43.023452759,-0.099415407,-0.064594850,0.994477749
63.409151,-1.803489685,-1.432823181,-38.590774536,-0.072315797,-0.111469850,0.981904507
63.423445,-2.085777283,3.648353577,-39.277420044,-0.043629274,-0.110493287,0.977143764
63.438811,-1.605125427,17.350746155,-44.785842896,-0.001392946,-0.102802858,0.991303921
63.477129,2.133277893,25.788856506,-52.667007446,-0.051441774,-0.063984498,0.989228725
63.530979,0.294593811,-11.877464294,-42.611465454,-0.125904664,-0.056294069,0.912446499
63.545331,-1.132102966,-17.729209900,-41.657791138,-0.127857789,-0.042988405,0.932588100
63.560674,-1.040550232,-27.967857361,-38.102493286,-0.131519899,-0.008076295,0.963716030
63.599008,-3.329368591,-34.696983337,-34.264907837,-0.122852907,-0.003803834,0.962861538
63.637321,-4.252525330,-21.467613220,-34.196243286,-0.118946657,0.011088744,1.047944546
63.651644,-1.299949646,-17.561363220,-31.228408813,-0.129444703,0.001567259,1.054048061
63.667013,1.057533264,-12.915061951,-27.062759399,-0.122242555,-0.033344850,1.041841030
63.705315,-5.557151794,27.093482971,-32.075271606,0.003367797,0.013408080,1.014131069
63.743646,-4.801841736,29.603553772,-34.974441528,-0.138844118,0.049785033,1.058808804
63.757958,-3.665061951,9.538246155,-24.514541626,-0.189259157,0.051738158,1.032685757
63.773318,-4.016014099,0.100685120,-19.059524536,-0.171436891,0.065532103,1.024507046
63.811637,-10.851951599,-11.091636658,-13.390884399,-0.048512086,-0.017109498,1.062348843
63.849922,-3.108116150,-2.340721130,-16.160354614,-0.018849000,0.065776244,1.163056850
63.864230,0.805763245,-0.235008240,-16.961441040,-0.016529664,0.057475463,1.135957241
63.879590,5.612281799,3.305030823,-18.006668091,-0.025562868,0.029155150,1.056367397
63.917877,1.004127502,9.370399475,-17.320022583,-0.075001344,0.060038939,1.028413296
63.956171,7.946876526,-0.227378845,-16.106948853,-0.095631227,0.052958861,0.946259975
63.970472,7.885841370,-3.576683044,-16.244277954,-0.114552125,0.023295775,0.925141811
63.985834,0.210670471,-11.671470642,-13.024673462,-0.143971071,-0.015766725,0.909028530
64.024145,-2.757164001,-21.406578064,-6.715164185,-0.115406618,0.083964720,1.053437710
64.062451,8.747962952,-13.266014099,-10.468826294,-0.056934938,-0.003071412,1.000581264
64.076758,2.842811584,-6.109642029,-11.529312134,-0.082935914,0.047343627,0.968720913
64.092121,1.957801819,-2.417015076,-10.407791138,-0.084522828,0.049540892,0.992280483
64.130445,3.964332581,15.519691467,-11.338577271,0.015941039,0.008769408,1.066865444
64.184505,7.809547424,23.263526917,-22.286758423,-0.096363649,0.039531127,1.185029507
64.198858,12.112525940,14.962745667,-19.593582153,-0.129566774,0.023784056,1.181489468
64.214221,16.949562073,-2.264427185,-8.546218872,-0.142506227,-0.045429811,1.127900600
64.252519,13.203529358,-3.454612732,-6.196365356,-0.031666383,-0.042744264,1.096406460
64.290866,11.509803772,5.517555237,-17.007217407,-0.106983766,-0.016499147,1.085175991
64.305167,11.952308655,-9.588645935,-11.842117310,-0.180470094,0.005595580,1.044526577
64.320532,11.692909241,-18.881248474,-8.263931274,-0.196095094,0.035624877,1.022553921
64.358865,8.480934143,-50.817893982,3.950729370,-0.203419313,0.026225463,1.005464077
64.397175,14.515785217,-37.687705994,5.919113159,-0.069386110,0.060893431,1.041596889
64.411481,16.003517151,-28.265403748,2.020492554,-0.064869508,0.040385619,1.027070522
64.426844,14.836219788,-7.620262146,1.295700073,-0.086353883,0.000102416,0.961640835
64.465160,8.831886292,35.546852112,-1.496658325,-0.011524782,0.007548705,0.954560757
64.503474,9.907630920,65.393043518,-7.745132446,0.000193968,-0.004902467,0.905854702
64.517772,9.205726624,68.498207092,-9.400711060,0.000926390,0.006205931,0.899751186
64.533140,7.130531311,66.445899963,-12.795791626,-0.037891969,0.021953002,0.862275600
64.571463,4.887489319,46.632362366,-11.292800903,-0.087086305,0.025126830,0.833222866
64.609777,-3.153892517,2.473426819,0.624313354,-0.079884157,0.040751830,0.931733608
64.624079,-0.544639587,-11.938499451,1.898422241,-0.026905641,0.071513548,0.982026577
64.639424,2.522377014,-15.791343689,0.357284546,0.004466429,0.084330931,0.975434780
64.677727,0.866798401,-26.235984802,-8.546218872,-0.071461305,0.039653197,0.919770718
64.716062,-1.605125427,-54.525779724,-1.969680786,-0.138599977,0.073466673,0.952363491
64.730365,-1.902671814,-61.232017517,0.746383667,-0.128956422,0.054789916,0.975312710
64.745711,-3.222557068,-66.915916443,5.507125854,-0.095265016,0.021220580,1.022920132
64.799976,-0.468345642,-25.808738708,-0.451431274,0.046946898,0.113505736,1.141328335
64.838345,10.426429749,27.299476624,-12.666091919,0.054026976,-0.060810670,1.024507046
64.852658,0.645545959,40.681434631,-17.953262329,-0.032887086,-0.011982545,0.969697475
64.868028,-2.146812439,39.865089417,-17.556533813,-0.085865602,0.035869017,0.938569546
64.906332,-7.563682556,10.537696838,-6.104812622,-0.123951539,0.090800658,0.988374233
64.944659,3.819374084,-12.060569763,3.431930542,-0.058521852,0.033427611,1.083955288
64.958959,7.016090393,-11.099266052,4.446640015,-0.026173219,-0.000263795,1.063325405
64.974320,8.541969299,-3.500389099,2.333297729,0.035228148,-0.040302858,1.004487514
65.012644,0.462440491,9.759498596,-7.325515747,-0.029224977,0.000712767,0.894746304
65.050947,-2.856346130,-7.734703064,-0.588760376,-0.092091188,0.102397338,0.913667202
65.077769,-0.254722595,-14.402793884,2.485885620,-0.057911500,0.063945189,0.950532436
65.092108,-2.078147888,-13.143943787,1.906051636,-0.025074586,0.056620970,0.986787319
65.130320,3.727821350,-0.433372498,-1.969680786,-0.017872438,0.090312377,0.991303921
65.168652,1.568702698,-2.478050232,-1.969680786,-0.074879274,0.067241088,0.930634975
65.182944,0.187782288,-5.484031677,-0.153884888,-0.081837282,0.079081908,0.941010952
65.198286,0.492958069,-9.367393494,2.203598022,-0.081593141,0.095317259,0.968110561
65.236580,0.363258362,-10.305809021,5.018844604,-0.061451539,0.060771361,1.016328335
65.274889,0.378517151,0.932289124,7.170333862,0.008616820,0.032939330,1.147920132
65.289173,3.834632874,8.363319397,4.278793335,0.019481078,0.092753783,1.176728725
65.304532,8.152870178,10.881019592,4.904403687,0.014964476,0.077006713,1.190278530
65.342862,13.722328186,16.435218811,3.134384155,-0.009571657,0.030253783,1.134736538
65.381188,14.103797913,18.952919006,1.974716187,0.024119750,-0.051289186,1.042329311
65.395477,11.952308655,20.646644592,0.342025757,0.031077757,-0.053852662,1.019624233
65.410861,7.908729553,20.799232483,-8.172378540,0.018138304,-0.013203248,0.974580288
65.449173,-5.137535095,-24.176048279,1.143112183,-0.209400758,0.027446166,0.934052944
65.487483,4.940895081,-69.609092712,19.606246948,-0.076954469,0.054545775,1.028413296
65.501771,7.946876526,-70.631431580,18.118515015,-0.048756227,0.030131713,1.005952358
65.517149,8.686927795,-62.490867615,15.318527222,-0.021778688,0.008403197,0.938813686
65.555459,2.385047913,-33.110069275,5.819931030,-0.006397828,-0.021015748,0.879975796
65.593761,-2.612205505,4.609657288,1.318588257,-0.037403688,0.043071166,0.920258999
65.608048,-0.811668396,17.297340393,2.844467163,-0.030567750,0.058696166,0.936006069
65.623410,0.759986877,21.676612854,3.439559937,-0.031544313,0.055644408,0.935517788
65.661715,-0.460716248,45.358253479,-0.367507935,0.091868773,0.043437377,0.951020718
65.700076,1.667884827,53.292823792,-10.232315063,0.005687132,0.093974486,0.933930874
65.714366,1.500038147,48.593116760,-11.269912720,-0.024952516,0.097758666,0.923310757
65.729739,2.522377014,31.495643616,-10.163650513,-0.081226930,0.096415892,0.912690639
65.768071,2.797035217,-18.484519958,3.286972046,-0.139698610,0.067851439,0.907929897
65.806400,3.537086487,-50.009178162,10.038986206,-0.061451539,0.126201048,0.933808804
65.820705,4.734901428,-50.779747009,9.138717651,-0.035450563,0.120097533,0.920625210
65.836092,2.499488831,-45.721458435,4.942550659,-0.016285524,0.095439330,0.891084194
65.874417,-4.725547791,-19.758628845,4.660263062,0.021922484,0.116435423,1.008027554
65.924348,1.835731506,23.255897522,-4.021987915,0.065135375,0.095317259,1.051728725
65.938685,1.912025452,28.504920959,-6.234512329,0.058787718,0.116679564,1.028413296
65.954081,2.354530334,33.471656799,-9.293899536,0.016673461,0.064067259,1.020722866
65.992400,2.316383362,34.516883850,-5.723342896,0.039378539,0.037211791,1.006562710
66.030721,-5.816551208,21.226478577,-9.934768677,-0.046192750,0.023784056,0.941499233
66.045027,-8.570762634,3.915382385,-6.585464478,-0.068653688,0.034160033,0.962861538
66.060388,-9.242149353,-5.125450134,-3.770217896,-0.072682008,0.016948119,0.980561733
66.098678,-11.775108337,-17.889427185,-0.741348267,-0.003346071,0.009745970,1.063203335
66.148806,-1.284690857,-21.246360779,1.738204956,-0.060108766,0.048320189,1.023652554
66.163141,-1.994224548,-19.575523376,4.881515503,-0.021046266,0.017558470,1.010224819
66.178495,0.302223206,-16.271995544,3.363265991,-0.014942750,0.006694213,0.946748257
66.216828,-6.045433044,8.210731506,-2.763137817,0.015086547,-0.010273561,1.019990444
66.255161,0.500587463,16.557289124,-3.259048462,-0.012867555,0.033305541,1.021089077
66.269473,1.606849670,15.618873596,-3.327713013,-0.022266969,0.042460814,0.993012905
66.284850,1.294044495,10.240150452,-2.419815063,-0.049366578,0.052592650,0.958833218
66.323168,-0.392051697,-4.507469177,5.743637085,-0.028004274,0.061137572,0.974946499
66.361486,3.674415588,1.939369202,0.906600952,0.022899047,0.029643431,0.976533413
66.375771,3.445533752,2.847267151,-0.970230103,0.013255492,0.031230345,0.963105679
66.391132,2.591041565,2.870155334,-2.168045044,-0.007008180,0.041118041,0.951508999
66.429452,1.599220276,-5.300926208,2.653732300,-0.043140993,0.067363158,0.934419155
66.467757,-1.757713318,-2.195762634,1.532211304,0.036815062,0.042338744,1.038545132
66.482054,0.134376526,1.092506409,-3.960952759,0.003978148,0.044291869,1.043672085
66.497402,-0.361534119,0.688148499,-3.899917603,-0.030445680,0.050517455,1.035371304
66.535686,-0.811668396,-7.406639099,7.124557495,-0.038380250,0.049662963,1.106782436
66.586039,-0.292869568,15.756202698,1.211776733,0.062449828,-0.097675905,1.058320522
66.601641,-3.268333435,24.064613342,-5.189285278,0.050486937,-0.048237428,1.043550014
66.615925,-3.329368591,25.628639221,-7.272109985,0.023753539,-0.027363405,1.032929897
66.654100,-3.825279236,8.340431213,1.425399780,-0.036549196,0.033793822,1.035371304
66.692449,-0.422569275,-0.364707947,-1.855239868,0.051951781,-0.026875123,1.013398647
66.706742,-1.154991150,0.794960022,-4.151687622,0.046214476,-0.037006959,1.003144741
66.722086,-2.383323669,3.076148987,-6.394729614,0.023631468,-0.016621217,0.992768764
66.773753,-0.109764099,-10.313438416,-5.570755005,-0.042652711,0.058940306,0.972138882
66.812176,2.644447327,-20.224021912,-2.808914185,-0.031056032,0.094218627,0.968476772
66.826468,3.132728577,-21.109031677,-3.342971802,-0.034718141,0.085673705,0.959077358
66.841824,3.079322815,-20.536827087,-2.984390259,-0.039967164,0.077006713,0.943940639
66.880141,1.408485413,-13.197349548,-4.227981567,-0.040455446,0.081401244,0.887177944
66.918469,-2.574058533,-1.303123474,-2.465591431,-0.031788453,0.063578978,0.906098843
66.932762,-2.337547302,2.481056213,-3.251419067,-0.019703493,0.055034056,0.914887905
66.948110,-3.092857361,7.669044495,-4.319534302,-0.010792360,0.022075072,0.926850796
66.986443,-5.351158142,14.161659241,-3.686294556,0.005076781,-0.000385866,0.977632046
67.024750,-5.732627869,17.373634338,-10.163650513,-0.013844118,0.004374877,1.041596889
67.039059,-1.849266052,9.286476135,-6.348953247,-0.059986696,0.004619017,1.042817593
67.054405,0.317481995,3.831459045,-3.152236938,-0.060474977,-0.010151491,1.021943569
67.092703,-8.250328064,-15.409873962,-0.604019165,-0.070606813,-0.009907350,0.959443569
67.131055,-6.510826111,-33.316062927,7.536544800,-0.095020875,0.033549681,0.968232632
67.145364,-7.395835876,-34.986900330,10.603561401,-0.074513063,0.005717650,0.970918179
67.160719,-12.003990173,-28.059410095,12.434616089,0.018382445,-0.051289186,1.015351772
67.199061,-8.639427185,16.542030334,-3.457412720,0.083445922,-0.032002077,1.132539272
67.237385,1.347450256,19.853187561,-4.388198853,-0.088184938,0.010234252,0.977632046
67.251684,0.790504456,12.895179749,-0.443801880,-0.105030641,0.011088744,0.927949429
67.267051,-4.191490173,1.504493713,3.828659058,-0.088307008,-0.020649537,0.896577358
67.305356,-8.418174744,1.046730042,4.919662476,-0.014210328,-0.075947389,0.949800014
67.343683,-9.829612732,8.370948792,-0.787124634,-0.053761110,-0.033466920,0.972627163
67.357978,-8.502098083,0.329566956,4.324569702,-0.086231813,0.037333861,0.985688686
67.373325,-6.716819763,-4.232810974,7.498397827,-0.082691774,0.053203002,0.993134975
67.411651,-3.535362244,-1.844810486,8.650436401,0.011912718,-0.028828248,1.018647671
67.463482,0.744728088,6.776405334,3.142013550,-0.019947633,0.023051634,1.023896694
67.477830,0.637916565,0.054908752,6.231918335,-0.068653688,0.005473509,1.009614468
67.493184,-0.384422302,-3.591941833,10.267868042,-0.064625368,-0.000630006,1.023408413
67.531478,-0.384422302,-1.768516541,10.557785034,0.058787718,0.000834838,1.174043179
67.569808,11.547950745,5.326820374,1.722946167,-0.014942750,-0.025898561,1.068818569
67.584117,10.197547913,2.473426819,3.439559937,-0.044361696,-0.059467897,1.034883022
67.613216,0.256446838,-4.652427673,11.900558472,-0.018116578,-0.081318483,1.049897671
67.651658,2.980140686,14.550758362,6.765975952,0.077098265,-0.090962037,1.111543179
67.689979,-1.093955994,18.899513245,-1.519546509,-0.029102907,-0.026630983,1.023042202
67.704259,-2.024742126,6.829811096,4.004135132,-0.049976930,0.014140502,1.010957241
67.719606,-1.139732361,0.314308167,6.094589233,-0.044605836,0.016093627,1.016694546
67.757900,-0.430198669,-6.666587830,4.507675171,0.019969359,-0.063007936,1.016084194
67.796213,1.255897522,-1.249717712,0.998153687,-0.001637086,-0.032978639,1.019990444
67.810495,2.484230042,-1.646446228,0.784530640,-0.014454469,-0.014912233,0.995454311
67.825829,2.560523987,-4.949974060,1.127853394,-0.040455446,0.000102416,0.942964077
67.864132,-2.856346130,-16.607688904,5.293502808,-0.055225953,0.007792845,0.984345913
67.902463,3.910926819,-19.674705505,7.841720581,-0.032520875,0.036479369,1.019624233
67.916760,7.359413147,-14.555381775,7.559432983,-0.002613649,0.035380736,0.995698452
67.932105,7.664588928,-9.947227478,5.903854370,0.012523070,0.038554564,0.975923061
67.970434,4.383949280,7.394386292,-0.230178833,-0.001148805,0.040629759,0.939057827
68.008735,5.200294495,5.845619202,-0.359878540,-0.033375368,0.054667845,0.941377163
68.023024,3.933815002,2.091957092,1.547470093,-0.027027711,0.025615111,0.952485561
68.038362,2.873329163,0.947547913,2.905502319,-0.015919313,0.008281127,0.973481655
68.076667,2.316383362,4.327369690,1.829757690,0.038524047,-0.013935670,1.067842007
68.114967,8.427528381,4.777503967,-1.168594360,0.008006468,-0.044453248,1.048432827
68.129247,10.006813049,3.533912659,1.051559448,0.014109984,-0.077778444,1.023408413
68.144591,2.903846741,1.420570374,2.401962280,0.029002562,-0.118427858,0.951753139
68.182894,-6.930442810,-7.254051208,-2.747879028,-0.003468141,-0.046406373,1.008515835
68.221212,-8.219810486,-30.599998474,5.285873413,-0.059742555,-0.012226686,1.039643764
68.235507,-9.112449646,-33.003257751,8.734359741,-0.030079469,-0.018574342,1.067109585
68.250854,-6.030174255,-26.716636658,9.482040405,0.066722289,-0.022480592,1.125337124
68.289167,3.384498596,0.009132385,-2.557144165,0.092723265,-0.037983522,1.062959194
68.327480,-0.269981384,13.009620667,-5.311355591,-0.012501344,0.025370970,0.910981655
68.341771,-0.399681091,9.042335510,-1.305923462,-0.012989625,0.031108275,0.939179897
68.357108,0.203041077,6.280494690,-0.024185181,-0.010182008,0.027202025,0.935273647
68.395443,-0.826927185,6.852699280,-1.298294067,0.034129515,-0.038471803,0.940888882
68.433734,-0.910850525,9.942604065,-1.824722290,0.024730101,0.014018431,0.947968960
68.463214,1.057533264,6.837440491,-1.557693481,0.008860961,0.058207884,0.965547085
68.477533,2.499488831,4.899574280,-0.336990356,0.000804320,0.062968627,0.966889858
68.515711,4.155067444,1.138282776,1.120223999,0.032298461,0.017192259,0.947968960
68.554013,2.613929749,3.694129944,-3.831253052,0.026927367,0.047465697,0.937104702
68.568298,1.088050842,2.282691956,-3.846511841,0.008738890,0.051738158,0.944550991
68.583629,-0.880332947,-3.668235779,0.052108765,-0.014332399,0.055888548,0.998750210
68.621931,3.453163147,-1.188682556,2.203598022,0.058543578,0.034160033,1.114839077
68.660246,5.726722717,6.043983459,-5.524978638,0.014964476,0.012431517,1.063691616
68.674531,5.192665100,2.717567444,-4.304275513,-0.017750368,-0.006489381,1.057832241
68.689875,5.490211487,-6.727622986,2.661361694,-0.034474000,-0.040424928,1.056489468
68.728182,3.209022522,-10.519432068,6.132736206,0.002391234,-0.129536256,1.035127163
68.781720,-2.764793396,-4.415916443,2.333297729,-0.015919313,-0.028339967,1.027680874
68.796055,-3.245445251,-6.575035095,4.316940308,-0.027760133,0.010600463,1.024262905
68.811400,-0.300498962,-9.298728943,8.375778198,-0.007862672,0.038066283,1.021943569
68.849706,0.042823792,3.419471741,2.417221069,0.078807250,-0.081562623,0.978486538
68.888028,-0.933738708,10.881019592,-2.572402954,0.023509398,-0.003193483,0.973237514
68.902332,0.607398987,8.836341858,-2.724990845,0.015574828,0.008647338,0.964692593
68.917672,0.912574768,2.549720764,-1.122817993,0.000193968,0.007792845,0.937592983
68.955956,-1.605125427,-4.255699158,1.158370972,0.021067992,0.044413939,0.963960171
68.994261,3.384498596,1.985145569,0.136032104,0.064158812,0.055156127,0.996675014
69.008555,5.314735413,10.362220764,-5.158767700,0.105662718,0.056498900,0.970674038
69.023924,4.757789612,14.672828674,-9.774551392,0.096995726,0.056620970,0.955903530
69.062250,0.943092346,6.913734436,-12.986526489,-0.046558961,0.095317259,0.932954311
69.100543,1.477149963,-23.619102478,-3.465042114,-0.096485719,0.074565306,0.961030483
69.114857,0.325111389,-29.646324158,-0.481948853,-0.083668336,0.064921752,0.981660366
69.130221,1.469520569,-34.796165466,3.950729370,-0.038502321,0.050761595,1.037324429
69.168521,6.825355530,-11.953758240,-0.497207642,0.059153929,-0.034931764,1.036836147
69.206860,0.492958069,10.034156799,-6.295547485,-0.000660524,0.067119017,1.069795132
69.221164,3.529457092,10.247779846,-4.762039185,-0.009815797,0.071147338,1.078706264
69.236549,10.533241272,11.888099670,0.151290894,0.027903929,0.017802611,1.064301968
69.274876,2.346900940,18.922401428,-10.140762329,0.008494750,-0.041767702,0.953828335
69.328757,-4.588218689,-10.870384216,4.240646362,-0.061085328,0.034282103,1.056123257
69.343111,-3.764244080,-13.815330505,7.803573608,-0.033619508,0.008281127,1.079316616
69.358478,-1.483055115,-9.664939880,8.429183960,0.054515257,-0.034321412,1.106782436
69.396798,3.651527405,14.611793518,-4.151687622,0.071605101,-0.040791139,1.016450405
69.435137,2.377418518,5.296302795,-1.054153442,-0.045582399,0.058207884,0.905488491
69.449441,2.179054260,-0.463890076,0.853195190,-0.051441774,0.072856322,0.892793179
69.464774,2.255348206,-8.131431580,2.905502319,-0.035572633,0.044413939,0.871186733
69.503079,-3.558250427,-10.351585388,2.546920776,-0.007008180,-0.012592897,0.885346889
69.541396,-5.152793884,-7.872032166,2.821578979,-0.025929078,0.039409056,0.947480679
69.555690,-2.581687927,-7.238792419,5.713119507,-0.011524782,0.072123900,0.979829311
69.571034,-0.331016541,-6.025718689,6.582870483,0.001780882,0.081401244,0.987275600
69.609331,3.247169495,4.899574280,2.119674683,0.031321898,0.024150267,0.947480679
69.647670,1.187232971,5.593849182,3.683700562,0.011546507,0.057719603,0.962983608
69.661955,1.667884827,5.326820374,4.408493042,0.020091429,0.062358275,0.974580288
69.677294,2.484230042,5.776954651,4.698410034,0.039500609,0.033671752,1.002046108
69.715613,0.180152893,8.271766663,3.195419312,0.053294554,0.025493041,1.124726772
69.753915,8.458045959,-0.021385193,2.134933472,0.020213500,0.028788939,1.105439663
69.768211,8.473304749,-3.820823669,3.462448120,0.007396117,0.004863158,1.097383022
69.783569,9.152320862,-9.817527771,8.070602417,0.021312132,-0.008930787,1.089082241
69.821879,10.754493713,2.084327698,3.142013550,0.074534789,-0.086079225,0.968598843
69.860209,-3.916831970,8.515907288,-3.930435181,0.021800414,-0.042622194,0.909638882
69.874496,-10.668846130,-0.227378845,-2.129898071,-0.038502321,0.047343627,0.947602749
69.889853,-11.126609802,-6.933616638,0.631942749,-0.059864625,0.077617064,0.984223843
69.928158,-0.567527771,-21.910118103,10.176315308,0.017283812,0.049662963,1.059785366
69.966473,2.507118225,-3.233360291,0.380172729,0.043528929,-0.027607545,0.960053921
69.980762,-1.360984802,6.448341370,0.410690308,0.019969359,-0.022114381,0.923554897
69.996102,-2.848716736,9.439064026,1.074447632,0.021067992,-0.000141725,0.917817593
70.034424,-2.490135193,13.627601624,-2.641067505,0.029246703,0.029887572,0.930634975
70.072721,-4.206748962,3.030372620,-0.771865845,-0.019581422,0.049662963,0.941010952
70.103891,-1.147361755,-2.981590271,3.866806030,0.039500609,0.068583861,0.978242397
70.118210,0.264076233,-0.723289490,2.073898315,0.063426390,0.061869994,0.978852749
70.156388,-0.552268982,9.271217346,-6.951675415,0.048777953,0.050151244,0.976533413
70.194701,2.293495178,-5.049156189,-6.036148071,-0.029713258,0.107524291,0.991425991
70.226172,6.070045471,-23.405479431,0.265731812,-0.062061891,0.088603392,0.952119350
70.240489,2.522377014,-29.943870544,6.056442261,-0.023121461,0.019877806,0.967744350
70.278681,-1.063438416,-8.825706482,1.967086792,0.107615843,0.023906127,1.086396694
70.316998,3.674415588,11.537147522,-5.479202271,0.102122679,0.065043822,1.085786343
70.331298,7.779029846,19.097877502,-8.118972778,0.085643187,0.035502806,1.043794155
70.346637,7.801918030,20.585609436,-8.591995239,0.070140257,0.013652220,1.012666225
70.384944,-1.483055115,13.001991272,-7.272109985,0.012278929,-0.008442506,0.962861538
70.423249,-13.987632751,-9.642051697,-2.518997192,-0.027027711,-0.007832155,0.999970913
70.437549,-16.047569275,-12.617515564,1.272811890,-0.006275758,0.007182494,1.047090054
70.452895,-12.881370544,-9.825157166,0.799789429,0.081004515,0.030742064,1.134858608
70.491230,2.575782776,7.157875061,-8.866653442,0.043773070,0.020121947,1.047944546
70.529519,0.576881409,-2.050804138,-4.678115845,-0.030323610,0.068705931,0.950288296
70.543831,1.789955139,-5.140708923,-2.465591431,-0.028370485,0.055278197,0.947968960
70.559182,1.950172424,-8.047508240,-0.504837036,-0.007618532,0.011577025,0.938203335
70.597483,-2.070518494,-2.424644470,-2.847061157,0.008860961,0.024760619,0.955781460
70.635775,1.171974182,1.679969788,-1.252517700,-0.004200563,0.064433470,0.954926968
70.650077,2.987770081,3.350807190,0.181808472,0.003367797,0.070414916,0.941377163
70.665404,2.911476135,4.457069397,0.654830933,0.011058226,0.066996947,0.929170132
70.703707,1.400856018,8.782936096,-2.183303833,0.033641234,0.064799681,0.949800014
70.742015,2.713111877,7.127357483,0.189437866,0.030589476,0.068583861,0.931367397
70.756308,1.980690002,5.708290100,0.128402710,0.028270140,0.053325072,0.931733608
70.771649,1.210121155,5.380226135,0.784530640,0.036937132,0.037700072,0.942964077
70.809949,-2.207847595,6.776405334,-0.108108521,0.068187132,0.021464720,1.060883999
70.848259,4.399208069,0.894142151,-2.992019653,0.033152953,0.075541869,1.084565639
70.862551,6.199745178,-3.500389099,-1.855239868,0.009471312,0.078349486,1.071748257
70.877886,10.205177307,-10.275291443,1.646652222,-0.006886110,0.049785033,1.029389858
70.916213,5.597023010,-11.381553650,7.368698120,0.015452757,-0.043964967,0.966157436
70.954509,1.126197815,7.028175354,2.791061401,0.101512328,-0.085957155,0.934052944
70.968829,-6.838890076,18.014503479,-7.172927856,0.081614867,-0.051045045,0.901093960
70.984191,-11.431785583,19.357276917,-9.438858032,0.024852172,-0.011250123,0.903047085
71.022493,-11.805625916,1.390052795,0.914230347,-0.002369508,0.065898314,1.028779507
71.060810,-6.098838806,-5.827354431,-2.900466919,0.026561156,-0.055439577,0.996552944
71.075110,-10.027976990,-4.522727966,-2.084121704,0.023387328,-0.045185670,0.988374233
71.090475,-10.508628845,-3.935264587,-2.572402954,0.023875609,-0.019672975,1.000825405
71.140138,-2.863975525,-12.136863708,-2.137527466,-0.030933961,0.051127806,0.995576382
71.178524,-3.611656189,-22.924827576,3.340377808,-0.029347047,0.021464720,0.976899624
71.192841,-3.329368591,-23.611473083,3.653182983,-0.020680055,0.026347533,0.976899624
71.208199,-1.666160583,-20.468162537,4.156723022,-0.002491578,0.009257689,0.977754116
71.246493,-3.321739197,-4.209922791,-0.382766724,0.010447875,0.052348509,0.978974819
71.284791,1.957801819,1.977516174,0.586166382,-0.017140016,0.045024291,0.948823452
71.299087,1.049903870,1.824928284,1.371994019,-0.013477907,0.024028197,0.955415249
71.314421,0.782875061,1.977516174,3.111495972,-0.005787477,0.009135619,0.983735561
71.352712,3.682044983,9.721351624,8.421554565,0.070506468,-0.022846803,1.043916225
71.391023,2.781776428,26.536537170,1.593246460,0.125804320,0.016215697,1.091035366
71.418165,10.388282776,34.661842346,-3.747329712,0.063426390,0.054911986,1.061372280
71.432477,15.469459534,36.874366760,-1.397476196,0.087352172,-0.005024537,0.962495327
71.470662,1.454261780,43.557716370,-12.437210083,0.096873656,-0.123188600,0.846406460
71.508970,-9.898277283,18.830848694,-11.353836060,-0.029957399,-0.029194459,0.916352749
71.523265,-15.696617126,-8.390830994,-2.175674438,-0.072437868,-0.059834108,0.987031460
71.538649,-17.466636658,-19.522117615,2.852096558,-0.042042360,-0.042255983,1.045381069
71.576952,-6.587120056,-38.488792419,2.165451050,0.041575804,-0.002705202,1.149751186
71.615262,0.439552307,-44.264244080,2.203598022,-0.029224977,0.000590697,0.968842983
71.629554,-1.887413025,-45.942710876,3.889694214,-0.029957399,0.000468627,0.948579311
71.644926,-5.992027283,-44.989036560,6.636276245,-0.007984743,0.003154173,0.956513882
71.683243,-3.398033142,-20.636009216,1.036300659,0.048777953,0.000956908,1.037324429
71.721538,1.782325745,1.496864319,-2.671585083,-0.035938844,0.013286009,0.950288296
71.735845,0.637916565,3.205848694,-0.687942505,-0.044972047,0.007060423,0.929170132
71.751200,-4.618736267,5.776954651,2.287521362,-0.044361696,0.007792845,0.942597866
71.789499,-1.490684509,13.497901917,5.468978882,0.008860961,0.038676634,1.011445522
71.827833,1.889137268,24.591041565,0.326766968,0.030833617,-0.013691530,0.971162319
71.842125,-2.467247009,25.460792542,2.051010132,0.001658812,-0.016255006,0.979585171
71.857508,-4.000755310,25.140357971,4.591598511,0.009227172,-0.006123170,1.004243374
71.895849,1.400856018,29.870582581,3.386154175,0.096019164,0.025737181,1.121186733
71.934162,6.886390686,32.083106995,-2.679214478,0.046580687,-0.061298952,1.031831264
71.948452,3.590492249,30.007911682,-0.611648560,0.043284789,-0.077290162,1.020478725
71.963835,2.728370667,26.483131409,0.212326050,0.076854125,-0.037006959,1.050752163
72.002147,4.650978088,15.168739319,-2.152786255,0.044139281,-0.088642702,1.039033413
72.040457,-4.687400818,-3.942893982,-4.838333130,0.024974242,-0.057148561,0.956391811
72.054734,-6.838890076,-9.611534119,-5.273208618,-0.003834352,-0.028584108,0.973237514
72.070098,-6.281944275,-22.581504822,-0.268325806,-0.032032594,-0.005390748,1.015962124
72.120245,-3.176780701,-32.675193787,-2.335891724,0.018748656,-0.080708131,0.977632046
72.158654,-3.947349548,-23.664878845,-2.381668091,0.022288695,-0.064228639,0.997163296
72.172958,-3.321739197,-20.063804626,-3.190383911,0.018382445,-0.051655397,0.991303921
72.188291,-2.398582458,-14.089988708,-5.105361938,0.002147093,-0.034321412,0.960664272
72.226621,-4.130455017,-7.322715759,-4.800186157,-0.010548219,-0.029316530,0.947846889
72.264907,-4.252525330,-0.685142517,-4.578933716,-0.011646852,-0.001362428,0.996186733
72.279214,-0.376792908,3.335548401,-4.670486450,-0.008961305,0.003764525,0.984101772
72.294544,0.454811096,6.127906799,-4.655227661,-0.001392946,-0.004536256,0.966889858
72.332869,-3.085227966,13.940406799,-8.836135864,0.007518187,0.009745970,0.952485561
72.371163,-1.963706970,0.894142151,-6.066665649,-0.058888063,0.021342650,0.952485561
72.385456,-2.467247009,-4.087852478,-2.709732056,-0.054127321,0.014506713,0.958100796
72.400785,-2.802940369,-8.543418884,1.661911011,-0.006275758,-0.001484498,0.988740444
72.439100,-4.489036560,3.778053284,-6.318435669,0.066844359,-0.105488405,1.030976772
72.477419,-1.643272400,9.172035217,-9.316787720,0.016551390,-0.045307741,1.044892788
72.491712,-0.979515076,8.431983948,-7.645950317,0.020579711,-0.047505006,1.045014858
72.507066,-0.231834412,8.676124573,-8.210525513,0.056224242,-0.072041139,1.043305874
72.545369,-1.315208435,9.271217346,-11.666641235,0.034373656,-0.073017702,1.042695522
72.583676,-3.077598572,2.267433167,-12.040481567,0.022532836,-0.084858522,0.994477749
72.597975,-6.098838806,-3.485130310,-9.179458618,0.006419554,-0.093281373,1.001557827
72.613303,-6.816001892,-5.056785583,-6.745681763,0.025096312,-0.091450319,1.014497280
72.651634,-5.053611755,8.164955139,-15.832290649,0.075755492,-0.085590944,1.049653530
72.689943,-2.543540955,-1.943992615,-15.656814575,-0.064869508,-0.045063600,0.972016811
72.717487,-4.931541443,-24.641441345,-5.334243774,-0.091236696,-0.039204225,0.939301968
72.731823,-5.824180603,-30.561851501,-3.030166626,-0.083057985,-0.040791139,0.939179897
72.770041,-6.655784607,-32.720970154,0.540390015,-0.008228883,-0.085590944,0.993134975
72.808347,-4.191490173,-15.364097595,-1.832351685,-0.029347047,-0.035908327,0.974702358
72.822651,-3.275962830,-10.946678162,-0.634536743,-0.031056032,-0.031269655,0.966279507
72.838038,-2.993675232,-1.028465271,0.097885132,-0.006031618,-0.029316530,0.960053921
72.876340,-2.329917908,18.670631409,-3.991470337,0.010692015,-0.047382936,0.973725796
72.914660,-2.528282166,28.047157288,-4.800186157,0.015330687,-0.034809694,0.976045132
72.928957,-2.604576111,29.008460999,-5.174026489,0.020457640,-0.036396608,0.981904507
72.944329,-2.886863708,29.008460999,-5.509719849,0.005442992,-0.052387819,0.997285366
72.982653,-1.643272400,25.979591370,-3.358230591,0.022410765,-0.061298952,1.036592007
73.020955,-0.399681091,20.745826721,-4.693374634,0.025584593,-0.095722780,1.038911343
73.035246,-1.834007263,16.648841858,-6.173477173,0.029490843,-0.074360475,1.052583218
73.050627,-1.360984802,13.650489807,-7.592544556,0.018260375,-0.060688600,1.058320522
73.102258,2.186683655,-3.508018494,-2.152786255,0.009837523,-0.075703248,1.060883999
73.140659,1.065162659,4.991127014,-4.861221313,0.045848265,-0.128071412,1.057343960
73.154952,0.317481995,14.932228088,-8.416519165,0.073558226,-0.140888795,1.067353725
73.170293,-0.384422302,18.579078674,-11.308059692,0.070872679,-0.147846803,1.061372280
73.208636,0.973609924,9.591651917,-13.902053833,-0.043751344,-0.075337037,1.024751186
73.246932,-2.276512146,-17.416404724,-6.738052368,-0.041554078,-0.171528444,0.985566616
73.261225,-3.825279236,-20.384239197,-6.287918091,-0.030567750,-0.177631959,0.997285366
73.276581,-4.557701111,-23.024009705,-8.004531860,-0.022999391,-0.150654420,1.028657436
73.314883,-0.956626892,-18.942283630,-8.424148560,-0.011890993,-0.131245241,1.034638882
73.353210,1.347450256,-2.180503845,-13.306961060,0.003367797,-0.123066530,1.000703335
73.367487,1.599220276,2.465797424,-14.184341431,0.002879515,-0.122334108,0.992402554
73.382846,2.400306702,9.355140686,-16.122207642,0.002513304,-0.126362428,0.970185757
73.421164,2.430824280,12.399269104,-16.351089478,-0.013722047,-0.136738405,0.935517788
73.459461,0.668434143,14.360023499,-17.739639282,0.010692015,-0.137592897,0.927583218
73.473762,0.531105042,17.938209534,-20.104751587,0.028026000,-0.136005983,0.934052944
73.489138,0.836280823,19.815040588,-22.179946899,0.031810179,-0.139179811,0.929414272
73.527446,-2.772422791,19.738746643,-26.223526001,-0.016163453,-0.125141725,0.932832241
73.565725,-3.794761658,7.058692932,-25.742874146,-0.007374391,-0.104878053,0.986054897
73.580025,-2.490135193,3.587318420,-28.909072876,-0.000050172,-0.125630006,0.985810757
73.595385,-2.909751892,3.503395081,-30.572280884,-0.008228883,-0.124287233,0.985444546
73.633676,-4.496665955,-2.462791443,-32.014236450,-0.064747438,-0.102192506,0.996552944
73.671946,-3.153892517,-6.582664490,-31.876907349,-0.029957399,-0.121235475,1.023530483
73.686250,-3.748985291,-5.773948669,-33.540115356,-0.030933961,-0.126240358,1.030732632
73.701610,-4.511924744,-4.568504333,-36.263809204,-0.056690797,-0.124043092,1.060395718
73.739912,-0.033470154,-7.536338806,-36.446914673,-0.064137086,-0.106464967,1.058686733
73.778222,-0.445457458,-7.803367615,-37.057266235,-0.067555055,-0.105000123,1.049409389
73.792517,0.729469299,-5.934165955,-36.523208618,-0.062306032,-0.106220827,1.062715054
73.807863,1.019386292,-3.889488220,-36.691055298,-0.051563844,-0.098530397,1.061494350
73.846168,2.797035217,6.799293518,-38.613662720,-0.022511110,-0.111469850,1.012910366
73.884458,-1.811119080,10.667396545,-40.040359497,-0.045826539,-0.044453248,1.008149624
73.898762,0.859169006,10.842872620,-37.225112915,-0.026295289,-0.043842897,0.985932827
73.914127,0.622657776,12.460304260,-36.836013794,-0.002369508,-0.082783327,0.948701382
73.952448,-13.575645447,23.721290588,-46.632156372,-0.000538453,-0.121235475,0.952241421
74.004306,-7.884117126,-3.439353943,-42.069778442,-0.117970094,-0.062397584,1.038545132
74.033594,-3.657432556,-18.186973572,-36.233291626,-0.085865602,-0.081928834,1.039155483
74.047928,-1.864524841,-19.239830017,-36.675796509,-0.066578493,-0.080830202,1.039033413
74.086106,1.728919983,-10.244773865,-37.766799927,-0.044972047,-0.079975709,1.011445522
74.124426,-2.818199158,4.952980042,-41.200027466,-0.076466188,-0.089497194,0.995210171
74.138716,-3.153892517,4.418922424,-39.689407349,-0.106739625,-0.059223756,1.036958218
74.154053,-1.895042419,2.099586487,-38.194046021,-0.113575563,-0.038715944,1.062348843
74.192363,7.573036194,-0.494407654,-32.594070435,-0.086109743,-0.052143678,1.026704311
74.230648,3.552345276,11.972023010,-34.501419067,-0.032520875,-0.074604616,0.988740444
74.244951,3.422645569,14.916969299,-36.187515259,-0.022022828,-0.071552858,0.988984585
74.260282,3.674415588,18.792701721,-38.895950317,-0.027638063,-0.059589967,0.992890835
74.298618,3.712562561,11.956764221,-38.987503052,-0.068531618,-0.064106569,0.975800991
74.336906,3.315834045,-5.552696228,-38.308486938,-0.065479860,-0.077900514,0.985444546
74.351217,3.247169495,-7.910179138,-37.820205688,-0.068531618,-0.086811647,0.988984585
74.366569,1.980690002,-7.757591248,-37.988052368,-0.042164430,-0.115254030,0.994843960
74.404874,0.347999573,-1.638816833,-44.770584106,-0.058643922,-0.094013795,1.040498257
74.443152,2.453712463,-5.270408630,-43.298110962,-0.123219118,-0.123554811,1.013276577
74.457446,0.729469299,-7.780479431,-40.337905884,-0.126515016,-0.115009889,0.995942593
74.472775,-1.742454529,-8.032249451,-40.116653442,-0.124195680,-0.114399537,1.005952358
74.511099,-2.505393982,-5.407737732,-39.582595825,-0.132008180,-0.095844850,1.023774624
74.549410,-8.807273865,-2.844261169,-36.324844360,-0.155933961,-0.053364381,1.006684780
74.563713,-8.952232361,-2.211021423,-34.661636353,-0.147999391,-0.034809694,1.040132046
74.579055,-4.084678650,1.580787659,-30.633316040,-0.121510133,-0.008198366,1.107758999
74.617369,8.290199280,27.780128479,-31.457290649,0.018138304,-0.074604616,1.083100796
74.655665,6.649879456,51.141334534,-44.022903442,-0.034962282,-0.130756959,0.976899624
74.669967,4.689125061,48.165870667,-44.732437134,-0.065724000,-0.113667116,0.967011929
74.685298,2.423194885,32.022071838,-42.962417603,-0.139576539,-0.071796998,0.948213100
74.723651,1.202491760,-17.240928650,-29.588088989,-0.163990602,-0.056782350,0.916596889
74.761929,-2.139183044,-37.352012634,-24.224624634,-0.116993532,-0.086811647,0.936494350
74.776231,-2.131553650,-38.099693298,-24.232254028,-0.093556032,-0.074848756,0.963838100
74.791584,-1.368614197,-34.819053650,-24.598464966,-0.085987672,-0.068867311,0.973725796
74.829895,1.721290588,-9.016441345,-31.007156372,-0.069508180,-0.098164186,0.936860561
74.868188,-2.375694275,14.344764709,-33.395156860,-0.074635133,-0.061176881,1.004487514
74.882482,0.874427795,20.928932190,-35.073623657,-0.070728883,-0.041035280,1.007050991
74.897830,2.957252502,22.637916565,-36.172256470,-0.061329469,-0.026386842,0.987031460
74.950048,-3.680320740,22.241188049,-35.706863403,-0.041676149,-0.037373170,0.993134975
74.988455,4.368690491,11.117530823,-36.126480103,-0.078907594,-0.002461061,1.057221889
75.002758,9.983924866,1.176429749,-33.341751099,-0.052784547,-0.063984498,1.003999233
75.018123,4.933265686,-4.904197693,-33.738479614,-0.078175172,-0.118794069,0.969697475
75.056456,3.743080139,-30.996726990,-27.383193970,-0.153614625,-0.005756959,0.985810757
75.094748,-6.602378845,-34.277366638,-21.859512329,-0.033375368,-0.013691530,1.017793179
75.109057,-6.381126404,-28.387474060,-22.889480591,-0.022511110,0.003642455,1.044038296
75.124407,-3.222557068,-11.198448181,-25.979385376,-0.003590211,0.000956908,1.060029507
75.162711,-3.962608337,22.378517151,-31.510696411,0.034617797,-0.051899537,1.017304897
75.201029,-5.175682068,28.321815491,-36.424026489,-0.050831422,0.024516478,1.057832241
75.215332,-4.099937439,22.882057190,-35.401687622,-0.067799196,0.046977416,1.053559780
75.230661,0.965980530,6.959510803,-29.908523560,-0.095753297,0.071635619,1.033174038
75.284155,-1.162620544,-25.206016541,-21.493301392,-0.054859743,-0.016132936,0.993623257
75.322518,3.331092834,-26.853965759,-22.828445435,-0.032154664,0.053203002,1.021455288
75.336835,4.490760803,-25.206016541,-23.194656372,-0.024952516,0.035502806,1.003388882
75.352188,1.858619690,-20.399497986,-25.109634399,-0.022144899,-0.000630006,0.989472866
75.390479,0.836280823,-15.356468201,-27.436599731,-0.064869508,0.043071166,1.012422085
75.428766,2.430824280,-14.601158142,-23.713455200,-0.046925172,0.058207884,1.016572475
75.443070,3.842262268,-12.281822205,-23.782119751,-0.034718141,0.055156127,1.010591030
75.458418,4.773048401,-8.879112244,-24.842605591,-0.024952516,0.038432494,1.005586147
75.496718,-0.399681091,4.342628479,-27.055130005,-0.023853883,-0.011982545,1.007661343
75.535032,1.652626038,1.382423401,-28.306350708,-0.057545289,0.013896361,1.041963100
75.549337,4.605201721,-2.798484802,-25.147781372,-0.083668336,0.001933470,1.027925014
75.564669,5.101112366,-4.797386169,-22.981033325,-0.080860719,-0.026508912,1.007905483
75.602984,-5.496116638,-9.985374451,-25.483474731,-0.041920289,-0.036274537,1.041841030
75.641254,6.405738831,-12.899803162,-18.739089966,-0.072926149,-0.009174928,1.049897671
75.655553,6.390480042,-12.037681580,-18.548355103,-0.064015016,-0.037739381,1.029145718
75.670912,0.103858948,-8.108543396,-16.587600708,-0.048756227,-0.046772584,1.039887905
75.709243,3.849891663,2.481056213,-17.861709595,0.003611937,0.001078978,1.079316616
75.747516,2.644447327,12.536598206,-21.531448364,-0.019215211,-0.042866334,0.973969936
75.761836,1.187232971,13.001991272,-21.058425903,-0.028004274,-0.036640748,0.968598843
75.792724,1.538185120,14.283729553,-18.861160278,0.001048461,-0.045429811,0.983735561
75.831159,1.042274475,13.429237366,-23.728713989,-0.031788453,-0.077412233,0.986054897
75.869454,2.156166077,-11.328147888,-18.082962036,-0.097950563,-0.045429811,0.958589077
75.883753,1.774696350,-18.385337830,-16.023025513,-0.110401735,-0.045918092,0.937715054
75.899090,-0.971885681,-30.661033630,-11.468276978,-0.114918336,-0.043232545,0.918916225
75.937446,-5.412193298,-37.207054138,-5.822525024,-0.062550172,0.006328002,0.968965054
75.975739,-2.368064880,-22.467063904,-12.704238892,-0.073658571,0.007426634,0.956513882
75.990047,-2.818199158,-19.651817322,-11.124954224,-0.091358766,0.015239134,0.946259975
76.005390,-3.489585876,-13.708518982,-8.088455200,-0.079517946,0.027079955,0.934541225
76.043712,-6.434532166,0.573707581,-7.119522095,-0.052296266,-0.000385866,0.973237514
76.082030,-4.031272888,24.461341858,-8.218154907,-0.037891969,0.006694213,1.001924038
76.096330,-2.139183044,29.008460999,-10.003433228,-0.027027711,-0.008198366,0.997285366
76.111678,-2.009483337,29.191566467,-10.865554810,-0.039845094,-0.028095827,0.994966030
76.150051,-4.763694763,20.715309143,-5.914077759,-0.043507203,-0.008320436,1.056977749
76.188348,2.583412170,6.364418030,-4.586563110,-0.037891969,-0.004292116,1.069550991
76.202644,3.750709534,3.144813538,-3.854141235,-0.028614625,-0.018574342,1.059663296
76.218014,2.758888245,-0.822471619,-3.785476685,-0.012989625,-0.056660280,1.050996304
76.272176,3.521827698,0.352455139,-4.792556763,0.011180297,-0.031147584,1.126801968
76.310570,10.373023987,2.450538635,-8.363113403,0.011058226,-0.099629030,1.017060757
76.324870,5.131629944,-1.211570740,-7.531509399,-0.023121461,-0.126362428,0.954682827
76.340225,1.484779358,-3.775047302,-7.249221802,-0.038502321,-0.116963014,0.948091030
76.378520,-5.168052673,-21.727012634,-4.388198853,-0.085743532,-0.013081178,0.993134975
76.416845,1.469520569,-28.753684998,1.532211304,-0.030811891,-0.077656373,0.976411343
76.431133,-0.392051697,-25.099205017,1.547470093,-0.018726930,-0.092915162,0.974092007
76.446489,-1.147361755,-13.731407166,0.250473022,-0.000294313,-0.057636842,0.982148647
76.484830,2.690223694,9.469581604,-1.572952271,-0.002613649,-0.058369264,0.980561733
76.523120,0.729469299,25.186134338,-1.633987427,0.023753539,-0.097920045,0.909272671
76.537421,-1.986595154,29.557777405,-2.747879028,0.034984007,-0.102802858,0.910005093
76.568915,-7.136436462,39.033485413,-8.035049438,0.044871703,-0.076801881,0.988374233
76.607288,1.927284241,36.668373108,-6.753311157,0.011668578,-0.029438600,1.011201382
76.656872,0.508216858,17.190528870,-9.507522583,-0.019703493,-0.081928834,0.934907436
76.671208,-0.132652283,10.064674377,-7.905349731,-0.041065797,-0.061909303,0.933564663
76.686580,0.454811096,-6.323265076,-3.388748169,-0.063526735,-0.035664186,0.927461147
76.724891,-2.474876404,-29.814170837,1.036300659,-0.037281618,-0.047382936,0.929292202
76.763213,-4.115196228,-36.718772888,3.470077515,-0.023243532,-0.053364381,1.001191616
76.777498,-2.932640076,-36.535667419,3.065719604,-0.019581422,-0.049091920,1.016450405
76.792836,-0.887962341,-34.994529724,1.341476440,-0.025440797,-0.058613405,1.029267788
76.831166,0.897315979,-25.549339294,4.660263062,-0.028248414,-0.121113405,1.046967983
76.869445,0.744728088,0.436378479,1.661911011,0.086741820,-0.164204225,1.067353725
76.883729,-0.552268982,20.501686096,-5.273208618,0.068187132,-0.194111452,1.054658413
76.899092,-1.208396912,27.795387268,-7.874832153,0.059276000,-0.191059694,1.051484585
76.937457,-4.077049255,30.953956604,-11.041030884,-0.043873414,-0.123432741,1.053925991
76.975770,0.142005920,-0.219749451,-0.298843384,-0.072437868,-0.087544069,1.055268764
76.990056,1.973060608,-8.642601013,0.898971558,-0.027393922,-0.124531373,1.053681850
77.005390,2.148536682,-8.436607361,0.067367554,-0.016651735,-0.138081178,1.048432827
77.043709,2.865699768,-2.767967224,-6.448135376,-0.045948610,-0.119648561,1.009614468
77.082029,0.637916565,-10.679649353,-1.283035278,-0.078663453,-0.091328248,0.971772671
77.096329,-0.247093201,-11.785911560,-0.123367310,-0.065479860,-0.089985475,0.968842983
77.111657,-2.863975525,-10.420249939,-1.038894653,-0.042896852,-0.084858522,0.984223843
77.149962,1.942543030,0.817848206,-4.769668579,-0.022999391,-0.075581178,0.982758999
77.188233,0.668434143,9.095741272,-6.501541138,-0.026661500,-0.100849733,0.928437710
77.202512,-2.207847595,13.337684631,-7.577285767,-0.020680055,-0.103657350,0.928193569
77.217851,-2.848716736,14.703346252,-8.721694946,-0.018971071,-0.097920045,0.942231655
77.256172,-3.024192810,10.881019592,-9.751663208,-0.044361696,-0.095966920,0.953462124
77.294445,-3.695579529,0.207496643,-8.050308228,-0.026051149,-0.088886842,1.006806850
77.308729,-1.299949646,-2.638267517,-8.523330688,-0.008839235,-0.104267702,1.003266811
77.324072,-0.758262634,-3.065513611,-9.263381958,-0.000538453,-0.111958131,0.999970913
77.362388,-2.261253357,0.848365784,-10.369644165,0.005687132,-0.128437623,0.991303921
77.400673,-3.466697693,12.307716370,-15.740737915,0.047313109,-0.131977662,1.040376186
77.414976,-3.886314392,15.359474182,-18.067703247,0.051707640,-0.125630006,1.054414272
77.430315,-3.466697693,20.173622131,-20.478591919,0.041819945,-0.106464967,1.096162319
77.480299,4.750160217,24.880958557,-28.123245239,0.029124632,-0.175800905,1.074800014
77.518682,2.339271545,0.444007874,-24.148330688,-0.077442750,-0.132465944,1.016084194
77.533000,1.667884827,-7.139610291,-22.988662720,-0.082691774,-0.126972780,1.004121304
77.548329,-0.491233826,-20.697044373,-20.089492798,-0.091480836,-0.117329225,1.000459194
77.586672,1.057533264,-34.552024841,-16.900405884,-0.071461305,-0.132099733,0.949922085
77.624992,-4.504295349,-28.677391052,-15.527114868,-0.045338258,-0.128681764,0.940400600
77.639290,-5.908103943,-18.820213318,-15.824661255,-0.035084352,-0.114155397,0.984834194
77.654622,-5.282493591,-11.404441833,-17.457351685,-0.018116578,-0.101338014,1.002168179
77.692928,-4.054161072,11.689735413,-22.828445435,-0.038624391,-0.109516725,0.967378139
77.731233,-5.488487244,11.521888733,-21.455154419,-0.055714235,-0.072285280,0.996430874
77.745519,-1.719566345,8.401466370,-19.929275513,-0.046070680,-0.085468873,0.992158413
77.760878,-0.735374451,7.386756897,-19.585952759,-0.036182985,-0.117329225,0.974946499
77.799197,-3.489585876,4.617286682,-21.958694458,-0.046925172,-0.085957155,1.009248257
77.837464,1.461891174,-12.014793396,-20.028457642,-0.083790407,-0.109394655,1.000825405
77.864776,1.393226624,-20.834373474,-15.626296997,-0.104908571,-0.105122194,1.001557827
77.879115,1.629737854,-20.903038025,-13.863906860,-0.084644899,-0.087421998,1.003144741
77.917329,1.873878479,0.253273010,-18.983230591,-0.008961305,-0.133076295,1.045991421
77.955647,1.843360901,27.864051819,-27.879104614,-0.056690797,-0.119160280,0.998994350
77.969948,1.225379944,28.146339417,-27.062759399,-0.081715211,-0.104389772,0.988252163
77.985312,0.370887756,22.134376526,-23.621902466,-0.100758180,-0.084492311,0.978364468
78.023658,-2.085777283,14.215065002,-18.845901489,-0.071217164,-0.082417116,0.994233608
78.061955,-1.162620544,21.112037659,-22.088394165,-0.019947633,-0.108173952,1.034150600
78.076251,-1.002403259,23.454261780,-26.322708130,-0.015186891,-0.099140748,1.053071499
78.091620,1.706031799,22.935462952,-27.772293091,-0.028614625,-0.095478639,1.053925991
78.129948,3.247169495,9.446693420,-26.757583618,-0.078419313,-0.116718873,0.988496304
78.168242,2.255348206,-12.754844666,-27.467117310,-0.068531618,-0.134419069,0.982392788
78.182534,1.622108459,-17.935203552,-28.001174927,-0.069264039,-0.151875123,0.976655483
78.197877,-0.399681091,-24.099754333,-28.748855591,-0.089649782,-0.108662233,0.992280483
78.236209,3.880409241,-28.883384705,-31.136856079,-0.083668336,-0.088886842,0.989961147
78.274493,1.355079651,-23.565696716,-35.355911255,-0.091602907,-0.218037233,0.955293179
78.302008,0.248817444,-14.784263611,-33.601150513,-0.078053102,-0.120136842,1.008271694
78.316346,1.545814514,-10.511802673,-34.303054810,-0.074390993,-0.104267702,1.015229702
78.354539,-1.246543884,15.916419983,-39.712295532,-0.031178102,-0.117451295,0.978364468
78.392859,-1.612754822,45.060707092,-42.764053345,-0.007740602,-0.052754030,1.041841030
78.407151,-1.368614197,50.889564514,-45.480117798,0.015086547,-0.048603639,1.040986538
78.422502,0.195411682,58.923316956,-51.125869751,0.007640257,-0.026630983,1.040864468
78.460886,0.759986877,55.642677307,-51.637039185,-0.050465211,-0.050312623,0.999238491
78.499202,-5.221458435,34.822059631,-47.395095825,-0.036671266,-0.086445436,0.998506069
78.513503,-5.808921814,21.653724670,-50.660476685,-0.048634157,-0.067646608,1.033296108
78.528874,-3.237815857,13.177467346,-49.905166626,-0.070850953,-0.055927858,1.041352749
78.567219,1.652626038,-27.410911560,-42.443618774,-0.124317750,-0.042133912,0.971650600
78.605520,-4.725547791,-58.500694275,-34.242019653,-0.112232789,-0.035542116,1.003144741
78.619832,-5.313011169,-61.582969666,-32.441482544,-0.097950563,-0.019917116,1.019135952
78.635190,-4.328819275,-60.766624451,-33.334121704,-0.059132203,-0.010883912,1.052094936
78.673500,-0.636192322,-40.304588318,-38.918838501,-0.078419313,-0.014790162,1.057221889
78.711840,4.002479553,-21.795677185,-35.088882446,-0.111866578,0.003032103,1.001679897
78.726128,4.544166565,-16.111778259,-34.325942993,-0.105274782,0.003764525,0.979951382
78.741476,4.422096252,-1.593040466,-34.226760864,-0.082447633,-0.015766725,0.944428921
78.779812,-0.048728943,28.970314026,-38.865432739,-0.067677125,-0.063862428,0.915376186
78.818116,-2.085777283,35.890174866,-39.849624634,-0.084644899,-0.044331178,0.943696499
78.832428,-2.863975525,34.883094788,-38.354263306,-0.077808961,-0.024189577,0.990449429
78.847792,-1.772972107,33.807350159,-37.812576294,-0.068043336,-0.005879030,1.014741421
78.886153,3.994850159,28.939796448,-38.552627563,-0.031300172,-0.032368287,1.019502163
78.924460,-1.185508728,22.019935608,-41.108474731,-0.015308961,-0.077290162,1.036347866
78.938763,-1.460166931,17.503334045,-41.367874146,-0.022266969,-0.063740358,1.089570522
78.954128,-0.399681091,14.611793518,-41.055068970,-0.019093141,-0.048237428,1.112397671
78.992470,10.922340393,6.967140198,-43.977127075,0.009471312,-0.051777467,1.133759975
79.030757,7.962135315,3.152442932,-47.135696411,-0.051075563,-0.171528444,1.013032436
79.045057,5.185035706,1.046730042,-47.288284302,-0.060230836,-0.181538209,1.013642788
79.060407,2.377418518,-6.285118103,-47.036514282,-0.093311891,-0.159931764,1.053193569
79.112038,8.847145081,-30.119346619,-38.018569946,-0.112476930,-0.109638795,1.051728725
79.164002,8.175758362,-21.467613220,-41.512832642,-0.074146852,-0.117329225,1.004365444
79.178330,7.000831604,-12.014793396,-41.909561157,-0.089405641,-0.080586061,1.015351772
79.193674,8.053688049,-7.498191833,-41.360244751,-0.089893922,-0.088886842,1.022920132
79.232040,7.717994690,4.029823303,-40.307388306,-0.063038453,-0.060810670,0.998139858
79.270329,4.399208069,13.360572815,-42.939529419,-0.049976930,-0.066792116,0.981294155
79.284633,4.696754456,14.825416565,-43.549880981,-0.049122438,-0.046406373,0.975190639
79.300011,6.703285217,16.892982483,-45.167312622,-0.051319703,-0.052998170,0.961396694
79.338356,5.421546936,12.483192444,-47.524795532,-0.089283571,-0.065449342,0.936006069
79.376647,5.085853577,-4.766868591,-43.923721313,-0.111622438,-0.012226686,0.997285366
79.390955,6.985572815,-9.199546814,-43.954238892,-0.107716188,-0.013081178,1.004121304
79.406301,8.107093811,-14.677452087,-43.420181274,-0.101856813,-0.034931764,0.964814663
79.444667,4.429725647,-18.171714783,-44.396743774,-0.113697633,-0.057270631,0.952973843
79.482950,0.073341370,-24.206565857,-43.702468872,-0.151661500,-0.021748170,1.008393764
79.497256,3.621009827,-29.417442322,-40.841445923,-0.168140993,-0.017231569,1.009614468
79.512606,4.261878967,-31.744407654,-38.827285767,-0.170826539,-0.014668092,0.999482632
79.550956,0.561622620,-26.777671814,-35.790786743,-0.113697633,-0.024799928,0.957978725
79.589255,-1.040550232,2.732826233,-40.818557739,-0.082691774,-0.023213014,0.935151577
79.603558,-3.031822205,9.034706116,-41.520462036,-0.089649782,-0.025898561,0.922212124
79.618904,-6.625267029,15.512062073,-41.779861450,-0.101368532,-0.014179811,0.935761929
79.657275,-9.600730896,22.157264709,-38.667068481,-0.068653688,-0.063130006,1.001191616
79.695590,-7.006736755,42.207313538,-43.298110962,-0.008839235,-0.030293092,1.051362514
79.709902,-6.136985779,47.074867249,-45.075759888,-0.010548219,-0.033588991,1.035127163
79.725263,-5.923362732,51.026893616,-47.692642212,-0.043140993,-0.040669069,1.014497280
79.763610,-8.692832947,22.225929260,-44.267044067,-0.167530641,-0.007221803,1.049531460
79.801902,0.630287170,-20.857261658,-26.887283325,-0.186329469,0.029155150,1.039765835
79.816225,2.591041565,-38.618492126,-19.326553345,-0.146168336,-0.013935670,0.972871304
79.831590,-1.391502380,-43.501304626,-18.403396606,-0.115772828,-0.067280397,0.960908413
79.883721,1.934913635,-29.905723572,-17.739639282,-0.088184938,0.044780150,1.126924038
79.922127,9.465126038,-17.912315369,-15.122756958,-0.086842164,-0.052021608,1.018891811
79.936446,-2.131553650,-6.941246033,-14.504776001,-0.058888063,-0.062763795,1.028047085
79.951777,-3.115745544,-0.700401306,-15.260086060,-0.045582399,-0.006611452,1.062104702
79.990130,9.854225159,20.135475159,-17.526016235,-0.024952516,0.030253783,1.082978725
80.028444,3.033546448,26.376319885,-19.555435181,-0.047413453,-0.065937623,0.963105679
80.042741,0.943092346,19.357276917,-19.608840942,-0.083180055,-0.020649537,1.004975796
80.058090,2.118019104,13.902259827,-17.526016235,-0.092701539,-0.010639772,1.024018764
80.096443,10.678199768,-8.947776794,-13.360366821,-0.091358766,-0.008930787,0.981904507
80.134717,1.141456604,-17.042564392,-10.865554810,-0.079762086,-0.017841920,0.989961147
80.149022,0.500587463,-16.569541931,-11.124954224,-0.077198610,0.002055541,1.014985561
80.164367,2.270606995,-14.173912048,-11.079177856,-0.085377321,0.036235228,1.030854702
80.202698,4.902748108,-13.327049255,-8.279190063,-0.132008180,-0.049458131,0.946382046
80.241004,2.873329163,-22.497581482,0.601425171,-0.153126344,-0.009785280,0.969941616
80.255303,4.750160217,-23.046897888,2.821578979,-0.139088258,-0.000996217,0.963105679
80.270630,7.992652893,-17.218040466,4.774703979,-0.085621461,-0.023213014,0.931123257
80.308957,-1.834007263,4.312110901,0.464096069,-0.012623414,-0.086811647,0.945527554
80.347241,-0.559898376,27.055335999,-6.303176880,-0.014088258,0.015727416,1.051362514
80.361526,4.269508362,29.573036194,-7.050857544,-0.030445680,0.032206908,1.034516811
80.376876,6.390480042,28.230262756,-6.883010864,-0.041309938,0.012431517,1.011079311
80.429187,-0.811668396,7.318092346,-4.151687622,-0.074390993,-0.046894655,1.001313686
80.467527,4.055885315,-15.875267029,1.196517944,-0.079029664,-0.028584108,0.995210171
80.481854,1.118568420,-20.712303162,1.806869507,-0.059620485,-0.049946412,0.987519741
80.497207,0.523475647,-21.139549255,1.158370972,-0.052662477,-0.045429811,0.997529507
80.535524,2.201942444,-19.636558533,0.288619995,-0.067188844,-0.014912233,1.007783413
