time,gyro x,gyro y,gyro z,accel x,accel y,accel z
26.868178,2.285865784,11.323524475,0.563278198,-0.035572633,0.012919798,0.993501186
26.906678,-0.063987732,-1.470970154,-0.054702759,-0.049976930,0.001201048,0.995942593
26.920935,-0.109764099,-4.560874939,0.090255737,-0.057911500,0.008525267,1.005586147
26.936311,-0.018211365,-4.827903748,0.456466675,-0.060597047,0.008525267,1.002168179
26.974590,0.378517151,-4.850791931,0.197067261,-0.055103883,0.007792845,1.011689663
27.012878,0.355628967,-10.389732361,1.166000366,-0.040211305,0.011821166,1.007417202
27.027136,0.508216858,-12.609886169,1.181259155,-0.038990602,0.016459838,0.998261929
27.042497,-0.681968689,-15.631126404,0.822677612,-0.045826539,0.003886595,0.996797085
27.080779,-0.071617126,-13.632225037,0.929489136,-0.044849977,0.011210814,1.001801968
27.119076,-1.429649353,-10.221885681,0.410690308,-0.040089235,0.005717650,1.009614468
27.133347,0.088600159,-9.169029236,0.853195190,-0.029835328,0.006694213,0.998994350
27.148690,-0.178428650,-9.237693787,0.776901245,-0.020802125,-0.000263795,0.998750210
27.186951,-0.582786560,-11.351036072,1.059188843,-0.022877321,0.011821166,1.018037319
27.225232,-1.727195740,-7.460044861,0.624313354,-0.032032594,0.001933470,0.995942593
27.239497,-1.872154236,-4.942344666,0.349655151,-0.025562868,0.011699095,1.007783413
27.254846,-1.391502380,-3.981040955,0.296249390,-0.017872438,-0.003437623,1.009858608
27.293105,-4.939170837,-4.171775818,0.586166382,0.010203734,-0.011494264,0.998017788
27.331420,-3.512474060,-15.516685486,1.043930054,0.044017211,-0.018086061,1.023408413
27.345692,-4.420372009,-18.354820251,1.059188843,0.040843382,0.002299681,0.960420132
27.361051,-4.489036560,-26.899742126,1.806869507,0.025950804,0.014750853,0.985688686
27.399322,1.530555725,-29.081748962,1.318588257,-0.021046266,0.035746947,0.955049038
27.437617,6.344703674,-14.334129333,-0.207290649,-0.030811891,-0.003925905,0.962007046
27.451897,0.592140198,-1.318382263,0.342025757,-0.032520875,-0.050312623,1.009614468
27.467237,-1.154991150,5.349708557,0.845565796,-0.032642946,-0.011860475,1.000337124
27.505500,2.491859436,23.255897522,-1.664505005,0.013377562,0.005717650,0.969087124
27.543790,-0.300498962,30.953956604,-1.756057739,0.011424437,0.009257689,1.003877163
27.558075,1.416114807,30.557228088,-2.534255981,0.007274047,0.006572142,1.006684780
27.573418,1.713661194,29.840065002,-2.412185669,0.008983031,0.001323119,0.989594936
27.611693,-0.109764099,20.967079163,-1.542434692,0.010569945,0.001811400,1.001069546
27.650002,0.416664124,7.348609924,-0.520095825,0.010814086,-0.004047975,0.986787319
27.664271,-0.132652283,3.648353577,-0.413284302,0.008372679,-0.005146608,0.992646694
27.679607,-0.315757751,-3.874229431,-0.138626099,0.001902953,-0.001484498,0.999848843
27.717874,-0.529380798,-10.954307556,0.784530640,-0.012867555,0.002543822,1.006318569
27.756158,-0.743003845,-12.129234314,0.754013062,-0.023243532,0.001567259,1.004975796
27.787079,-0.056358337,-9.581016541,0.586166382,-0.022999391,0.002299681,1.003755093
27.801407,0.172523499,-8.451866150,0.456466675,-0.025318727,-0.000752077,1.005097866
27.839573,-0.216575623,-2.317832947,0.174179077,-0.023975953,-0.000874147,1.004487514
27.877847,0.462440491,3.579689026,-0.108108521,-0.012135133,-0.000263795,1.002168179
27.892109,0.386146545,3.686500549,-0.169143677,-0.009693727,-0.002338991,0.999116421
27.907433,0.294593811,3.228736877,-0.085220337,-0.002613649,-0.000507936,0.999238491
27.945685,0.103858948,0.848365784,-0.138626099,-0.003101930,-0.000874147,1.000215054
27.983945,-0.132652283,-1.310752869,-0.184402466,-0.008473024,-0.002705202,0.996430874
27.998204,-0.163169861,-1.181053162,0.021591187,-0.016041383,0.001689330,1.001435757
28.013528,-0.079246521,-0.700401306,0.044479370,-0.015553102,0.002665892,1.004121304
28.051824,0.027565002,0.688148499,0.128402710,-0.006031618,-0.001118287,1.000459194
28.090103,-0.025840759,-0.112937927,0.013961792,-0.007130250,0.000346556,1.000703335
28.104371,-0.018211365,-0.143455505,-0.237808228,-0.012135133,-0.003437623,1.001313686
28.119701,0.027565002,-0.425743103,-0.054702759,-0.015919313,-0.003681764,1.002412319
28.157982,-0.132652283,-0.395225525,-0.016555786,-0.005665407,0.005595580,1.001679897
28.211968,0.096229553,0.733924866,-0.085220337,-0.012623414,-0.007954225,1.000459194
28.226299,-0.048728943,0.001502991,0.136032104,-0.005787477,-0.000019655,1.000092983
28.241639,-0.102134705,-0.082420349,0.052108765,-0.005787477,0.004619017,1.000215054
28.279921,0.065711975,-0.479148865,-0.062332153,-0.007008180,-0.003193483,1.000825405
28.318231,-0.041099548,0.474525452,0.059738159,-0.012013063,-0.000752077,0.999238491
28.332493,0.058082581,1.168800354,-0.001296997,-0.011402711,0.004252806,1.000215054
28.347830,0.210670471,1.260353088,0.059738159,-0.000416383,0.004252806,1.000092983
28.386117,-0.147911072,-1.814292908,-0.062332153,-0.011646852,-0.001728639,1.000337124
28.424411,0.157264709,-0.502037048,1.295700073,0.004466429,0.008036986,1.002778530
28.438699,0.042823792,0.772071838,-0.497207642,0.023143187,-0.000996217,0.998994350
28.454016,0.164894104,-1.829551697,-0.390396118,-0.038746461,-0.009174928,1.001557827
28.492308,-0.239463806,-0.090049744,-0.474319458,-0.031300172,0.008525267,1.005464077
28.530629,-0.025840759,1.473976135,-0.474319458,0.005565062,0.005351439,0.994233608
28.544922,0.088600159,-0.250267029,0.158920288,-0.015064821,-0.004047975,1.003266811
28.560251,0.142005920,-0.883506775,0.448837280,-0.000782594,-0.001606569,0.997041225
28.598499,0.103858948,0.634742737,0.212326050,-0.011768922,0.005595580,1.007783413
28.636763,0.050453186,-2.378868103,0.784530640,-0.051197633,-0.007954225,0.991670132
28.651057,-0.308128357,-3.599571228,1.318588257,0.029734984,-0.000385866,0.995698452
28.666383,-0.407310486,-1.837181091,-0.665054321,0.010081664,-0.001362428,1.004609585
28.704664,0.019935608,1.649452209,0.189437866,0.021678343,0.008769408,0.999970913
28.758797,-0.346275330,0.604225159,-0.192031860,-0.003224000,-0.003681764,0.997163296
28.773102,0.080970764,0.817848206,-0.001296997,-0.014698610,0.012431517,1.009126186
28.788431,0.347999573,0.985694885,-0.008926392,-0.009937868,0.014506713,0.997651577
28.826699,0.225929260,-0.280784607,0.372543335,-0.031788453,-0.010761842,1.005097866
28.864997,-0.132652283,0.436378479,-0.558242798,-0.011890993,0.003032103,1.003022671
28.879279,0.286964417,0.039649963,0.219955444,-0.013966188,0.004619017,1.000337124
28.894596,-0.071617126,1.443458557,-0.352249146,0.001048461,0.002910033,0.996308804
28.932881,0.180152893,1.184059143,0.311508179,-0.008839235,0.002421752,0.995698452
28.971161,0.103858948,-1.158164978,0.059738159,-0.008350953,-0.008076295,0.997041225
28.985438,-0.117393494,-0.914024353,0.029220581,-0.007984743,-0.008320436,0.996430874
29.000759,-0.147911072,0.337196350,-0.123367310,-0.007496461,0.004008666,1.005219936
29.039048,-0.140281677,1.832557678,-1.908645630,0.036815062,0.000468627,0.997651577
29.077338,-0.071617126,5.761695862,-2.129898071,0.020335570,0.021464720,0.999116421
29.091621,0.485328674,2.053810120,-3.991470337,-0.029713258,-0.000141725,1.000947475
29.106922,0.187782288,-1.020835876,-1.855239868,-0.032276735,-0.005634889,0.981050014
29.145230,0.134376526,-6.254600525,1.371994019,-0.004200563,-0.006489381,1.008271694
29.183516,-0.346275330,-1.203941345,0.944747925,-0.020924196,0.019023314,1.003022671
29.197820,0.553993225,2.915931702,-0.680313110,-0.015797243,0.006205931,1.007173061
29.213125,0.698951721,3.999305725,-0.657424927,-0.026295289,-0.009052858,1.005464077
29.251434,0.149635315,4.167152405,0.044479370,-0.002613649,-0.000630006,1.005830288
29.289709,0.347999573,12.879920959,2.226486206,0.047801390,0.007426634,1.022675991
29.304009,-0.018211365,18.479896545,-3.907546997,0.018992797,0.021098509,1.006440639
29.319342,1.500038147,22.470069885,-3.114089966,-0.054127321,-0.031269655,1.019990444
29.357656,0.523475647,26.658607483,-4.037246704,-0.061695680,0.002177611,1.014253139
29.395957,0.538734436,26.040626526,-3.144607544,-0.062306032,-0.005756959,0.992402554
29.410245,0.088600159,21.714759827,-4.159317017,-0.044239625,0.002177611,1.000092983
29.425583,0.302223206,18.182350159,-4.937515259,-0.049244508,-0.001240358,1.003510952
29.463882,-0.544639587,-10.939048767,0.349655151,-0.080494508,0.001078978,0.984223843
29.518145,-0.033470154,-28.326438904,2.073898315,-0.047291383,-0.016255006,1.002046108
29.532478,-0.369163513,-29.943870544,2.371444702,-0.041432008,-0.014912233,0.993379116
29.547851,-1.498313904,-28.623985291,1.669540405,-0.027760133,0.001689330,1.007905483
29.586165,0.981239319,-16.760276794,0.914230347,-0.026661500,0.010844603,1.009736538
29.624458,0.019935608,-0.601219177,-1.450881958,-0.009815797,-0.001850709,0.989717007
29.638747,-0.437828064,9.812904358,-3.831253052,-0.045460328,0.014140502,1.013398647
29.665434,0.744728088,13.970924377,-3.747329712,-0.052784547,-0.003803834,0.995576382
29.703859,0.294593811,7.234169006,-0.939712524,-0.066456422,-0.001728639,1.003633022
29.742148,-0.620933533,-0.692771912,-0.443801880,-0.011524782,0.006328002,0.999970913
29.756410,0.088600159,-3.752159119,0.303878784,-0.011036500,0.003886595,1.004609585
29.771751,0.218299866,-5.773948669,0.403060913,-0.006153688,-0.002094850,0.999604702
29.810053,-0.758262634,-13.815330505,-0.634536743,0.008128539,-0.003071412,0.995820522
29.848345,-0.842185974,-18.949913025,0.197067261,0.021556273,0.007914916,1.000337124
29.862642,-0.262351990,-17.774986267,-0.314102173,-0.003590211,-0.002949342,1.010713100
29.878001,0.187782288,-13.952659607,1.440658569,-0.006397828,-0.003437623,0.996430874
29.916315,0.172523499,-4.774497986,0.685348511,-0.019581422,0.002910033,0.999604702
29.954625,0.828651428,7.798744202,-0.268325806,-0.033497438,-0.002094850,1.004487514
29.968917,0.737098694,10.118080139,-0.283584595,-0.032154664,-0.004658327,1.000947475
29.984252,0.538734436,12.757850647,0.631942749,-0.000416383,-0.000996217,1.006196499
30.022542,0.416664124,16.763282776,-0.298843384,0.010081664,0.000712767,0.997529507
30.060847,0.500587463,8.859230042,0.044479370,-0.000538453,-0.006123170,0.986909389
30.075125,-0.117393494,2.687049866,0.517501831,-0.005177125,-0.013447389,1.007295132
30.090470,-0.193687439,7.546974182,0.921859741,0.071116820,0.023051634,0.996308804
30.128765,0.401405334,-7.261680603,1.356735229,-0.005543336,-0.012714967,0.979463100
30.167057,-0.537010193,-10.298179626,0.441207886,-0.055592164,-0.002827272,0.986787319
30.181351,-0.002952576,-10.115074158,1.669540405,-0.018849000,0.005351439,1.008759975
30.196691,-0.689598083,-6.277488708,-0.100479126,0.018382445,0.007304564,0.994966030
30.235019,1.522926331,-0.349449158,0.158920288,-0.000416383,-0.007832155,0.999970913
30.273297,-0.102134705,12.948585510,-3.625259399,-0.018482789,0.013408080,1.024751186
30.287606,0.798133850,15.611244202,-2.465591431,-0.031056032,0.010112181,1.011201382
30.302978,0.492958069,19.662452698,-2.671585083,-0.044117555,-0.007710084,0.993257046
30.341267,0.843910217,17.701698303,-1.778945923,-0.094898805,0.002055541,1.003510952
30.379549,-0.033470154,7.417274475,2.272262573,-0.076832399,-0.005879030,0.992890835
30.393848,-1.238914490,1.473976135,5.674972534,0.016917601,-0.026753053,0.973115444
30.409187,-2.963157654,1.786781311,2.722396851,0.019603148,-0.009541139,0.971894741
30.447484,-3.954978943,-11.396812439,3.409042358,-0.034840211,0.009501830,1.011323452
30.485783,-2.665611267,-21.559165955,5.514755249,0.008372679,-0.004780397,1.024751186
30.500085,0.477699280,-19.743370056,3.325119019,-0.002003297,0.012553588,1.049165249
30.515424,2.232460022,-19.422935486,1.654281616,-0.017750368,0.012797728,1.027558804
30.553713,-0.353904724,-10.687278748,-1.511917114,-0.017262086,-0.009907350,0.993257046
30.603638,7.367042542,17.053199768,-7.974014282,0.045115843,0.029277220,1.019258022
30.618002,7.016090393,20.021034241,-11.597976685,-0.064625368,0.000102416,0.923432827
30.633371,-4.611106873,20.516944885,-2.198562622,-0.050343141,-0.044575319,0.950044155
30.671672,5.429176331,47.051979065,-15.977249146,-0.101612672,-0.000874147,0.980317593
30.709971,-3.794761658,31.686378479,1.097335815,-0.135914430,-0.004658327,1.003877163
30.724259,-2.841087341,30.557228088,2.897872925,-0.078663453,0.004985228,1.027192593
30.739614,-1.437278748,34.692359924,-0.581130981,-0.049732789,0.003032103,1.010102749
30.777917,-0.475975037,29.916358948,0.151290894,-0.116871461,0.013286009,1.021577358
30.828056,-1.963706970,0.482154846,0.998153687,-0.055225953,-0.002827272,0.987275600
30.842393,-1.986595154,-4.225181580,0.990524292,-0.059986696,-0.007099733,0.986909389
30.857735,-2.513023376,-9.069847107,0.845565796,-0.067310914,-0.008686647,0.984223843
30.896047,-2.596946716,-23.031639099,1.700057983,-0.069874391,-0.006977662,0.994355679
30.934326,-4.817100525,-22.177146912,1.249923706,-0.081959352,0.002177611,1.009370327
30.948639,-4.496665955,-18.339561462,0.349655151,-0.092701539,-0.007099733,1.007050991
30.964009,-4.603477478,-16.104148865,0.853195190,-0.094410524,-0.016499147,1.007661343
31.002317,-7.395835876,-3.920005798,1.410140991,-0.118946657,-0.016010866,0.984101772
31.040641,-7.708641052,12.200904846,0.830307007,-0.077320680,-0.005268678,1.041108608
31.054946,-6.236167908,17.839027405,-1.260147095,-0.085987672,-0.000019655,1.042207241
31.070295,-5.633445740,26.727272034,-3.251419067,-0.105763063,-0.021015748,0.995088100
31.108639,-5.747886658,15.061927795,1.730575562,-0.084522828,-0.027485475,1.014131069
31.146940,-3.062339783,8.935523987,-3.625259399,-0.080128297,-0.052021608,1.004975796
31.161226,-3.283592224,2.305580139,-2.412185669,-0.117725953,-0.072651491,0.987763882
31.176582,-5.488487244,-13.662742615,2.867355347,-0.108326539,-0.059589967,0.965180874
31.214884,-5.549522400,-23.886131287,3.096237183,-0.074146852,-0.041279420,1.011567593
31.253212,-7.655235291,-22.886680603,3.142013550,-0.097950563,-0.012470827,1.018647671
31.267510,-5.351158142,-19.857810974,1.127853394,-0.089405641,0.005717650,1.037446499
31.282873,-4.374595642,-18.339561462,0.830307007,-0.105274782,-0.000752077,1.028779507
31.321186,-3.092857361,-16.722129822,4.057540894,-0.157154664,-0.027241334,1.011201382
31.359475,-3.489585876,-11.930870056,7.055892944,-0.139332399,-0.056904420,1.002656460
31.373776,-2.940269470,-8.894371033,7.902755737,-0.136768922,-0.040546998,1.016328335
31.389121,-1.086326599,-1.150535583,8.055343628,-0.127857789,-0.010029420,1.025117397
31.427427,0.637916565,13.902259827,11.526718140,-0.057667360,0.000224486,1.060273647
31.465709,-1.788230896,35.264564514,1.768722534,-0.059010133,-0.017719850,0.961274624
31.493202,-3.352256775,30.953956604,1.120223999,-0.097096071,0.005351439,0.979218960
31.507531,-4.183860779,16.809059143,6.292953491,-0.130787477,0.001078978,0.987031460
31.545702,0.012306213,-0.631736755,8.200302124,-0.031910524,0.041240111,0.975434780
31.583998,-12.049766541,-18.133567810,9.810104370,-0.098682985,-0.038349733,0.979096889
31.598294,-10.821434021,-24.595664978,12.564315796,-0.102833375,-0.023213014,1.052827358
31.613645,-4.016014099,-29.684471130,14.425888062,-0.064137086,-0.016743287,1.053803921
31.651954,-10.264488220,-30.065940857,10.916366577,-0.095142946,-0.158588991,0.883882046
31.690264,-4.557701111,-23.893760681,13.647689819,-0.039967164,0.008403197,1.187715054
31.704556,3.025917053,-15.180992126,8.154525757,-0.059376344,-0.124897584,0.916596889
31.719887,-7.723899841,-11.389183044,8.200302124,-0.082935914,-0.220478639,0.925874233
31.758194,0.996498108,8.325172424,8.749618530,-0.041920289,-0.036396608,1.051484585
31.796478,-16.123863220,24.262977600,4.622116089,-0.049610719,-0.078266725,1.080903530
31.810777,-9.425254822,23.500038147,5.758895874,-0.053883180,-0.029560670,1.126924038
31.826127,4.063514709,18.586708069,8.795394897,-0.039600953,-0.098530397,1.053437710
31.864437,-16.459556580,8.363319397,3.019943237,-0.033619508,-0.065815553,1.045625210
31.902734,-4.000755310,-16.973899841,13.197555542,-0.033619508,-0.085468873,1.074800014
31.917036,-5.366416931,-20.422386169,11.191024780,-0.018726930,-0.058369264,1.074922085
31.932370,-9.806724548,-22.535728455,9.749069214,-0.035084352,-0.091084108,1.110200405
31.970664,-2.268882751,-22.962974548,8.230819702,-0.033985719,-0.040180787,1.216889858
32.008945,0.645545959,-9.817527771,4.934921265,0.015208617,-0.173237428,1.113374233
32.023228,-2.268882751,-4.133628845,2.134933472,-0.041432008,-0.004780397,1.264497280
32.038568,8.335975647,-3.981040955,4.843368530,-0.038014039,0.015361205,1.269502163
32.090170,0.660804749,10.240150452,-0.192031860,-0.055470094,-0.073017702,1.094209194
32.128539,11.082557678,8.042884827,2.302780151,-0.072437868,-0.172016725,1.036958218
32.142847,8.847145081,3.846717834,9.894027710,-0.043751344,-0.045551881,1.048554897
32.158193,8.099464417,3.938270569,7.719650269,0.019236937,-0.098774537,1.025971889
32.196466,5.452064514,-5.186485291,8.513107300,-0.064259157,-0.046772584,1.097749233
32.234745,3.971961975,-5.094932556,0.776901245,-0.011402711,-0.136128053,0.938325405
32.249028,-2.390953064,-4.560874939,-0.359878540,-0.033741578,-0.086201295,0.997529507
32.264372,3.689674377,-7.337974548,1.326217651,-0.029102907,-0.016132936,1.076875210
32.302650,1.576332092,-7.559226990,2.081527710,-0.017140016,-0.099140748,0.967133999
32.340924,6.222633362,-9.809898376,-1.244888306,-0.070362672,-0.079365358,1.047578335
32.355215,5.505470276,-12.876914978,1.104965210,-0.067799196,-0.127338991,1.017060757
32.370582,2.591041565,-13.632225037,2.966537476,-0.042774782,-0.096577272,1.011445522
32.422426,5.726722717,-18.812583923,3.286972046,-0.068653688,-0.122700319,1.065156460
32.460851,2.514747620,-10.389732361,-0.344619751,-0.017872438,-0.163227662,0.956880093
32.475158,-2.192588806,-6.163047791,-1.366958618,-0.019215211,-0.095722780,1.007295132
32.490485,6.115821838,-1.402305603,-4.853591919,-0.038014039,-0.061298952,1.064179897
32.528779,5.482582092,1.786781311,0.387802124,-0.013477907,-0.147602662,0.970185757
32.567067,6.939796448,4.350257874,-2.671585083,-0.044605836,-0.069965944,1.026093960
32.581354,11.738685608,3.175331116,0.166549683,-0.032765016,-0.063984498,0.998628139
32.596696,14.470008850,5.334449768,-0.359878540,-0.019215211,-0.044819459,0.965180874
32.635013,3.880409241,21.440101624,-9.240493774,-0.024342164,-0.045307741,0.997895718
32.673317,15.759376526,23.912025452,0.334396362,0.039134398,-0.077778444,0.852021694
32.687624,3.651527405,33.509803772,-7.386550903,0.061595336,-0.080586061,0.820527554
32.702988,2.476600647,37.850929260,-9.812698364,0.055491820,-0.017231569,0.819306850
32.741270,2.011207581,39.903236389,-17.045364380,-0.014210328,-0.085590944,0.845918179
32.779571,-2.665611267,6.143165588,-10.499343872,-0.056324586,-0.098408327,0.893891811
32.793872,-2.177330017,-5.384849548,-9.515151978,-0.082813844,-0.096577272,0.914277554
32.809208,-2.841087341,-28.822349548,-3.678665161,-0.085743532,-0.099751100,0.941621304
32.847495,-2.589317322,-64.642356873,3.935470581,-0.077564821,-0.069233522,0.971162319
32.885830,-0.804039001,-73.103355408,5.812301636,-0.027271852,-0.035297975,1.024384975
32.900126,3.254798889,-67.511009216,2.440109253,0.003978148,-0.031757936,1.034638882
32.915474,4.628089905,-62.902854919,-0.680313110,0.001170531,-0.054463014,1.021943569
32.953780,6.497291565,-36.138938904,2.485885620,0.006663695,-0.039570436,1.028779507
32.992077,6.878761292,11.750770569,-8.057937622,0.043406859,-0.020161256,1.035737514
33.006378,9.037879944,29.573036194,-9.629592896,0.035838500,-0.004414186,1.052705288
33.021713,10.937599182,36.950660706,-10.545120239,0.043162718,0.013530150,1.045869350
33.060054,10.243324280,54.841590881,-14.596328735,0.012034789,-0.021992311,0.957734585
33.098370,7.389930725,56.787086487,-13.741836548,0.035716429,0.100566283,0.966157436
33.112667,10.510353088,56.100440979,-15.550003052,0.029612914,0.100932494,0.947968960
33.128032,12.455848694,51.927162170,-15.672073364,0.010936156,0.035258666,0.916596889
33.166349,1.522926331,35.066200256,-11.536941528,0.011668578,0.052958861,0.873017788
33.204660,-5.778404236,15.763832092,-12.688980103,0.013011351,0.034282103,0.910615444
33.218967,-7.403465271,10.171485901,-13.169631958,0.013499632,0.037455931,0.942597866
33.234317,-5.473228455,-0.944541931,-12.009963989,-0.019947633,0.058940306,0.990693569
33.272646,-2.184959412,-16.493247986,-10.590896606,-0.027271852,0.003886595,0.961396694
33.324612,0.058082581,-39.648460388,-4.548416138,-0.028370485,0.070536986,1.047456264
33.338959,2.766517639,-40.350364685,-3.823623657,-0.020313844,0.061625853,1.020234585
33.354332,1.805213928,-37.069725037,-4.929885864,0.003856078,0.013041869,0.994599819
33.406522,3.453163147,-10.610984802,-10.873184204,0.027171507,0.097026244,1.076508999
33.444876,6.253150940,9.339881897,-13.985977173,0.011546507,0.031840697,1.020478725
33.459174,5.368141174,11.430335999,-14.352188110,0.005809203,0.035624877,1.024751186
33.474535,6.817726135,13.955665588,-14.825210571,0.000316039,0.061869994,1.024018764
33.512862,7.557777405,14.886451721,-14.764175415,-0.002735719,0.052714720,0.978364468
33.551177,4.734901428,12.933326721,-15.534744263,0.001414672,0.062358275,0.972016811
33.565479,5.543617249,10.461402893,-15.733108521,-0.002735719,0.064311400,0.978730679
33.580842,6.245521545,8.927894592,-15.290603638,-0.004078493,0.062846556,0.970185757
33.619143,3.621009827,2.580238342,-15.824661255,0.011424437,0.053080931,0.933320522
33.657437,0.897315979,-3.843711853,-18.739089966,0.013743773,0.046122923,0.974946499
33.671736,3.476051331,-10.122703552,-19.044265747,0.000926390,0.050273314,0.974092007
33.687098,3.964332581,-13.746665955,-18.411026001,-0.000294313,0.046733275,0.959931850
33.725418,-0.186058044,-17.843650818,-20.142898560,0.040965453,0.025981322,0.975434780
33.763699,2.697853088,-5.697654724,-27.444229126,0.018626586,0.002665892,1.027680874
33.778018,2.751258850,-5.880760193,-26.360855103,0.003611937,0.004863158,1.008759975
33.793375,2.438453674,-9.939598083,-25.803909302,0.018626586,0.036723509,0.993989468
33.831666,1.049903870,-6.163047791,-27.924880981,0.056712523,-0.005512819,0.968476772
33.869939,1.835731506,10.072303772,-32.815322876,0.056346312,-0.001972780,1.006318569
33.884250,2.545265198,15.954566956,-33.791885376,0.048900023,-0.002094850,1.002534389
33.899605,2.980140686,16.786170959,-34.425125122,0.043528929,-0.006123170,1.008882046
33.937909,5.040077209,14.085365295,-32.693252563,0.021312132,-0.016865358,1.008515835
33.976220,5.940345764,11.437965393,-32.723770142,0.036448851,0.010478392,1.011201382
33.990517,9.228614807,15.077186584,-33.494338989,0.032176390,0.003642455,0.989717007
34.005879,9.861854553,17.449928284,-34.158096313,0.029368773,-0.005634889,0.961396694
34.044203,2.903846741,17.594886780,-35.004959106,0.016673461,-0.005390748,0.928193569
34.082482,-0.460716248,6.539894104,-34.310684204,0.036815062,0.036845580,0.980317593
34.096785,0.759986877,3.991676331,-34.127578735,0.041209593,0.049785033,0.970674038
34.112136,2.400306702,-0.158714294,-35.943374634,0.066478148,0.042460814,0.947358608
34.150450,-3.642173767,-9.359764099,-40.246353149,0.042430297,0.022807494,0.963471889
34.188731,-5.457969666,-26.510643005,-38.873062134,0.011546507,0.009013548,0.964570522
34.203040,-6.373497009,-29.066490173,-38.216934204,0.005809203,0.010600463,0.975556850
34.236765,-7.777305603,-36.650108337,-39.582595825,-0.009205446,0.003886595,1.027680874
34.275240,-3.031822205,-49.505638123,-35.241470337,-0.046558961,0.011699095,1.044282436
34.313551,-2.726646423,-54.006980896,-31.243667603,-0.042164430,-0.000996217,1.006074429
34.327861,-2.795310974,-51.695274353,-30.679092407,-0.044117555,0.013896361,1.003266811
34.343219,-1.971336365,-49.734519958,-29.672012329,-0.043995485,0.020732298,0.991792202
34.381523,-3.108116150,-27.800010681,-29.794082642,0.010447875,0.013286009,0.959565639
34.419852,-4.229637146,2.984596252,-35.012588501,0.017894164,0.041972533,0.991425991
34.434141,-4.344078064,7.478309631,-35.714492798,0.019481078,0.029887572,0.991792202
34.449493,-5.641075134,13.238502502,-35.630569458,0.004344359,0.013530150,1.010102749
34.487838,-3.085227966,17.243934631,-36.736831665,0.013255492,0.032451048,1.047334194
34.526134,-1.055809021,13.917518616,-35.943374634,-0.002003297,0.009501830,1.005708218
34.540438,-4.138084412,9.584022522,-36.012039185,0.011058226,0.011454955,1.014619350
34.555795,-5.396934509,7.134986877,-36.523208618,0.008983031,0.018046752,1.029878139
34.594118,3.025917053,-3.553794861,-35.233840942,0.013865843,0.034526244,1.016572475
34.632435,-1.246543884,-6.636070251,-37.270889282,0.043284789,0.030253783,0.978608608
34.646726,-0.727745056,-6.582664490,-38.934097290,0.038401976,0.029521361,0.999238491
34.662095,-0.338645935,-6.987022400,-39.712295532,0.037669554,0.028056517,1.003755093
34.715905,0.172523499,-11.137413025,-41.566238403,0.026317015,0.014628783,0.971040249
34.754276,-1.505943298,-10.847496033,-41.772232056,0.034373656,0.010844603,0.991792202
34.768590,-2.787681580,-5.819725037,-43.824539185,0.036204711,0.016703978,1.020356655
34.783935,-3.413291931,-3.996299744,-45.625076294,0.031688109,0.022075072,1.035249233
34.822260,2.362159729,-10.870384216,-43.908462524,-0.016285524,0.054911986,1.014131069
34.860551,-1.170249939,-13.990806580,-41.016921997,0.030589476,0.015971556,0.907197475
34.874858,-7.128807068,-5.857872009,-43.343887329,0.045604125,0.029155150,0.971894741
34.890217,-7.029624939,-1.356529236,-43.908462524,0.047435179,0.051005736,1.014375210
34.928529,0.065711975,8.210731506,-46.334609985,0.044749632,0.051738158,1.008882046
34.966840,-4.832359314,1.115394592,-45.251235962,0.002757445,0.056010619,1.004487514
34.981137,-5.320640564,-2.760337830,-43.992385864,0.001658812,0.058085814,1.013764858
34.996502,-3.275962830,-9.458946228,-40.643081665,0.015086547,0.081889525,1.011323452
35.034864,-4.550071716,-12.487815857,-41.512832642,0.052684203,0.072856322,0.998383999
35.073178,-3.016563416,-9.329246521,-42.016372681,0.053660765,0.070170775,0.995332241
35.087471,-3.466697693,-8.009361267,-41.703567505,0.048167601,0.069804564,0.983979702
35.118641,-4.916282654,-6.811546326,-41.146621704,0.053782836,0.075541869,0.966035366
35.157088,-5.724998474,-3.225730896,-42.168960571,0.079539672,0.067241088,0.992036343
35.195409,-4.138084412,0.573707581,-44.251785278,0.080150023,0.054179564,1.004975796
35.209704,-4.016014099,0.588966370,-44.587478638,0.076976195,0.046122923,1.002290249
35.225040,-5.900474548,-1.272605896,-46.189651489,0.068065062,0.040873900,1.012910366
35.263371,-2.520652771,-12.907432556,-45.983657837,0.041697875,0.070048705,1.028413296
35.301670,-1.490684509,-18.865989685,-45.449600220,0.043651000,0.057231322,0.981172085
35.315979,-3.451438904,-18.675254822,-45.976028442,0.053904906,0.043071166,0.976899624
35.331329,-5.000205994,-17.851280212,-46.754226685,0.048533812,0.038310423,0.996430874
35.369688,-0.811668396,-14.997886658,-47.768936157,0.035716429,0.046000853,1.049287319
35.408023,0.515846252,-13.609336853,-47.044143677,0.006541625,0.015727416,1.007661343
35.422327,-0.674339294,-14.364646912,-45.228347778,0.002269164,0.030375853,1.028901577
35.437684,0.088600159,-14.654563904,-44.457778931,0.004832640,0.040141478,1.042939663
35.476069,5.467323303,-11.869834900,-42.954788208,0.025584593,0.045268431,1.019135952
35.514378,1.599220276,-5.873130798,-42.252883911,0.033030882,0.063701048,1.015717983
35.528680,2.812294006,-4.431175232,-41.894302368,0.037425414,0.078593627,1.019380093
35.544031,5.261329651,-1.600669861,-42.138442993,0.042918578,0.068339720,1.010102749
35.582358,4.177955627,5.426002502,-43.191299438,0.052317992,0.055888548,0.944062710
35.620648,1.423744202,3.396583557,-41.612014771,0.021312132,0.070170775,0.933442593
35.634952,0.615028381,1.000953674,-40.688858032,0.019603148,0.064189330,0.936494350
35.650286,-0.933738708,-4.209922791,-38.461074829,0.022044554,0.065287963,0.953584194
35.688649,-2.001853943,-12.052940369,-37.232742310,0.022532836,0.066142455,0.968232632
35.726938,-3.253074646,-18.812583923,-35.256729126,0.019481078,0.054667845,0.966401577
35.741243,-4.313560486,-19.102500916,-33.814773560,0.023143187,0.051494017,0.969087124
35.756609,-5.007835388,-18.606590271,-33.646926880,0.029246703,0.061747923,0.970674038
35.794959,-4.717918396,-13.678001404,-33.196792603,0.037303343,0.071635619,0.977998257
35.833267,-4.145713806,-6.643699646,-32.464370728,0.053416625,0.060649291,0.955415249
35.847565,-4.855247498,-4.949974060,-32.525405884,0.060496703,0.058085814,0.955415249
35.862897,-5.724998474,-2.081321716,-32.525405884,0.063670531,0.069072142,0.961030483
35.917144,-4.908653259,3.564430237,-34.112319946,0.067210570,0.073710814,0.992280483
35.955531,-3.001304626,0.466896057,-33.547744751,0.054271117,0.069438353,0.999360561
35.969845,-1.788230896,-2.531455994,-32.540664673,0.052440062,0.066508666,0.997041225
35.996664,-0.514122009,-5.011009216,-32.060012817,0.058665648,0.068095580,0.978730679
36.035103,-2.703758240,-5.949424744,-32.769546509,0.068187132,0.070170775,0.935273647
36.073436,-5.793663025,-4.888938904,-32.197341919,0.075755492,0.070536986,0.963593960
36.087730,-4.283042908,-2.989219666,-32.861099243,0.085399047,0.084330931,0.973115444
36.103096,-3.550621033,-2.165245056,-33.761367798,0.085032836,0.083720580,0.971894741
36.141465,-4.077049255,-3.141807556,-33.860549927,0.054515257,0.071025267,0.946992397
36.179766,-6.808372498,-8.093284607,-31.480178833,0.046458617,0.098857298,0.981660366
36.194075,-5.709739685,-8.322166443,-31.152114868,0.052806273,0.103373900,0.983369350
36.209427,-4.809471130,-6.353782654,-31.495437622,0.064036742,0.100810423,0.973481655
36.247767,-6.045433044,0.924659729,-32.052383423,0.066478148,0.083720580,0.975800991
36.286066,-5.282493591,4.266334534,-32.281265259,0.070506468,0.101420775,0.989717007
36.300373,-4.283042908,4.617286682,-32.479629517,0.068797484,0.102031127,0.981538296
36.315737,-3.642173767,4.136634827,-32.395706177,0.065989867,0.103984252,0.976777554
36.354091,-6.320091248,-1.959251404,-31.228408813,0.044383422,0.108134642,0.972260952
36.392407,-3.718467712,-11.778282166,-27.612075806,0.034007445,0.113871947,1.006318569
36.406715,-2.375694275,-13.670372009,-26.711807251,0.031566039,0.119609252,0.998506069
36.422103,-1.261802673,-14.501976013,-26.292190552,0.023631468,0.121196166,0.984956264
36.460464,-5.358787537,-18.934654236,-22.477493286,-0.003590211,0.107280150,0.970185757
36.498772,-3.459068298,-19.857810974,-17.335281372,0.015208617,0.130473509,0.986299038
36.513090,-3.375144958,-17.843650818,-17.014846802,0.026805297,0.121440306,0.980439663
36.528462,-5.099388123,-11.518882751,-17.098770142,0.031566039,0.118754759,0.981294155
36.566794,-2.482505798,2.450538635,-14.932022095,0.022776976,0.125224486,0.976411343
36.605103,-6.205650330,12.216163635,-12.177810669,0.021556273,0.092265502,0.956513882
36.619423,-6.846519470,13.223243713,-11.628494263,0.019359007,0.099101439,0.974458218
36.634796,-5.930992126,13.284278870,-10.064468384,0.020457640,0.123027220,1.003388882
36.684879,-4.305931091,3.915382385,-5.792007446,-0.006886110,0.096293822,0.977387905
36.723261,-2.345176697,-5.583213806,-1.847610474,-0.022266969,0.103618041,0.983979702
36.737548,-3.741355896,-9.123252869,-0.405654907,-0.002003297,0.082377806,0.956880093
36.752871,-4.428001404,-10.275291443,-0.100479126,-0.008717164,0.095561400,0.950776577
36.791190,-8.662315369,-14.913963318,4.393234253,0.013743773,0.092631713,0.995332241
36.829490,-3.085227966,-14.097618103,4.393234253,0.059031859,0.104106322,0.998750210
36.843808,-4.145713806,-10.382102966,3.080978394,0.060618773,0.096904173,0.995454311
36.859138,-4.550071716,-8.566307068,2.478256226,0.050853148,0.097026244,1.006074429
36.897460,-0.247093201,-6.613182068,3.981246948,0.019236937,0.113627806,1.037812710
36.935752,-1.185508728,0.024391174,2.936019897,0.038646117,0.096782103,0.943086147
36.950041,-3.047080994,2.839637756,2.470626831,0.036692992,0.101542845,0.940156460
36.977324,-1.444908142,8.546424866,3.142013550,0.045359984,0.116435423,0.925630093
37.015726,-6.632896423,16.938758850,2.188339233,0.078196898,0.100688353,0.943696499
37.054037,-3.459068298,18.418861389,0.044479370,0.022654906,0.159526244,0.983369350
37.068351,-1.483055115,14.710975647,1.356735229,0.006297484,0.151713744,0.967378139
37.083693,-2.612205505,4.182411194,5.171432495,-0.027271852,0.126201048,0.939179897
37.122034,-5.831809998,-15.989707947,14.074935913,0.014842406,0.115825072,0.957246304
37.160335,-5.061241150,-18.179344177,15.371932983,0.061229125,0.137309447,1.014863491
37.174647,-3.138633728,-12.739585876,13.304367065,0.099437132,0.127543822,1.024629116
37.190023,-2.818199158,-8.985923767,11.976852417,0.097117797,0.126567259,1.032441616
37.228330,0.470069885,1.512123108,10.290756226,0.078441039,0.113505736,1.031220913
37.266624,2.850440979,6.013465881,10.870590210,0.081981078,0.116313353,1.024384975
37.280923,4.193214417,8.782936096,10.466232300,0.088328734,0.124247923,1.022553921
37.308473,5.040077209,11.064125061,9.901657104,0.084422484,0.115092650,1.031220913
37.346857,8.061317444,12.368751526,11.572494507,0.085521117,0.115580931,1.034028530
37.385162,7.908729553,13.169837952,10.870590210,0.081126586,0.104350463,1.004853725
37.399468,6.604103088,12.147499084,11.053695679,0.072581664,0.103618041,1.005952358
37.414834,5.528358459,7.447792053,12.411727905,0.057444945,0.106425658,1.026093960
37.453146,6.581214905,-7.002281189,16.432418823,0.057444945,0.117045775,1.015840054
37.491443,6.832984924,-16.600059509,15.898361206,0.061717406,0.084086791,0.989961147
37.505745,6.558326721,-17.973350525,15.524520874,0.057811156,0.074199095,0.972138882
37.521113,4.238990784,-20.262168884,15.661849976,0.047068968,0.077250853,0.931245327
37.559442,0.172523499,-21.597312927,18.484725952,0.079539672,0.083232298,0.937959194
37.597735,-2.108665466,-10.488914490,16.653671265,0.149730101,0.095561400,0.960053921
37.626654,-3.649803162,11.926246643,9.535446167,0.155467406,0.130351439,0.987031460
37.640993,-0.216575623,26.902748108,5.377426147,0.135814086,0.073832884,0.994355679
37.679186,-0.910850525,34.532142639,5.636825562,0.046946898,0.044658080,0.932343960
37.717488,-3.123374939,24.133277893,9.359970093,0.021312132,0.048808470,0.933076382
37.731818,-2.551170349,13.818336487,12.152328491,0.031077757,0.051616088,0.940400600
37.747161,-2.513023376,8.676124573,12.694015503,0.037791625,0.048564330,0.944062710
37.785459,-1.742454529,-5.003379822,13.311996460,0.065501586,0.046367064,0.896211147
37.823735,-5.091758728,-12.068199158,12.945785522,0.070506468,0.047587767,0.890962124
37.838048,-5.023094177,-14.051841736,14.181747437,0.082835570,0.029399291,0.879365444
37.853405,-5.869956970,-14.295982361,14.151229858,0.090281859,0.027324095,0.869721889
37.891713,-10.836692810,-15.425132751,11.786117554,0.089427367,0.047587767,0.939057827
37.930043,-5.854698181,-22.688316345,14.441146851,0.087108031,0.043437377,0.979829311
37.944341,-4.633995056,-23.359703064,14.753952026,0.089915648,0.034892455,0.987397671
37.959679,-4.275413513,-21.360801697,14.502182007,0.091014281,0.015727416,0.989594936
37.998006,-2.429100037,-13.975547791,13.815536499,0.090526000,0.035380736,1.064179897
38.036305,4.124549866,-6.315635681,15.974655151,0.083323851,0.008159056,1.054170132
38.050616,4.300025940,-3.393577576,15.699996948,0.084666625,-0.005024537,1.048066616
38.065986,2.789405823,2.198768616,16.241683960,0.086253539,-0.004047975,1.061372280
38.104276,6.085304260,5.082679749,17.340316772,0.088572875,-0.001118287,1.127412319
38.142598,12.326148987,7.707191467,17.668380737,0.071360961,0.017436400,1.117280483
38.156901,15.767005920,6.166053772,18.164291382,0.057078734,0.005473509,1.054902554
38.172257,14.904884338,3.770423889,19.369735718,0.045848265,-0.015766725,1.028901577
38.210560,7.733253479,-0.875877380,24.130477905,0.074168578,-0.014301881,0.991181850
38.248856,1.713661194,5.357337952,21.155014038,0.109080687,0.042460814,0.988740444
38.263158,1.591590881,5.525184631,20.872726440,0.102610961,0.045634642,0.989106655
38.278509,0.180152893,4.602027893,22.703781128,0.109813109,0.045512572,1.001435757
38.316847,1.339820862,1.649452209,20.949020386,0.106761351,0.051249877,0.981050014
38.355140,1.980690002,0.215126038,19.812240601,0.073924437,0.050883666,0.919892788
38.369446,0.943092346,0.726295471,20.674362183,0.073924437,0.052958861,0.932832241
38.384785,1.675514221,2.420021057,19.476547241,0.070994750,0.065043822,0.946992397
38.423101,2.499488831,5.235267639,20.071640015,0.061229125,0.079326048,0.941621304
38.461408,0.889686584,12.422157288,19.568099976,0.071849242,0.035502806,0.956513882
38.475714,0.149635315,17.213417053,19.278182983,0.090159789,0.050761595,0.960420132
38.491067,0.149635315,19.357276917,18.873825073,0.107127562,0.077861205,0.946870327
38.542943,-0.765892029,28.932167053,13.952865601,0.144114867,0.081523314,0.969575405
38.581337,0.851539612,30.168128967,7.925643921,0.133616820,0.116923705,0.979096889
38.595642,1.927284241,24.285865784,7.277145386,0.109568968,0.111918822,0.970185757
38.610989,1.156715393,19.540382385,8.055343628,0.097239867,0.099467650,0.974214077
38.663074,1.774696350,-9.947227478,9.703292847,0.074290648,0.130229369,1.048188686
38.701453,4.116920471,-17.698692322,9.375228882,0.086009398,0.140971556,1.063569546
38.715751,5.703834534,-19.392417908,8.520736694,0.072459593,0.117656127,1.075776577
38.731107,6.611732483,-20.117210388,9.123458862,0.073314086,0.100688353,1.081147671
38.769444,8.320716858,-17.538475037,10.603561401,0.099681273,0.118998900,1.087495327
38.807722,12.776283264,1.435829163,6.079330444,0.126658812,0.113505736,1.043305874
38.822026,13.317970276,9.797645569,4.057540894,0.094432250,0.082621947,1.020722866
38.837381,12.852577209,11.979652405,4.606857300,0.085887328,0.073710814,1.007050991
38.875676,8.122352600,18.601966858,6.918563843,0.089427367,0.093730345,0.976411343
38.913953,6.009010315,23.347450256,4.500045776,0.095286742,0.090190306,0.952729702
38.928253,4.780677795,22.775245667,4.309310913,0.082835570,0.077006713,0.942842007
38.943605,0.920204163,22.088600159,1.921310425,0.066600218,0.048808470,0.930146694
38.981898,-4.954429626,14.611793518,5.453720093,0.017405882,0.032939330,0.940522671
39.020200,-2.932640076,6.272865295,6.727828979,0.011058226,0.021708861,0.935761929
39.034479,-5.267234802,1.100135803,6.811752319,0.023265257,-0.022358522,0.938325405
39.049821,-7.037254333,-0.692771912,6.384506226,0.029490843,-0.028584108,0.957246304
39.088124,-2.154441833,-12.686180115,4.698410034,0.044993773,0.020976439,1.020356655
39.126436,0.706581116,-26.739524841,4.721298218,0.048045531,0.025615111,0.957978725
39.140727,-2.787681580,-28.234886169,4.698410034,0.047679320,0.043193236,0.976899624
39.156100,-1.780601501,-27.838157654,5.156173706,0.052317992,0.068950072,0.982881069
39.194436,1.728919983,-16.172813416,3.096237183,0.088572875,0.051616088,0.940766811
39.232710,-4.252525330,3.938270569,-1.550064087,0.088328734,0.043681517,0.972749233
39.247004,-3.062339783,7.623268127,-1.954421997,0.086131468,0.068950072,0.986421108
39.262324,1.248268127,12.811256409,-2.572402954,0.085276976,0.078593627,0.974214077
39.300643,-2.413841248,17.472816467,-4.105911255,0.079173461,0.043437377,0.982148647
39.338927,0.584510803,10.484291077,-2.679214478,0.066111937,0.104960814,0.983613491
39.353230,1.034645081,7.363868713,-2.175674438,0.066600218,0.111186400,0.982636929
39.368576,1.332191467,0.657630920,-1.191482544,0.056468382,0.087382689,0.995820522
39.406875,1.110939026,-7.849143982,0.380172729,0.041697875,0.101420775,1.038545132
39.445162,2.888587952,-19.354270935,5.247726440,0.033763304,0.035014525,1.021333218
39.459470,-0.819297791,-18.804954529,6.453170776,0.061839476,0.085185423,1.079316616
39.474830,0.370887756,-16.874717712,5.835189819,0.073069945,0.132426634,1.098603725
39.513138,9.053138733,-9.298728943,3.073348999,0.084544554,0.060527220,1.078584194
39.565411,7.420448303,7.501197815,2.928390503,0.116404906,0.085795775,1.054048061
39.579732,9.526161194,14.398170471,0.090255737,0.116282836,0.072368041,1.053193569
39.595074,10.716346741,16.519142151,-0.787124634,0.103587523,0.047465697,1.047456264
39.633385,8.946327209,24.095130920,-0.596389771,0.072581664,0.057231322,1.006806850
39.671674,6.672767639,31.144691467,-5.357131958,0.065867797,0.055888548,0.993501186
39.685978,5.329994202,29.679847717,-5.532608032,0.059764281,0.040873900,0.982636929
39.701329,1.828102112,24.896217346,-4.281387329,0.057567015,0.052348509,0.979463100
39.739653,1.644996643,14.978004456,-8.225784302,0.065745726,0.115214720,0.983125210
39.777944,4.376319885,-15.325950623,-7.867202759,-0.042164430,0.047221556,0.929536343
39.792247,3.498939514,-25.541709900,-5.891189575,-0.064381227,0.027446166,0.937715054
39.807609,1.538185120,-45.637535095,2.066268921,-0.065113649,0.054179564,0.957002163
39.845916,5.146888733,-65.954612732,6.010665894,-0.027149782,0.108256713,0.936006069
39.884224,3.643898010,-60.881065369,8.452072144,0.014842406,0.044047728,0.907929897
39.898509,-1.231285095,-47.171043396,7.895126343,0.053660765,0.080424681,0.906098843
39.913870,-2.917381287,-37.931846619,6.903305054,0.051829711,0.103007689,0.909638882
39.952175,3.239540100,8.996559143,0.403060913,0.070262328,0.081157103,0.857514858
40.005736,-9.028526306,50.462318420,-3.243789673,0.050609007,0.058452025,0.954194546
40.020071,-9.821983337,54.078651428,-2.854690552,0.073924437,0.070292845,0.971894741
40.035437,-9.753318787,61.624122620,-6.692276001,0.107982054,0.112040892,0.996675014
40.073734,-2.596946716,67.155433655,-12.940750122,0.080638304,0.124614134,0.977998257
40.112063,-2.062889099,43.298316956,-10.239944458,0.026561156,0.103862181,0.989106655
40.126373,0.065711975,25.079322815,-7.249221802,0.037791625,0.122783080,0.991670132
40.141723,1.095680237,16.122413635,-7.340774536,0.047679320,0.130473509,0.993012905
40.180052,0.813392639,-17.118858337,-7.584915161,0.009837523,0.132914916,1.076142788
40.218352,8.946327209,-38.542198181,-5.830154419,0.044871703,0.127910033,1.090791225
40.232657,9.144691467,-39.717124939,-6.951675415,0.053904906,0.117167845,1.076997280
40.248028,7.519630432,-39.549278259,-9.446487427,0.042918578,0.103495970,1.051240444
40.286332,6.260780334,-31.805442810,-10.110244751,0.051951781,0.151225463,1.073945522
40.324652,7.237342834,-12.045310974,-14.054641724,0.065867797,0.103373900,1.044160366
40.338965,6.070045471,-6.201194763,-15.305862427,0.068431273,0.097880736,1.047822475
40.354318,6.672767639,4.365516663,-16.579971313,0.066234007,0.101786986,1.058930874
40.392646,7.176307678,16.778541565,-18.555984497,0.057933226,0.077372923,0.994477749
40.430943,2.903846741,17.953468323,-20.051345825,0.044139281,0.102641478,1.000703335
40.445255,4.521278381,14.649940491,-18.639907837,0.039256468,0.112773314,1.023774624
40.460617,6.749061584,12.818885803,-17.594680786,0.044261351,0.114726439,1.020600796
40.498929,9.945777893,10.606361389,-19.700393677,0.068309203,0.082866088,0.930634975
40.552783,5.932716370,-3.797935486,-14.489517212,0.043284789,0.081889525,0.891084194
40.567128,4.887489319,-6.513999939,-14.512405396,0.046458617,0.086039916,0.887788296
40.582479,3.575233459,-10.107444763,-13.284072876,0.031321898,0.073222533,0.915254116
40.620813,3.918556213,-8.665489197,-11.193618774,0.062693968,0.082621947,0.944795132
40.659116,3.857521057,9.927345276,-17.915115356,0.106761351,0.100200072,0.895356655
40.673422,2.751258850,16.160560608,-19.082412720,0.101390257,0.083720580,0.877412319
40.688770,1.889137268,18.037391663,-19.395217896,0.097606078,0.084697142,0.872773647
40.727105,-2.871604919,18.899513245,-21.394119263,0.088206664,0.101664916,0.887300014
40.765426,-1.528831482,7.920814514,-21.188125610,0.079173461,0.154155150,0.908296108
40.779720,-0.643821716,4.632545471,-21.371231079,0.071360961,0.133403197,0.898774624
40.795065,-2.947898865,-1.287864685,-21.577224731,0.073924437,0.122905150,0.900971889
40.833387,-7.075401306,-10.542320251,-23.621902466,0.060984984,0.177470580,0.926606655
40.871681,-10.478111267,-20.964073181,-20.669326782,0.071971312,0.177836791,0.954194546
40.885998,-9.516807556,-21.376060486,-21.081314087,0.075267211,0.209208861,0.974336147
40.901373,-7.998558044,-20.407127380,-23.034439087,0.051341429,0.188090697,1.006562710
40.939671,-3.710838318,-29.417442322,-19.585952759,0.003611937,0.094096556,1.081269741
40.977993,-4.000755310,-29.608177185,-15.130386353,0.048655882,0.120341673,1.093354702
40.992297,0.027565002,-21.521018982,-18.426284790,0.060496703,0.128520384,1.087251186
41.007642,1.683143616,-16.790794373,-19.784317017,0.055613890,0.102641478,1.086152554
41.045946,3.781227112,-4.545616150,-19.975051880,0.024485961,0.050517455,1.054048061
41.084248,2.873329163,4.106117249,-21.005020142,0.013377562,0.100444213,0.988496304
41.098547,0.897315979,6.730628967,-20.989761353,0.000193968,0.089091673,0.930634975
41.113892,-1.887413025,7.104469299,-20.776138306,-0.001515016,0.085551634,0.896699429
41.152212,-12.896629333,2.168251038,-17.655715942,0.008616820,0.132670775,0.928559780
41.190505,-9.867759705,13.093544006,-21.417007446,0.023265257,0.091288939,0.933930874
41.204823,-10.905357361,13.009620667,-21.706924438,0.012523070,0.076762572,0.935395718
41.220173,-13.102622986,6.616188049,-20.470962524,-0.019581422,0.061747923,0.967378139
41.258464,-4.740806580,-4.385398865,-14.970169067,-0.006519899,0.121684447,0.999482632
41.312449,-12.568565369,-3.927635193,-17.182693481,0.064402953,0.060283080,1.000337124
41.326789,-11.752220154,-2.722190857,-15.839920044,0.083323851,0.112895384,1.053437710
41.342177,2.171424866,5.311561584,-22.088394165,0.123973265,0.159526244,1.032197475
41.380479,-6.190391541,13.604713440,-28.107986450,0.082713500,0.095195189,0.919892788
41.418787,-0.071617126,9.645057678,-33.303604126,0.098582640,0.162089720,1.060761929
41.433105,4.536537170,9.278846741,-35.081253052,0.099192992,0.144145384,1.041230679
41.448476,4.193214417,8.164955139,-38.857803345,0.102366820,0.096293822,0.960908413
41.486793,2.011207581,-1.310752869,-39.735183716,0.077586547,0.139872923,1.003266811
41.541098,2.552894592,-18.911766052,-45.159683228,0.058421507,0.070170775,0.928071499
41.555458,-0.849815369,-24.832176208,-44.419631958,0.053660765,0.051127806,0.966889858
41.570834,-1.834007263,-32.896446228,-43.168411255,0.081248656,0.065410033,1.042573452
41.609154,6.009010315,-30.249046326,-53.933486938,0.048167601,0.021464720,0.949555874
41.647458,2.812294006,-25.724815369,-51.133499146,0.102244750,0.089946166,1.067109585
41.661759,11.677650452,-22.818016052,-57.397232056,0.096385375,0.135478392,1.010835171
41.677126,17.529396057,-17.782615662,-65.339431763,0.006053343,0.034648314,0.772065639
41.715457,-24.348350525,-4.019187927,-47.311172485,0.123607054,0.089335814,0.962373257
41.753755,1.973060608,18.395973206,-66.460952759,0.052928343,0.172831908,0.871064663
41.768060,-3.794761658,24.911476135,-62.074050903,0.003978148,-0.029804811,0.872651577
41.783421,-13.598533630,28.573585510,-55.520401001,0.025340453,-0.046650514,0.922944546
41.821729,-6.411643982,41.650367737,-68.848953247,0.021190062,0.129619017,0.916841030
41.860055,-16.879173279,20.303321838,-49.432144165,0.005076781,-0.011005983,0.979096889
41.874363,-9.204002380,9.133888245,-52.903518677,0.014354125,0.094462767,0.958833218
41.889715,-5.457969666,2.023292542,-54.093704224,-0.005543336,0.053691283,0.931123257
41.928049,-18.969627380,-33.644126892,-36.805496216,-0.018238649,-0.021259889,1.030854702
41.966361,-2.436729431,-45.996116638,-41.627273560,-0.016285524,-0.011005983,0.934907436
41.980670,-7.937522888,-48.818992615,-38.377151489,-0.036060914,-0.069111452,0.925385952
41.996038,-20.411582947,-51.275657654,-29.168472290,0.008738890,-0.035297975,1.041718960
42.034361,-3.359886169,-35.437034607,-41.306838989,0.051463500,0.094096556,0.977143764
42.072667,-20.251365662,-26.060508728,-32.700881958,0.032298461,-0.025532350,1.020844936
42.086986,-18.679710388,-16.714500427,-36.050186157,0.074534789,0.125224486,1.080293179
42.102377,-10.012718201,-11.900352478,-39.170608521,0.069651976,0.152568236,1.087007046
42.140694,-13.743492126,-2.058433533,-39.979324341,0.031688109,-0.039204225,0.993257046
42.179046,-2.444358826,-1.028465271,-39.498672485,0.088328734,0.176127806,1.101167202
42.193359,3.598121643,-0.456260681,-47.608718872,0.049876586,0.079448119,0.966401577
42.208712,-3.710838318,-3.263877869,-46.029434204,0.006297484,-0.016255006,0.978364468
42.247058,-6.220909119,-8.917259216,-41.230545044,0.072459593,0.136088744,1.189546108
42.285368,-2.299400330,-4.995750427,-45.983657837,0.002879515,-0.156269655,1.051484585
42.299672,-16.009422302,-4.690574646,-38.773880005,-0.016529664,-0.119892702,1.140840054
42.315041,-8.151145935,-2.760337830,-41.406021118,0.076609984,0.108622923,1.217133999
42.353356,13.203529358,-0.296043396,-48.318252563,-0.003590211,-0.049946412,0.969575405
42.391657,-2.123924255,-11.701988220,-36.721572876,0.059398070,0.123515502,1.097627163
42.418507,14.424232483,-8.444236755,-45.373306274,0.015208617,0.094340697,0.938203335
42.432843,2.034095764,-7.734703064,-41.001663208,-0.012989625,-0.056171998,0.899018764
42.471073,-6.480308533,-1.326011658,-39.513931274,0.044627562,0.108256713,1.045991421
42.509387,3.094581604,7.653785706,-42.619094849,0.018260375,-0.062397584,0.889741421
42.523674,-16.924949646,9.042335510,-39.216384888,-0.011768922,-0.080219850,0.959199429
42.539031,-18.702598572,8.828712463,-36.385879517,0.013987914,0.024760619,1.025971889
42.588974,4.734901428,7.066322327,-43.443069458,-0.036427125,0.023417845,0.892426968
42.627325,-11.164756775,-9.474205017,-29.885635376,0.013621703,0.106547728,1.062470913
42.641642,6.260780334,-12.739585876,-34.318313599,-0.008961305,0.085795775,1.019868374
42.657019,7.679847717,-15.753196716,-33.646926880,-0.023853883,0.017924681,0.976045132
42.695335,-9.516807556,-24.633811951,-24.781570435,0.006297484,0.048320189,1.031342983
42.733644,1.286415100,-18.797325134,-32.533035278,-0.020924196,0.002910033,0.948091030
42.747949,-4.336448669,-19.216941833,-28.489456177,-0.028248414,-0.033344850,0.961152554
42.763304,-10.638328552,-15.676902771,-24.331436157,0.041697875,0.054057494,1.023896694
42.801637,1.896766663,0.779701233,-36.073074341,0.032786742,0.051860228,0.997773647
42.839917,-8.151145935,2.114845276,-28.916702271,0.071849242,0.090312377,1.056245327
42.854217,-2.368064880,3.823829651,-33.845291138,0.072825804,0.124858275,1.054414272
42.869584,5.185035706,4.991127014,-35.767898560,0.046214476,0.040873900,1.030122280
42.907889,-7.144065857,0.802589417,-34.562454224,0.038401976,0.016948119,1.015351772
42.946171,0.920204163,2.191139221,-39.819107056,0.100901976,0.095683470,1.086396694
42.960471,8.946327209,1.664710999,-44.953689575,0.025462523,0.061747923,0.999604702
42.975826,7.405189514,-1.264976501,-41.352615356,-0.010548219,-0.004536256,0.957490444
43.014136,-2.520652771,-0.814842224,-41.062698364,0.108836547,0.084086791,1.073335171
43.052443,8.908180237,-4.866050720,-42.863235474,0.016795531,0.035502806,0.932466030
43.066734,2.941993713,-7.460044861,-38.873062134,0.010814086,-0.020039186,0.926484585
43.082098,-9.043785095,-7.627891541,-35.622940063,0.079783812,0.045390502,0.973481655
43.120424,1.873878479,1.779151917,-44.938430786,0.040721312,0.080180541,0.957978725
43.158694,-9.265037537,0.901771545,-38.087234497,0.112986937,0.060038939,1.023530483
43.173014,-4.267784119,2.915931702,-42.291030884,0.100047484,0.085917845,1.034028530
43.188372,3.949073792,4.487586975,-43.008193970,0.062693968,0.020610228,0.974580288
43.226673,-9.173484802,2.130104065,-38.201675415,0.078441039,0.044169798,1.018159389
43.264938,3.094581604,6.539894104,-43.488845825,0.049266234,0.034526244,0.982026577
43.292214,-6.152244568,3.076148987,-37.293777466,0.020091429,-0.013935670,0.997163296
43.306544,-0.979515076,-2.020286560,-36.782608032,0.067454711,0.111186400,1.032075405
43.344748,9.266761780,-5.865501404,-38.987503052,0.020701781,0.057353392,0.912080288
43.383044,-4.908653259,-22.520469666,-32.433853149,0.048167601,0.112773314,1.000581264
43.397354,7.405189514,-26.579307556,-34.966812134,0.035594359,0.150737181,0.975923061
43.412702,9.922889709,-27.281211853,-34.768447876,0.014842406,0.106913939,0.917939663
43.451045,-10.813804626,-29.211448669,-28.718338013,0.058665648,0.088603392,1.000825405
43.489344,6.565956116,-16.226219177,-37.621841431,0.059520140,0.041118041,0.928071499
43.503645,1.355079651,-13.594078064,-37.080154419,0.038401976,-0.014179811,0.916963100
43.519007,-9.379478455,-8.245872498,-34.432754517,0.076487914,0.049540892,0.996186733
43.557320,3.544715881,5.532814026,-41.276321411,0.033030882,0.045024291,0.984956264
43.595620,-6.693931580,13.009620667,-45.075759888,0.016063109,0.093852416,1.035249233
43.609927,-3.733726501,11.727882385,-41.879043579,0.001658812,0.123393431,1.040864468
43.625296,1.057533264,10.995460510,-38.224563599,0.048045531,0.102885619,1.034150600
43.663655,-1.978965759,7.852149963,-44.862136841,-0.018849000,0.056743041,0.972627163
43.701935,-3.436180115,-3.607200623,-35.569534302,0.011790648,0.126933470,1.002534389
43.716245,-0.689598083,-1.600669861,-38.606033325,0.047801390,0.124980345,0.987641811
43.731601,-1.231285095,-0.761436462,-42.733535767,0.036937132,0.112040892,0.976167202
43.769912,-2.017112732,-19.529747009,-30.549392700,-0.003712282,0.127910033,1.032563686
43.808234,-1.521202087,-14.440940857,-40.818557739,0.033397093,0.034282103,0.962007046
43.822527,-6.358238220,-14.479087830,-39.124832153,0.003978148,0.012797728,0.981904507
43.849929,-3.359886169,-19.003318787,-35.081253052,0.034007445,0.056498900,1.075898647
43.888296,1.599220276,-16.340660095,-36.996231079,0.001902953,-0.025166139,0.911592007
43.926623,-4.984947205,-24.427818298,-33.219680786,0.011058226,0.110331908,1.011445522
43.940936,1.973060608,-23.756431580,-32.639846802,0.007762328,0.106059447,0.975068569
43.956302,0.607398987,-21.086143494,-32.334671021,0.028636351,-0.003803834,0.892793179
43.994648,-10.546775818,-26.068138123,-31.197891235,0.020457640,0.102885619,0.991303921
44.032945,-4.954429626,-19.293235779,-33.898696899,0.050242797,0.021220580,0.895967007
44.047257,-11.004539490,-18.576072693,-34.112319946,0.048533812,0.016337767,0.914643764
44.062618,-13.239952087,-18.858360291,-35.134658813,0.058909789,0.107402220,0.983857632
44.100940,-5.343528748,-14.997886658,-34.959182739,0.067820922,0.070292845,0.924165249
44.139232,-13.377281189,-8.139060974,-39.918289185,0.098216429,0.102031127,0.990937710
44.168027,-5.274864197,-8.169578552,-42.031631470,0.037669554,0.073588744,0.973847866
44.182380,-10.676475525,-4.209922791,-38.590774536,0.070994750,-0.000263795,0.981172085
44.220599,-5.396934509,5.654884338,-49.249038696,0.044749632,0.076152220,1.022553921
44.258891,-8.586021423,9.614540100,-44.885025024,0.032298461,0.012431517,0.946137905
44.273175,-15.025230408,16.397071838,-45.495376587,0.080760375,0.043071166,1.011933804
44.288539,-12.835594177,17.854286194,-49.287185669,0.087596312,0.075663939,1.027070522
44.326886,-5.801292419,6.753517151,-40.101394653,-0.011158571,-0.002094850,0.945771694
44.365187,-11.355491638,-1.936363220,-44.747695923,0.043895140,0.038676634,1.003266811
44.379474,-5.961509705,-10.031150818,-36.919937134,0.003856078,0.031962767,0.998383999
44.394814,-5.007835388,-11.373924255,-30.312881470,0.024485961,0.021586791,0.979951382
44.433140,-12.736412048,16.595436096,-43.000564575,0.221141234,0.115580931,1.089692593
44.471446,0.950721741,27.978492737,-39.979324341,0.145335570,0.032206908,1.030854702
44.485733,-2.215476990,24.301124573,-43.176040649,0.120921507,0.029033080,1.028901577
44.501077,-2.207847595,10.995460510,-39.513931274,0.061107054,0.064311400,1.046357632
44.539412,8.549598694,-15.997337341,-38.110122681,0.072581664,0.058818236,0.955293179
44.577681,-1.689048767,-20.513938904,-39.109573364,0.063060179,-0.010029420,0.911592007
44.591981,-7.334800720,-20.872520447,-38.293228149,0.066844359,0.059916869,0.963716030
44.607324,-6.053062439,-20.796226501,-38.644180298,0.064647093,0.085917845,0.993745327
44.645670,1.683143616,-17.652915955,-33.990249634,0.047191039,0.039286986,0.987763882
44.683944,-4.740806580,-12.220787048,-40.673599243,0.017405882,0.019389525,1.070771694
44.698243,1.912025452,-17.607139587,-33.044204712,-0.029835328,0.033183470,1.082002163
44.713591,4.406837463,-20.620750427,-30.114517212,-0.014332399,0.005595580,1.066499233
44.751925,-1.093955994,-20.285057068,-33.158645630,-0.000538453,0.002787963,1.065034389
44.790232,9.114173889,-18.743919373,-33.006057739,-0.035938844,0.044658080,1.048188686
44.804528,9.701637268,-19.453453064,-30.312881470,-0.052784547,-0.005879030,1.003633022
44.819871,-1.055809021,-19.842552185,-27.612075806,-0.023365602,-0.058125123,0.983979702
44.858217,-1.353355408,-21.177696228,-23.621902466,-0.033863649,0.103984252,1.066987514
44.896500,-2.970787048,-12.106346130,-15.031204224,0.049876586,0.022075072,0.999238491
44.910823,-4.679771423,-7.345603943,-16.404495239,0.091990843,0.053080931,1.035249233
44.926173,-3.756614685,4.746986389,-23.034439087,0.098948851,0.115947142,1.066743374
44.978066,5.215553284,19.631935120,-29.382095337,0.054881468,0.093364134,0.968965054
45.016457,-0.109764099,11.361671448,-29.939041138,0.013377562,0.108867064,1.004609585
45.030762,1.629737854,7.333351135,-30.625686646,-0.001270875,0.116313353,1.024873257
45.046111,5.909828186,-1.997398376,-27.421340942,-0.023365602,0.104350463,1.033296108
45.084464,7.771400452,-11.442588806,-25.742874146,-0.002125368,0.066630736,0.990937710
45.122741,5.101112366,-12.159751892,-26.368484497,-0.001515016,0.074443236,0.990815639
45.137038,6.840614319,-11.679100037,-25.857315063,0.001902953,0.098979369,0.993257046
45.166190,8.290199280,-7.223533630,-26.475296021,0.026317015,0.037455931,0.952851772
45.204574,4.345802307,-3.836082458,-27.467117310,0.031199828,0.105327025,0.970551968
45.242854,6.604103088,-8.207725525,-28.115615845,0.013621703,0.097392455,0.928071499
45.257152,3.239540100,-13.060020447,-26.383743286,0.021067992,0.084208861,0.880342007
45.272502,-0.208946228,-15.104698181,-26.582107544,0.021922484,0.081035033,0.873261929
45.310865,-5.480857849,-16.310142517,-26.879653931,0.019725218,0.125468627,0.954682827
45.349151,-5.038352966,-8.749412537,-26.482925415,0.045604125,0.100932494,0.943696499
45.363452,-6.701560974,-4.057334900,-26.917800903,0.058787718,0.105815306,0.952119350
45.378808,-7.075401306,5.075050354,-29.466018677,0.052928343,0.131083861,0.976289272
45.417150,-2.772422791,0.444007874,-25.010452271,0.027171507,0.131205931,0.990937710
45.455437,0.492958069,-4.980491638,-21.653518677,0.038646117,0.124247923,1.014985561
45.469731,-0.605674744,-5.209373474,-22.355422974,0.027537718,0.134379759,0.993257046
45.485093,-2.467247009,-9.779380798,-16.961441040,0.023753539,0.159648314,1.002290249
45.523442,0.935462952,-16.874717712,-10.979995728,0.067942992,0.127299681,0.983491421
45.561709,0.470069885,-7.757591248,-10.896072388,0.071605101,0.119120970,0.974824429
45.576016,0.279335022,-2.874778748,-11.033401489,0.085521117,0.123759642,0.972138882
45.591371,-0.697227478,0.695777893,-9.698257446,0.099070922,0.149028197,0.980927944
45.629699,4.986671448,23.652626038,-10.438308716,0.170115843,0.189677611,0.948945522
45.668015,2.835182190,32.670570374,-13.169631958,0.066844359,0.110698119,0.945893764
45.682318,3.949073792,24.621559143,-9.805068970,0.065745726,0.137797728,0.931489468
45.711640,2.873329163,10.430885315,-6.295547485,0.079783812,0.121196166,0.929414272
45.750085,2.575782776,3.129554749,-7.317886353,0.104197875,0.109965697,0.959931850
45.788398,5.459693909,-3.294395447,-8.370742798,0.096141234,0.151469603,0.932954311
45.802688,5.650428772,-9.313987732,-7.912979126,0.074046507,0.121318236,0.891328335
45.818006,3.888038635,-11.396812439,-8.057937622,0.071849242,0.110576048,0.880708218
45.856343,-0.186058044,-17.607139587,-5.517349243,0.063792601,0.149394408,0.920991421
45.894650,0.309852600,-17.095970154,-4.388198853,0.072703734,0.143535033,0.965425014
45.908949,2.186683655,-15.882896423,-4.464492798,0.074656859,0.147563353,0.965180874
45.924281,3.628639221,-11.389183044,-4.685745239,0.078807250,0.123149291,0.939057827
45.962636,-2.688499451,-3.897117615,-5.212173462,0.075877562,0.152690306,0.965791225
46.000925,0.889686584,5.250526428,-6.944046021,0.081248656,0.138041869,0.957734585
46.015214,-0.018211365,7.760597229,-7.500991821,0.079173461,0.124492064,0.951631069
46.030550,-2.947898865,10.095191956,-7.157669067,0.077342406,0.139262572,0.950776577
46.068893,-1.093955994,10.446144104,-8.599624634,0.086863890,0.187358275,0.966035366
46.107212,-5.045982361,7.409645081,-8.668289185,0.061473265,0.138163939,0.926728725
46.121488,-8.441062927,3.579689026,-8.012161255,0.055247679,0.170512572,0.947480679
46.136825,-8.257957458,2.420021057,-7.455215454,0.056346312,0.178080931,0.964814663
46.175168,-4.946800232,6.074501038,-8.088455200,0.072459593,0.175273314,0.966645718
46.213448,-5.549522400,2.328468323,-7.027969360,0.046092406,0.176494017,0.963227749
46.227730,-6.228538513,-1.196311951,-6.333694458,0.034495726,0.166728392,0.972993374
46.243071,-7.090660095,-7.032798767,-4.830703735,0.014720336,0.179179564,1.015717983
46.281428,-4.977317810,-21.345542908,-1.016006470,0.003978148,0.169169798,1.018891811
46.319726,-3.703208923,-25.602745056,2.646102905,0.050242797,0.170634642,1.037446499
46.334019,-2.955528259,-22.528099060,1.936569214,0.061595336,0.167582884,1.032563686
46.349378,-1.872154236,-12.548851013,-1.000747681,0.076121703,0.169413939,1.017426968
46.387716,-0.254722595,4.403663635,-3.266677856,0.041087523,0.157084838,0.974824429
46.426036,0.088600159,9.156776428,-1.870498657,0.055003539,0.164286986,0.930634975
46.440324,-2.131553650,12.780738831,-2.847061157,0.069285765,0.174662963,0.919038296
46.486279,-2.078147888,16.511512756,-5.700454712,0.054515257,0.183085814,0.906831264
46.524691,-6.289573669,4.891944885,-3.243789673,0.029124632,0.152079955,0.957978725
46.563009,-3.672691345,-3.317283630,-3.220901489,0.040843382,0.133159056,0.977632046
46.577299,-3.810020447,-3.828453064,-3.655776978,0.035228148,0.123515502,0.981782436
46.592622,-3.634544373,-4.232810974,-3.617630005,0.029246703,0.119975463,0.982270718
46.630944,-2.986045837,-4.988121033,-2.122268677,0.026683226,0.127299681,0.955171108
46.669232,-7.533164978,-0.685142517,-2.534255981,0.040599242,0.119853392,0.972505093
46.683514,-6.808372498,0.650001526,-2.801284790,0.040965453,0.134379759,0.983003139
46.698856,-4.801841736,3.076148987,-2.984390259,0.041819945,0.138652220,0.988862514
46.737189,-5.267234802,-0.578330994,-1.748428345,0.029002562,0.126567259,0.983003139
46.775458,-4.572959900,-6.918357849,-0.436172485,0.037425414,0.142192259,1.009736538
46.789740,-3.802391052,-7.009910583,-0.611648560,0.041331664,0.149638548,1.004243374
46.805067,-3.169151306,-6.109642029,-0.871047974,0.042796507,0.150126830,0.994111538
46.843407,-5.999656677,0.672889709,-1.954421997,0.042796507,0.133891478,1.000215054
46.881700,-3.115745544,1.435829163,-1.023635864,0.048655882,0.146708861,1.013032436
46.896002,-3.146263123,1.237464905,-1.572952271,0.051951781,0.121928588,1.016206264
46.911329,-3.436180115,1.405311584,-1.756057739,0.053172484,0.115214720,1.022675991
46.949679,-1.284690857,4.235816956,-3.060684204,0.050364867,0.118754759,1.047578335
47.003778,2.568153381,10.446144104,-3.861770630,0.041819945,0.110453978,1.007050991
47.019368,1.667884827,10.125709534,-3.426895142,0.040965453,0.099101439,0.967744350
47.033637,0.477699280,9.538246155,-3.167495728,0.043528929,0.098124877,0.962617397
47.071846,0.447181702,9.751869202,-3.930435181,0.056956664,0.117656127,0.955903530
47.110125,-2.009483337,7.073951721,-4.380569458,0.033152953,0.111552611,0.923432827
47.124408,-3.390403748,1.748634338,-3.541336060,0.016307250,0.114360228,0.930390835
47.139758,-4.160972595,-1.112388611,-3.083572388,0.010936156,0.117656127,0.937226772
47.178101,-4.275413513,-10.633872986,0.174179077,-0.007008180,0.113994017,0.951386929
47.216430,-8.219810486,-14.730857849,2.073898315,0.007396117,0.095195189,0.980195522
47.248002,-6.106468201,-13.182090759,-0.207290649,0.025340453,0.132060423,1.041474819
47.262328,-2.940269470,-12.792991638,-0.169143677,0.016063109,0.125712767,1.034150600
47.300546,-3.550621033,-4.354881287,-1.389846802,0.039378539,0.090312377,1.014985561
47.338854,0.576881409,-4.469322205,-0.184402466,0.038524047,0.111186400,1.024751186
47.353126,1.042274475,-4.011558533,-1.069412231,0.057567015,0.117656127,1.016816616
47.368460,1.080421448,-3.057884216,-1.588211060,0.060374632,0.126689330,1.010102749
47.406777,1.835731506,5.807472229,-4.762039185,0.083934203,0.143168822,0.970674038
47.445066,-4.389854431,5.273414612,-5.853042603,0.025462523,0.098857298,0.974214077
47.459352,-5.389305115,2.313209534,-4.182205200,0.022288695,0.101054564,0.992402554
47.474681,-3.169151306,-3.004478455,-3.121719360,0.033519164,0.104228392,1.022798061
47.513020,1.332191467,-2.447532654,-3.930435181,0.059520140,0.092387572,0.991303921
47.551294,1.561073303,4.312110901,-6.135330200,0.035594359,0.094218627,0.974214077
47.565588,1.873878479,4.617286682,-6.059036255,0.028514281,0.101054564,0.974580288
47.580915,1.469520569,2.770973206,-5.601272583,0.004466429,0.095805541,0.975434780
47.619268,0.538734436,-3.485130310,-1.923904419,-0.003590211,0.090190306,0.990083218
47.657537,0.630287170,-3.843711853,-0.298843384,0.027171507,0.089702025,0.994599819
47.671845,0.500587463,0.527931213,-0.756607056,0.039744750,0.100810423,0.981416225
47.687166,0.729469299,2.404762268,-0.848159790,0.040721312,0.100078002,0.974702358
47.725495,-0.254722595,4.670692444,0.807418823,0.046458617,0.084086791,0.939790249
47.763785,-2.528282166,7.852149963,0.700607300,0.075877562,0.113383666,0.978608608
47.778065,-1.544090271,8.508277893,0.006332397,0.075633422,0.114360228,0.981050014
47.793386,-0.392051697,8.134437561,-0.710830688,0.065867797,0.094706908,0.967133999
47.843030,-4.061790466,0.497413635,-0.245437622,0.063426390,0.083964720,0.977265835
47.881389,-2.612205505,-3.042625427,-1.443252563,0.052440062,0.099711791,1.015840054
47.895681,-1.856895447,-3.538536072,-1.382217407,0.043162718,0.099223509,1.014253139
47.911033,-0.948997498,-5.087303162,-1.115188599,0.029368773,0.088237181,1.008393764
47.949361,-0.735374451,-8.284019470,1.448287964,0.016063109,0.088725463,0.981782436
47.999198,-1.483055115,-2.470420837,2.188339233,0.043651000,0.107280150,0.971040249
48.013544,-1.437278748,-0.204490662,1.867904663,0.045604125,0.101176634,0.970551968
48.028906,-2.245994568,3.419471741,1.814498901,0.053172484,0.099345580,0.970674038
48.067256,-2.459617615,6.043983459,1.288070679,0.059031859,0.095683470,0.972383022
48.105528,-3.626914978,7.066322327,0.219955444,0.064647093,0.088847533,1.009492397
48.119830,-2.657981873,5.944801331,0.212326050,0.067576781,0.093119994,1.024507046
48.135180,-1.956077576,5.090309143,0.036849976,0.067698851,0.091166869,1.021821499
48.173489,-2.017112732,0.115943909,0.113143921,0.055491820,0.082744017,1.035005093
48.211772,1.622108459,-3.881858826,0.151290894,0.050486937,0.094951048,1.015229702
48.226061,2.468971252,-3.805564880,-0.176773071,0.046580687,0.095561400,0.999360561
48.241402,1.805213928,-3.340171814,-0.047073364,0.039988890,0.078959838,0.969697475
48.279711,-0.453086853,2.061439514,-0.314102173,0.059886351,0.094462767,0.973725796
48.317999,-0.537010193,9.271217346,-2.694473267,0.068309203,0.089091673,0.967256069
48.332286,-0.895591736,9.568763733,-3.259048462,0.064891234,0.095561400,0.966279507
48.347629,-1.223655701,6.982398987,-3.709182739,0.045115843,0.081889525,0.968598843
48.385938,-2.162071228,-1.570152283,-1.672134399,0.029857054,0.080546752,0.991670132
48.424229,-0.247093201,-6.727622986,-0.794754028,0.037669554,0.086528197,1.013398647
48.438512,-0.300498962,-6.430076599,-0.932083130,0.038646117,0.066630736,1.008149624
48.453867,-0.979515076,-6.109642029,-1.229629517,0.034373656,0.068095580,1.014741421
48.492173,2.888587952,-5.316184998,-0.527725220,0.024974242,0.083110228,1.010102749
48.530445,0.782875061,-3.569053650,0.227584839,0.023875609,0.077861205,0.974946499
48.544728,0.256446838,-2.638267517,0.380172729,0.024852172,0.079692259,0.978486538
48.560072,0.225929260,0.154090881,0.418319702,0.034495726,0.094584838,0.993379116
48.598355,1.690773010,4.975868225,-0.275955200,0.040477172,0.086772338,0.977876186
48.636639,0.065711975,3.228736877,-0.115737915,0.041575804,0.088725463,0.967133999
48.650932,-0.079246521,2.206398010,-0.008926392,0.036937132,0.086894408,0.968965054
48.666269,-0.186058044,0.611854553,0.715866089,0.041942015,0.078471556,0.977387905
48.704540,0.325111389,0.405860901,-0.321731567,0.039988890,0.085063353,0.964814663
48.754635,-1.635643005,-1.623558044,1.204147339,0.016917601,0.080912963,0.978486538
48.768970,-1.498313904,-1.547264099,1.478805542,0.019969359,0.083110228,0.983613491
48.784334,-1.269432068,-0.204490662,1.799240112,0.028758422,0.080546752,0.991303921
48.822670,-0.582786560,3.663612366,0.868453979,0.035228148,0.087870970,0.998628139
48.860939,0.264076233,2.633644104,1.303329468,0.029734984,0.091533080,0.983979702
48.875220,-0.475975037,0.283790588,1.951828003,0.028514281,0.093364134,0.974336147
48.890574,-0.880332947,-0.845359802,2.157821655,0.027171507,0.098369017,0.977876186
48.928891,-0.353904724,-1.654075623,2.554550171,0.024852172,0.113871947,0.978364468
48.967162,-1.437278748,1.672340393,2.890243530,0.021678343,0.105327025,0.956758022
48.981444,-2.177330017,1.748634338,3.325119019,0.021678343,0.106303588,0.964326382
48.996792,-2.787681580,1.710487366,3.569259644,0.022410765,0.109599486,0.982881069
49.035120,-0.910850525,2.465797424,3.615036011,0.032664672,0.132792845,1.007050991
49.073435,0.737098694,-0.112937927,4.370346069,0.026927367,0.139994994,0.993379116
49.087721,0.538734436,-1.585411072,4.507675171,0.024241820,0.136332884,0.992280483
49.103061,0.019935608,-4.003929138,5.110397339,0.022776976,0.143168822,0.991548061
49.141370,-1.719566345,-2.859519958,5.743637085,0.023509398,0.144389525,1.018281460
49.191677,1.431373596,2.328468323,4.805221558,0.041209593,0.151347533,1.000825405
49.206019,0.706581116,3.114295959,4.576339722,0.039378539,0.150126830,1.001313686
49.221378,0.851539612,6.593299866,4.110946655,0.044139281,0.162089720,1.007173061
49.259699,2.980140686,12.925697327,2.745285034,0.040355101,0.174052611,0.983735561
49.298005,1.522926331,11.636329651,3.264083862,0.032908812,0.156962767,0.942353725
49.312302,1.141456604,9.667945862,3.454818726,0.045115843,0.178447142,0.953706264
49.327648,1.454261780,8.744789124,2.821578979,0.044017211,0.177104369,0.956025600
49.365957,2.507118225,2.290321350,2.188339233,0.011424437,0.182963744,0.948579311
49.404239,-0.643821716,-10.336326599,6.094589233,-0.012745485,0.165141478,0.919648647
49.418527,-1.643272400,-12.625144958,7.124557495,-0.008717164,0.176616088,0.930268764
49.433885,-1.551719666,-13.670372009,7.628097534,0.012401000,0.196391478,0.952363491
49.485523,-1.139732361,-3.141807556,4.873886108,0.053904906,0.182963744,0.930757046
49.523893,-2.474876404,1.130653381,2.600326538,0.050609007,0.188090697,0.978974819
49.538193,-2.024742126,0.772071838,2.371444702,0.052684203,0.190043822,0.992280483
49.553524,-0.491233826,-1.173423767,1.715316772,0.054149047,0.190043822,1.008759975
49.591884,0.012306213,-5.438255310,0.982894897,0.059031859,0.178569213,1.036225796
49.630183,4.765419006,-6.811546326,-1.473770142,0.041942015,0.169169798,1.037690639
49.644461,4.765419006,-8.047508240,-1.298294067,0.032420531,0.157206908,1.023408413
49.659808,2.537635803,-9.886192322,0.265731812,0.023509398,0.134623900,1.009614468
49.698140,1.889137268,-4.461692810,0.616683960,0.066600218,0.165263548,1.022431850
49.736439,3.651527405,11.338783264,-6.112442017,0.049144164,0.109599486,0.984345913
49.750724,2.018836975,9.431434631,-4.464492798,0.010081664,0.100566283,0.991303921
49.766067,1.873878479,6.745887756,-3.259048462,0.008372679,0.101664916,1.002778530
49.804391,5.131629944,2.152992249,0.624313354,0.029246703,0.106791869,0.986787319
49.842666,0.523475647,11.865211487,-2.259597778,0.036204711,0.089091673,0.939546108
49.856953,0.859169006,12.330604553,-1.923904419,0.030101195,0.091044798,0.944673061
49.872287,1.576332092,9.568763733,-0.077590942,0.011302367,0.087504759,0.946382046
49.910597,0.676063538,-3.927635193,4.233016968,-0.001392946,0.076274291,0.949189663
49.948882,0.309852600,-12.190269470,7.673873901,0.008128539,0.105815306,0.990205288
49.963159,1.324562073,-11.473106384,8.459701538,0.008128539,0.115458861,0.981904507
49.978491,2.606300354,-7.879661560,7.887496948,0.034861937,0.111308470,0.961396694
50.016814,-0.872703552,2.297950745,6.300582886,0.054271117,0.102763548,0.951020718
50.055120,1.614479065,7.318092346,6.735458374,0.058909789,0.133036986,0.967133999
50.069414,1.606849670,11.560035706,6.994857788,0.077830687,0.116313353,0.950166225
50.084765,0.187782288,14.192176819,5.438461304,0.090648070,0.120097533,0.946015835
50.123092,-0.872703552,20.562721252,1.349105835,0.073314086,0.159282103,0.999970913
50.161377,4.269508362,10.934425354,3.370895386,0.044871703,0.141703978,0.954438686
50.175662,0.149635315,4.823280334,4.263534546,0.053782836,0.142070189,0.946259975
50.191015,-1.895042419,2.229286194,4.324569702,0.057567015,0.151957884,0.976289272
50.229328,2.545265198,-8.497642517,4.423751831,0.052195922,0.206279173,1.032929897
50.281194,-0.712486267,-10.260032654,2.844467163,0.051341429,0.156474486,1.019013882
50.295527,-1.048179626,-11.251853943,2.356185913,0.038646117,0.171489134,1.079682827
50.310904,0.882057190,-11.991905212,3.233566284,0.034251586,0.176249877,1.100434780
50.349232,7.107643127,-15.623497009,3.927841187,0.006907836,0.151835814,1.041352749
50.387516,3.743080139,-17.836021423,8.871688843,0.008494750,0.163432494,1.012300014
50.401829,3.735450745,-15.898155212,8.551254272,0.030833617,0.170634642,1.012422085
50.417187,5.162147522,-7.605003357,8.024826050,0.035960570,0.178691283,0.952973843
50.455485,-5.953880310,19.876075745,3.340377808,0.084788695,0.077739134,0.854951382
50.493777,-1.429649353,30.679298401,4.713668823,0.050975218,0.145610228,0.898042202
50.523058,0.164894104,30.938697815,2.379074097,0.070506468,0.094096556,0.806245327
50.537361,-7.243247986,25.979591370,2.096786499,0.031077757,0.017558470,0.847871304
50.575547,-2.230735779,-0.151084900,2.401962280,-0.004810914,0.133647338,0.816255093
50.613851,-13.842674255,-22.772239685,16.363754272,0.035594359,0.043803588,0.854585171
50.628150,-11.561485291,-24.282859802,9.749069214,0.070994750,0.098979369,0.867646694
50.643539,-1.666160583,-28.303550720,1.005783081,-0.044605836,0.114238158,0.790009975
50.681877,-15.460105896,-35.467552185,20.064010620,0.007762328,0.014506713,0.814912319
50.720169,-9.234519958,-27.082847595,7.841720581,-0.022633180,0.083964720,0.865693569
50.734452,-15.223594666,-26.373313904,18.149032593,-0.024464235,0.038676634,0.867890835
50.749839,-18.664451599,-23.802207947,22.429122925,0.022166625,0.045146361,0.912812710
50.788148,-5.297752380,0.581336975,5.911483765,0.089549437,0.112162963,1.002046108
50.826447,-19.854637146,8.126808167,16.134872437,0.063548461,0.060527220,0.998628139
50.840732,-19.641014099,11.758399963,15.738143921,0.136790648,0.121928588,1.057832241
50.856131,-7.174583435,21.905494690,0.456466675,0.150462523,0.195292845,1.066865444
50.894462,-16.123863220,18.861366272,4.286422729,0.025584593,0.015239134,1.009858608
50.932759,-1.879783630,10.140968323,0.204696655,0.117747679,0.173808470,1.122285366
50.947050,2.858070374,7.165504456,-1.908645630,0.081981078,0.116191283,1.052949429
50.962410,-6.312461853,-5.117820740,3.935470581,0.040599242,-0.033466920,1.078584194
51.000688,-8.776756287,-18.812583923,11.145248413,0.139720336,0.104838744,1.225923061
51.039004,5.833534241,-19.545005798,-1.031265259,0.067942992,-0.077290162,1.037080288
51.053295,-12.042137146,-20.422386169,11.221542358,0.075023070,-0.052754030,1.127168179
51.068675,-10.676475525,-17.355369568,11.366500854,0.146556273,0.030131713,1.148652554
51.107001,12.776283264,2.976966858,-5.837783813,0.116404906,0.013774291,1.008393764
51.159231,-0.773521423,15.252662659,-2.000198364,0.118602172,0.089702025,1.111299038
51.173570,11.860755920,16.336036682,-1.489028931,0.098826781,0.069682494,1.010713100
51.188960,10.189918518,16.351295471,-1.496658325,0.097850218,0.002055541,0.956025600
51.227278,-4.801841736,17.243934631,-0.390396118,0.145579711,0.080912963,1.095185757
51.265592,13.958839417,15.039039612,-3.877029419,0.061107054,0.016581908,0.924165249
51.279880,-1.444908142,14.192176819,1.059188843,0.071116820,-0.022602662,0.971040249
51.295224,-4.077049255,14.260841370,0.021591187,0.089305297,0.049296752,1.008515835
51.333510,10.098365784,8.767677307,0.685348511,0.030955687,0.041240111,0.947846889
51.371832,-0.399681091,3.778053284,0.692977905,0.114451781,0.061137572,1.047212124
51.386110,4.681495667,2.664161682,-2.763137817,0.099192992,0.072856322,1.051118374
51.401471,11.883644104,-2.767967224,-2.297744751,0.060496703,0.035746947,0.983613491
51.439772,-2.261253357,-3.660606384,1.181259155,0.099803343,0.045756713,1.034516811
51.478070,9.800819397,-3.225730896,-0.253067017,0.066478148,0.011210814,0.986665249
51.492355,6.253150940,-1.821922302,-0.024185181,0.074168578,-0.011738405,0.990693569
51.507691,2.354530334,1.054359436,0.799789429,0.090403929,-0.009419069,1.029389858
51.546013,13.104347229,9.545875549,-9.179458618,0.069651976,0.029765502,1.047456264
51.584304,1.759437561,11.735511780,-7.180557251,0.067942992,0.028056517,1.031587124
51.598612,7.244972229,10.026527405,-10.262832642,0.069285765,0.090190306,1.045625210
51.613992,10.090736389,5.960060120,-11.880264282,0.043773070,0.066996947,1.022187710
51.652276,-0.628562927,-9.787010193,-0.375137329,0.035350218,0.028300658,0.971772671
51.690562,0.729469299,-13.151573181,-4.563674927,-0.006764039,0.033915892,1.009126186
51.704857,2.995399475,-14.944480896,-2.175674438,-0.004200563,0.046489134,0.985444546
51.720204,3.071693420,-17.057823181,0.120773315,0.006419554,0.019511595,0.901093960
51.758492,-3.497215271,-12.213157654,-2.404556274,0.037059203,0.061381713,0.958711147
51.796814,0.218299866,-13.281272888,3.416671753,-0.010548219,-0.006245241,0.867646694
51.827558,-10.195823669,-6.460594177,1.127853394,0.060984984,0.029155150,0.960298061
51.841882,-7.800193787,-4.515098572,-2.892837524,0.042918578,0.056865111,0.978852749
51.880055,-0.559898376,-3.591941833,1.806869507,0.008372679,0.009623900,0.920991421
51.918337,2.255348206,2.992225647,-0.214920044,0.052073851,0.105204955,0.940888882
51.932626,4.109291077,2.847267151,-3.060684204,0.036937132,0.096415892,0.919770718
51.947997,2.140907288,-0.051902771,-0.115737915,-0.001148805,0.065043822,0.889253139
51.986269,-0.231834412,-1.402305603,-0.779495239,0.026194945,0.145366088,0.872651577
52.024541,-9.287925720,-3.492759705,0.273361206,0.023997679,0.092753783,0.899629116
52.038841,-10.943504333,-3.149436951,2.775802612,0.026194945,0.113505736,0.974214077
52.054214,-9.730430603,-1.165794373,3.119125366,0.044749632,0.098002806,1.025849819
52.092504,1.568702698,3.297401428,-4.639968872,0.046092406,0.035869017,1.008149624
52.146348,3.949073792,6.700111389,-2.000198364,0.051219359,0.058574095,1.081391811
52.160672,4.933265686,6.898475647,-1.725540161,0.047679320,0.030009642,1.041352749
52.176035,-3.558250427,6.593299866,1.684799194,0.058299437,-0.031025514,1.046113491
52.214336,0.454811096,11.170936584,-6.104812622,0.059031859,0.079448119,1.050508022
52.252656,-9.890647888,9.484840393,3.386154175,0.056468382,-0.015644655,1.032807827
52.266941,-7.586570740,12.422157288,-0.039443970,0.099192992,0.078715697,1.080781460
52.282296,-1.925559998,13.070655823,-3.518447876,0.085276976,0.076030150,1.073457241
52.320624,-4.771324158,4.952980042,3.592147827,0.025706664,-0.019672975,0.989839077
52.358906,2.552894592,13.238502502,-4.021987915,0.098216429,0.064555541,0.969453335
52.373212,-1.933189392,10.652137756,-7.050857544,0.015086547,0.043071166,0.936860561
52.388601,-3.665061951,6.356788635,-2.084121704,-0.015675172,0.065287963,0.915132046
52.426903,-1.360984802,8.515907288,4.263534546,0.101024047,0.119487181,1.014985561
52.465219,2.636817932,14.115882874,-4.144058228,-0.005421266,-0.008930787,0.903901577
52.479500,-1.605125427,10.667396545,1.257553101,0.015452757,-0.018818483,0.930146694
52.494878,-2.032371521,9.667945862,0.845565796,0.069529906,0.064433470,0.991914272
52.533193,5.848793030,9.347511292,-3.304824829,0.031321898,0.018779173,0.912080288
52.571474,-4.458518982,1.443458557,0.502243042,0.052317992,0.042949095,1.012177944
52.585756,3.621009827,-1.730369568,-3.754959106,0.064402953,0.094462767,1.032929897
52.601107,6.771949768,-2.783226013,-5.143508911,0.049632445,0.081035033,1.030610561
52.639448,0.790504456,-6.002830505,2.829208374,0.028392211,0.045268431,1.045503139
52.677731,7.923988342,-6.704734802,-2.671585083,0.028026000,0.048686400,1.090302944
52.692027,9.686378479,-8.116172791,0.815048218,0.000804320,0.021708861,1.015717983
52.707387,5.261329651,-8.207725525,3.744735718,0.019847289,-0.034931764,1.014497280
52.745702,3.422645569,-1.913475037,-5.593643188,0.052440062,0.078715697,1.113008022
52.784009,-0.651451111,-6.018089294,2.104415894,0.009715453,-0.014423952,0.976777554
52.798299,-5.717369080,-4.629539490,2.493515015,0.038401976,0.014384642,1.001801968
52.813647,-5.557151794,-0.517295837,-3.892288208,0.032542601,0.041240111,1.041596889
52.851968,-1.444908142,1.771522522,0.265731812,0.004832640,0.017558470,1.007173061
52.890250,-3.077598572,4.502845764,-2.007827759,0.013377562,0.003764525,0.996797085
52.904526,-3.085227966,2.229286194,-2.244338989,-0.007984743,-0.001362428,1.004853725
52.919880,0.904945374,-4.675315857,2.195968628,-0.022999391,0.050395384,0.972260952
52.973921,-3.558250427,-9.298728943,2.684249878,0.000438109,0.048930541,0.955903530
53.012265,2.102760315,-19.667076111,8.642807007,-0.025684938,0.067973509,0.935273647
53.026554,2.888587952,-19.117759705,9.665145874,-0.000416383,0.061137572,0.917695522
53.041916,0.584510803,-14.952110291,6.804122925,0.029124632,0.042827025,0.932221889
53.080273,0.515846252,-9.344505310,5.385055542,0.005809203,0.047953978,0.905244350
53.118548,-2.108665466,4.457069397,3.538742065,0.050975218,0.070292845,0.962739468
53.132845,-0.842185974,7.257057190,0.921859741,0.046824828,0.079326048,0.974458218
53.164178,1.713661194,9.614540100,2.333297729,0.011180297,0.049296752,0.958955288
53.202577,0.981239319,19.586158752,-5.479202271,0.074290648,0.059916869,1.071382046
53.240887,-2.490135193,12.818885803,0.906600952,-0.003468141,-0.049091920,1.025605679
53.255210,-5.610557556,11.254859924,1.219406128,0.028392211,-0.006733522,1.065888882
53.270612,0.653175354,10.949684143,-3.022537231,0.046702757,0.015483275,1.113374233
53.308949,5.864051819,-0.799583435,-3.243789673,-0.025562868,-0.008930787,0.977876186
53.347246,-12.553306580,-3.996299744,1.471176147,0.029368773,0.051249877,1.052827358
53.361540,-9.234519958,-2.890037537,-1.435623169,0.008494750,0.082011595,1.073579311
53.376902,-3.260704041,-2.561973572,-1.939163208,-0.019459352,0.083354369,1.074800014
53.415265,-5.251976013,-7.467674255,11.778488159,0.000071898,-0.049946412,0.989106655
53.453551,-3.718467712,5.387855530,3.935470581,0.037303343,-0.021504030,1.053559780
53.467863,1.141456604,11.155677795,2.607955933,0.026927367,0.006694213,0.999238491
53.483218,0.203041077,13.520790100,3.065719604,0.020579711,-0.019795045,0.979951382
53.521559,-0.369163513,22.782875061,-2.724990845,0.048289672,0.046855345,1.012910366
53.559879,2.095130920,16.671730042,0.830307007,0.009471312,0.010234252,0.937104702
53.574175,-0.849815369,14.825416565,1.150741577,0.017527953,0.009013548,0.946748257
53.589559,-1.742454529,10.720802307,-0.726089478,0.020091429,0.021708861,0.988374233
53.627904,7.130531311,-1.173423767,4.713668823,-0.003590211,0.034037963,0.954804897
53.666227,2.430824280,-3.775047302,3.012313843,0.038157836,0.058207884,0.988008022
53.680520,3.888038635,-4.560874939,3.126754761,0.016185179,0.037578002,0.994233608
53.707223,5.261329651,-0.975059509,4.095687866,0.027171507,0.068705931,0.982270718
53.745636,5.467323303,7.302833557,1.417770386,0.028514281,0.055522338,1.023408413
53.783916,5.680946350,6.364418030,2.455368042,0.024730101,0.037578002,1.032441616
53.798208,6.176856995,8.096290588,3.012313843,0.020701781,0.034404173,1.004609585
53.813542,3.384498596,9.912086487,3.370895386,0.031199828,0.004741088,1.004487514
53.851888,4.292396545,14.504981995,-4.128799438,0.022654906,0.084697142,1.076997280
53.890199,2.674964905,7.005287170,-1.679763794,0.013255492,0.009135619,0.945283413
53.904477,-6.053062439,1.664710999,-3.114089966,0.007029906,-0.011860475,0.959199429
53.919816,-9.417625427,-2.172874451,-3.129348755,-0.004078493,-0.008198366,0.996186733
53.958154,-1.139732361,-11.610435486,-2.038345337,-0.030445680,0.035746947,1.004121304
53.996459,-6.022544861,-15.234397888,-3.701553345,-0.032276735,0.014506713,0.971772671
54.010746,-5.290122986,-16.905235291,-2.999649048,-0.050099000,0.027079955,0.979829311
54.026108,-0.964256287,-20.651268005,1.440658569,-0.052662477,0.035746947,0.954560757
54.064467,-7.670494080,-20.323204041,1.051559448,-0.023487672,-0.025166139,0.925508022
54.102768,-1.895042419,-12.113975525,-2.374038696,-0.021656618,0.066752806,0.951264858
54.117063,-0.208946228,-9.695457458,-2.282485962,-0.024586305,0.056865111,0.922334194
54.132417,-1.612754822,-7.109092712,-2.198562622,-0.022999391,0.015239134,0.904145718
54.170754,-1.811119080,-0.463890076,-3.671035767,0.002879515,0.107280150,1.027314663
54.209056,1.568702698,9.378028870,-5.448684692,0.003245726,-0.016621217,0.916230679
54.223336,-7.121177673,12.223793030,-8.714065552,0.008738890,0.065165892,0.989228725
54.238692,-4.099937439,12.132240295,-9.896621704,0.003367797,0.113871947,1.022065639
54.277064,3.834632874,13.352943420,-5.280838013,0.001658812,0.038798705,0.943330288
54.315365,-0.819297791,10.392738342,-6.837234497,0.007884398,0.092387572,1.103364468
54.329655,5.032447815,7.691932678,-8.782730103,0.004710570,0.098369017,1.077729702
54.345006,6.771949768,3.755165100,-6.715164185,-0.019215211,0.009135619,0.999604702
54.394871,6.573585510,8.119178772,-13.352737427,-0.010304078,0.032817259,1.110200405
54.433275,-5.053611755,-1.058982849,-9.415969849,-0.049488649,-0.029072389,0.975190639
54.447562,-8.326622009,-3.218101501,-7.737503052,-0.056324586,0.011088744,1.014741421
54.474653,-1.391502380,-5.659507751,-8.622512817,-0.019825563,0.035014525,1.011079311
54.513095,-5.038352966,-11.663841248,-2.023086548,-0.088429078,-0.015644655,0.978608608
54.551427,-5.755516052,-2.607749939,-5.868301392,-0.006886110,-0.033344850,1.039033413
54.565726,-4.649253845,1.031471252,-8.744583130,-0.018482789,-0.011250123,1.026216030
54.581076,-3.504844666,2.626014709,-9.126052856,-0.090870485,0.053569213,0.987031460
54.619433,-0.697227478,3.686500549,6.529464722,-0.004566774,0.075908080,1.013886929
54.657731,5.017189026,7.623268127,-1.427993774,-0.043140993,-0.014301881,0.963960171
54.672035,1.049903870,8.172584534,3.019943237,-0.001026735,-0.077778444,0.959199429
54.687399,-1.414390564,10.858131409,1.494064331,0.032298461,-0.076923952,0.985566616
54.725745,3.697303772,14.894081116,-8.759841919,-0.044605836,0.010112181,0.959809780
54.764071,2.034095764,10.987831116,-5.692825317,-0.001270875,0.063823119,0.956391811
54.778370,3.025917053,11.201454163,-8.500442505,-0.013722047,0.066874877,0.953340054
54.793733,3.865150452,5.212379456,-7.897720337,-0.076710328,0.075419798,0.948701382
54.832103,2.736000061,-1.989768982,0.792160034,-0.044605836,0.104106322,0.945771694
54.870427,-1.483055115,-1.524375916,-2.175674438,-0.097584352,0.033183470,0.994599819
54.884727,-3.558250427,-2.256797791,0.982894897,-0.077808961,0.063578978,0.992280483
54.900096,-0.865074158,-0.639366150,2.462997437,-0.053639039,0.033427611,1.040742397
54.938456,-11.103721619,5.761695862,-8.988723755,-0.125050172,0.004741088,1.095674038
54.976764,6.100563049,-5.278038025,0.685348511,-0.096851930,0.072856322,1.036469936
54.991063,1.843360901,-11.190818787,8.375778198,-0.124683961,-0.051411256,1.042817593
55.006422,-4.222007751,-10.473655701,11.839523315,-0.065846071,-0.075581178,1.046113491
55.044767,-0.323387146,-6.674217224,3.965988159,-0.091358766,-0.060932741,1.072236538
55.083073,-1.673789978,-0.463890076,2.638473511,-0.035328493,-0.089619264,1.038545132
55.097365,-3.169151306,-2.188133240,4.377975464,-0.068409547,-0.057148561,1.041718960
55.124731,0.653175354,-5.194114685,5.499496460,-0.069508180,0.019145384,1.001924038
55.163165,-3.474327087,-7.910179138,7.231369019,-0.026051149,0.098857298,0.963960171
55.201460,3.819374084,-5.270408630,7.940902710,-0.061451539,0.087870970,1.037080288
55.215749,9.793190002,-2.813743591,8.749618530,-0.040577516,0.050761595,0.981782436
55.216432,9.419349670,0.093055725,7.513656616,-0.033131227,-0.021504030,0.925263882
55.231659,1.973060608,2.412391663,7.383956909,-0.016163453,-0.093037233,0.924653530
55.270011,5.452064514,13.513160706,-1.565322876,-0.022389039,0.144145384,0.981660366
55.308315,1.065162659,13.238502502,0.960006714,-0.033253297,0.063823119,0.940522671
55.322613,1.339820862,11.628700256,0.166549683,-0.039356813,0.099101439,0.949800014
55.337985,3.849891663,8.493019104,3.195419312,-0.045582399,0.114848509,0.965058804
55.376314,4.986671448,10.453773499,-4.166946411,-0.008717164,0.105937377,0.967866421
55.414640,-0.079246521,2.374244690,3.653182983,-0.073780641,0.006816283,0.987153530
55.428923,-0.201316833,0.627113342,5.324020386,0.021312132,0.066996947,1.026948452
55.444253,0.294593811,2.534461975,0.921859741,-0.002125368,0.056376830,1.032929897
55.482588,0.798133850,10.407997131,-5.555496216,-0.015919313,-0.042011842,1.053559780
55.520889,-2.169700623,8.737159729,-1.992568970,0.016673461,0.014628783,1.054170132
55.535162,-2.627464294,8.546424866,-7.233963013,0.007640257,0.036235228,1.043061733
55.550504,-1.971336365,5.349708557,-7.531509399,-0.045460328,0.014262572,1.029633999
55.588885,-2.505393982,-0.326560974,-0.008926392,-0.020924196,0.034404173,1.066133022
55.627193,-3.352256775,0.588966370,-1.016006470,-0.019947633,-0.076191530,1.072358608
55.641476,-2.284141541,-0.311302185,-0.932083130,-0.006519899,-0.049458131,1.044282436
55.656818,-0.094505310,-0.654624939,-2.427444458,-0.011768922,-0.008930787,1.035127163
55.695171,-3.535362244,6.394935608,-7.539138794,-0.016163453,-0.044087037,0.958711147
55.733450,1.110939026,7.524085999,-7.455215454,-0.045582399,0.034892455,0.977143764
55.762166,2.201942444,5.914283752,-6.631240845,-0.045338258,-0.004658327,0.937348843
55.776481,0.096229553,2.458168030,-5.738601685,-0.043018922,-0.005756959,0.929780483
55.814688,3.491310120,3.465248108,-7.439956665,-0.048145875,0.076884642,0.927461147
55.866560,-1.513572693,-4.400657654,2.302780151,-0.052662477,0.133159056,0.927827358
55.880890,1.484779358,-3.614830017,0.479354858,-0.020802125,0.096660033,0.940278530
55.896245,-4.183860779,4.754615784,-5.898818970,0.005687132,0.060161009,0.935639858
55.934567,-1.010032654,9.469581604,-7.211074829,-0.118580446,0.102641478,1.005952358
55.972859,-0.964256287,18.640113831,-13.779983521,-0.003101930,-0.049580202,1.021821499
55.987157,-3.253074646,17.533851624,-19.425735474,-0.057423219,-0.082783327,1.048432827
56.002541,-10.790916443,2.793861389,-18.227920532,-0.120411500,0.010356322,1.082978725
56.040892,3.857521057,-21.009849548,11.351242065,-0.094654664,-0.120014772,1.058076382
56.079203,-1.948448181,-17.759727478,-10.049209595,-0.143849000,-0.065693483,1.105805874
56.093497,-4.885765076,-19.766258240,-0.245437622,-0.152271852,-0.139790162,1.073579311
56.108870,-9.501548767,-18.469261169,0.837936401,-0.136890993,-0.136372194,1.099824429
56.147220,5.612281799,-15.211509705,0.303878784,-0.099049196,-0.012837037,1.196504116
56.185507,-0.552268982,-0.875877380,-0.893936157,-0.105030641,-0.145161256,1.049897671
56.199823,-4.183860779,3.160072327,-0.314102173,-0.104420289,-0.082050905,1.067842007
56.215183,5.093482971,9.210182190,-3.030166626,-0.133473024,0.002177611,1.146577358
56.253515,8.328346252,4.678321838,4.339828491,-0.105274782,-0.079609498,0.942719936
56.291833,9.907630920,-9.756492615,2.867355347,-0.133961305,0.061503783,0.991792202
56.306125,12.631324768,-11.358665466,5.468978882,-0.118702516,0.056987181,0.964082241
56.321491,11.097816467,-10.343955994,3.599777222,-0.105763063,0.051494017,0.910859585
56.359857,3.033546448,1.985145569,-0.550613403,-0.080860719,0.062846556,0.925752163
56.398140,5.368141174,6.593299866,-0.565872192,-0.111378297,0.087260619,0.924531460
56.412432,3.979591370,8.454872131,0.982894897,-0.087330446,0.067973509,0.929292202
56.427788,2.934364319,8.729530334,-1.305923462,-0.082081422,0.092387572,0.931489468
56.466119,2.102760315,4.022193909,-1.557693481,-0.105030641,0.014140502,0.926362514
56.504435,2.987770081,-0.082420349,0.113143921,-0.058765993,0.011699095,0.937226772
56.518716,-0.247093201,0.489784241,-0.771865845,-0.055836305,0.012797728,0.956269741
56.534060,0.080970764,0.009132385,-1.786575317,-0.061817750,0.008281127,0.955903530
56.586173,-2.177330017,-5.361961365,-0.947341919,-0.051075563,0.014018431,1.034516811
56.624534,-7.937522888,-15.646385193,3.698959351,-0.096119508,-0.058613405,1.051484585
56.638852,-4.633995056,-19.186424255,0.807418823,-0.056568727,-0.008076295,1.088105679
56.654203,-1.345726013,-20.101951599,0.647201538,-0.061451539,-0.019672975,1.086152554
56.692543,-8.204551697,-12.365745544,8.322372437,-0.026173219,-0.082661256,1.066010952
56.730856,15.339759827,12.376380920,-2.267227173,-0.051197633,0.016215697,1.030244350
56.745157,15.133766174,16.412330627,0.761642456,-0.023853883,-0.127949342,0.946626186
56.760505,-7.609458923,24.797035217,-3.167495728,-0.027638063,-0.077778444,0.970429897
56.798892,0.759986877,21.455360413,-4.227981567,-0.082325563,0.069560423,1.009126186
56.837196,-2.284141541,0.451637268,5.247726440,-0.104176149,-0.046528444,0.922090054
56.851476,-5.671592712,-1.417564392,5.522384644,-0.076466188,0.011699095,0.969819546
56.880896,8.931068420,-6.979393005,3.515853882,-0.083180055,0.081035033,0.988374233
56.919321,-4.428001404,2.587867737,7.528915405,-0.030445680,-0.052509889,0.915864468
56.957639,10.228065491,27.322364807,-7.203445435,-0.035694703,0.201640502,0.987397671
56.971952,17.140296936,27.604652405,-5.631790161,-0.054371461,0.169780150,0.943208218
56.987325,14.561561584,23.606849670,4.645004272,-0.085743532,0.031840697,0.820893764
57.025691,-12.354942322,32.479835510,-5.921707153,0.013011351,0.118754759,0.960786343
57.064037,12.226966858,18.312049866,-0.810012817,-0.067555055,0.113383666,0.866548061
57.094973,-16.825767517,12.322975159,2.310409546,-0.008839235,-0.018574342,0.982514858
57.109306,-17.542930603,10.667396545,-7.005081177,-0.034351930,0.181376830,1.084687710
57.147547,17.781166077,-15.119956970,2.257003784,-0.142384157,-0.079121217,0.950532436
57.185864,-15.437217712,-9.191917419,-0.260696411,0.029734984,0.133891478,1.116059780
57.200148,-5.839439392,-6.346153259,-8.820877075,-0.044972047,0.143168822,1.129853725
57.215509,17.208961487,-10.450767517,-0.062332153,-0.052174196,0.041728392,0.972138882
57.253882,-24.973960876,-16.409324646,5.484237671,-0.106861696,-0.199238405,0.921601772
57.292179,4.376319885,-13.197349548,-8.202896118,-0.043995485,0.082988158,1.062837124
57.306467,8.854774475,-19.224571228,-3.732070923,-0.120045289,-0.139057741,0.923432827
57.337385,-17.947288513,-14.311241150,2.257003784,0.017527953,0.015605345,1.029023647
57.375797,6.695655823,-19.003318787,-4.395828247,-0.142628297,0.011943236,0.984956264
57.414119,-9.883018494,-8.329795837,-3.815994263,0.057811156,0.040629759,1.015595913
57.428416,-7.754417419,-4.949974060,-16.946182251,-0.050953493,0.089824095,1.019624233
57.443770,4.307655334,-9.962486267,-9.202346802,-0.148853883,0.106913939,0.996308804
57.482117,2.255348206,-18.095420837,-0.192031860,-0.121143922,-0.064838991,0.888642788
57.520435,-7.083030701,8.256507874,-10.369644165,-0.009815797,0.131694213,1.070649624
57.534721,7.130531311,15.718055725,-15.412673950,-0.048756227,0.116191283,1.024995327
57.550102,12.349037170,16.046119690,-15.382156372,-0.079273805,0.074443236,0.940156460
57.588490,-16.825767517,16.976905823,-20.852432251,-0.069386110,0.072368041,1.043183804
57.626822,17.949012756,-9.985374451,-5.135879517,-0.143238649,0.018535033,0.953095913
57.641111,15.416053772,-13.021873474,-2.313003540,-0.098927125,-0.094624147,0.921113491
57.656479,-17.733665466,-7.688926697,-12.261734009,-0.049122438,-0.041401491,1.022309780
57.694857,10.022071838,-21.574424744,-6.409988403,-0.210011110,0.041484252,1.132783413
57.733163,-10.607810974,-7.582115173,-5.746231079,-0.042774782,-0.107807741,1.073579311
57.747450,-7.624717712,0.886512756,-8.752212524,-0.041309938,-0.027119264,1.122041225
57.762808,3.079322815,9.133888245,-7.752761841,-0.057545289,-0.081562623,1.123750210
57.801161,-4.809471130,15.145851135,-4.899368286,-0.032276735,-0.058735475,1.045747280
57.839457,0.752357483,22.470069885,-11.842117310,-0.020680055,0.010234252,1.121064663
57.853742,7.702735901,22.843910217,-9.827957153,-0.033985719,-0.021259889,1.097383022
57.869102,7.779029846,21.478248596,-9.080276489,-0.034596071,-0.048481569,1.066621304
57.907475,5.154518127,9.683204651,-14.191970825,-0.064869508,0.003886595,0.963105679
57.945774,-1.277061462,-14.151023865,-8.569107056,-0.170948610,-0.045796022,0.933076382
57.960062,-2.116294861,-20.910667419,-5.463943481,-0.164600953,-0.045429811,0.943818569
57.975422,-3.398033142,-32.232688904,-2.824172974,-0.161915407,-0.032612428,0.978852749
58.013766,3.346351624,-36.657737732,2.653732300,-0.138233766,-0.015644655,0.976411343
58.067796,0.950721741,-1.532005310,-2.755508423,-0.093800172,-0.032490358,0.954682827
58.082127,0.256446838,10.331703186,-1.473770142,-0.094532594,-0.000874147,0.962861538
58.097511,-0.269981384,16.137672424,-0.794754028,-0.088062868,0.025981322,0.966889858
58.135888,2.667335510,37.911964417,-6.532058716,-0.025440797,0.020854369,1.027802944
58.174190,8.198646545,45.846534729,-4.647598267,-0.063038453,-0.032124147,0.992280483
58.188475,6.314186096,46.639991760,-2.473220825,-0.031300172,-0.027851686,0.982881069
58.203843,2.896217346,47.998023987,-9.477005005,0.005565062,-0.029438600,0.995088100
58.242186,6.520179749,27.848793030,-10.644302368,-0.128101930,-0.048969850,1.032075405
58.280487,2.301124573,-11.953758240,-3.915176392,-0.105396852,-0.117207155,0.944062710
58.294774,-1.154991150,-18.309043884,-3.327713013,-0.101246461,-0.131611452,0.975068569
58.310127,-1.948448181,-25.961326599,-1.946792603,-0.080860719,-0.104145631,1.043061733
58.348482,1.896766663,-33.712791443,-4.151687622,-0.106861696,-0.117817506,1.022553921
58.402782,-5.465599060,-30.065940857,-2.976760864,-0.079884157,-0.064961061,1.015717983
58.417136,-4.946800232,-24.847434998,-2.366409302,-0.056568727,-0.037006959,1.051850796
58.432501,0.378517151,-6.666587830,-7.348403931,0.007029906,-0.048603639,1.084565639
58.470847,6.001380920,27.719093323,-26.841506958,-0.018482789,-0.053364381,0.936128139
58.509154,-0.872703552,26.795936584,-22.485122681,-0.124439821,-0.022480592,0.899995327
58.523462,-0.857444763,25.567604065,-22.637710571,-0.116383180,-0.021015748,0.906831264
58.538836,0.103858948,21.897865295,-24.224624634,-0.108082399,-0.014423952,0.900117397
58.577167,-3.687950134,5.914283752,-22.218093872,-0.151173219,-0.014057741,0.908418179
58.615459,-2.947898865,1.687599182,-21.195755005,-0.106129274,-0.031025514,0.942842007
58.629764,-3.466697693,-1.745628357,-22.805557251,-0.096119508,-0.039814577,0.952241421
58.645122,-3.405662537,-4.454063416,-23.118362427,-0.098805055,-0.047749147,0.954560757
58.683442,-3.916831970,-10.458396912,-23.232803345,-0.118824586,-0.019795045,0.989839077
58.721722,-2.345176697,-3.332542419,-28.252944946,-0.085621461,-0.038105592,0.985932827
58.736027,-1.994224548,3.030372620,-30.465469360,-0.061695680,-0.037495241,0.998383999
58.751390,-1.895042419,6.463600159,-33.540115356,-0.054859743,-0.051411256,1.005097866
58.789698,-1.025291443,6.196571350,-39.437637329,-0.096974000,-0.089130983,1.034394741
58.828012,0.149635315,-10.038780212,-42.016372681,-0.137501344,-0.070576295,1.044160366
58.842320,-0.170799255,-15.425132751,-42.657241821,-0.159840211,-0.065449342,1.039887905
58.857664,-1.628013611,-27.487205505,-39.941177368,-0.175587282,-0.052265748,1.055390835
58.907242,5.810646057,-28.913902283,-36.218032837,-0.106251344,-0.102436647,1.090791225
58.945639,1.301673889,6.394935608,-43.893203735,-0.029713258,-0.109882936,1.069550991
58.959942,1.095680237,12.719703674,-46.746597290,-0.034229860,-0.084736452,1.066133022
58.975280,1.759437561,17.198158264,-49.477920532,-0.087452516,-0.042500123,1.046113491
59.013604,2.530006409,9.248329163,-44.328079224,-0.104420289,-0.034199342,0.968965054
59.051890,-1.803489685,3.045631409,-49.455032349,-0.058277711,-0.040424928,0.977632046
59.066172,-0.620933533,1.290870667,-50.233230591,-0.082325563,-0.003803834,0.958711147
59.081494,-2.184959412,0.367713928,-50.340042114,-0.074390993,0.009990111,0.966523647
59.119812,-1.284690857,-7.368492126,-49.188003540,-0.077076539,0.015605345,0.981172085
59.158104,-6.594749451,-12.396263123,-47.234878540,-0.122364625,0.018046752,0.971406460
59.172421,-6.129356384,-13.311790466,-46.044692993,-0.113697633,0.021708861,0.991914272
59.187779,-2.902122498,-15.028404236,-48.470840454,-0.107960328,0.015483275,1.012422085
59.226109,-0.331016541,-14.555381775,-46.349868774,-0.140797243,0.005229369,0.981050014
59.264427,-0.094505310,0.619483948,-46.220169067,-0.060841188,-0.012470827,1.055634975
59.278722,2.461341858,6.578041077,-49.485549927,-0.057179078,-0.021015748,1.066377163
59.294056,7.466224670,16.351295471,-53.735122681,-0.090504274,-0.009052858,1.045258999
59.332358,4.628089905,7.859779358,-50.042495728,-0.149830446,-0.032856569,0.961762905
59.370655,3.079322815,-5.941795349,-46.937332153,-0.129078493,-0.029072389,0.994355679
59.384948,5.116371155,-12.533592224,-46.342239380,-0.117725953,-0.011860475,0.988740444
59.400276,4.612831116,-11.885093689,-45.716629028,-0.097096071,-0.026997194,0.991425991
59.438595,-2.665611267,2.175880432,-49.294815063,-0.047901735,-0.080219850,1.038300991
59.476892,2.552894592,9.194923401,-52.659378052,-0.079517946,-0.012104616,1.079926968
59.491197,4.841712952,8.775306702,-52.377090454,-0.084034547,-0.034077272,1.063813686
59.506535,3.903297424,7.623268127,-53.124771118,-0.102100953,-0.073872194,1.000825405
59.544865,-6.617637634,1.519752502,-52.613601685,-0.147022828,-0.006489381,1.020967007
59.583164,3.476051331,-7.231163025,-47.532424927,-0.119923219,-0.000752077,1.085053921
59.597460,5.787757874,-5.270408630,-47.555313110,-0.104786500,-0.028584108,1.059052944
59.612797,6.497291565,-0.219749451,-50.202713013,-0.094288453,-0.032002077,0.946015835
59.662669,-0.544639587,-3.469871521,-51.072463989,-0.141529664,-0.096821412,0.965913296
59.701042,-4.855247498,-25.076316833,-41.406021118,-0.196949586,0.020121947,0.950776577
59.715357,-5.152793884,-28.417991638,-35.943374634,-0.158131227,0.018535033,0.991181850
59.730720,-2.268882751,-30.722068787,-34.562454224,-0.093678102,-0.044819459,0.958100796
59.769063,-4.458518982,-12.167381287,-41.482315063,-0.027027711,-0.068989381,0.931245327
59.807355,-7.472129822,-2.035545349,-47.417984009,-0.111378297,-0.086567506,0.901338100
59.821658,-7.754417419,-9.161399841,-47.448501587,-0.128346071,-0.130634889,0.917451382
59.848836,-15.086265564,-24.214195251,-40.368423462,-0.173512086,-0.093769655,0.865937710
59.887276,-13.918968201,-30.584739685,-36.675796509,-0.077808961,-0.069721803,0.978486538
59.925589,-15.360923767,-7.620262146,-40.330276489,-0.072804078,-0.122944459,0.978486538
59.939904,-17.840476990,5.036903381,-43.145523071,-0.115650758,-0.111469850,1.024873257
59.955255,-16.551109314,9.690834045,-42.184219360,-0.138233766,-0.083515748,1.061616421
59.993569,-3.985496521,28.810096741,-40.192947388,-0.123219118,-0.071186647,1.107148647
60.031882,-0.666709900,41.894508362,-39.002761841,-0.141651735,-0.088276491,1.062837124
60.046188,-0.971885681,40.383888245,-38.155899048,-0.140797243,-0.082905397,1.080171108
60.061548,-0.262351990,34.791542053,-34.364089966,-0.130543336,-0.031757936,1.103974819
60.099894,1.652626038,33.967567444,-30.938491821,-0.029347047,0.062480345,1.181123257
60.138213,7.840065002,51.683021545,-42.649612427,0.001292601,0.072001830,1.106050014
60.152505,7.176307678,52.201820374,-44.106826782,-0.026051149,0.078349486,1.067842007
60.167857,4.017738342,42.787147522,-44.823989868,-0.092823610,0.081889525,1.045991421
60.206209,5.940345764,8.378578186,-34.989700317,-0.175953493,0.123881713,1.047456264
60.244480,8.007911682,-35.810874939,-21.600112915,-0.176685914,0.060038939,0.911469936
60.258808,-1.971336365,-44.256614685,-19.524917603,-0.126026735,0.025493041,0.957124233
60.274175,-3.909202576,-43.936180115,-20.600662231,-0.102223024,0.029399291,1.006928921
60.312519,5.581764221,-30.485557556,-27.238235474,-0.106495485,0.046611205,1.006562710
60.350843,2.407936096,-29.661582947,-21.355972290,-0.199146852,0.036967650,0.929902554
60.365145,3.994850159,-30.157493591,-18.334732056,-0.190724000,0.022197142,0.932832241
60.380499,2.392677307,-28.059410095,-18.639907837,-0.150440797,-0.064961061,0.908174038
60.418873,-4.794212341,-12.030052185,-19.204483032,-0.124806032,0.049785033,1.012544155
60.457170,4.795936584,12.902809143,-19.692764282,-0.098194703,0.012553588,1.023896694
60.471472,3.773597717,16.458106995,-20.371780396,-0.087940797,-0.037495241,1.016328335
60.486828,-0.323387146,18.617225647,-21.111831665,-0.094654664,-0.016377077,1.049531460
60.525177,2.850440979,15.328956604,-18.464431763,-0.103809938,0.061869994,1.071382046
60.563465,5.970863342,7.470680237,-19.563064575,-0.127125368,-0.019184694,0.999848843
60.577763,3.094581604,-7.254051208,-13.886795044,-0.173878297,0.010844603,0.961274624
60.593115,0.218299866,-13.555931091,-10.697708130,-0.170826539,0.023295775,0.966523647
60.643448,0.111488342,-7.650779724,-10.148391724,-0.077198610,0.014750853,1.120698452
60.681866,3.849891663,14.138771057,-13.482437134,-0.042896852,-0.049702272,1.051362514
60.696164,0.035194397,25.529457092,-18.502578735,-0.028492555,-0.037006959,1.067719936
60.711517,-0.643821716,30.503822327,-20.898208618,-0.043507203,-0.041523561,1.083833218
60.749891,4.269508362,28.535438538,-22.729263306,-0.115650758,0.011699095,1.117280483
60.788217,10.647682190,-0.677513123,-11.285171509,-0.172047243,0.005107298,1.010835171
60.802507,10.060218811,-5.758689880,-8.912429810,-0.156422243,-0.029194459,0.983247280
60.817863,5.360511780,-10.786460876,-8.805618286,-0.116261110,-0.074482545,1.001191616
60.856210,8.503822327,-17.698692322,-8.958206177,-0.163014039,-0.007465944,1.017671108
60.894495,12.509254456,-30.813621521,-5.425796509,-0.162159547,0.024760619,0.921723843
60.908825,11.769203186,-34.429954529,-5.235061646,-0.186817750,-0.032246217,0.864717007
60.937499,-3.794761658,-44.432090759,3.721847534,-0.180225953,-0.005024537,0.938691616
60.975899,-1.322837830,-28.509544373,5.636825562,-0.075733766,-0.047993287,1.015717983
61.014222,-0.537010193,25.704933167,-9.965286255,-0.007740602,-0.051289186,1.035005093
61.028518,1.995948792,34.806800842,-13.543472290,-0.026295289,-0.023579225,1.037934780
61.043897,6.520179749,40.780616760,-15.229568481,-0.086109743,-0.011372194,0.974336147
61.082269,-4.069419861,24.644447327,-9.995803833,-0.119923219,0.002910033,0.920747280
61.120548,-1.444908142,3.762794495,-7.172927856,-0.122120485,0.022319213,0.979829311
61.134857,3.071693420,-8.299278259,-5.814895630,-0.111866578,-0.007343873,0.974702358
61.150202,4.719642639,-12.503074646,-4.189834595,-0.101978883,-0.044575319,0.965302944
61.188531,-2.627464294,-9.191917419,-4.876480103,-0.045216188,0.004130736,1.015717983
61.226839,3.643898010,-3.248619080,-7.073745728,-0.067799196,-0.030659303,0.993379116
61.241134,2.980140686,-2.935813904,-6.272659302,-0.059498414,-0.054096803,0.978974819
61.256487,-3.008934021,-2.119468689,-8.820877075,-0.043140993,-0.045307741,1.004487514
61.294838,3.880409241,-4.774497986,-8.897171021,-0.067555055,-0.076679811,1.043427944
61.333120,-0.544639587,12.086463928,-12.879714966,0.004466429,-0.150166139,1.023042202
61.347441,0.569252014,17.335487366,-15.839920044,-0.002003297,-0.170185670,1.045381069
61.362830,1.233009338,21.798683167,-17.876968384,-0.035084352,-0.140888795,1.039887905
61.414734,-2.001853943,17.968727112,-23.240432739,-0.161305055,-0.032856569,0.931489468
61.453137,-4.641624451,-16.958641052,-7.584915161,-0.241139039,-0.081440553,0.921601772
61.467439,-5.869956970,-23.283409119,-3.693923950,-0.209400758,-0.094868287,0.922334194
61.482769,-8.624168396,-26.792930603,-2.358779907,-0.148975953,-0.059101686,0.972138882
61.521105,-0.460716248,-22.062705994,1.707687378,-0.131886110,-0.039814577,1.055634975
61.559431,1.385597229,-19.316123962,4.889144897,-0.079640016,-0.038349733,0.944550991
61.573722,-0.247093201,-16.241477966,4.408493042,-0.059864625,-0.050678834,0.927094936
61.589077,-3.176780701,-12.144493103,3.325119019,-0.046436891,-0.063984498,0.918672085
61.627400,-8.784385681,7.363868713,-3.152236938,-0.004810914,-0.047260866,1.003144741
61.665686,-3.550621033,19.807411194,-9.751663208,0.007640257,-0.047382936,1.041596889
61.679977,-1.086326599,19.067359924,-11.102066040,-0.014698610,-0.025288209,1.026338100
61.695320,0.134376526,17.434669495,-10.667190552,-0.014942750,-0.031391725,1.011445522
61.733661,0.790504456,8.538795471,-15.427932739,-0.008839235,-0.041035280,0.975923061
61.771943,-1.422019958,-12.457298279,-16.259536743,-0.089649782,0.000346556,0.963349819
61.786240,-1.124473572,-18.865989685,-14.390335083,-0.104664430,-0.008686647,0.972627163
61.801589,-1.193138123,-30.241416931,-10.995254517,-0.093067750,-0.041035280,1.013276577
61.839898,-1.010032654,-39.976524353,-12.322769165,-0.089649782,-0.072163209,1.048188686
61.878217,0.340370178,-38.290428162,-5.990371704,-0.094044313,-0.082661256,1.101045132
61.892502,1.164344788,-33.651756287,-4.906997681,-0.068287477,-0.101826295,1.110688686
61.907845,3.201393127,-16.012596130,-5.883560181,-0.028004274,-0.165791139,1.093354702
61.946158,1.812843323,14.108253479,-16.633377075,-0.023487672,-0.152363405,1.006684780
61.984456,-4.748435974,4.846168518,-13.841018677,-0.196705446,-0.101093873,0.872041225
61.998746,-9.425254822,-9.893821716,-3.899917603,-0.167652711,-0.084980592,0.919526577
62.014079,-10.333152771,-12.716697693,-1.458511353,-0.126392946,-0.102314577,0.964082241
62.052372,-3.489585876,12.300086975,-7.668838501,0.037913695,-0.203510866,1.129243374
62.090662,3.193763733,40.277076721,-23.034439087,-0.010670289,-0.189594850,1.026704311
62.104962,1.446632385,39.643836975,-23.270950317,-0.046192750,-0.165180787,0.995088100
62.120312,-1.376243591,29.527259827,-22.477493286,-0.093189821,-0.113789186,0.980073452
62.158647,1.805213928,-5.880760193,-16.808853149,-0.122364625,-0.091816530,0.965302944
62.196918,-4.839988708,-31.599449158,-13.062820435,-0.134327516,-0.097675905,0.957856655
62.226179,-5.061241150,-31.782554626,-11.376724243,-0.052052125,-0.113789186,1.041230679
62.240508,-3.764244080,-27.029441833,-14.054641724,-0.035572633,-0.125752077,1.053559780
62.278689,-0.849815369,0.482154846,-20.196304321,-0.011524782,-0.122822389,1.073579311
62.330965,6.756690979,22.035194397,-27.314529419,-0.003101930,-0.100849733,0.998261929
62.345298,5.932716370,28.108192444,-31.983718872,0.019236937,-0.073139772,0.973115444
62.360673,6.367591858,30.122352600,-36.454544067,0.014720336,-0.061176881,0.957002163
62.399013,3.971961975,26.650978088,-35.828933716,-0.023243532,-0.101215944,0.921479702
62.437318,2.148536682,30.572486877,-47.372207642,0.036448851,-0.149189577,0.984467983
62.451626,3.361610413,30.068946838,-51.347122192,0.017650023,-0.158100709,0.988862514
62.467000,1.919654846,23.606849670,-52.651748657,-0.031544313,-0.196430787,0.963960171
62.505307,0.065711975,1.802040100,-50.202713013,-0.017872438,-0.161274537,1.033418179
62.543612,-0.086875916,-15.180992126,-51.743850708,-0.037159547,-0.208637819,1.052949429
62.557913,3.331092834,-20.559715271,-52.193984985,-0.029591188,-0.175800905,1.032441616
62.573252,3.010658264,-21.223472595,-52.361831665,-0.033741578,-0.171284303,1.007050991
62.611535,-2.505393982,-22.932456970,-57.702407837,-0.066944703,-0.163349733,0.923554897
62.649844,-11.759849548,-32.507347107,-52.811965942,-0.132130250,-0.092915162,0.978852749
62.664150,-11.607261658,-33.644126892,-46.891555786,-0.093189821,-0.063007936,1.009492397
62.679494,-11.935325623,-29.562400818,-46.113357544,-0.071095094,-0.070210084,1.028657436
62.717839,-7.128807068,0.306678772,-53.567276001,-0.029102907,-0.054585084,1.080293179
62.756136,-0.079246521,32.197547913,-52.956924438,-0.031056032,-0.035786256,1.034394741
62.770443,0.737098694,37.431312561,-54.147109985,-0.010914430,-0.052265748,1.026704311
62.785813,1.233009338,46.067787170,-57.580337524,-0.011524782,-0.058369264,1.007905483
62.824131,-0.369163513,41.009498596,-56.619033813,-0.088917360,-0.018086061,1.044282436
62.862447,7.916358948,20.135475159,-53.017959595,-0.054249391,-0.052631959,1.045503139
62.876743,8.435157776,15.077186584,-53.323135376,-0.051441774,-0.064106569,1.027680874
62.892097,6.970314026,4.312110901,-55.642471313,-0.054127321,-0.055317506,1.019380093
62.930418,9.388832092,-13.586448669,-52.819595337,-0.066944703,-0.108540162,1.021211147
62.968708,8.572486877,-34.445213318,-51.896438599,-0.038014039,-0.124775514,1.028169155
62.983018,9.091285706,-40.289329529,-54.765090942,-0.046803102,-0.109028444,1.008637905
62.998378,8.603004456,-41.319297791,-55.062637329,-0.059986696,-0.100727662,0.999726772
63.036681,4.933265686,-39.411949158,-53.315505981,-0.037525758,-0.111836061,1.046723843
63.075007,4.742530823,-15.158103943,-59.701309204,0.011180297,-0.119282350,1.069795132
63.089312,4.551795959,-6.681846619,-62.089309692,0.000682250,-0.109882936,1.076631069
63.104639,6.611732483,7.646156311,-63.996658325,-0.044972047,-0.100605592,1.071015835
63.142931,9.343055725,20.936561584,-60.181961060,-0.084644899,-0.110493287,0.983979702
63.181244,3.895668030,28.565956116,-59.182510376,-0.074757203,-0.134052858,0.925141811
63.195536,1.789955139,29.336524963,-59.991226196,-0.071339235,-0.141743287,0.883271694
63.210884,-2.825828552,25.651527405,-62.112197876,-0.098438844,-0.108418092,0.935273647
63.264467,-1.399131775,2.786231995,-48.898086548,-0.150929078,-0.032124147,1.002046108
63.302877,0.943092346,0.978065491,-47.479019165,-0.095265016,-0.076435670,0.948213100
63.317170,0.027565002,0.451637268,-47.059402466,-0.097584352,-0.079975709,0.936860561
63.332536,-2.909751892,-2.035545349,-44.785842896,-0.103321657,-0.074360475,0.934541225
63.370859,-3.985496521,-5.537437439,-43.023452759,-0.099415407,-0.064594850,0.994477749
63.409151,-1.803489685,-1.432823181,-38.590774536,-0.072315797,-0.111469850,0.981904507
63.423445,-2.085777283,3.648353577,-39.277420044,-0.043629274,-0.110493287,0.977143764
63.438811,-1.605125427,17.350746155,-44.785842896,-0.001392946,-0.102802858,0.991303921
63.477129,2.133277893,25.788856506,-52.667007446,-0.051441774,-0.063984498,0.989228725
63.530979,0.294593811,-11.877464294,-42.611465454,-0.125904664,-0.056294069,0.912446499
63.545331,-1.132102966,-17.729209900,-41.657791138,-0.127857789,-0.042988405,0.932588100
63.560674,-1.040550232,-27.967857361,-38.102493286,-0.131519899,-0.008076295,0.963716030
63.599008,-3.329368591,-34.696983337,-34.264907837,-0.122852907,-0.003803834,0.962861538
63.637321,-4.252525330,-21.467613220,-34.196243286,-0.118946657,0.011088744,1.047944546
63.651644,-1.299949646,-17.561363220,-31.228408813,-0.129444703,0.001567259,1.054048061
63.667013,1.057533264,-12.915061951,-27.062759399,-0.122242555,-0.033344850,1.041841030
63.705315,-5.557151794,27.093482971,-32.075271606,0.003367797,0.013408080,1.014131069
63.743646,-4.801841736,29.603553772,-34.974441528,-0.138844118,0.049785033,1.058808804
63.757958,-3.665061951,9.538246155,-24.514541626,-0.189259157,0.051738158,1.032685757
63.773318,-4.016014099,0.100685120,-19.059524536,-0.171436891,0.065532103,1.024507046
63.811637,-10.851951599,-11.091636658,-13.390884399,-0.048512086,-0.017109498,1.062348843
63.849922,-3.108116150,-2.340721130,-16.160354614,-0.018849000,0.065776244,1.163056850
63.864230,0.805763245,-0.235008240,-16.961441040,-0.016529664,0.057475463,1.135957241
63.879590,5.612281799,3.305030823,-18.006668091,-0.025562868,0.029155150,1.056367397
63.917877,1.004127502,9.370399475,-17.320022583,-0.075001344,0.060038939,1.028413296
63.956171,7.946876526,-0.227378845,-16.106948853,-0.095631227,0.052958861,0.946259975
63.970472,7.885841370,-3.576683044,-16.244277954,-0.114552125,0.023295775,0.925141811
63.985834,0.210670471,-11.671470642,-13.024673462,-0.143971071,-0.015766725,0.909028530
64.024145,-2.757164001,-21.406578064,-6.715164185,-0.115406618,0.083964720,1.053437710
64.062451,8.747962952,-13.266014099,-10.468826294,-0.056934938,-0.003071412,1.000581264
64.076758,2.842811584,-6.109642029,-11.529312134,-0.082935914,0.047343627,0.968720913
64.092121,1.957801819,-2.417015076,-10.407791138,-0.084522828,0.049540892,0.992280483
64.130445,3.964332581,15.519691467,-11.338577271,0.015941039,0.008769408,1.066865444
64.184505,7.809547424,23.263526917,-22.286758423,-0.096363649,0.039531127,1.185029507
64.198858,12.112525940,14.962745667,-19.593582153,-0.129566774,0.023784056,1.181489468
64.214221,16.949562073,-2.264427185,-8.546218872,-0.142506227,-0.045429811,1.127900600
64.252519,13.203529358,-3.454612732,-6.196365356,-0.031666383,-0.042744264,1.096406460
64.290866,11.509803772,5.517555237,-17.007217407,-0.106983766,-0.016499147,1.085175991
64.305167,11.952308655,-9.588645935,-11.842117310,-0.180470094,0.005595580,1.044526577
64.320532,11.692909241,-18.881248474,-8.263931274,-0.196095094,0.035624877,1.022553921
64.358865,8.480934143,-50.817893982,3.950729370,-0.203419313,0.026225463,1.005464077
64.397175,14.515785217,-37.687705994,5.919113159,-0.069386110,0.060893431,1.041596889
64.411481,16.003517151,-28.265403748,2.020492554,-0.064869508,0.040385619,1.027070522
64.426844,14.836219788,-7.620262146,1.295700073,-0.086353883,0.000102416,0.961640835
64.465160,8.831886292,35.546852112,-1.496658325,-0.011524782,0.007548705,0.954560757
64.503474,9.907630920,65.393043518,-7.745132446,0.000193968,-0.004902467,0.905854702
64.517772,9.205726624,68.498207092,-9.400711060,0.000926390,0.006205931,0.899751186
64.533140,7.130531311,66.445899963,-12.795791626,-0.037891969,0.021953002,0.862275600
64.571463,4.887489319,46.632362366,-11.292800903,-0.087086305,0.025126830,0.833222866
64.609777,-3.153892517,2.473426819,0.624313354,-0.079884157,0.040751830,0.931733608
64.624079,-0.544639587,-11.938499451,1.898422241,-0.026905641,0.071513548,0.982026577
64.639424,2.522377014,-15.791343689,0.357284546,0.004466429,0.084330931,0.975434780
64.677727,0.866798401,-26.235984802,-8.546218872,-0.071461305,0.039653197,0.919770718
64.716062,-1.605125427,-54.525779724,-1.969680786,-0.138599977,0.073466673,0.952363491
64.730365,-1.902671814,-61.232017517,0.746383667,-0.128956422,0.054789916,0.975312710
64.745711,-3.222557068,-66.915916443,5.507125854,-0.095265016,0.021220580,1.022920132
64.799976,-0.468345642,-25.808738708,-0.451431274,0.046946898,0.113505736,1.141328335
64.838345,10.426429749,27.299476624,-12.666091919,0.054026976,-0.060810670,1.024507046
64.852658,0.645545959,40.681434631,-17.953262329,-0.032887086,-0.011982545,0.969697475
64.868028,-2.146812439,39.865089417,-17.556533813,-0.085865602,0.035869017,0.938569546
64.906332,-7.563682556,10.537696838,-6.104812622,-0.123951539,0.090800658,0.988374233
64.944659,3.819374084,-12.060569763,3.431930542,-0.058521852,0.033427611,1.083955288
64.958959,7.016090393,-11.099266052,4.446640015,-0.026173219,-0.000263795,1.063325405
64.974320,8.541969299,-3.500389099,2.333297729,0.035228148,-0.040302858,1.004487514
65.012644,0.462440491,9.759498596,-7.325515747,-0.029224977,0.000712767,0.894746304
65.050947,-2.856346130,-7.734703064,-0.588760376,-0.092091188,0.102397338,0.913667202
65.077769,-0.254722595,-14.402793884,2.485885620,-0.057911500,0.063945189,0.950532436
65.092108,-2.078147888,-13.143943787,1.906051636,-0.025074586,0.056620970,0.986787319
65.130320,3.727821350,-0.433372498,-1.969680786,-0.017872438,0.090312377,0.991303921
