time,gyro x,gyro y,gyro z,accel x,accel y,accel z
56.922135,-0.834762573,-6.169975281,1.209976196,-0.052293092,-0.069660276,0.939020872
56.931929,8.282363892,-3.217399597,1.164199829,-0.042283326,-0.086994261,0.988093138
56.932554,9.136856079,-2.576530457,1.202346802,-0.042893678,-0.088337034,0.990412474
56.933180,9.632766724,-2.355278015,1.072647095,-0.043381959,-0.087116331,0.997614622
56.933805,10.143936157,-2.103507996,1.126052856,-0.042771608,-0.087482542,0.998224974
56.934431,10.815322876,-1.798332214,1.164199829,-0.043381959,-0.086750120,1.000910521
56.935057,11.196792603,-1.538932800,1.087905884,-0.046555787,-0.087238401,1.000056028
56.935682,11.761367798,-1.554191589,1.049758911,-0.047898561,-0.085529417,1.004206419
56.936307,12.219131470,-1.393974304,1.141311646,-0.048508912,-0.084919065,1.008112669
56.936934,12.852371216,-0.898063660,1.187088013,-0.049241334,-0.084186643,1.012385130
56.937561,13.043106079,-0.905693054,1.187088013,-0.051804811,-0.081256956,1.016657591
56.938188,13.172805786,-0.913322449,1.194717407,-0.051072389,-0.083698362,1.017634153
56.938813,13.477981567,-0.791252136,1.240493774,-0.051194459,-0.079670042,1.019831419
56.939439,13.859451294,-0.562370300,1.362564087,-0.052171022,-0.079303831,1.022272825
56.940065,13.928115845,-0.562370300,1.301528931,-0.049485475,-0.079792112,1.024470091
56.940690,14.057815552,-0.280082703,1.202346802,-0.049241334,-0.078449339,1.026423216
56.941315,14.340103149,-0.211418152,1.454116821,-0.048753053,-0.077594846,1.028986692
56.941942,14.591873169,0.055610657,1.217605591,-0.050462037,-0.077106565,1.026057005
56.942568,14.538467407,0.353157043,1.560928345,-0.049607545,-0.076984495,1.029108763
56.943226,14.523208618,0.353157043,1.377822876,-0.051194459,-0.075031370,1.031672239
56.944093,14.355361938,0.726997375,1.568557739,-0.052415162,-0.076374143,1.032526731
56.944937,14.492691040,0.932991028,1.568557739,-0.053269655,-0.076130003,1.036677122
56.945563,14.301956177,1.039802551,1.690628052,-0.048630983,-0.072956175,1.037775755
56.946188,14.111221313,1.367866516,1.736404419,-0.052781373,-0.071979612,1.037043333
56.946814,14.019668579,1.650154114,1.904251099,-0.050462037,-0.072101682,1.038386106
56.947512,13.584793091,2.077400208,1.774551392,-0.050828248,-0.068317503,1.040095091
56.948138,13.325393677,2.260505676,2.041580200,-0.048142701,-0.067096800,1.039850950
56.948763,13.233840942,2.504646301,2.011062622,-0.048386842,-0.066364378,1.042414427
56.949388,12.707412720,2.870857239,2.285720825,-0.050828248,-0.064289182,1.045710325
56.950013,12.165725708,2.840339661,1.995803833,-0.050950319,-0.066608518,1.046076536
56.950638,11.959732056,3.168403625,2.224685669,-0.049485475,-0.061969850,1.049494505
56.951265,11.555374146,3.351509094,2.339126587,-0.048875123,-0.060627077,1.052912474
56.951890,11.410415649,3.542243958,2.354385376,-0.051560670,-0.061847780,1.051325560
56.952517,10.571182251,3.679573059,2.209426880,-0.047288209,-0.063556761,1.051203489
56.953143,10.525405884,3.671943665,2.346755981,-0.048997194,-0.059894655,1.055842161
56.953770,10.197341919,4.236518860,2.423049927,-0.048753053,-0.062702268,1.055598021
56.954396,9.609878540,4.228889465,2.499343872,-0.050828248,-0.062580198,1.057307005
56.955021,9.304702759,4.381477356,2.659561157,-0.048997194,-0.061481569,1.057673216
56.955647,9.106338501,4.465400696,2.659561157,-0.048630983,-0.063434690,1.060236692
56.956272,8.419692993,4.671394348,2.598526001,-0.050339967,-0.060016725,1.060969114
56.956897,8.381546021,4.869758606,2.613784790,-0.048386842,-0.062946409,1.060236692
56.957522,7.878005981,5.007087708,2.789260864,-0.047898561,-0.058551881,1.064387083
56.958149,7.504165649,5.205451965,2.590896606,-0.045945436,-0.057453249,1.064020872
56.958774,7.099807739,5.304634094,2.720596313,-0.053635865,-0.063190550,1.067927122
56.959400,6.802261353,5.174934387,2.979995728,-0.055222780,-0.060749147,1.068903685
56.960027,6.199539185,5.167304993,2.934219360,-0.053025514,-0.060138796,1.072932005
56.960652,5.985916138,5.235969543,3.002883911,-0.055222780,-0.062580198,1.070978880
56.961279,5.940139771,5.083381653,3.033401489,-0.054856569,-0.062580198,1.071711302
56.961905,5.390823364,5.152046204,3.170730591,-0.053147584,-0.059528444,1.073176146
56.975110,4.406631470,6.731330872,3.414871216,-0.043137819,-0.018146606,1.131037474
56.975881,4.467666626,6.990730286,3.269912720,-0.054368287,-0.029499145,1.135798216
56.976508,4.269302368,7.471382141,3.308059692,-0.043015748,-0.019001098,1.127619505
57.001809,-7.518112183,5.625068665,1.820327759,-0.063645631,-0.058429811,0.915705442
57.004245,-4.969894409,4.160224915,1.789810181,-0.077805787,-0.005817505,0.919489622
57.004871,-4.847824097,3.794013977,1.370193481,-0.074631959,-0.002643677,0.916437864
57.005496,-4.382431030,3.145515442,1.377822876,-0.087571412,-0.008014770,0.915705442
57.006123,-3.764450073,2.313911438,1.240493774,-0.087937623,-0.005695435,0.916193724
57.006749,-3.329574585,1.276313782,1.171829224,-0.090256959,0.003703980,0.918879271
57.007376,-3.230392456,0.627815247,1.194717407,-0.081834108,0.013347534,0.920222044
57.008008,-3.245651245,0.047981262,1.019241333,-0.073899537,0.017742066,0.922419310
57.008633,-2.841293335,-0.768363953,1.377822876,-0.072068483,0.015544800,0.918513060
57.009260,-2.559005737,-1.058280945,0.935317993,-0.062669069,0.018962769,0.911677122
57.009886,-2.467453003,-1.104057312,1.110794067,-0.059373170,0.018840699,0.908015013
57.010511,-2.475082397,-1.310050964,0.729324341,-0.060715944,0.013347534,0.906061888
57.011138,-1.941024780,-1.409233093,0.668289185,-0.058030397,0.012493042,0.907160521
57.011763,-1.490890503,-1.592338562,0.889541626,-0.062424928,0.010906128,0.915095091
57.012389,-1.307785034,-1.661003113,0.576736450,-0.065842897,0.012493042,0.922297239
57.013016,-1.200973511,-2.111137390,0.714065552,-0.066819459,0.014324097,0.925104856
57.013642,-1.117050171,-2.729118347,0.622512817,-0.070847780,0.019817261,0.931086302
57.014268,-0.880538940,-2.874076843,0.431777954,-0.067673951,0.020915894,0.934992552
57.014893,-0.872909546,-3.331840515,0.447036743,-0.068650514,0.015666870,0.938776731
57.015520,-0.766098022,-3.858268738,0.302078247,-0.063523561,0.013591675,0.933649778
57.016145,-0.315963745,-4.079521179,0.416519165,-0.065354615,0.007488159,0.932917356
57.016771,0.012100220,-4.331291199,0.492813110,-0.069138795,0.005657104,0.933649778
57.017396,0.065505981,-5.017936707,0.477554321,-0.074387819,-0.000080200,0.937800169
57.018021,0.645339966,-5.384147644,0.195266724,-0.051560670,-0.011676880,0.942316771
57.018646,0.981033325,-5.155265808,0.111343384,-0.048997194,-0.011921020,0.937433958
57.019271,1.461685181,-5.109489441,0.500442505,-0.055100709,-0.010456176,0.941828489
57.019897,2.125442505,-5.353630066,0.317337036,-0.071458131,-0.005207154,0.943537474
57.020522,2.270401001,-5.773246765,0.523330688,-0.075486451,-0.009601684,0.949152708
57.021147,2.690017700,-6.528556824,0.386001587,-0.071702272,-0.008380981,0.955744505
57.021774,2.857864380,-6.978691101,0.210525513,-0.064988405,-0.010822387,0.957819700
57.022401,3.170669556,-7.215202332,0.286819458,-0.056565553,-0.014118286,0.952204466
57.023027,3.903091431,-7.619560242,0.233413696,-0.059739381,-0.013874145,0.945734739
57.023687,4.284561157,-7.856071472,0.103713989,-0.059129030,-0.015827270,0.940241575
57.024314,4.604995728,-8.046806335,0.241043091,-0.062180787,-0.015461059,0.945002317
57.024940,4.963577271,-8.298576355,0.248672485,-0.059739381,-0.013507934,0.949030638
57.025567,5.497634888,-8.756340027,0.317337036,-0.060838014,-0.014362426,0.954401731
57.026192,5.535781860,-9.122550964,0.309707642,-0.052293092,-0.013630005,0.955500364
57.026818,5.856216431,-9.046257019,0.012161255,-0.049973756,-0.013752075,0.951227903
57.027445,6.283462524,-9.267509460,0.294448853,-0.054246217,-0.009845825,0.950129271
57.028071,6.344497681,-9.603202820,0.294448853,-0.053269655,-0.009113403,0.951105833
57.028696,6.367385864,-9.999931335,0.477554321,-0.056443483,-0.005939575,0.955866575
57.029321,6.581008911,-10.366142273,0.363113403,-0.059373170,-0.004108521,0.956598997
57.029947,6.397903442,-10.801017761,0.340225220,-0.062913209,-0.001056763,0.961848021
57.030573,6.481826782,-11.022270203,0.469924927,-0.057908326,-0.000080200,0.963557005
57.031199,6.169021606,-11.472404480,0.653030396,-0.053757936,0.004192261,0.964777708
57.031825,6.474197388,-11.701286316,0.599624634,-0.054002076,0.002971558,0.963923216
57.032451,6.077468872,-12.044609070,0.607254028,-0.051316530,0.002849487,0.962946653
57.033076,6.291091919,-12.029350281,0.584365845,-0.049973756,-0.000202271,0.967341185
57.033703,6.031692505,-12.052238464,0.714065552,-0.049241334,0.001628784,0.965876341
57.048394,2.369583130,-11.914909363,1.065017700,-0.051682740,0.030437378,1.007990599
57.049161,2.072036743,-11.571586609,1.019241333,-0.049363405,0.024333863,1.006769896
57.049786,1.797378540,-11.724174500,1.248123169,-0.047532350,0.025310425,1.003962278
57.050413,1.331985474,-11.373222351,0.927688599,-0.048264772,0.022502808,1.000422239
57.051039,1.125991821,-11.365592957,0.920059204,-0.049241334,0.021648316,1.001765013
57.051665,1.003921509,-10.923088074,0.942947388,-0.044480592,0.016521363,1.002131224
57.052291,0.851333618,-11.060417175,1.019241333,-0.046189576,0.016521363,1.007502317
57.052917,0.828445435,-10.465324402,0.973464966,-0.046921998,0.021648316,1.004938841
57.054767,0.408828735,-10.503471375,0.942947388,-0.048508912,0.017864136,1.008967161
57.055394,0.317276001,-10.038078308,0.805618286,-0.049973756,0.018352417,1.010187864
57.056020,0.210464478,-10.060966492,0.912429810,-0.049973756,0.018474488,1.008234739
57.056646,0.355422974,-10.083854675,0.790359497,-0.049241334,0.020061402,1.009943724
57.057272,0.096023560,-9.908378601,0.561477661,-0.050950319,0.020549683,1.008845091
57.057898,0.141799927,-9.824455261,0.866653442,-0.050095826,0.021526245,1.010065794
57.058524,0.057876587,-9.618461609,0.653030396,-0.049607545,0.021160034,1.008112669
57.059151,-0.056564331,-9.511650085,0.553848267,-0.050706178,0.019573120,1.006281614
57.059776,-0.109970093,-9.549797058,0.569107056,-0.045823365,0.025310425,1.003473997
57.060402,-0.209152222,-9.473503113,0.462295532,-0.047288209,0.026409058,1.001154661
57.061029,-0.468551636,-9.259880066,0.515701294,-0.043626100,0.025798706,0.996760130
57.061655,-0.560104370,-9.145439148,0.614883423,-0.044480592,0.027751831,0.997858763
57.062281,-0.544845581,-8.992851257,0.416519165,-0.041795045,0.022502808,0.997980833
57.062907,-0.644027710,-8.702934265,0.279190063,-0.043870240,0.027629761,0.997858763
57.063533,-0.781356812,-8.550346375,0.386001587,-0.044236451,0.029949097,1.001642942
57.064159,-0.720321655,-8.466423035,0.271560669,-0.043015748,0.028484253,1.001642942
57.064786,-0.994979858,-8.214653015,0.172378540,-0.044846803,0.031780150,1.004450560
57.065411,-0.766098022,-8.100212097,0.180007935,-0.045335084,0.026653199,1.007868528
57.066038,-1.109420776,-7.886589050,-0.018356323,-0.043381959,0.032268431,1.002985716
57.066664,-1.124679565,-7.939994812,0.035049438,-0.045945436,0.030803589,1.006647825
57.067289,-1.094161987,-7.665336609,0.126602173,-0.043259889,0.028606324,1.007380247
57.067914,-1.132308960,-7.459342957,-0.071762085,-0.042161256,0.028240113,1.009333372
57.068540,-1.284896851,-7.352531433,-0.079391479,-0.046067506,0.025554566,1.009211302
57.069166,-1.300155640,-7.421195984,-0.293014526,-0.043992311,0.028240113,1.012018919
57.069791,-1.506149292,-6.833732605,-0.300643921,-0.043504030,0.028484253,1.011286497
57.070417,-1.536666870,-6.612480164,-0.529525757,-0.045579225,0.027385620,1.011896849
57.071042,-1.620590210,-6.574333191,-0.384567261,-0.046311647,0.023357300,1.010798216
57.071667,-1.361190796,-6.269157410,-0.476119995,-0.052781373,0.020549683,1.012873411
57.072293,-1.529037476,-5.971611023,-0.636337280,-0.051194459,0.020671753,1.015558958
57.072920,-1.574813843,-5.773246765,-0.697372437,-0.050584108,0.019939331,1.017512083
57.073545,-1.368820190,-5.628288269,-0.834701538,-0.047654420,0.020671753,1.017390013
57.074171,-1.391708374,-5.254447937,-0.964401245,-0.047166139,0.024455933,1.023371458
57.074797,-1.368820190,-4.934013367,-0.903366089,-0.045457155,0.024700074,1.024470091
57.075424,-1.658737183,-4.590690613,-0.918624878,-0.041795045,0.022991089,1.023371458
57.076050,-1.643478394,-4.338920593,-1.147506714,-0.043137819,0.019695191,1.024958372
57.076677,-1.735031128,-3.980339050,-0.994918823,-0.042527467,0.018718628,1.023859739
57.077303,-1.666366577,-3.904045105,-1.246688843,-0.039963990,0.017742066,1.027521849
57.077929,-1.712142944,-3.408134460,-1.300094604,-0.039719850,0.012981324,1.025690794
57.078556,-1.620590210,-3.118217468,-1.361129761,-0.039963990,0.013103394,1.023859739
57.079181,-1.857101440,-2.622306824,-1.544235229,-0.038377076,0.014812378,1.021174192
57.092335,0.065505981,0.025093079,-2.627609253,-0.043748170,-0.032917116,1.033015013
57.093077,0.485122681,0.063240051,-2.475021362,-0.045945436,-0.034015749,1.034479856
57.093702,0.607192993,0.383674622,-2.673385620,-0.047288209,-0.038166139,1.035090208
57.094329,0.881851196,0.734626770,-2.757308960,-0.044602662,-0.036090944,1.029108763
57.094956,1.148880005,0.604927063,-2.673385620,-0.047532350,-0.034626100,1.025812864
57.095581,1.339614868,0.818550110,-2.482650757,-0.050095826,-0.036579225,1.026911497
57.096206,1.568496704,1.154243469,-2.803085327,-0.051560670,-0.035236452,1.026423216
57.096832,1.774490356,1.070320129,-2.856491089,-0.052293092,-0.034870241,1.027399778
57.097459,1.888931274,1.131355286,-2.787826538,-0.054368287,-0.037067506,1.019953489
57.098084,1.858413696,1.238166809,-2.787826538,-0.052415162,-0.035358522,1.023127317
57.098709,2.041519165,1.329719543,-2.604721069,-0.050462037,-0.035968874,1.020319700
57.099334,2.171218872,1.245796204,-2.719161987,-0.052293092,-0.034381960,1.016779661
57.099959,2.216995239,1.375495911,-2.803085327,-0.047044069,-0.037067506,1.014704466
57.100585,2.369583130,1.245796204,-2.757308960,-0.046311647,-0.033527467,1.012751341
57.101211,2.186477661,1.230537415,-2.642868042,-0.047044069,-0.032306764,1.010432005
57.101836,2.407730103,1.459419250,-2.825973511,-0.050584108,-0.028644653,1.012140989
57.102461,2.140701294,1.344978333,-2.810714722,-0.048264772,-0.030109497,1.011286497
57.103086,2.056777954,1.200019836,-2.665756226,-0.048997194,-0.027057739,1.011164427
57.104940,1.560867310,1.673042297,-2.673385620,-0.041428834,-0.031086059,1.012629271
57.105566,1.293838501,1.589118958,-2.833602905,-0.040086061,-0.035724733,1.012018919
57.106191,1.248062134,1.535713196,-2.856491089,-0.038010865,-0.039020631,1.013117552
57.106816,1.209915161,2.046882629,-2.795455933,-0.038132936,-0.044025514,1.010676146
57.107443,1.202285767,2.062141418,-2.803085327,-0.037644655,-0.047565553,1.010187864
57.108068,1.103103638,2.085029602,-2.948043823,-0.040208131,-0.049762819,1.012140989
57.108694,1.270950317,2.153694153,-2.734420776,-0.037888795,-0.050129030,1.012385130
57.109321,1.164138794,2.558052063,-2.650497437,-0.040086061,-0.050006960,1.010920286
57.109948,1.240432739,2.535163879,-2.726791382,-0.043137819,-0.056232546,1.010187864
57.110574,1.087844849,2.733528137,-2.940414429,-0.040818483,-0.054523561,1.009821653
57.111199,1.316726685,2.809822083,-2.848861694,-0.041795045,-0.056720827,1.010798216
57.111825,0.958145142,2.954780579,-2.703903198,-0.044602662,-0.058796022,1.007380247
57.112452,1.309097290,2.825080872,-2.795455933,-0.043626100,-0.063312620,1.007624388
57.113077,1.209915161,2.847969055,-2.864120483,-0.042527467,-0.066974729,1.007868528
57.113703,1.347244263,2.718269348,-2.688644409,-0.038010865,-0.065998167,1.009333372
57.114329,1.347244263,2.847969055,-2.688644409,-0.040818483,-0.066364378,1.008967161
57.114954,1.515090942,2.779304504,-2.589462280,-0.038621217,-0.071979612,1.007502317
57.115579,1.537979126,2.939521790,-2.444503784,-0.041062623,-0.073810667,1.007990599
57.116206,1.835525513,2.832710266,-2.528427124,-0.041550905,-0.075519651,1.004572630
57.116831,2.087295532,2.924263000,-2.391098022,-0.037156373,-0.076496214,1.005915403
57.117457,2.072036743,2.764045715,-2.566574097,-0.035691530,-0.078693479,1.006525755
57.118083,2.133071899,2.855598450,-2.246139526,-0.038743287,-0.076862425,1.005182981
57.118709,2.278030396,2.901374817,-2.475021362,-0.036546022,-0.080036253,1.007258177
57.119335,2.461135864,2.924263000,-2.375839233,-0.037278444,-0.081134886,1.004694700
57.119961,2.506912231,2.992927551,-2.299545288,-0.036423951,-0.080402464,1.003962278
57.120587,2.819717407,2.878486633,-2.215621948,-0.038987428,-0.080036253,1.002619505
57.121212,2.834976196,2.817451477,-2.269027710,-0.040086061,-0.079914182,1.006647825
57.121838,2.934158325,2.649604797,-1.895187378,-0.037278444,-0.077961057,1.006037474
57.122464,2.789199829,2.382575989,-2.116439819,-0.041917115,-0.078937620,1.005305052
57.123091,2.842605591,2.512275696,-1.841781616,-0.047654420,-0.077228636,1.008234739
57.135760,2.857864380,3.458320618,-0.834701538,0.023390504,-0.102985471,0.992487669
57.136532,5.078018188,4.419624329,-0.697372437,-0.016404418,-0.114093870,1.028498411
57.137158,4.955947876,5.586921692,-0.994918823,0.009962769,-0.027546020,1.014826536
57.137784,3.346145630,6.861030579,-1.040695190,0.004591675,-0.008869262,1.008478880
57.138411,3.513992310,7.395088196,-0.659225464,-0.049363405,-0.041217897,1.039728880
57.139036,3.613174438,7.242500305,-0.659225464,-0.033128053,0.003581909,1.024592161
57.139661,0.958145142,8.264839172,-1.109359741,0.009230347,0.027629761,0.980280638
57.140288,-0.041305542,9.485542297,-1.010177612,-0.003709106,-0.007892700,0.963312864
57.140915,0.691116333,9.668647766,-0.674484253,-0.040208131,-0.030109497,0.963923216
57.141540,0.584304810,9.203254700,-0.674484253,-0.069871217,-0.025226684,0.982966185
57.142167,0.042617798,8.592903137,-0.804183960,-0.081834108,0.001506714,1.004206419
57.142794,-1.139938354,7.425605774,-0.636337280,-0.081589967,0.036174681,1.009455442
57.143421,-2.681076050,6.334602356,-0.598190308,-0.081589967,0.043620970,1.010065794
57.144048,-3.604232788,5.487739563,-0.460861206,-0.076340944,0.030193238,1.007258177
57.144674,-4.329025269,4.572212219,-0.239608765,-0.079026490,0.009807495,0.999811888
57.145299,-4.641830444,3.458320618,-0.178573608,-0.088547975,-0.006427857,0.991999388
57.145924,-4.985153198,2.596199036,-0.293014526,-0.078782350,-0.012165161,0.991144896
57.146549,-5.084335327,2.046882629,-0.315902710,-0.068406373,-0.011676880,0.993708372
57.147175,-5.404769897,1.550971985,-0.018356323,-0.055100709,-0.015827270,0.989069700
57.147801,-5.496322632,1.642524719,0.065567017,-0.048142701,-0.022174926,0.983942747
57.148427,-5.084335327,1.718818665,0.057937622,-0.037888795,-0.024372192,0.984431028
57.149054,-5.168258667,1.802742004,-0.087020874,-0.034104615,-0.021686645,0.981501341
57.149679,-5.236923218,1.962959290,-0.064132690,-0.034226686,-0.024860473,0.994929075
57.150304,-4.596054077,2.168952942,-0.117538452,-0.035935670,-0.035358522,1.003840208
57.150930,-4.435836792,2.405464172,-0.109909058,-0.039353639,-0.034015749,1.005549192
57.151555,-3.833114624,2.550422668,-0.087020874,-0.047532350,-0.037555788,1.018122435
57.152182,-2.795516968,1.596748352,-0.025985718,-0.081223756,-0.055255983,1.043024778
57.152808,-1.574813843,0.330268860,0.088455200,-0.101853639,-0.044757936,1.077570677
57.153435,-1.719772339,-0.364006042,0.141860962,-0.037522584,0.028240113,1.056452513
57.155259,-2.070724487,3.237068176,0.027420044,-0.019212035,-0.066730589,0.979670286
57.155886,-0.003158569,3.191291809,-0.338790894,-0.064622194,-0.093708128,1.012995481
57.156512,2.270401001,2.374946594,-0.285385132,-0.110154420,-0.064289182,1.068415403
57.157139,3.826797485,0.391304016,-0.102279663,-0.151536256,-0.027301880,1.137263060
57.157766,4.429519653,-2.355278015,0.012161255,-0.163621217,0.015544800,1.200983763
57.158392,4.551589966,-5.323112488,0.035049438,-0.146653444,0.037273314,1.235163450
57.159017,3.994644165,-7.550895691,0.347854614,-0.089280397,0.056560423,1.214045286
57.159644,3.895462036,-8.069694519,-0.071762085,-0.053391725,-0.005817505,1.181208372
57.160269,5.306900024,-8.100212097,0.180007935,0.000075074,-0.014362426,1.118220091
57.160894,5.047500610,-5.628288269,-0.338790894,0.079909056,-0.006427857,1.029352903
57.161521,6.039321899,-2.072990417,-0.781295776,0.095045775,-0.037799928,0.999567747
57.162146,8.198440552,1.375495911,-0.758407593,0.072218627,-0.069049925,1.002253294
57.162771,9.785354614,4.312812805,-0.773666382,0.052565306,-0.017780395,1.014826536
57.163398,9.442031860,7.143318176,-1.239059448,0.058546752,0.054607298,1.014460325
57.164024,7.687271118,10.149299622,-1.597640991,0.065626830,0.110149294,0.992975950
57.164651,6.886184692,12.277900696,-1.567123413,0.002516480,0.076335818,1.022516966
57.165278,7.267654419,12.529670715,-1.269577026,-0.081101686,0.053264525,1.068659544
57.165903,6.855667114,11.125862122,-1.620529175,-0.131272584,0.064617068,1.107111692
57.166529,6.237686157,8.508979797,-1.399276733,-0.183640748,0.078288943,1.161799192
57.186090,-3.894149780,7.395088196,-2.070663452,-0.129441530,-0.064655393,1.035700560
57.186884,-2.620040894,5.190193176,-2.093551636,-0.128587037,-0.048908327,1.035700560
57.187509,-2.208053589,3.145515442,-2.215621948,-0.136643678,-0.050495241,1.056452513
57.188135,-0.880538940,1.512825012,-1.780746460,-0.122727662,-0.028522583,1.064142942
57.188762,-0.613510132,-0.257194519,-1.742599487,-0.093186647,-0.027546020,1.066096067
57.189387,-0.499069214,-0.997245789,-1.933334351,-0.060838014,-0.030841919,1.058649778
57.190012,-0.254928589,-0.814140320,-1.628158569,-0.021653442,-0.031086059,1.025568724
57.190637,-0.788986206,0.810920715,-2.017257690,0.028273316,-0.027668091,0.956598997
57.191263,0.500381470,2.130805969,-2.108810425,-0.008103637,-0.106403440,0.972223997
57.191889,2.705276489,3.114997864,-1.895187378,0.008497925,-0.066486448,0.946833372
57.192514,2.384841919,5.571662903,-2.413986206,-0.002854614,-0.089435667,0.952326536
57.193139,4.742324829,5.502998352,-2.177474976,-0.034348756,-0.067829221,0.985163450
57.193765,4.185379028,6.853401184,-2.200363159,-0.019212035,-0.018756958,0.965998411
57.194390,3.758132935,7.364570618,-2.459762573,-0.054856569,-0.033161256,0.989680052
57.195017,5.245864868,6.189643860,-1.910446167,-0.128464967,-0.096515745,1.058527708
57.195643,7.565200806,3.099739075,-1.689193726,-0.213303834,-0.120319456,1.146296263
57.196269,8.419692993,-0.859916687,-1.895187378,-0.180100709,-0.023395630,1.159723997
57.196894,7.145584106,-3.347099304,-1.933334351,-0.139939576,-0.003864380,1.165583372
57.197519,5.993545532,-5.078971863,-1.376388550,-0.067918092,0.036907103,1.098200560
57.198145,5.245864868,-5.208671570,-1.368759155,-0.031052856,-0.048420046,1.055964231
57.198772,6.207168579,-4.491508484,-1.498458862,-0.003587035,-0.121418089,1.010309935
57.199397,8.457839966,-2.950370789,-1.544235229,0.005079957,-0.164386839,0.996515989
57.200022,10.769546509,-1.592338562,-1.628158569,0.000197144,-0.160602659,0.999567747
57.200647,12.814224243,-0.234306335,-1.437423706,-0.012620239,-0.136310667,1.028864622
57.201272,14.034927368,0.192939758,-1.567123413,-0.021775512,-0.077961057,1.049860716
57.201898,12.760818481,1.428901672,-1.803634644,0.022536011,0.013225464,1.006891966
57.202524,9.937942505,4.564582825,-1.879928589,0.084791869,0.034343626,0.925226927
57.203149,8.778274536,7.746040344,-1.963851929,0.078444213,-0.044269655,0.872858763
57.203775,13.493240356,9.996711731,-1.803634644,-0.076951295,-0.159504026,0.939631224
57.205628,14.767349243,6.082832336,-1.788375854,-0.139695436,0.046794798,1.011286497
57.206255,11.387527466,4.198371887,-1.475570679,-0.121262819,0.105998904,1.009333372
57.206881,7.939041138,2.382575989,-1.460311890,-0.093552858,0.088542849,0.978571653
57.207508,6.947219849,0.795661926,-1.025436401,-0.110032350,-0.036213014,0.980890989
57.208135,8.160293579,-1.332939148,-1.071212769,-0.131150514,-0.082355589,0.978449583
57.208760,7.847488403,-2.866447449,-1.353500366,-0.071336061,0.008342652,0.902521849
57.209387,4.505813599,-2.004325867,-1.681564331,0.013746949,0.068401247,0.809015989
57.210013,3.597915649,1.474678040,-1.048324585,0.023878785,-0.054645631,0.783503294
57.210640,2.964675903,3.649055481,-1.467941284,0.014235230,-0.059894655,0.765070677
57.211266,2.667129517,5.502998352,-1.849411011,-0.023118285,-0.048420046,0.777765989
57.211893,3.384292603,5.304634094,-1.475570679,-0.085374147,-0.044025514,0.832819700
57.212518,3.376663208,3.710090637,-1.170394897,-0.140916139,-0.015583130,0.898981810
57.213143,1.705825806,1.337348938,-1.132247925,-0.173508912,0.011638550,0.960261106
57.213770,0.401199341,-2.469718933,-1.025436401,-0.209275514,0.003337769,1.010309935
57.214396,-0.087081909,-6.559074402,-0.628707886,-0.202439576,0.000163940,1.031672239
57.215022,-0.972091675,-9.847343445,-0.468490601,-0.147385865,0.006389526,1.015192747
57.215649,-2.261459351,-11.556327820,-0.483749390,-0.080003053,-0.013874145,0.971613646
57.216274,-2.848922729,-11.907279968,-0.300643921,-0.033372194,-0.056110475,0.926935911
57.216901,-2.055465698,-10.694206238,-0.399826050,0.011061402,-0.096515745,0.883845091
57.229578,7.000625610,-0.859916687,-0.453231812,-0.088792115,-0.022663208,1.004450560
57.230352,7.023513794,-1.638114929,-0.697372437,-0.090867311,0.004436401,1.023371458
57.231013,5.955398560,-2.118766785,-0.811813354,-0.080613405,0.042522337,1.011286497
57.231639,4.925430298,-2.385795593,-0.788925171,-0.082078248,0.032512572,0.996027708
57.232265,5.047500610,-3.431022644,-0.666854858,-0.112962037,-0.027057739,1.021052122
57.232891,5.749404907,-4.377067566,-0.575302124,-0.106858522,-0.024005981,1.032648802
57.233516,4.048049927,-4.453361511,-0.888107300,-0.028245239,0.053020384,0.974543333
57.234142,2.155960083,-3.057182312,-0.979660034,0.006178590,0.059978392,0.924494505
57.234767,2.117813110,-1.966178894,-0.674484253,-0.028123168,-0.010089966,0.932307005
57.235392,2.834976196,-1.371086121,-0.827072144,-0.044358522,-0.034381960,0.941950560
57.236019,2.491653442,-0.447929382,-1.223800659,-0.048997194,-0.036457155,0.956232786
57.236644,3.048599243,-0.440299988,-1.116989136,-0.054856569,-0.006183716,0.971003294
57.237269,2.949417114,-0.447929382,-0.918624878,-0.066819459,0.026897339,0.981745481
57.237896,1.835525513,-0.661552429,-0.956771851,-0.070115358,0.040569212,0.979426146
57.238521,0.645339966,-0.821769714,-1.322982788,-0.069749147,0.022991089,0.986384153
57.239146,0.637710571,-1.310050964,-0.918624878,-0.081834108,-0.007038208,0.995661497
57.239773,0.851333618,-1.859367371,-1.025436401,-0.077561647,-0.017658325,1.005305052
57.240400,0.446975708,-2.217948914,-1.307723999,-0.060227662,-0.009113403,0.993952513
57.241026,0.126541138,-2.080619812,-1.223800659,-0.044358522,0.004558471,0.978815794
57.241652,0.157058716,-1.981437683,-1.338241577,-0.043870240,-0.010700317,0.973444700
57.242277,0.530899048,-1.638114929,-1.170394897,-0.046433717,-0.038898561,0.980036497
57.242904,1.454055786,-1.966178894,-1.193283081,-0.068284303,-0.055744264,1.006281614
57.243531,2.400100708,-2.500236511,-1.338241577,-0.075242311,-0.037189577,1.024103880
57.244156,1.942337036,-2.576530457,-1.193283081,-0.039963990,0.011882691,1.004206419
57.244781,0.553787231,-1.630485535,-1.704452515,-0.004563598,0.031291869,0.959284544
57.245407,0.294387817,-0.455558777,-1.521347046,-0.008713989,-0.015216919,0.942194700
57.246033,1.370132446,0.658332825,-1.544235229,-0.027879028,-0.069049925,0.937433958
57.246659,2.857864380,0.742256165,-1.788375854,-0.061692506,-0.094562620,0.969172239
57.247285,4.322708130,0.612556458,-1.788375854,-0.075120240,-0.066120237,0.986750364
57.247912,5.085647583,0.109016418,-1.567123413,-0.085496217,-0.015216919,1.006037474
57.248539,4.643142700,-0.707328796,-1.612899780,-0.101853639,0.004436401,1.021662474
57.249165,4.261672974,-1.928031921,-1.597640991,-0.114182740,-0.006427857,1.035700560
57.249791,4.620254517,-3.369987488,-1.559494019,-0.114793092,-0.021808716,1.044977903
57.250416,4.917800903,-4.697502136,-1.567123413,-0.105027467,-0.035602663,1.042780638
57.251041,5.459487915,-5.628288269,-1.757858276,-0.083665162,-0.040607546,1.035822630
57.251666,6.169021606,-5.971611023,-1.719711304,-0.063523561,-0.033283327,1.015314817
57.252292,6.268203735,-5.757987976,-1.696823120,-0.038743287,-0.032184694,0.993342161
57.252917,6.672561646,-5.071342468,-1.750228882,-0.032395631,-0.043171022,0.986017942
57.253544,7.267654419,-4.110038757,-1.513717651,-0.019578246,-0.046833131,0.977839231
57.254170,7.664382935,-2.813041687,-1.704452515,-0.008347778,-0.041462038,0.973078489
57.255981,9.579360962,-0.676811218,-1.757858276,-0.059129030,-0.031330202,1.008234739
57.256607,8.984268188,-0.325859070,-2.009628296,-0.051560670,0.010173706,1.007380247
57.257232,8.328140259,-0.280082703,-1.796005249,-0.058030397,0.028118042,1.008845091
57.257857,7.511795044,-0.371635437,-1.734970093,-0.059617311,0.024333863,1.008723021
57.258484,6.886184692,-0.272453308,-1.834152222,-0.062424928,0.012126831,1.012263060
57.259109,6.184280396,-0.493705750,-1.811264038,-0.064378053,0.007976441,1.007258177
57.259734,5.901992798,-0.638664246,-1.696823120,-0.073411256,0.007244018,1.008600950
57.260360,5.749404907,-1.203239441,-1.757858276,-0.080491334,0.019328980,1.015558958
57.273006,-3.665267944,0.818550110,-1.033065796,-0.029588012,-0.066120237,1.002619505
57.273750,-2.604782104,1.573860168,-1.017807007,-0.039719850,-0.055133913,1.008600950
57.274377,-2.734481812,2.268135071,-1.116989136,-0.043137819,-0.028522583,1.008356810
57.275008,-3.108322144,2.878486633,-1.170394897,-0.044480592,-0.011066528,1.009211302
57.275634,-3.024398804,3.137886047,-0.842330933,-0.051804811,-0.008014770,1.012995481
57.276259,-3.794967651,3.343879700,-0.918624878,-0.071336061,-0.019611450,1.016657591
57.276884,-3.550827026,3.092109680,-0.979660034,-0.068406373,-0.005207154,1.013727903
57.277510,-4.397689819,3.313362122,-1.025436401,-0.054612428,0.012981324,0.995905638
57.278135,-5.076705933,3.267585754,-1.002548218,-0.055100709,0.012004761,0.989313841
57.278761,-5.320846558,3.267585754,-0.735519409,-0.063157350,-0.000934692,0.988459349
57.279387,-5.526840210,3.221809387,-0.994918823,-0.076096803,-0.007526489,0.992121458
57.280013,-5.526840210,2.481758118,-0.865219116,-0.082810670,-0.009113403,1.004816771
57.280639,-5.664169312,1.825630188,-0.781295776,-0.084885865,0.006999878,1.015192747
57.281266,-5.824386597,1.154243469,-0.659225464,-0.086716920,0.007976441,1.024958372
57.281891,-6.282150269,0.299751282,-0.750778198,-0.072556764,0.012981324,1.023493528
57.282517,-6.999313354,0.078498840,-0.872848511,-0.061448365,0.010661988,1.018000364
57.283143,-7.312118530,0.154792786,-0.766036987,-0.045701295,0.005412964,1.004694700
57.283768,-7.380783081,0.551521301,-1.170394897,-0.029832153,-0.006183716,0.989802122
57.284395,-7.335006714,1.047431946,-1.025436401,-0.025193481,-0.022052856,0.980402708
57.285022,-7.006942749,1.695930481,-0.979660034,-0.030076293,-0.024250122,0.984308958
57.285648,-6.739913940,2.359687805,-0.972030640,-0.033738405,-0.016315551,0.991144896
57.286273,-6.610214233,2.703010559,-1.071212769,-0.046555787,-0.015216919,0.998713255
57.286900,-6.106674194,2.809822083,-1.116989136,-0.061448365,-0.016315551,1.015925169
57.287526,-6.175338745,2.519905090,-1.086471558,-0.056809694,-0.001300903,1.011530638
57.288153,-6.648361206,2.718269348,-1.239059448,-0.049485475,0.000896362,1.013483763
57.288778,-6.488143921,2.695381165,-1.284835815,-0.047532350,-0.008258911,1.015803099
57.289403,-6.472885132,2.832710266,-1.124618530,-0.044846803,-0.000446411,1.004084349
57.290028,-6.785690308,3.122627258,-1.406906128,-0.033494264,0.003703980,0.986872435
57.290654,-6.976425171,3.832160950,-1.292465210,-0.029588012,0.007976441,0.970270872
57.291279,-6.686508179,4.381477356,-1.315353394,-0.054002076,-0.033649538,0.985529661
57.291906,-4.657089233,3.618537903,-1.422164917,-0.108445436,-0.065998167,1.044001341
57.292532,-4.123031616,2.527534485,-1.170394897,-0.105637819,-0.024860473,1.044245481
57.293158,-5.038558960,1.718818665,-1.574752808,-0.070725709,0.024822144,1.027521849
57.293785,-6.152450562,1.932441711,-1.559494019,-0.037644655,0.036662962,1.001154661
57.294411,-6.083786011,2.435981750,-1.254318237,-0.039719850,-0.003498169,0.999811888
57.295036,-5.236923218,2.863227844,-1.322982788,-0.056931764,-0.037677858,0.998835325
57.295662,-4.580795288,2.680122375,-1.635787964,-0.062546998,-0.047931764,1.003107786
57.296289,-3.672897339,2.664863586,-1.811264038,-0.066087037,-0.045612428,1.016047239
57.296915,-2.696334839,2.527534485,-1.590011597,-0.051926881,-0.007770630,1.013849974
57.297541,-2.917587280,2.329170227,-1.628158569,-0.040208131,0.010906128,1.008112669
57.298167,-3.413497925,2.710639954,-1.658676147,-0.035813600,-0.004108521,1.001642942
57.298793,-2.696334839,2.962409973,-1.811264038,-0.043137819,-0.024616333,0.995539427
57.299419,-2.276718140,3.427803040,-1.910446167,-0.023362426,-0.000202271,0.974299192
57.300044,-2.703964233,4.175483704,-2.078292847,-0.006760864,0.011882691,0.947321653
57.300670,-2.696334839,5.266487122,-2.246139526,-0.020188598,-0.011188598,0.939631224
57.301296,-1.353561401,5.594551086,-2.322433472,-0.064378053,-0.054401491,0.957209349
57.301921,0.378311157,4.343330383,-2.261398315,-0.109666139,-0.075885862,0.991877317
57.302547,1.949966431,2.985298157,-2.375839233,-0.114060670,-0.034259889,1.009821653
57.316468,9.205520630,-5.292594910,-3.230331421,-0.087693483,-0.018024536,1.099177122
57.317276,7.237136841,-5.475700378,-3.421066284,-0.004441528,0.091594607,1.043390989
57.317902,2.819717407,-2.896965027,-3.604171753,0.060744017,0.143474489,0.994807005
57.318527,1.637161255,-0.119865417,-3.482101440,0.061964720,0.081340700,0.977595091
57.319153,-2.902328491,5.029975891,-3.749130249,0.449415892,0.740520358,0.591120481
57.319778,-33.549606323,26.781379700,-7.098434448,0.595900297,0.613445163,0.267756224
57.320403,-16.833602905,42.665779114,-7.647750854,-0.183152467,-0.152057737,0.855524778
57.321030,-12.141525269,33.068000793,-6.907699585,-0.496629030,-0.034137819,0.798151731
57.321656,-18.649398804,17.542182922,-5.351303101,-0.602097750,0.036296751,0.759577513
57.322281,-24.211227417,4.564582825,-3.695724487,-0.444260865,0.085491091,0.762018919
57.322907,-23.974716187,-2.454460144,-3.031967163,-0.222214967,0.123088747,0.762751341
57.323533,-20.633041382,-3.560722351,-3.421066284,-0.057297975,0.138835818,0.755182981
57.324159,-18.641769409,-2.134025574,-4.840133667,-0.014085082,0.186931521,0.742975950
57.324785,-20.816146851,-1.012504578,-5.625961304,-0.029221801,0.176311404,0.755305052
57.325412,-23.906051636,-1.462638855,-5.686996460,-0.026658325,0.082805544,0.825617552
57.326037,-24.638473511,-1.508415222,-5.618331909,-0.014085082,0.012981324,0.887629271
57.326662,-25.035202026,0.116645813,-5.259750366,0.009474488,-0.009113403,0.944758177
57.327287,-26.332199097,2.191841125,-4.901168823,0.008619996,-0.074909300,0.972346067
57.327913,-26.866256714,2.619087219,-4.771469116,-0.035325319,-0.136188596,0.956110716
57.328539,-25.477706909,2.161323547,-4.252670288,-0.070481569,-0.161335081,0.912653685
57.329165,-22.723495483,0.902473450,-4.321334839,-0.082810670,-0.170978636,0.891291380
57.329790,-19.336044312,0.391304016,-4.489181519,-0.084885865,-0.167438596,0.886652708
57.330415,-16.261398315,0.307380676,-4.695175171,-0.088792115,-0.130451292,0.890192747
57.331042,-13.835250854,0.025093079,-4.916427612,-0.090867311,-0.118610471,0.898371458
57.331823,-12.278854370,0.597297668,-4.801986694,-0.071946412,-0.133747190,0.904963255
57.332448,-10.669052124,1.695930481,-5.374191284,-0.007005004,-0.179645628,0.946589231
57.333075,-7.479965210,0.833808899,-6.930587769,-0.058274537,-0.148517698,0.956232786
57.333708,-5.221664429,0.131904602,-4.878280640,-0.074631959,-0.124591917,0.931940794
57.334335,-3.253280640,-1.088798523,-4.267929077,-0.062058717,-0.149738401,0.928156614
57.334962,-1.429855347,-2.080619812,-4.245040894,-0.107224733,-0.165851682,0.918146849
57.335589,0.439346313,-2.729118347,-4.428146362,-0.107346803,-0.159137815,0.911921263
57.336215,2.171218872,-3.507316589,-4.977462769,-0.099412233,-0.124958128,0.897028685
57.336842,4.193008423,-4.415214539,-5.038497925,-0.081712037,-0.091266721,0.876032591
57.337468,5.680740356,-5.475700378,-4.641769409,-0.061814576,-0.072589964,0.862360716
57.338095,7.000625610,-6.353080750,-4.290817261,-0.061448365,-0.075763792,0.851618528
57.338722,8.755386353,-6.932914734,-4.107711792,-0.066697389,-0.097980589,0.841974974
57.339347,10.281265259,-6.749809265,-4.611251831,-0.073045045,-0.114093870,0.843806028
57.339973,11.822402954,-6.910026550,-4.748580933,-0.077561647,-0.120197386,0.834894896
57.340599,13.210952759,-6.902397156,-4.809616089,-0.078294069,-0.113727659,0.824152708
57.341224,14.355361938,-7.550895691,-4.405258179,-0.077561647,-0.108966917,0.816584349
57.341850,15.721023560,-8.123100281,-4.138229370,-0.066697389,-0.119709104,0.816096067
57.342475,17.170608521,-8.474052429,-3.878829956,-0.070725709,-0.123249143,0.818537474
57.343102,18.719375610,-8.420646667,-3.772018433,-0.079392701,-0.109943479,0.823908567
57.343729,19.222915649,-8.825004578,-4.031417847,-0.089646608,-0.093586057,0.827204466
57.344355,19.993484497,-9.114921570,-4.061935425,-0.090012819,-0.083210081,0.839777708
57.344980,20.008743286,-9.534538269,-3.932235718,-0.070725709,-0.042072389,0.887507200
57.345607,18.841445923,-8.763969421,-3.878829956,-0.055344850,-0.003009888,0.946467161
57.358227,16.758621216,-9.748161316,-1.467941284,-0.043015748,-0.147907346,0.988825560
57.358965,16.918838501,-9.435356140,-1.406906128,-0.040696412,-0.143268675,0.989924192
57.359590,16.842544556,-8.901298523,-1.223800659,-0.043504030,-0.142658323,0.988947630
57.360216,16.903579712,-8.771598816,-1.132247925,-0.045579225,-0.139850706,0.987238646
57.360843,16.949356079,-8.496940613,-0.880477905,-0.048508912,-0.142780393,0.980768919
57.361469,17.178237915,-8.214653015,-0.857589722,-0.049973756,-0.142536253,0.981745481
57.362095,17.170608521,-8.001029968,-0.842330933,-0.049607545,-0.140949339,0.977473021
57.362721,17.224014282,-7.856071472,-0.521896362,-0.048508912,-0.137897581,0.976984739
57.363348,17.269790649,-7.642448425,-0.460861206,-0.054490358,-0.136188596,0.972590208
57.363974,17.498672485,-7.741630554,-0.437973022,-0.056687623,-0.133869261,0.973444700
57.364600,17.353713989,-7.550895691,-0.071762085,-0.059129030,-0.129352659,0.969172239
57.366454,17.323196411,-7.901847839,0.370742798,-0.055711061,-0.115680784,0.962702513
57.367079,17.002761841,-8.016288757,0.286819458,-0.053635865,-0.111042112,0.964777708
57.367705,17.033279419,-8.260429382,0.302078247,-0.054856569,-0.108600706,0.956476927
57.368332,16.995132446,-8.199394226,0.386001587,-0.055100709,-0.104694456,0.951227903
57.368959,17.040908813,-8.428276062,0.698806763,-0.054734498,-0.103107542,0.951227903
57.369584,16.720474243,-8.580863953,0.622512817,-0.050217897,-0.107990354,0.949274778
57.370210,16.773880005,-8.641899109,0.721694946,-0.047532350,-0.108112425,0.950373411
57.370836,16.880691528,-8.596122742,0.988723755,-0.047532350,-0.107380003,0.950251341
57.371463,16.567886353,-8.886039734,1.034500122,-0.049729615,-0.103595823,0.946223021
57.372088,16.247451782,-8.802116394,1.385452271,-0.048997194,-0.103473753,0.951349974
57.372713,16.514480591,-8.779228210,1.232864380,-0.050950319,-0.102130979,0.949640989
57.373339,16.735733032,-8.847892761,1.377822876,-0.057664186,-0.101154417,0.955622435
57.373964,16.659439087,-9.038627625,1.164199829,-0.059373170,-0.097614378,0.959772825
57.374591,16.674697876,-9.435356140,1.461746216,-0.060349733,-0.093097776,0.965388060
57.375216,16.682327271,-9.504020691,1.629592896,-0.060593873,-0.093097776,0.969782591
57.375841,16.552627563,-9.679496765,1.568557739,-0.056443483,-0.089679807,0.966730833
57.376467,16.689956665,-10.144889832,1.599075317,-0.056321412,-0.086750120,0.967951536
57.377092,16.438186646,-9.954154968,1.667739868,-0.060105592,-0.083698362,0.970881224
57.377719,16.453445435,-10.038078308,1.827957153,-0.056687623,-0.083088011,0.970392942
57.378345,16.598403931,-10.152519226,1.980545044,-0.056809694,-0.079059690,0.972346067
57.378971,16.529739380,-10.236442566,2.224685669,-0.057420045,-0.076618284,0.975886106
57.379596,16.308486938,-10.381401062,2.102615356,-0.055466920,-0.069782346,0.976252317
57.380222,16.133010864,-10.404289246,2.201797485,-0.054612428,-0.065509886,0.978205442
57.380848,16.079605103,-10.266960144,2.339126587,-0.051194459,-0.057941530,0.979548216
57.381474,15.804946899,-10.389030457,2.232315063,-0.050462037,-0.055011842,0.980890989
57.382101,15.614212036,-10.099113464,2.537490845,-0.050339967,-0.049152467,0.982355833
57.382726,15.484512329,-9.854972839,2.445938110,-0.049607545,-0.043293092,0.982355833
57.383352,15.034378052,-9.854972839,2.384902954,-0.044236451,-0.041095827,0.982111692
57.383977,15.026748657,-9.710014343,2.529861450,-0.042527467,-0.031574342,0.983942747
57.384604,14.576614380,-9.214103699,2.377273560,-0.041306764,-0.027423950,0.983942747
57.385231,14.195144653,-9.107292175,2.529861450,-0.040940553,-0.024128051,0.984553099
57.385857,13.966262817,-8.733451843,2.575637817,-0.041184694,-0.015338989,0.981501341
57.386484,13.600051880,-8.428276062,2.499343872,-0.047044069,-0.013874145,0.982966185
57.387111,13.340652466,-8.565605164,2.468826294,-0.049241334,-0.013996216,0.983576536
57.387738,12.989700317,-8.107841492,2.484085083,-0.052415162,-0.003986450,0.984919310
57.388363,12.570083618,-8.390129089,2.629043579,-0.053880006,-0.000812622,0.986750364
57.388988,12.127578735,-8.237541199,2.537490845,-0.051072389,0.006511596,0.992365599
57.401636,9.106338501,-6.559074402,2.041580200,-0.041428834,0.010906128,1.021540403
57.402415,9.182632446,-6.559074402,1.858474731,-0.041672975,0.012493042,1.021296263
57.403041,9.236038208,-6.078422546,1.591445923,-0.037400514,0.015666870,1.022150755
57.403668,9.098709106,-5.864799500,1.568557739,-0.038377076,0.016765503,1.022028685
57.404295,8.907974243,-5.963981628,1.660110474,-0.039963990,0.017619995,1.018488646
57.404920,8.740127563,-5.696952820,1.621963501,-0.041184694,0.017375855,1.017756224
57.405545,8.450210571,-5.628288269,1.805068970,-0.039841920,0.018840699,1.010920286
57.406172,8.289993286,-5.796134949,1.812698364,-0.040086061,0.023235230,1.004816771
57.406798,8.129776001,-5.857170105,1.744033813,-0.042649537,0.023845581,0.998347044
57.407425,7.847488403,-6.063163757,1.629592896,-0.039719850,0.024211792,0.991877317
57.408050,7.809341431,-6.215751648,1.797439575,-0.038743287,0.024700074,0.984064817
57.408676,7.809341431,-6.879508972,1.858474731,-0.041917115,0.025310425,0.978937864
57.409303,7.870376587,-6.742179871,1.789810181,-0.040086061,0.024089722,0.974665403
57.409928,7.908523560,-7.421195984,1.667739868,-0.043015748,0.027019409,0.967341185
57.410553,7.694900513,-7.711112976,1.789810181,-0.044114381,0.028484253,0.964655638
57.411180,8.007705688,-7.978141785,1.782180786,-0.042649537,0.024944214,0.962824583
57.411807,8.175552368,-8.268058777,1.682998657,-0.046189576,0.022380738,0.963190794
57.412433,8.427322388,-8.718193054,1.812698364,-0.042527467,0.020061402,0.963923216
57.413060,8.564651489,-9.244621277,1.644851685,-0.043748170,0.022624878,0.960749388
57.413687,8.610427856,-9.389579773,1.721145630,-0.042161256,0.021892456,0.962458372
57.414312,8.991897583,-9.679496765,1.583816528,-0.042161256,0.021404175,0.965876341
57.414937,9.121597290,-10.030448914,1.614334106,-0.038987428,0.022136597,0.974055052
57.416751,9.838760376,-10.831535339,1.644851685,-0.037766725,0.021160034,0.994318724
57.417376,9.968460083,-10.984123230,1.477005005,-0.038743287,0.023479370,1.000910521
57.418006,9.998977661,-11.327445984,1.286270142,-0.035325319,0.026531128,1.007624388
57.418632,10.456741333,-11.472404480,1.385452271,-0.036546022,0.027507691,1.025324583
57.419257,9.831130981,-11.205375671,1.629592896,-0.020676879,0.044719603,1.061579466
57.419883,8.526504517,-10.541618347,1.469375610,-0.018845825,0.061687376,1.096125364
57.420508,7.069290161,-10.305107117,1.415969849,-0.022996215,0.061687376,1.113947630
57.421134,5.993545532,-10.358512878,1.515151978,-0.033250123,0.049724486,1.106379271
57.421760,5.634963989,-10.373771667,1.423599243,-0.043504030,0.026409058,1.090388060
57.422387,5.573928833,-10.686576843,1.400711060,-0.049241334,0.007244018,1.074152708
57.423014,6.100357056,-10.862052917,1.469375610,-0.050950319,-0.011310669,1.061823606
57.423639,6.878555298,-11.113822937,0.942947388,-0.039963990,-0.017047973,1.062067747
57.424266,7.473648071,-10.701835632,1.003982544,-0.026902465,-0.014118286,1.066706419
57.424892,8.038223267,-10.373771667,1.049758911,-0.019944457,-0.008991333,1.075983763
57.425517,8.122146606,-9.992301941,1.332046509,-0.019089965,0.000774292,1.087092161
57.426142,7.763565063,-9.542167664,1.156570435,-0.018357543,0.008953003,1.096125364
57.426768,7.870376587,-9.343803406,1.263381958,-0.020676879,0.013835816,1.100641966
57.427394,7.656753540,-8.748710632,1.232864380,-0.022019653,0.015300659,1.102228880
57.428019,7.359207153,-8.672416687,1.126052856,-0.023118285,0.013835816,1.098688841
57.428644,7.305801392,-8.420646667,1.202346802,-0.030320434,0.013835816,1.092097044
57.435892,3.620803833,-5.551994324,0.942947388,-0.027268676,0.014812378,1.049860716
57.436517,3.315628052,-5.315483093,1.164199829,-0.028123168,0.014934449,1.043146849
57.437144,2.873123169,-5.132377625,0.988723755,-0.030686645,0.017619995,1.046076536
57.437769,2.140701294,-5.048454285,1.003982544,-0.030930785,0.018840699,1.043146849
57.438395,2.117813110,-4.842460632,1.095535278,-0.038743287,0.018596558,1.036188841
57.439021,1.652420044,-4.811943054,0.874282837,-0.036179811,0.009563355,1.034968138
57.451672,1.927078247,-5.063713074,0.408889771,-0.046677858,-0.027179809,0.995295286
57.452411,2.148330688,-4.987419128,0.485183716,-0.046677858,-0.026325317,0.996638060
57.453037,2.636611938,-5.208671570,0.324966431,-0.044358522,-0.027423950,0.998224974
57.453664,2.972305298,-5.231559753,0.202896118,-0.045457155,-0.021198364,0.997980833
57.454291,3.254592896,-5.170524597,0.439407349,-0.049851686,-0.019733520,0.996393919
57.454917,3.399551392,-5.391777039,0.141860962,-0.047410280,-0.022419067,0.993342161
57.455543,3.872573853,-5.407035828,0.180007935,-0.050462037,-0.022419067,0.991022825
57.456168,4.032791138,-5.689323425,0.317337036,-0.051682740,-0.023761841,0.991877317
57.456795,4.399002075,-5.674064636,0.180007935,-0.052048951,-0.020465942,0.992609739
57.457420,4.597366333,-6.040275574,0.141860962,-0.053269655,-0.016193481,0.995905638
57.458045,4.978836060,-6.032646179,0.012161255,-0.051560670,-0.007526489,0.997980833
57.458671,5.032241821,-6.383598328,-0.048873901,-0.053513795,-0.008991333,1.000544310
57.459297,5.276382446,-6.688774109,-0.003097534,-0.049851686,-0.006671997,0.999689817
57.459923,5.337417603,-6.520927429,0.111343384,-0.049607545,-0.004352661,0.998469114
57.460549,5.535781860,-6.681144714,0.004531860,-0.046433717,-0.007160279,0.999079466
57.461176,5.619705200,-6.627738953,-0.293014526,-0.045823365,-0.006427857,0.997614622
57.461802,5.985916138,-6.650627136,-0.148056030,-0.046433717,-0.008136841,1.000300169
57.462429,5.963027954,-6.719291687,-0.231979370,-0.049363405,-0.000446411,1.000910521
57.463056,5.802810669,-6.581962585,-0.224349976,-0.045457155,-0.001667114,1.001642942
57.463681,5.863845825,-6.520927429,-0.109909058,-0.041184694,-0.003742310,1.005671263
57.464306,6.550491333,-6.261528015,0.050308228,-0.043748170,-0.020343872,0.983088255
57.464933,5.940139771,-6.673515320,0.118972778,-0.082566530,0.007854370,0.985895872
57.466765,5.955398560,-6.543815613,-0.399826050,-0.038010865,0.049846556,1.029352903
57.467391,5.093276978,-6.627738953,-0.148056030,-0.049729615,0.053752806,1.015314817
57.468017,4.955947876,-6.238639832,-0.529525757,-0.057420045,0.025432495,1.010432005
57.468642,4.810989380,-6.292045593,-0.308273315,-0.059861451,0.002727417,1.001642942
57.469269,4.749954224,-6.353080750,-0.491378784,-0.054246217,-0.018268676,1.002741575
57.469896,5.238235474,-5.674064636,-0.705001831,-0.049485475,-0.010700317,1.008723021
57.470522,5.543411255,-5.452812195,-0.628707886,-0.046189576,0.007366089,1.010187864
57.471147,5.299270630,-5.147636414,-0.369308472,-0.052781373,0.015544800,1.016169310
57.471772,4.933059692,-4.735649109,-0.895736694,-0.054124147,0.013957886,1.025934935
57.472399,4.948318481,-4.453361511,-0.804183960,-0.050584108,0.024089722,1.029108763
57.473024,4.719436646,-4.560173035,-0.918624878,-0.059373170,0.029216675,1.026911497
57.473651,4.627883911,-4.407585144,-0.910995483,-0.057908326,0.022258667,1.020563841
57.474277,4.261672974,-4.201591492,-1.002548218,-0.056565553,0.012737183,1.019953489
57.474904,4.383743286,-4.049003601,-1.071212769,-0.052415162,0.007244018,1.013972044
57.475530,4.231155396,-3.873527527,-1.071212769,-0.051316530,0.007854370,1.007502317
57.476155,4.315078735,-3.629386902,-1.094100952,-0.054246217,0.012859253,1.014460325
57.476780,4.124343872,-3.324211121,-1.147506714,-0.050462037,0.014690308,1.018854856
57.477405,3.727615356,-3.347099304,-1.170394897,-0.054734498,0.022624878,1.019831419
57.478031,3.620803833,-3.171623230,-1.147506714,-0.055588990,0.022502808,1.013972044
57.478658,3.430068970,-2.767265320,-1.185653687,-0.056077272,0.014568238,1.011164427
57.479284,3.407180786,-2.683341980,-1.338241577,-0.060838014,0.006877807,1.005793333
57.479911,3.452957153,-2.385795593,-1.528976440,-0.059739381,0.006755737,0.996638060
57.480537,3.384292603,-2.347648621,-1.292465210,-0.058518678,0.004924682,0.995417356
57.481163,3.277481079,-2.034843445,-1.269577026,-0.060715944,-0.004352661,0.997980833
57.481790,3.414810181,-1.897514343,-1.178024292,-0.063035280,-0.009967895,1.001642942
57.482416,3.483474731,-1.714408875,-1.353500366,-0.067673951,-0.004474732,0.999323606
57.495093,3.193557739,0.261604309,-0.758407593,-0.057420045,-0.018634887,0.988459349
57.495841,3.086746216,0.414192200,-0.880477905,-0.060715944,-0.019001098,0.987482786
57.496466,2.690017700,0.368415833,-0.781295776,-0.060960084,-0.018879028,0.985529661
57.497092,2.659500122,0.398933411,-0.766036987,-0.062180787,-0.022419067,0.983942747
57.497717,2.461135864,0.452339172,-0.766036987,-0.060349733,-0.022541137,0.982722044
57.498343,2.125442505,0.269233704,-0.788925171,-0.051926881,-0.024738403,0.977839231
57.498968,1.873672485,0.459968567,-0.689743042,-0.053269655,-0.026935669,0.977595091
57.499594,1.721084595,0.574409485,-0.453231812,-0.056443483,-0.031086059,0.975275755
57.500220,1.560867310,0.315010071,-0.674484253,-0.058152467,-0.028034301,0.974787474
57.500846,1.454055786,0.299751282,-0.300643921,-0.057420045,-0.034870241,0.975031614
57.501472,1.362503052,0.162422180,-0.148056030,-0.059739381,-0.035236452,0.975519896
57.502099,1.309097290,-0.020683289,-0.231979370,-0.059983522,-0.035236452,0.974909544
57.502725,1.148880005,-0.341117859,0.012161255,-0.059373170,-0.037677858,0.972468138
57.503351,0.942886353,-0.455558777,0.012161255,-0.062424928,-0.040119264,0.974909544
57.503978,0.813186646,-0.730216980,-0.010726929,-0.061936647,-0.039997194,0.971735716
57.504603,1.034439087,-1.043022156,0.111343384,-0.058640748,-0.041339967,0.973200560
57.505228,0.988662720,-1.187980652,0.225784302,-0.060227662,-0.042072389,0.973200560
57.505853,0.912368774,-1.508415222,0.233413696,-0.057542115,-0.043048952,0.976008177
57.506480,1.003921509,-1.760185242,0.263931274,-0.054124147,-0.042194460,0.974909544
57.507106,0.950515747,-1.813591003,0.386001587,-0.057664186,-0.040973756,0.979059935
57.507733,0.897109985,-2.034843445,0.492813110,-0.054978639,-0.045368288,0.977350950
57.508359,1.125991821,-2.217948914,0.767471313,-0.053880006,-0.044757936,0.981257200
57.508986,1.095474243,-2.492607117,0.767471313,-0.053513795,-0.043537233,0.982966185
57.509612,1.278579712,-2.500236511,0.668289185,-0.055711061,-0.040241335,0.984064817
57.510238,1.301467896,-3.041923523,0.927688599,-0.057786256,-0.040973756,0.989802122
57.510864,1.339614868,-3.003776550,0.790359497,-0.055100709,-0.040607546,0.991266966
57.511490,1.484573364,-3.072441101,0.889541626,-0.052293092,-0.041095827,0.997248411
57.512115,1.423538208,-3.369987488,0.851394653,-0.053391725,-0.038288210,1.001887083
57.512742,1.438796997,-3.369987488,0.996353149,-0.052537233,-0.034992311,1.004816771
57.513367,1.759231567,-3.385246277,1.148941040,-0.048508912,-0.029865356,1.005793333
57.513993,1.515090942,-3.377616882,0.942947388,-0.050339967,-0.031696413,1.006891966
57.514619,1.812637329,-3.507316589,0.988723755,-0.046311647,-0.027301880,1.006647825
57.515244,1.782119751,-3.415763855,1.187088013,-0.044968873,-0.026325317,1.011774778
57.517087,1.637161255,-3.064811707,1.255752563,-0.041550905,-0.015583130,1.014948606
57.517713,1.362503052,-2.881706238,1.332046509,-0.044114381,-0.014972778,1.015070677
57.518339,1.354873657,-2.683341980,1.293899536,-0.043015748,-0.009967895,1.013605833
57.518965,0.958145142,-2.568901062,1.423599243,-0.042283326,-0.007282349,1.013849974
57.519591,0.935256958,-2.217948914,1.179458618,-0.041672975,-0.004230591,1.012018919
57.520216,0.729263306,-2.210319519,1.164199829,-0.043381959,0.000163940,1.014826536
57.520843,0.477493286,-2.248466492,1.202346802,-0.045090944,0.004558471,1.017145872
57.521468,0.179946899,-2.134025574,1.187088013,-0.049485475,0.005290893,1.022272825
57.522094,-0.155746460,-2.065361023,1.354934692,-0.048997194,0.012126831,1.018732786
57.522720,-0.628768921,-2.080619812,1.225234985,-0.049973756,0.016643433,1.018488646
57.523346,-1.117050171,-2.088249207,1.278640747,-0.049851686,0.013957886,1.019587278
57.523971,-1.368820190,-1.882255554,1.248123169,-0.048875123,0.020549683,1.018244505
57.524597,-1.841842651,-2.011955261,1.332046509,-0.047532350,0.020427613,1.017267942
57.525223,-2.330123901,-1.889884949,1.255752563,-0.045823365,0.020061402,1.015925169
57.525850,-2.757369995,-1.737297058,0.965835571,-0.043992311,0.020915894,1.014826536
57.538485,-6.144821167,0.299751282,0.683547974,-0.051072389,0.016643433,1.023249388
57.539224,-5.969345093,0.231086731,0.324966431,-0.051316530,0.020549683,1.023859739
57.539850,-5.999862671,0.383674622,0.576736450,-0.050706178,0.019573120,1.021540403
57.540477,-6.099044800,0.421821594,0.424148560,-0.048630983,0.019817261,1.017267942
57.541103,-6.007492065,0.490486145,0.355484009,-0.049607545,0.018718628,1.015925169
57.541728,-6.350814819,0.604927063,0.271560669,-0.050339967,0.019451050,1.013605833
57.542354,-6.167709351,0.734626770,0.324966431,-0.056077272,0.020549683,1.010798216
57.542980,-6.221115112,0.643074036,0.073196411,-0.053269655,0.018840699,1.010920286
57.543605,-6.549179077,0.810920715,0.157119751,-0.048753053,0.025310425,1.008967161
57.544230,-6.564437866,0.849067688,0.126602173,-0.051804811,0.019573120,1.006403685
57.544855,-6.655990601,0.963508606,0.042678833,-0.053147584,0.022869019,1.004328489
57.545480,-6.633102417,0.841438293,-0.003097534,-0.053025514,0.022014527,1.004450560
57.546106,-6.663619995,0.772773743,0.096084595,-0.052537233,0.021160034,1.004572630
57.546732,-7.014572144,0.841438293,-0.079391479,-0.053513795,0.019206909,1.001154661
57.547358,-7.159530640,0.940620422,-0.201461792,-0.055222780,0.022014527,1.002741575
57.547983,-7.304489136,0.917732239,-0.094650269,-0.055711061,0.020061402,0.999323606
57.548608,-7.319747925,0.643074036,-0.140426636,-0.055222780,0.019451050,1.001765013
57.549235,-7.479965210,0.704109192,-0.186203003,-0.053025514,0.015911011,1.000178099
57.549860,-7.449447632,0.589668274,-0.109909058,-0.052537233,0.016643433,1.001276731
57.550485,-7.487594604,0.284492493,-0.643966675,-0.053757936,0.015178589,0.998224974
57.551111,-7.708847046,0.597297668,-0.323532104,-0.050462037,0.013713745,1.001032591
57.551736,-7.647811890,0.597297668,-0.270126343,-0.053635865,0.011272339,0.997248411
57.552362,-7.617294312,0.582038879,-0.209091187,-0.053025514,0.009563355,0.995173216
57.552987,-7.701217651,0.513374329,-0.430343628,-0.054002076,0.009929566,0.996149778
57.553612,-7.716476440,0.513374329,-0.376937866,-0.055588990,0.005901245,0.996027708
57.554239,-7.907211304,0.444709778,-0.430343628,-0.057297975,0.007244018,0.999445677
57.554864,-7.541000366,0.696479797,-0.674484253,-0.056809694,0.002605347,1.000056028
57.555490,-7.632553101,0.383674622,-0.445602417,-0.061204225,0.004436401,1.000788450
57.556116,-7.594406128,0.612556458,-0.392196655,-0.060960084,-0.001056763,1.001887083
57.556743,-7.594406128,0.322639465,-0.560043335,-0.060838014,0.001994995,1.001398802
57.557369,-7.411300659,0.231086731,-0.369308472,-0.060471803,-0.000568481,1.004450560
57.557994,-7.373153687,0.444709778,-0.674484253,-0.058274537,-0.004230591,1.007014036
57.558620,-7.228195190,0.253974915,-0.506637573,-0.057053834,-0.003131958,1.008723021
57.559247,-7.174789429,0.078498840,-0.476119995,-0.059861451,-0.003742310,1.008112669
57.559874,-7.052719116,0.208198547,-0.712631226,-0.054002076,-0.004108521,1.011042356
57.560501,-7.022201538,0.162422180,-0.491378784,-0.053391725,-0.004963013,1.012507200
57.561126,-6.709396362,0.070869446,-0.651596069,-0.052537233,-0.003986450,1.012629271
57.561753,-6.808578491,0.276863098,-0.628707886,-0.048142701,-0.009113403,1.013239622
57.562379,-6.488143921,0.093757629,-0.552413940,-0.045823365,-0.008014770,1.012873411
57.563006,-6.182968140,0.223457336,-0.827072144,-0.043748170,-0.009113403,1.010432005
57.563631,-5.961715698,0.284492493,-0.514266968,-0.047410280,-0.009967895,1.011774778
57.564256,-6.045639038,0.437080383,-0.666854858,-0.044236451,-0.008136841,1.010187864
57.564881,-5.832015991,0.322639465,-0.758407593,-0.044236451,-0.006183716,1.010065794
57.565507,-5.793869019,0.337898254,-0.582931519,-0.045457155,-0.006427857,1.009333372
57.567333,-5.404769897,0.131904602,-0.567672729,-0.046799928,-0.010089966,0.998713255
57.567959,-5.290328979,-0.035942078,-0.872848511,-0.048386842,-0.010700317,0.990046263
57.568584,-5.076705933,0.047981262,-0.834701538,-0.048997194,-0.008991333,0.990656614
57.569211,-4.947006226,-0.302970886,-0.712631226,-0.051438600,-0.008991333,0.986628294
57.581825,-3.146469116,-3.041923523,-0.727890015,-0.040696412,-0.004718872,1.030695677
57.582592,-3.245651245,-3.034294128,-0.354049683,-0.037522584,0.001628784,1.027888060
57.583217,-3.321945190,-2.896965027,-0.605819702,-0.036912233,0.001262573,1.033503294
57.583843,-3.688156128,-2.835929871,-0.460861206,-0.035935670,0.001384644,1.039240599
57.584468,-3.787338257,-2.729118347,-0.575302124,-0.034959108,0.005901245,1.039728880
57.585093,-3.749191284,-2.340019226,-0.613449097,-0.036423951,0.004558471,1.043146849
57.585720,-4.130661011,-2.088249207,-0.361679077,-0.035203248,0.005168823,1.046686888
57.586347,-4.100143433,-1.996696472,-0.453231812,-0.036057740,0.004802612,1.047175169
57.586972,-4.405319214,-1.638114929,-0.621078491,-0.036790162,0.008830933,1.046808958
57.587597,-4.733383179,-1.485527039,-0.720260620,-0.039719850,0.010784058,1.049616575
57.588222,-4.885971069,-1.249015808,-0.483749390,-0.040330201,0.009441284,1.048395872
57.588848,-4.962265015,-0.646293640,-0.529525757,-0.041184694,0.012248902,1.048395872
57.589473,-5.168258667,-0.615776062,-0.643966675,-0.043015748,0.007244018,1.051813841
57.590099,-5.450546265,-0.165641785,-0.598190308,-0.043015748,0.012004761,1.049494505
57.590725,-5.412399292,0.139533997,-0.491378784,-0.048264772,0.011882691,1.053156614
57.591351,-5.595504761,0.223457336,-0.544784546,-0.050462037,0.011882691,1.052546263
57.591976,-5.839645386,0.376045227,-0.659225464,-0.051194459,0.010784058,1.053156614
57.592602,-5.877792358,0.665962219,-0.506637573,-0.053269655,0.005901245,1.051447630
57.593228,-5.877792358,0.818550110,-0.636337280,-0.053513795,0.008464722,1.048395872
57.593854,-5.870162964,0.910102844,-0.514266968,-0.055588990,0.010295777,1.049494505
57.594481,-5.938827515,0.932991028,-0.521896362,-0.057053834,0.010539917,1.047053099
57.595107,-5.969345093,0.963508606,-0.560043335,-0.054734498,0.012615113,1.047785521
57.595734,-5.954086304,1.062690735,-0.712631226,-0.050706178,0.016887574,1.048517942
57.596361,-6.434738159,1.360237122,-0.582931519,-0.049973756,0.016033081,1.045344114
57.596986,-6.015121460,1.367866516,-0.766036987,-0.052537233,0.010661988,1.044367552
57.597612,-5.954086304,1.329719543,-0.598190308,-0.053757936,0.010539917,1.045832396
57.598237,-5.946456909,1.543342590,-0.872848511,-0.054856569,0.011150269,1.043390989
57.598862,-5.816757202,1.367866516,-0.529525757,-0.054612428,0.012370972,1.045099974
57.599487,-5.915939331,1.581489563,-0.643966675,-0.046921998,0.013225464,1.047785521
57.600114,-5.709945679,1.619636536,-0.582931519,-0.049973756,0.015911011,1.044611692
57.600739,-6.068527222,1.734077454,-0.598190308,-0.047288209,0.015666870,1.044001341
57.601364,-5.847274780,1.894294739,-0.750778198,-0.044724733,0.017619995,1.043390989
57.601989,-5.816757202,2.077400208,-0.758407593,-0.044724733,0.019206909,1.045832396
57.602615,-5.969345093,2.191841125,-0.659225464,-0.044480592,0.016155152,1.046198606
57.603241,-5.862533569,2.214729309,-0.720260620,-0.043870240,0.018840699,1.045344114
57.603866,-5.572616577,2.245246887,-0.849960327,-0.037888795,0.016643433,1.046442747
57.604492,-5.770980835,2.512275696,-0.743148804,-0.039109498,0.015666870,1.045222044
57.605118,-5.420028687,2.497016907,-0.804183960,-0.040818483,0.015300659,1.042292356
57.605744,-5.481063843,2.474128723,-0.880477905,-0.042893678,0.013713745,1.046198606
57.606371,-5.420028687,2.764045715,-0.758407593,-0.044358522,0.014446167,1.049128294
57.606997,-5.412399292,2.985298157,-0.743148804,-0.043748170,0.013103394,1.047785521
57.607622,-5.336105347,2.954780579,-0.964401245,-0.043504030,0.012004761,1.049006224
57.608248,-5.336105347,3.053962708,-1.017807007,-0.040330201,0.010906128,1.048395872
57.608873,-5.297958374,3.221809387,-0.880477905,-0.040086061,0.008464722,1.048517942
57.609498,-5.198776245,3.320991516,-0.903366089,-0.044480592,0.007976441,1.046442747
57.610125,-5.160629272,3.542243958,-0.811813354,-0.042649537,0.012737183,1.043513060
57.610750,-5.198776245,3.595649719,-0.773666382,-0.044358522,0.012615113,1.041804075
57.611377,-5.152999878,3.862678528,-1.025436401,-0.044358522,0.012859253,1.036555052
57.625261,-7.617294312,5.632698059,-1.078842163,-0.046921998,0.010906128,1.048640013
57.626044,-7.899581909,6.281196594,-0.941513062,-0.044358522,0.005046753,1.042292356
57.626670,-7.930099487,6.296455383,-1.017807007,-0.040086061,0.001140503,1.041559935
57.627295,-7.884323120,6.494819641,-1.185653687,-0.040696412,-0.003742310,1.040827513
57.627921,-7.792770386,6.822883606,-1.200912476,-0.040574342,-0.004474732,1.039484739
57.628548,-7.457077026,7.158576965,-1.094100952,-0.042283326,-0.005207154,1.036432981
57.629173,-7.525741577,7.112800598,-1.094100952,-0.041795045,-0.006427857,1.033015013
57.629798,-7.579147339,7.143318176,-1.086471558,-0.046799928,-0.003498169,1.030939817
57.630425,-7.144271851,7.303535461,-1.116989136,-0.045579225,-0.005817505,1.032892942
57.631050,-7.121383667,7.456123352,-1.284835815,-0.049485475,-0.003986450,1.031428099
57.631676,-6.854354858,7.295906067,-1.261947632,-0.053880006,-0.010334106,1.035212278
57.632302,-6.671249390,7.280647278,-1.239059448,-0.052781373,-0.005817505,1.034846067
57.632927,-6.480514526,7.219612122,-1.162765503,-0.054002076,-0.002033325,1.034479856
57.633552,-6.594955444,7.501899719,-1.139877319,-0.049363405,-0.002887817,1.027888060
57.634178,-6.572067261,7.295906067,-1.269577026,-0.044724733,-0.005573364,1.021052122
57.634803,-6.373703003,7.585823059,-1.429794312,-0.047166139,-0.009357544,1.018000364
57.635429,-6.274520874,7.852851868,-1.338241577,-0.040818483,-0.015583130,1.011530638
57.636055,-5.755722046,8.211433411,-1.399276733,-0.034348756,-0.026935669,1.009577513
57.636681,-5.221664429,8.341133118,-1.506088257,-0.056199342,-0.019489380,1.003718138
57.637307,-5.137741089,8.272468567,-1.361129761,-0.054978639,-0.011188598,1.007258177
57.637961,-4.893600464,8.211433411,-1.216171265,-0.057053834,-0.001300903,1.011164427
57.638588,-4.771530151,8.249580383,-1.391647339,-0.061204225,-0.004352661,1.016169310
57.639214,-4.725753784,8.165657043,-1.467941284,-0.059129030,-0.012165161,1.015192747
57.639841,-4.550277710,8.051216125,-1.361129761,-0.061204225,-0.015094848,1.011896849
57.640466,-4.397689819,7.875740051,-1.231430054,-0.063523561,-0.017780395,1.005427122
57.641093,-4.252731323,7.578193665,-1.376388550,-0.063889772,-0.017902466,1.002497435
57.641719,-4.046737671,7.028877258,-1.384017944,-0.067185670,-0.017292114,1.000178099
57.642344,-3.970443726,7.173835754,-1.261947632,-0.057908326,-0.016315551,0.998713255
57.642971,-3.650009155,7.067024231,-1.544235229,-0.052171022,-0.019245239,0.997736692
57.643598,-3.520309448,7.082283020,-1.445053101,-0.047898561,-0.019733520,0.994684935
57.644223,-3.375350952,7.227241516,-1.490829468,-0.048142701,-0.018146606,0.992731810
57.644849,-3.283798218,7.204353333,-1.384017944,-0.050462037,-0.020465942,0.989313841
57.645474,-3.077804565,7.379829407,-1.292465210,-0.050706178,-0.027301880,0.992975950
57.646099,-2.795516968,7.417976379,-1.307723999,-0.052415162,-0.027546020,0.994929075
57.646725,-2.444564819,7.387458801,-1.498458862,-0.055466920,-0.029132934,0.996638060
57.647352,-2.200424194,7.471382141,-1.345870972,-0.051072389,-0.024616333,0.995173216
57.647979,-2.215682983,7.509529114,-1.414535522,-0.048264772,-0.021808716,0.997248411
57.648604,-2.284347534,7.448493958,-1.384017944,-0.050095826,-0.021076294,0.999933958
57.649229,-2.009689331,7.234870911,-1.368759155,-0.056809694,-0.024005981,1.004084349
57.649854,-1.887619019,7.410346985,-1.406906128,-0.059006959,-0.030353637,1.005182981
57.650480,-1.605331421,6.906806946,-1.216171265,-0.059006959,-0.029499145,1.005549192
57.651105,-1.368820190,6.601631165,-1.300094604,-0.057664186,-0.029621216,1.012995481
57.651730,-1.132308960,6.471931458,-1.063583374,-0.056565553,-0.018024536,1.014948606
57.652356,-1.239120483,6.380378723,-1.124618530,-0.051804811,-0.005085083,1.015803099
57.652982,-1.376449585,6.113349915,-1.101730347,-0.057420045,0.002239136,1.025812864
57.653607,-1.521408081,6.449043274,-0.933883667,-0.059006959,0.006755737,1.034113646
57.654233,-1.536666870,5.731880188,-1.292465210,-0.068406373,0.007244018,1.052790403
57.654858,-1.513778687,5.335151672,-1.055953979,-0.064378053,0.022624878,1.047907591
57.667522,9.297073364,12.613594055,-1.757858276,0.028639527,-0.009113403,1.078913450
57.668332,8.579910278,13.864814758,-1.651046753,-0.004441528,-0.010212036,1.099055052
57.668957,8.282363892,13.941108704,-1.315353394,-0.053513795,-0.025959106,1.103327513
57.669584,7.832229614,13.658821106,-1.658676147,-0.062913209,-0.027423950,1.084040403
57.670210,7.755935669,12.949287415,-1.330612183,-0.070481569,0.021160034,1.067560911
57.670835,7.961929321,12.049018860,-0.926254272,-0.057664186,0.051677611,1.051691771
57.671462,8.076370239,10.912239075,-0.956771851,-0.057908326,0.063640505,1.042292356
57.672089,8.457839966,10.248481750,-0.964401245,-0.088425905,0.065837771,1.046198606
57.672716,7.786453247,9.790718079,-1.590011597,-0.103684694,0.077190310,1.039728880
57.673343,6.375015259,9.432136536,-2.330062866,-0.088914186,0.089153200,1.038264036
57.673969,5.238235474,9.035408020,-2.337692261,-0.063523561,0.078777224,1.043635130
57.675812,5.230606079,8.455574036,-1.979110718,-0.059373170,0.041789915,1.073664427
57.676437,4.284561157,7.990180969,-1.574752808,-0.108079225,0.016887574,1.097346067
57.677064,4.490554810,6.594001770,-1.773117065,-0.124314576,0.023967652,1.113703489
57.677689,4.276931763,5.121528625,-1.750228882,-0.067918092,0.032512572,1.088679075
57.678314,4.673660278,5.098640442,-1.681564331,-0.026658325,0.023357300,1.076349974
57.678939,5.886734009,5.770027161,-1.666305542,-0.031052856,0.028850464,1.067560911
57.686187,40.272415161,11.270820618,-2.162216187,-0.018479614,-0.146686643,1.394465208
57.686812,40.798843384,13.544380188,-3.199813843,-0.050217897,-0.094196409,1.383723021
57.687437,42.835891724,14.437019348,-3.138778687,-0.023484496,-0.063922971,1.375300169
57.688063,46.238601685,14.833747864,-2.757308960,-0.012864379,-0.029743286,1.368342161
57.688690,49.107254028,15.024482727,-2.505538940,-0.016160278,0.014568238,1.362116575
57.689317,50.678909302,15.451728821,-2.650497437,-0.042283326,0.054973509,1.362604856
57.689942,50.892532349,16.184150696,-3.421066284,-0.047654420,0.082805544,1.381403685
57.690567,50.205886841,17.290412903,-4.168746948,-0.001511840,0.127117068,1.435602903
57.691193,48.794448853,19.380867004,-4.763839722,0.055128783,0.164348513,1.465265989
57.691819,46.391189575,21.837532043,-4.595993042,0.060988158,0.176677614,1.435114622
57.692446,43.636978149,22.829353333,-4.077194214,0.024977418,0.149578005,1.375788450
57.693071,42.332351685,23.073493958,-3.817794800,-0.023606567,0.117961794,1.324396849
57.693697,41.989028931,23.035346985,-3.947494507,-0.059129030,0.097087771,1.288141966
57.694324,41.905105591,22.669136047,-4.298446655,-0.058884889,0.105510622,1.270930052
57.694949,41.264236450,22.692024231,-4.603622437,-0.046311647,0.135417849,1.268244505
57.695575,39.898574829,23.462593079,-5.069015503,-0.016648559,0.171550661,1.274225950
57.696201,37.769973755,24.294197083,-5.046127319,0.005079957,0.202922732,1.276667356
57.696828,35.122573853,25.392829895,-5.305526733,0.010451050,0.213909060,1.279230833
57.697454,32.452285767,26.598274231,-5.282638550,-0.000413207,0.211589724,1.273127317
57.698080,29.873550415,27.780830383,-5.252120972,-0.017991332,0.207683474,1.262385130
57.698706,27.493179321,27.933418274,-5.450485229,-0.047898561,0.199382693,1.249323606
57.699333,25.150955200,28.414070129,-5.526779175,-0.054246217,0.190837771,1.238947630
57.699959,22.976577759,28.566658020,-5.725143433,-0.059739381,0.178996950,1.224177122
57.700584,20.512283325,28.566658020,-5.816696167,-0.062913209,0.180705935,1.217219114
57.701211,18.116653442,28.635322571,-5.717514038,-0.060593873,0.179973513,1.212336302
57.701837,15.629470825,28.612434387,-5.488632202,-0.055344850,0.188762575,1.205500364
57.702462,12.844741821,29.138862610,-5.702255249,-0.047166139,0.197307497,1.205866575
57.703088,10.128677368,29.733955383,-5.847213745,-0.043015748,0.196575075,1.205744505
57.703715,7.359207153,30.344306946,-5.793807983,-0.049241334,0.189372927,1.201838255
57.704341,4.948318481,30.802070618,-5.824325562,-0.052048951,0.181316286,1.197199583
57.704966,2.690017700,31.343757629,-5.976913452,-0.059006959,0.162761599,1.188410521
57.717651,-11.981307983,33.945381165,-5.496261597,-0.069505006,0.000652222,1.046931028
57.718410,-11.866867065,33.716499329,-5.313156128,-0.072190553,0.004436401,1.031550169
57.719036,-11.706649780,33.731758118,-5.488632202,-0.073899537,0.005412964,1.020075560
57.719661,-11.279403687,33.563911438,-5.488632202,-0.077683717,0.009319214,1.011042356
57.720287,-11.126815796,33.418952942,-5.519149780,-0.081345826,0.011272339,1.001276731
57.720912,-10.981857300,33.273994446,-5.297897339,-0.087571412,0.012370972,0.995539427
57.721539,-10.966598511,32.938301086,-5.313156128,-0.087571412,0.018840699,0.986994505
57.722166,-10.630905151,32.251655579,-5.412338257,-0.090745240,0.021526245,0.980158567
57.722791,-10.638534546,32.152473450,-5.366561890,-0.092576295,0.016765503,0.981135130
57.723416,-10.646163940,31.778633118,-5.534408569,-0.088303834,0.023601441,0.977595091
57.724043,-10.745346069,31.221687317,-5.641220093,-0.087327272,0.023357300,0.973078489
57.725876,-11.615097046,30.512153625,-5.336044312,-0.083787233,0.036174681,0.963679075
57.726501,-12.309371948,30.382453918,-5.259750366,-0.081834108,0.039592650,0.963557005
57.727126,-12.950241089,30.130683899,-5.305526733,-0.083176881,0.040325072,0.946223021
57.727752,-15.261947632,30.451118469,-5.358932495,-0.057542115,0.068645388,0.708552122
57.728378,-17.436325073,32.190620422,-5.892990112,-0.029588012,0.002971558,0.568049192
57.729008,-15.307723999,34.067451477,-6.327865601,-0.043015748,-0.032917116,0.610163450
57.729634,-11.020004272,34.677803040,-6.396530151,-0.095383912,-0.043171022,0.688410521
57.730261,-8.349716187,33.129035950,-6.335494995,-0.157761842,-0.028278442,0.752009153
57.730886,-8.715927124,30.229866028,-6.091354370,-0.204758912,-0.002155395,0.790583372
57.731512,-10.333358765,26.460945129,-5.389450073,-0.173875123,0.008098511,0.832575560
57.732137,-12.881576538,24.317085266,-4.649398804,-0.092454225,0.115886599,0.935847044
57.732762,-18.206893921,25.476753235,-4.389999390,-0.030564575,0.214031130,1.044855833
57.733387,-24.340927124,26.766120911,-4.374740601,-0.045701295,0.237590700,1.039240599
57.734013,-29.177963257,25.987922668,-4.260299683,-0.116990358,0.146770388,0.964533567
57.734638,-30.474960327,23.256599426,-3.962753296,-0.198533326,0.063152224,0.902033567
57.735263,-29.734909058,19.312202454,-3.871200562,-0.243455201,0.012859253,0.890681028
57.735888,-28.476058960,15.817939758,-4.458663940,-0.234055787,-0.037433717,0.886896849
57.736514,-27.377426147,13.803779602,-5.213973999,-0.173997194,-0.047565553,0.873591185
57.737140,-26.965438843,12.712776184,-5.534408569,-0.094895631,-0.012165161,0.896174192
57.737765,-26.599227905,12.804328918,-5.557296753,-0.040086061,-0.008625122,0.925715208
57.738391,-26.751815796,14.047920227,-5.130050659,-0.004075317,-0.002521606,0.944025755
57.739017,-27.850448608,15.627204895,-4.817245483,0.004103394,-0.019123169,0.950983763
57.739643,-28.918563843,17.160713196,-4.481552124,0.006056519,-0.033405397,0.952814817
57.740309,-29.109298706,19.449531555,-4.061935425,-0.023240356,-0.056720827,0.977350950
57.740934,-28.163253784,20.723640442,-3.756759644,-0.071336061,-0.089191526,0.978815794
57.741561,-27.270614624,20.777046204,-3.955123901,-0.116013795,-0.066608518,0.947932005
57.742187,-26.461898804,20.151435852,-3.749130249,-0.142014772,-0.049396608,0.911921263
57.742812,-25.088607788,19.457160950,-3.810165405,-0.162400514,-0.048420046,0.907282591
57.743439,-22.761642456,18.114387512,-3.939865112,-0.177048951,-0.048420046,0.957087278
57.744065,-19.618331909,16.359626770,-4.214523315,-0.177903444,-0.032184694,0.975397825
57.744692,-17.817794800,15.375434875,-4.786727905,-0.161057740,-0.023517700,0.947687864
57.745318,-16.673385620,14.826118469,-5.069015503,-0.131272584,-0.029377075,0.925715208
57.745944,-15.521347046,15.344917297,-5.358932495,-0.088547975,-0.043048952,0.914850950
57.746570,-13.606369019,16.222297668,-5.374191284,-0.063523561,-0.071979612,0.907648802
57.747197,-11.248886108,17.648994446,-5.099533081,-0.061326295,-0.097126096,0.900934935
57.747822,-8.776962280,18.091499329,-4.939315796,-0.073411256,-0.109088987,0.892267942
57.760478,28.973281860,17.237007141,-3.955123901,-0.180222780,0.179607302,0.832941771
57.761238,28.019607544,15.657722473,-5.252120972,-0.234544069,0.276775271,0.976862669
57.761864,26.173294067,15.848457336,-7.991073608,-0.188157350,0.145915896,1.083674192
57.762490,19.619644165,15.215217590,-7.968185425,-0.157151490,0.409343630,1.202082396
57.763117,14.462173462,13.429939270,-9.478805542,-0.147630006,-0.152546018,1.157038450
57.763742,11.479080200,10.011970520,-6.304977417,-0.244309694,0.019206909,0.989924192
57.764368,9.304702759,4.801094055,-3.962753296,-0.190964967,0.407634646,0.974787474
57.764994,5.451858521,1.947700500,-5.198715210,-0.195115358,0.255412966,0.955134153
57.765620,3.399551392,1.970588684,-6.190536499,-0.186936647,0.177287966,0.970026731
57.766245,1.225173950,4.221260071,-8.662460327,-0.111253053,0.050945189,0.957453489
57.766870,-0.750839233,6.609260559,-10.562179565,-0.041428834,0.050334837,0.931208372
57.767497,-2.627670288,8.920967102,-9.494064331,0.037794799,0.085979372,0.886286497
57.768122,-4.664718628,9.416877747,-7.754562378,0.040480345,0.056438353,0.851008177
57.768747,-5.229293823,10.294258118,-5.656478882,-0.009568481,-0.024372192,0.834528685
57.769374,-4.336654663,11.247932434,-5.099533081,-0.092210084,-0.075153440,0.820612669
57.770006,-2.589523315,11.789619446,-5.519149780,-0.149827272,-0.078815550,0.796808958
57.770631,-0.972091675,11.530220032,-6.282089233,-0.164353639,-0.037677858,0.772150755
57.771256,1.187026978,11.301338196,-6.831405640,-0.151047975,0.022380738,0.750300169
57.771882,2.880752563,9.844123840,-6.762741089,-0.145921022,0.070110232,0.735651731
57.772507,4.505813599,8.745491028,-6.610153198,-0.146409303,0.069744021,0.747736692
57.773134,5.268753052,8.173286438,-6.938217163,-0.150925905,0.059001829,0.777033567
57.773761,5.673110962,8.371650696,-7.785079956,-0.141404420,0.067668825,0.807062864
57.774387,4.833877563,8.478462219,-8.044479370,-0.116624147,0.077312380,0.827082396
57.776196,0.881851196,9.203254700,-7.251022339,-0.097581178,0.088420779,0.877619505
57.776821,-0.811874390,8.943855286,-6.861923218,-0.127000123,0.081951052,0.884577513
57.777446,-2.002059937,8.081733704,-6.510971069,-0.155564576,0.076457888,0.896052122
57.778071,-3.001510620,7.379829407,-6.716964722,-0.166795045,0.078655154,0.899958372
57.778696,-3.985702515,6.426155090,-6.816146851,-0.164231569,0.088664919,0.900934935
57.779321,-4.573165894,5.129158020,-7.136581421,-0.152146608,0.086711794,0.898859739
57.779946,-5.130111694,4.328071594,-7.098434448,-0.144456178,0.076457888,0.904352903
57.780572,-5.137741089,3.916084290,-7.350204468,-0.134080201,0.053142454,0.904230833
57.781197,-5.450546265,3.572761536,-7.563827515,-0.123582155,0.032390501,0.904108763
57.781824,-5.526840210,3.488838196,-7.563827515,-0.109910280,0.020305542,0.902521849
57.782450,-5.450546265,3.954231262,-7.800338745,-0.094285280,0.016277222,0.903986692
57.783075,-5.496322632,3.954231262,-7.540939331,-0.083787233,0.006511596,0.902643919
57.783702,-5.450546265,4.389106750,-7.220504761,-0.083298951,0.004924682,0.902155638
57.784328,-5.328475952,4.679023743,-7.251022339,-0.086106569,0.000652222,0.901423216
57.784955,-5.076705933,5.091011047,-7.212875366,-0.098923951,0.005290893,0.905451536
57.785582,-4.458724976,5.258857727,-7.258651733,-0.109544069,0.020671753,0.902888060
57.786208,-4.321395874,5.297004700,-7.708786011,-0.117966920,0.030681519,0.899470091
57.786834,-4.100143433,5.106269836,-7.731674194,-0.123215944,0.041179564,0.893244505
57.787460,-3.970443726,4.740058899,-7.678268433,-0.122727662,0.037151244,0.896052122
57.788086,-3.543197632,4.228889465,-7.785079956,-0.119065553,0.036907103,0.897516966
57.788713,-3.482162476,4.206001282,-7.670639038,-0.116746217,0.032268431,0.893488646
57.789340,-3.238021851,4.175483704,-7.869003296,-0.111619264,0.033367064,0.892145872
57.789966,-3.138839722,3.572761536,-7.907150269,-0.109788209,0.036296751,0.888727903
57.790591,-3.032028198,3.626167297,-7.914779663,-0.109421998,0.030315308,0.883356810
57.791218,-2.826034546,3.473579407,-7.853744507,-0.109666139,0.026897339,0.878962278
57.804142,1.751602173,1.787483215,-9.005783081,-0.112717897,0.045329954,0.890314817
57.804863,1.347244263,1.718818665,-8.998153687,-0.115891725,0.042766478,0.887995481
57.805490,0.683486938,1.360237122,-9.219406128,-0.113084108,0.042766478,0.877497435
57.806117,0.416458130,1.268684387,-9.097335815,-0.116013795,0.037883665,0.873713255
57.806742,0.004470825,1.123725891,-9.272811890,-0.111130983,0.036174681,0.862360716
57.807367,-0.384628296,0.643074036,-9.089706421,-0.112595826,0.028850464,0.854304075
57.807993,-0.796615601,0.368415833,-9.028671265,-0.113938600,0.027873902,0.846369505
57.808618,-0.872909546,0.147163391,-9.234664917,-0.114671022,0.022258667,0.840754271
57.809243,-0.842391968,-0.234306335,-9.074447632,-0.116624147,0.022258667,0.830988646
57.809870,-0.827133179,-0.615776062,-9.166000366,-0.119797975,0.014812378,0.824640989
57.810495,-0.735580444,-1.279533386,-9.066818237,-0.119431764,0.011882691,0.818659544
57.811120,-0.903427124,-1.691520691,-8.967636108,-0.123215944,0.007610229,0.811579466
57.811747,-0.529586792,-1.882255554,-9.417770386,-0.124192506,0.005046753,0.809260130
57.812372,-0.422775269,-2.385795593,-9.089706421,-0.128587037,0.004558471,0.803400755
57.813007,-0.109970093,-2.965629578,-9.074447632,-0.131882936,-0.000324341,0.802424192
57.813633,0.317276001,-3.759086609,-9.349105835,-0.131272584,-0.002765747,0.801081419
57.814259,0.614822388,-4.216850281,-9.013412476,-0.135667115,-0.002033325,0.802790403
57.814886,0.866592407,-4.918754578,-9.181259155,-0.137131959,-0.005817505,0.799494505
57.815513,1.286209106,-5.658805847,-9.211776733,-0.135545045,-0.007160279,0.798395872
57.816138,1.660049438,-6.429374695,-9.120223999,-0.132493287,0.000041870,0.801203489
57.816763,2.087295532,-7.138908386,-9.265182495,-0.129197389,0.002239136,0.800593138
57.817388,2.514541626,-7.955253601,-9.173629761,-0.125535280,0.002483276,0.803156614
57.818013,2.873123169,-8.687675476,-9.135482788,-0.122483522,0.001262573,0.806208372
57.818639,2.934158325,-9.587944031,-9.227035522,-0.120408326,0.007610229,0.809992552
57.819266,3.193557739,-10.213554382,-8.998153687,-0.115403444,0.008953003,0.814020872
57.819893,3.346145630,-10.778129578,-9.326217651,-0.112229615,0.008220581,0.820124388
57.820518,3.475845337,-11.243522644,-9.120223999,-0.106370240,0.009441284,0.821955442
57.821145,3.330886841,-11.815727234,-9.166000366,-0.110642701,0.010661988,0.825251341
57.821770,3.369033813,-12.220085144,-9.410140991,-0.107346803,0.010906128,0.835505247
57.822395,3.407180786,-12.593925476,-9.211776733,-0.111130983,0.012248902,0.839289427
57.823022,3.636062622,-12.975395203,-9.150741577,-0.110154420,0.014690308,0.845270872
57.823648,3.491104126,-13.326347351,-9.150741577,-0.112107545,0.017009644,0.850886106
57.824274,3.307998657,-13.791740417,-8.876083374,-0.108201295,0.016155152,0.858820677
57.824901,3.307998657,-13.974845886,-9.303329468,-0.109055787,0.020793824,0.866266966
57.826725,2.804458618,-14.661491394,-9.158370972,-0.106736451,0.027141480,0.882380247
57.827351,2.278030396,-14.966667175,-9.371994019,-0.104417115,0.029827027,0.891535521
57.827977,2.026260376,-15.165031433,-9.303329468,-0.106370240,0.033977415,0.897394896
57.828604,1.866043091,-15.218437195,-9.234664917,-0.107102662,0.032634642,0.904719114
57.829229,1.484573364,-15.203178406,-9.295700073,-0.106980592,0.038860228,0.910578489
57.829855,1.003921509,-15.111625671,-9.455917358,-0.105027467,0.037883665,0.917780638
57.830480,0.691116333,-15.424430847,-9.227035522,-0.106248170,0.040447142,0.922907591
57.831106,0.347793579,-15.287101746,-9.371994019,-0.106248170,0.039348509,0.925959349
57.831731,-0.132858276,-15.325248718,-9.356735229,-0.106980592,0.037151244,0.929499388
57.832357,-0.529586792,-15.317619324,-9.478805542,-0.103196412,0.037395384,0.934382200
57.832983,-0.590621948,-15.203178406,-9.486434937,-0.099778444,0.039104369,0.938898802
57.833609,-1.078903198,-15.332878113,-9.639022827,-0.097703248,0.038249876,0.943171263
57.834234,-1.361190796,-15.287101746,-9.616134644,-0.098435670,0.036052611,0.944880247
57.834860,-1.887619019,-15.271842957,-9.761093140,-0.096726686,0.035564329,0.945124388
57.847511,1.393020630,-12.998283386,-10.661361694,-0.059006959,-0.000934692,0.978571653
57.848271,1.713455200,-13.173759460,-10.417221069,-0.063523561,-0.004352661,0.975397825
57.848896,2.155960083,-13.257682800,-10.302780151,-0.069382936,-0.007892700,0.975641966
57.849521,2.651870728,-13.051689148,-10.554550171,-0.071580201,-0.008869262,0.978083372
57.850146,3.208816528,-13.250053406,-10.470626831,-0.072800905,-0.006916138,0.975886106
57.850772,3.895462036,-13.410270691,-10.424850464,-0.074509889,-0.009235473,0.973688841
57.851397,4.185379028,-13.387382507,-10.684249878,-0.075486451,-0.009357544,0.974299192
57.852023,5.032241821,-13.349235535,-10.607955933,-0.075364381,-0.011676880,0.971491575
57.852650,5.581558228,-13.662040710,-10.791061401,-0.079026490,-0.013630005,0.971491575
57.853275,5.978286743,-13.570487976,-10.752914429,-0.081834108,-0.014484497,0.975764036
57.853901,6.619155884,-13.486564636,-10.722396851,-0.078904420,-0.015827270,0.975397825
57.854528,7.397354126,-13.433158875,-10.966537476,-0.081834108,-0.018634887,0.977106810
57.855154,7.878005981,-13.623893738,-10.768173218,-0.085740358,-0.016559692,0.977595091
57.855779,8.328140259,-13.555229187,-10.592697144,-0.087205201,-0.015094848,0.977595091
57.856404,9.060562134,-13.768852234,-10.783432007,-0.090134889,-0.017047973,0.980402708
57.857029,9.594619751,-13.578117371,-10.852096558,-0.089768678,-0.016193481,0.984064817
57.857654,10.197341919,-13.829887390,-10.806320190,-0.089890748,-0.011554809,0.984797239
57.858280,10.571182251,-13.883293152,-10.974166870,-0.091355592,-0.010944458,0.988703489
57.858906,11.295974731,-14.066398621,-10.783432007,-0.086228639,-0.011554809,0.987482786
57.859533,11.357009888,-14.241874695,-10.913131714,-0.084153444,-0.010944458,0.991022825
57.860159,11.952102661,-14.432609558,-10.943649292,-0.073411256,-0.008258911,0.995783567
57.860786,12.463272095,-14.379203796,-10.798690796,-0.070725709,-0.006183716,0.996027708
57.861412,12.318313599,-14.074028015,-10.905502319,-0.066941530,-0.007648560,0.998347044
57.862039,12.524307251,-14.112174988,-10.920761108,-0.061448365,-0.002033325,1.002131224
57.862665,12.821853638,-14.043510437,-10.951278687,-0.056077272,-0.007892700,1.005915403
57.863291,12.798965454,-13.662040710,-10.745285034,-0.053025514,-0.003376099,1.011164427
57.863917,12.745559692,-13.578117371,-10.859725952,-0.051804811,-0.004840943,1.011896849
57.864542,12.760818481,-13.326347351,-10.783432007,-0.054490358,-0.002765747,1.014826536
57.865168,12.814224243,-13.318717957,-10.768173218,-0.053269655,-0.003131958,1.019098997
57.865795,12.577713013,-12.838066101,-10.844467163,-0.053635865,-0.003254028,1.022394896
57.866421,12.676895142,-13.051689148,-10.638473511,-0.052048951,-0.000080200,1.024836302
57.867047,12.577713013,-12.731254578,-10.775802612,-0.055588990,-0.002155395,1.023737669
57.867674,12.394607544,-12.433708191,-10.607955933,-0.057053834,0.001140503,1.025934935
57.868299,12.112319946,-12.532890320,-10.630844116,-0.056565553,-0.000568481,1.025568724
57.868925,12.219131470,-12.372673035,-10.668991089,-0.057786256,-0.003864380,1.023981810
57.869551,11.898696899,-11.876762390,-10.531661987,-0.055955201,-0.002033325,1.028132200
57.870176,11.616409302,-12.059867859,-10.638473511,-0.059617311,-0.001545044,1.028254271
57.870803,11.616409302,-11.777580261,-10.661361694,-0.061204225,-0.005207154,1.027277708
57.871430,11.227310181,-11.602104187,-10.272262573,-0.064744264,-0.004718872,1.028742552
57.872055,10.945022583,-11.632621765,-10.371444702,-0.062424928,-0.005085083,1.032770872
57.872682,10.876358032,-11.213005066,-10.379074097,-0.064378053,-0.006427857,1.030085325
57.873307,10.479629517,-11.022270203,-10.409591675,-0.063523561,-0.009357544,1.029474974
57.873933,10.281265259,-11.045158386,-10.157821655,-0.067307740,-0.010456176,1.024836302
57.874559,10.052383423,-10.999382019,-10.226486206,-0.069627076,-0.010700317,1.027033567
57.875186,9.800613403,-10.640800476,-10.241744995,-0.070115358,-0.015094848,1.024714231
57.877041,9.586990356,-10.640800476,-10.035751343,-0.067551881,-0.020465942,1.022516966
57.889668,9.258926392,-9.725273132,-8.494613647,-0.042649537,-0.043781374,1.029474974
57.890429,9.365737915,-9.778678894,-8.219955444,-0.043259889,-0.044025514,1.028742552
57.891054,9.274185181,-9.877861023,-8.349655151,-0.047410280,-0.044391725,1.026667356
57.891680,9.266555786,-9.771049500,-8.136032104,-0.049485475,-0.046222780,1.025324583
57.892306,9.281814575,-9.793937683,-8.006332397,-0.052048951,-0.046222780,1.026301146
57.892933,9.556472778,-9.961784363,-7.861373901,-0.051804811,-0.048908327,1.021906614
57.893559,9.663284302,-10.053337097,-7.998703003,-0.049241334,-0.047199342,1.022028685
57.894184,9.731948853,-10.251701355,-7.884262085,-0.052293092,-0.050006960,1.023615599
57.894809,10.082901001,-10.251701355,-7.533309937,-0.051072389,-0.052692506,1.022639036
57.895434,10.128677368,-10.060966492,-7.579086304,-0.056565553,-0.053791139,1.018000364
57.896060,10.510147095,-10.213554382,-7.426498413,-0.057786256,-0.051838014,1.017634153
57.896687,10.510147095,-10.450065613,-7.273910522,-0.058640748,-0.051471803,1.015314817
57.897313,10.922134399,-10.381401062,-7.243392944,-0.066087037,-0.052936647,1.011286497
57.897939,11.059463501,-10.648429871,-7.067916870,-0.068772584,-0.050251100,1.009943724
57.898565,11.440933228,-10.945976257,-7.022140503,-0.071702272,-0.047809694,1.012385130
57.899190,11.563003540,-11.258781433,-6.961105347,-0.072312623,-0.046955202,1.012018919
57.899816,11.906326294,-11.449516296,-6.655929565,-0.077195436,-0.046344850,1.010187864
57.900443,11.837661743,-11.663139343,-6.503341675,-0.081834108,-0.042560671,1.010676146
57.901069,12.097061157,-11.670768738,-6.602523804,-0.087693483,-0.041339967,1.009577513
57.901694,12.188613892,-12.235343933,-6.640670776,-0.086228639,-0.041584108,1.011774778
57.902321,12.654006958,-12.525260925,-6.465194702,-0.084153444,-0.038288210,1.013117552
57.902947,12.715042114,-12.723625183,-6.526229858,-0.080369264,-0.035114381,1.015803099
57.903572,13.348281860,-13.013542175,-6.419418335,-0.072922975,-0.029621216,1.020685911
57.904199,13.630569458,-13.402641296,-6.457565308,-0.066819459,-0.025959106,1.025934935
57.904826,13.851821899,-13.578117371,-6.587265015,-0.057297975,-0.025226684,1.030085325
57.905453,14.279067993,-13.906181335,-6.266830444,-0.046555787,-0.019001098,1.032770872
57.906080,14.469802856,-13.860404968,-6.320236206,-0.039719850,-0.020710083,1.038264036
57.906706,14.858901978,-14.096916199,-6.442306519,-0.032273561,-0.016803833,1.043879271
57.907332,14.538467407,-13.852775574,-6.480453491,-0.027268676,-0.014362426,1.049372435
57.907957,14.729202271,-13.776481628,-6.114242554,-0.021165160,-0.013141723,1.054377317
57.908584,14.774978638,-13.799369812,-6.259201050,-0.018357543,-0.009967895,1.065851927
57.909211,14.607131958,-13.494194031,-6.129501343,-0.017258910,-0.002521606,1.070490599
57.909836,14.576614380,-13.532341003,-5.931137085,-0.017503051,-0.002643677,1.071711302
57.910461,14.324844360,-13.318717957,-5.961654663,-0.020554809,0.001872925,1.076960325
57.911088,14.332473755,-13.189018250,-5.763290405,-0.029588012,0.006145386,1.080378294
57.911715,14.141738892,-13.112724304,-6.022689819,-0.028855590,0.006267456,1.085749388
57.912340,14.050186157,-13.097465515,-5.992172241,-0.027390746,0.009075074,1.090510130
57.912965,13.889968872,-12.845695496,-6.037948608,-0.029221801,0.012615113,1.093439817
57.913590,13.462722778,-12.860954285,-5.915878296,-0.027390746,0.014812378,1.096125364
57.914215,13.569534302,-12.586296082,-6.182907104,-0.032395631,0.014568238,1.095759153
57.914840,13.104141235,-12.502372742,-6.114242554,-0.033982545,0.014568238,1.100519896
57.915465,13.149917603,-12.250602722,-5.839584351,-0.034837037,0.014079956,1.101862669
57.916092,12.837112427,-11.991203308,-5.999801636,-0.037156373,0.013835816,1.102350950
57.916718,12.516677856,-11.716545105,-6.015060425,-0.044358522,0.016643433,1.107966185
57.917344,12.325942993,-11.556327820,-5.831954956,-0.042893678,0.013225464,1.112116575
57.917969,12.417495728,-11.060417175,-5.969284058,-0.042649537,0.009319214,1.113581419
57.918595,11.990249634,-11.022270203,-6.129501343,-0.043748170,0.011394409,1.119074583
57.939235,-2.467453003,-3.125846863,-6.030319214,-0.028855590,0.050823119,1.127863646
57.940052,-2.871810913,-2.965629578,-5.938766479,-0.029465942,0.049358275,1.127863646
57.940677,-3.436386108,-2.820671082,-6.076095581,-0.032029420,0.048015501,1.125422239
57.941304,-3.642379761,-2.759635925,-5.709884644,-0.028489379,0.045452025,1.128718138
57.941929,-3.962814331,-2.706230164,-6.030319214,-0.028367309,0.044963744,1.124689817
57.942556,-4.130661011,-2.591789246,-5.862472534,-0.024949340,0.043620970,1.123469114
57.943181,-4.313766479,-2.149284363,-6.045578003,-0.022752075,0.039226439,1.125178099
57.943806,-4.435836792,-2.134025574,-5.778549194,-0.025559692,0.038249876,1.126520872
57.944433,-4.458724976,-2.065361023,-5.900619507,-0.027756957,0.036785033,1.123713255
57.945058,-4.527389526,-2.050102234,-6.068466187,-0.023972778,0.032878783,1.126765013
57.945760,-4.412948608,-1.783073425,-5.984542847,-0.021897582,0.031169800,1.124689817
57.946387,-4.161178589,-1.714408875,-5.892990112,-0.022752075,0.031902220,1.123224974
57.947012,-4.031478882,-1.546562195,-6.068466187,-0.022752075,0.026775269,1.128473997
57.947647,-3.894149780,-1.317680359,-6.160018921,-0.021409301,0.025798706,1.128107786
57.948274,-3.741561890,-1.477897644,-6.129501343,-0.020921020,0.026531128,1.132136106
57.948900,-3.474533081,-1.180351257,-6.007431030,-0.020676879,0.025188355,1.132380247
57.949525,-3.054916382,-0.913322449,-6.236312866,-0.017625121,0.022136597,1.137263060
57.950152,-3.062545776,-0.714958191,-6.160018921,-0.020921020,0.025310425,1.136652708
57.950779,-2.696334839,-0.493705750,-6.297348022,-0.018723754,0.025310425,1.140925169
57.951405,-2.169906616,-0.364006042,-6.198165894,-0.018601684,0.026042847,1.139704466
57.952030,-2.215682983,0.109016418,-6.259201050,-0.020554809,0.025798706,1.146662474
57.952657,-1.780807495,0.231086731,-6.259201050,-0.019089965,0.025798706,1.148005247
57.953283,-1.368820190,0.513374329,-6.236312866,-0.019089965,0.026775269,1.148249388
57.953908,-1.132308960,0.894844055,-6.282089233,-0.019578246,0.025066284,1.153254271
57.954533,-1.010238647,0.986396790,-6.549118042,-0.022141723,0.027263550,1.155939817
57.955160,-0.727951050,1.230537415,-6.465194702,-0.018723754,0.023113159,1.154597044
57.955786,-0.376998901,1.673042297,-6.358383179,-0.021531371,0.027019409,1.157892942
57.956411,-0.010787964,1.886665344,-6.419418335,-0.021775512,0.024578003,1.160090208
57.957037,0.065505981,2.222358704,-6.587265015,-0.023118285,0.026531128,1.160090208
57.957664,0.385940552,2.565681458,-6.678817749,-0.018235473,0.022991089,1.159479856
57.958290,0.561416626,2.947151184,-6.388900757,-0.017991332,0.023967652,1.159846067
57.958915,0.843704224,3.229438782,-6.587265015,-0.022507934,0.027629761,1.161432981
57.959540,1.202285767,3.610908508,-6.633041382,-0.019212035,0.023601441,1.158991575
57.960167,1.576126099,4.129707336,-6.648300171,-0.021409301,0.025188355,1.159846067
57.960793,1.621902466,4.183113098,-6.785629272,-0.018723754,0.023235230,1.157648802
57.961419,2.026260376,4.389106750,-6.930587769,-0.021043090,0.022502808,1.153986692
57.962044,2.186477661,4.976570129,-6.633041382,-0.019578246,0.023601441,1.154963255
57.962881,2.628982544,5.472480774,-6.724594116,-0.023728637,0.023723511,1.153986692
57.963789,2.949417114,5.869209290,-6.877182007,-0.020798950,0.026042847,1.152277708
57.964414,3.254592896,6.212532043,-6.823776245,-0.022996215,0.027141480,1.148615599
57.965040,3.460586548,6.639778137,-6.930587769,-0.025193481,0.028484253,1.147028685
57.965667,3.689468384,6.723701477,-7.098434448,-0.024461059,0.027019409,1.143000364
57.966375,3.834426880,6.937324524,-7.045028687,-0.023606567,0.027629761,1.143000364
57.967007,4.086196899,7.311164856,-7.052658081,-0.026047973,0.028240113,1.139338255
57.967634,4.299819946,7.311164856,-7.029769897,-0.023850707,0.026653199,1.136408567
57.968261,4.475296021,7.654487610,-7.045028687,-0.025193481,0.028484253,1.131037474
57.968887,4.505813599,7.997810364,-7.121322632,-0.025925903,0.028606324,1.127253294
57.969512,4.643142700,8.249580383,-7.144210815,-0.027512817,0.032268431,1.126398802
57.982186,4.292190552,9.783088684,-7.487533569,-0.033494264,0.046062376,1.091730833
57.982951,4.444778442,9.783088684,-7.731674194,-0.034104615,0.046184447,1.088679075
57.983576,4.315078735,10.057746887,-7.563827515,-0.034104615,0.043743040,1.093928099
57.984202,4.048049927,10.073005676,-7.533309937,-0.036912233,0.044597533,1.094172239
57.984827,4.017532349,10.073005676,-7.762191772,-0.035935670,0.045574095,1.089655638
57.985452,4.070938110,9.973823547,-7.632492065,-0.036179811,0.045574095,1.090998411
57.986079,4.002273560,10.324775696,-7.655380249,-0.038377076,0.044353392,1.092219114
57.986704,3.933609009,10.294258118,-7.693527222,-0.037644655,0.044963744,1.088434935
57.987329,4.170120239,10.195075989,-7.891891479,-0.038255006,0.048869994,1.091364622
57.989200,4.124343872,10.286628723,-7.762191772,-0.036912233,0.048503783,1.088190794
57.989826,3.880203247,10.347663879,-7.846115112,-0.036546022,0.042156126,1.088679075
57.990451,4.086196899,10.568916321,-7.930038452,-0.033372194,0.047771361,1.088434935
57.991076,4.009902954,10.462104797,-7.945297241,-0.030198364,0.044841673,1.091486692
57.991703,4.131973267,10.645210266,-8.258102417,-0.032883912,0.049358275,1.090021849
57.992328,4.368484497,10.690986633,-7.869003296,-0.032517701,0.048503783,1.089655638
57.992954,4.276931763,10.866462708,-7.846115112,-0.033005983,0.049114134,1.090021849
57.993581,4.460037231,10.744392395,-8.067367554,-0.031052856,0.048259642,1.085993528
57.994207,4.513442993,11.011421204,-8.120773315,-0.035813600,0.050090697,1.085749388
57.994832,4.719436646,11.019050598,-8.136032104,-0.034837037,0.049724486,1.088557005
57.995459,4.658401489,11.133491516,-8.052108765,-0.035447389,0.048259642,1.087336302
57.996084,4.948318481,11.331855774,-8.288619995,-0.035569459,0.048137572,1.083674192
57.996711,4.894912720,11.431037903,-8.273361206,-0.031785280,0.046550658,1.082697630
57.997336,5.306900024,11.522590637,-8.326766968,-0.032395631,0.048625853,1.087580442
57.997962,5.329788208,11.415779114,-8.334396362,-0.034837037,0.048137572,1.084040403
57.998587,5.375564575,11.751472473,-8.441207886,-0.036179811,0.046550658,1.085139036
57.999213,5.596817017,11.545478821,-8.555648804,-0.036301881,0.049358275,1.083796263
57.999838,5.741775513,11.797248840,-8.387802124,-0.037888795,0.048747923,1.087214231
58.000464,5.917251587,11.804878235,-8.570907593,-0.036912233,0.048503783,1.082575560
58.001091,6.146133423,11.949836731,-8.746383667,-0.040208131,0.050701048,1.082941771
58.001716,6.191909790,11.965095520,-8.799789429,-0.037766725,0.051799681,1.083430052
58.002342,6.512344360,11.888801575,-8.799789429,-0.039963990,0.050456908,1.081354856
58.002967,6.642044067,12.079536438,-8.815048218,-0.039841920,0.050334837,1.079157591
58.003592,6.619155884,12.155830383,-8.906600952,-0.040574342,0.048503783,1.081110716
58.004217,6.863296509,12.171089172,-8.898971558,-0.041550905,0.051067259,1.080256224
58.004842,6.809890747,12.361824036,-8.830307007,-0.040818483,0.050701048,1.078669310
58.005468,7.160842896,12.377082825,-8.944747925,-0.040208131,0.054241087,1.076105833
58.006093,7.046401978,12.552558899,-8.906600952,-0.039841920,0.056438353,1.073908567
58.006719,7.244766235,12.537300110,-8.845565796,-0.042893678,0.055339720,1.070124388
58.007345,7.305801392,12.377082825,-9.074447632,-0.041550905,0.055950072,1.068171263
58.007971,7.198989868,12.644111633,-9.066818237,-0.040818483,0.058513548,1.067316771
58.008596,7.069290161,12.766181946,-9.082077026,-0.039109498,0.058513548,1.063532591
58.009222,6.939590454,12.659370422,-9.272811890,-0.042161256,0.062786013,1.061457396
58.009848,6.901443481,12.712776184,-9.104965210,-0.040818483,0.064739138,1.059626341
58.010474,6.787002563,12.781440735,-9.227035522,-0.040330201,0.067912966,1.057429075
58.011100,6.596267700,12.865364075,-8.952377319,-0.043381959,0.069133669,1.054743528
58.011727,6.306350708,13.056098938,-9.234664917,-0.043259889,0.067912966,1.054377317
58.012353,6.138504028,12.903511047,-9.303329468,-0.044724733,0.073284060,1.056452513
58.012978,5.825698853,13.109504700,-9.150741577,-0.045457155,0.073894411,1.051447630
58.025656,-6.442367554,12.583076477,-9.402511597,-0.057420045,0.078288943,1.033137083
58.026456,-7.251083374,12.422859192,-9.471176147,-0.057908326,0.077312380,1.030207396
58.027082,-7.792770386,12.590705872,-9.494064331,-0.061204225,0.073528200,1.029352903
58.027708,-8.113204956,12.407600403,-9.486434937,-0.059495240,0.072673708,1.029230833
58.028334,-8.723556519,12.201606750,-9.417770386,-0.059983522,0.073161989,1.032160521
58.028970,-8.899032593,12.277900696,-9.455917358,-0.058640748,0.071086794,1.032648802
58.029596,-9.021102905,12.422859192,-9.379623413,-0.058762819,0.069133669,1.031794310
58.030222,-9.249984741,12.270271301,-9.387252808,-0.057542115,0.068523318,1.033869505
58.030848,-9.608566284,12.499153137,-9.402511597,-0.061082155,0.063884646,1.035578489
58.031475,-9.753524780,12.583076477,-9.310958862,-0.058396608,0.066326052,1.033747435
58.032101,-9.761154175,12.590705872,-9.135482788,-0.061204225,0.064494997,1.040583372
58.032728,-9.990036011,12.659370422,-9.448287964,-0.061082155,0.063762575,1.039606810
58.033354,-10.005294800,12.567817688,-9.555099487,-0.060105592,0.064372927,1.043024778
58.033979,-9.997665405,12.804328918,-9.433029175,-0.064866334,0.064006716,1.044489622
58.034606,-9.913742065,12.689888000,-9.356735229,-0.064378053,0.066570193,1.043146849
58.035233,-9.997665405,12.758552551,-9.631393433,-0.064500123,0.064372927,1.041926146
58.035858,-10.211288452,12.987434387,-9.639022827,-0.064988405,0.064250857,1.044855833
58.036485,-10.043441772,13.086616516,-9.623764038,-0.064133912,0.061443236,1.044245481
58.037111,-10.073959351,13.048469543,-9.814498901,-0.065964967,0.062908083,1.046076536
58.037738,-9.875595093,13.445198059,-9.570358276,-0.066453248,0.062908083,1.044611692
58.039601,-9.471237183,13.590156555,-9.623764038,-0.067551881,0.061809447,1.044489622
58.040227,-9.181320190,13.689338684,-9.806869507,-0.067063600,0.059978392,1.041682005
58.040852,-8.998214722,13.819038391,-9.753463745,-0.064500123,0.061809447,1.044489622
58.041477,-8.700668335,13.857185364,-9.913681030,-0.069260865,0.063152224,1.039606810
58.042103,-8.296310425,13.849555969,-10.058639526,-0.069505006,0.060466673,1.038141966
58.042729,-8.235275269,13.956367493,-10.096786499,-0.069871217,0.060222533,1.034601927
58.043356,-7.869064331,14.147102356,-10.051010132,-0.067796022,0.061931517,1.031794310
58.043983,-7.396041870,13.971626282,-10.310409546,-0.069016725,0.062908083,1.030817747
58.044608,-7.273971558,13.971626282,-10.165451050,-0.071824342,0.060100462,1.027277708
58.045235,-6.923019409,13.963996887,-10.348556519,-0.073411256,0.062663943,1.026423216
58.045861,-6.587326050,14.169990540,-10.524032593,-0.072556764,0.062175658,1.023737669
58.046486,-6.175338745,14.063179016,-10.539291382,-0.073777467,0.060588744,1.019587278
58.047111,-5.778610229,13.956367493,-10.501144409,-0.073899537,0.064128786,1.018122435
58.047857,-5.511581421,14.154731750,-10.646102905,-0.074631959,0.067912966,1.016047239
58.048482,-5.091964722,13.925849915,-10.852096558,-0.072556764,0.067058474,1.012140989
58.049108,-4.779159546,13.857185364,-10.920761108,-0.074509889,0.065837771,1.007990599
58.049735,-4.367172241,13.971626282,-10.951278687,-0.074021608,0.069255739,1.005549192
58.050360,-4.123031616,13.880073547,-11.233566284,-0.073533326,0.065105349,1.007624388
58.050987,-3.932296753,13.910591125,-11.210678101,-0.074998170,0.069011599,1.003107786
58.051613,-3.505050659,13.765632629,-11.317489624,-0.075974733,0.070476443,1.002253294
58.052239,-3.436386108,13.513862610,-11.317489624,-0.077683717,0.069133669,1.001276731
58.052864,-2.978622437,13.536750793,-11.508224487,-0.075852662,0.072307497,1.002741575
58.053489,-2.993881226,13.414680481,-11.599777222,-0.077317506,0.071697146,0.998957396
58.054114,-2.650558472,13.201057434,-11.744735718,-0.077195436,0.072429568,0.998713255
58.054739,-2.337753296,13.361274719,-11.813400269,-0.077683717,0.069011599,0.997614622
58.055364,-2.078353882,13.048469543,-11.981246948,-0.078782350,0.074504763,0.995173216
58.055989,-1.796066284,12.819587708,-11.882064819,-0.077317506,0.073406130,0.994684935
58.056615,-1.803695679,12.804328918,-12.042282104,-0.075974733,0.077800661,0.991633177
58.069221,-0.857650757,9.989082336,-13.858078003,-0.084885865,0.067302614,0.968317747
58.069942,-0.956832886,9.722053528,-13.713119507,-0.087205201,0.069255739,0.967707396
58.070568,-0.644027710,9.668647766,-14.178512573,-0.090623170,0.066570193,0.964777708
58.071193,-0.598251343,9.256660461,-14.003036499,-0.092088014,0.065105349,0.968195677
58.071820,-0.361740112,9.012519836,-14.102218628,-0.091965944,0.061931517,0.964167356
58.072445,-0.315963745,8.943855286,-14.094589233,-0.092332155,0.061077025,0.964533567
58.073071,0.118911743,8.501350403,-14.369247437,-0.091477662,0.058513548,0.966974974
58.073696,0.103652954,8.348762512,-14.071701050,-0.095628053,0.056194212,0.964777708
58.074322,0.309646606,7.967292786,-14.392135620,-0.096360475,0.055828001,0.965876341
58.074949,0.637710571,7.852851868,-14.521835327,-0.092576295,0.059123900,0.965632200
58.075575,0.782669067,7.700263977,-14.353988647,-0.095261842,0.054973509,0.966608763
58.076201,1.217544556,7.440864563,-14.613388062,-0.095261842,0.052410033,0.968073606
58.076827,1.438796997,7.074653625,-14.819381714,-0.093674928,0.048015501,0.966974974
58.077453,1.713455200,6.914436340,-14.529464722,-0.092942506,0.049602415,0.970392942
58.078078,1.888931274,6.563484192,-14.468429565,-0.092088014,0.049602415,0.971003294
58.078703,2.148330688,6.235420227,-14.781234741,-0.088792115,0.049480345,0.973444700
58.079330,2.560317993,6.296455383,-14.712570190,-0.089402467,0.048503783,0.973566771
58.079955,2.613723755,6.220161438,-14.842269897,-0.088425905,0.044109251,0.977228880
58.080581,3.063858032,5.945503235,-15.116928101,-0.086838990,0.050090697,0.980890989
58.081207,3.620803833,5.922615051,-14.910934448,-0.088181764,0.043743040,0.981989622
58.081833,3.803909302,5.800544739,-14.872787476,-0.086961061,0.048625853,0.983454466
58.082460,3.849685669,5.716621399,-15.193222046,-0.086106569,0.047527220,0.988459349
58.083086,4.139602661,5.525886536,-15.116928101,-0.082444459,0.048625853,0.992975950
58.083711,4.589736938,5.670845032,-15.124557495,-0.084031373,0.046916869,0.993464231
58.084338,4.650772095,5.579292297,-15.307662964,-0.080857545,0.048381712,0.995539427
58.084963,5.016983032,5.533515930,-15.284774780,-0.082688600,0.049114134,0.996882200
58.085588,5.230606079,5.647956848,-15.292404175,-0.082932740,0.047649290,1.000666380
58.086214,5.467117310,5.632698059,-15.376327515,-0.081712037,0.052043822,1.004694700
58.086839,5.566299438,5.609809875,-15.216110229,-0.080491334,0.051921751,1.006647825
58.087464,5.612075806,5.602180481,-15.261886597,-0.080369264,0.049602415,1.012140989
58.088091,5.711257935,5.899726868,-15.391586304,-0.081712037,0.051799681,1.009943724
58.089937,6.123245239,6.441413879,-15.399215698,-0.077683717,0.057170775,1.015192747
58.090563,5.886734009,6.532966614,-15.628097534,-0.077805787,0.060222533,1.016047239
58.091188,6.115615845,6.655036926,-15.475509644,-0.079270631,0.058391478,1.017634153
58.091813,5.924880981,6.967842102,-15.635726929,-0.075242311,0.057659056,1.016535521
58.092439,6.207168579,7.204353333,-15.635726929,-0.081223756,0.060100462,1.018122435
58.093065,6.123245239,7.089912415,-15.864608765,-0.080369264,0.061565306,1.018488646
58.093691,6.191909790,7.326423645,-15.658615112,-0.079392701,0.059612181,1.012751341
58.094317,6.428421021,7.425605774,-15.818832397,-0.078782350,0.060466673,1.012751341
58.094942,6.313980103,7.677375793,-15.971420288,-0.079514772,0.063640505,1.015070677
58.095568,6.222427368,7.791816711,-15.948532104,-0.080247194,0.061687376,1.017267942
58.096195,6.214797974,8.058845520,-15.910385132,-0.081712037,0.060222533,1.012385130
58.096820,6.367385864,7.730781555,-15.971420288,-0.082688600,0.061321165,1.010554075
58.097445,6.199539185,8.074104309,-16.070602417,-0.083176881,0.063030154,1.010309935
58.098072,6.352127075,8.302986145,-16.101119995,-0.085252076,0.061321165,1.008600950
58.098698,6.352127075,8.219062805,-16.085861206,-0.084519655,0.060710814,1.009943724
58.099325,6.558120728,8.463203430,-16.337631226,-0.083787233,0.056926634,1.007502317
58.099950,6.703079224,8.325874329,-16.291854858,-0.083543092,0.056072142,1.001765013
58.112630,7.122695923,8.104621887,-17.161605835,-0.081956178,0.063274294,0.976618528
58.113412,6.931961060,7.997810364,-17.390487671,-0.086106569,0.063640505,0.973444700
58.114038,6.619155884,8.158027649,-17.504928589,-0.086961061,0.060710814,0.972834349
58.114664,6.176651001,8.234321594,-17.337081909,-0.088303834,0.065349489,0.972956419
58.115289,5.703628540,8.081733704,-17.352340698,-0.090134889,0.062419798,0.968317747
58.115915,5.329788208,7.913887024,-17.459152222,-0.088670045,0.066936404,0.970270872
58.116540,4.986465454,7.768928528,-17.359970093,-0.093430787,0.070476443,0.970881224
58.117167,4.460037231,7.845222473,-17.558334351,-0.094651490,0.069499880,0.967585325
58.117793,4.025161743,7.700263977,-17.245529175,-0.093674928,0.069744021,0.965021849
58.118420,3.147781372,7.738410950,-17.298934937,-0.094651490,0.073528200,0.964899778
58.119046,2.781570435,7.685005188,-17.329452515,-0.095261842,0.075603396,0.960383177
58.119673,2.079666138,7.456123352,-17.443893433,-0.093186647,0.075603396,0.961848021
58.120299,1.347244263,7.608711243,-17.352340698,-0.096726686,0.079143435,0.963557005
58.120926,0.698745728,7.379829407,-17.497299194,-0.096726686,0.078655154,0.961359739
58.121552,-0.079452515,7.265388489,-17.344711304,-0.099412233,0.077678591,0.960261106
58.122177,-0.705062866,7.234870911,-17.482040405,-0.099656373,0.083171755,0.958307981
58.122803,-1.727401733,7.280647278,-17.314193726,-0.095994264,0.080364138,0.958918333
58.123428,-2.497970581,7.097541809,-17.443893433,-0.098679811,0.083660036,0.955012083
58.124054,-3.352462769,7.158576965,-17.405746460,-0.102097780,0.081584841,0.957575560
58.124681,-3.863632202,6.983100891,-17.405746460,-0.100877076,0.081584841,0.955500364
58.125307,-4.962265015,6.990730286,-17.375228882,-0.101365358,0.079875857,0.956476927
58.125933,-5.656539917,6.868659973,-17.489669800,-0.100755006,0.082439333,0.956354856
58.126559,-6.663619995,6.838142395,-17.459152222,-0.099534303,0.076824099,0.954890013
58.127184,-7.357894897,6.449043274,-17.436264038,-0.098313600,0.077922732,0.955866575
58.127810,-8.113204956,6.769477844,-17.482040405,-0.098557740,0.078533083,0.952082396
58.128437,-8.921920776,6.571113586,-17.558334351,-0.103196412,0.076579958,0.954401731
58.129062,-9.814559937,6.578742981,-17.291305542,-0.097092897,0.079997927,0.954890013
58.129687,-10.577499390,6.494819641,-17.413375854,-0.096970826,0.077434450,0.955988646
58.130312,-11.386215210,6.471931458,-17.344711304,-0.097947389,0.076824099,0.956354856
58.130939,-11.851608276,6.479560852,-17.413375854,-0.099412233,0.077068239,0.955866575
58.131564,-12.851058960,6.311714172,-17.436264038,-0.100999147,0.073161989,0.957941771
58.132190,-13.308822632,6.296455383,-17.276046753,-0.101243287,0.072307497,0.956843138
58.132815,-13.949691772,6.288825989,-17.436264038,-0.097092897,0.072673708,0.959040403
58.133440,-14.727890015,6.243049622,-17.535446167,-0.100510865,0.068767458,0.958185911
58.134065,-15.193283081,6.090461731,-17.306564331,-0.101975709,0.066203982,0.957819700
58.134690,-15.658676147,6.380378723,-17.298934937,-0.097947389,0.065837771,0.958796263
58.135315,-16.200363159,6.182014465,-17.619369507,-0.098557740,0.061443236,0.956232786
58.135940,-16.307174683,5.945503235,-17.588851929,-0.099656373,0.061443236,0.956110716
58.136566,-16.894638062,6.159126282,-17.161605835,-0.100022584,0.059245970,0.957941771
58.137192,-17.047225952,6.128608704,-17.436264038,-0.101975709,0.059978392,0.958796263
58.137817,-17.482101440,6.220161438,-17.657516479,-0.099290162,0.054729369,0.957941771
58.138444,-17.741500854,6.174385071,-17.489669800,-0.099168092,0.054607298,0.958552122
58.140272,-18.168746948,5.953132629,-17.504928589,-0.099168092,0.049846556,0.957575560
58.140897,-18.252670288,6.090461731,-17.634628296,-0.097947389,0.045940306,0.956965208
58.141523,-18.069564819,5.968391418,-17.726181030,-0.101487428,0.046306517,0.958063841
58.142148,-17.848312378,5.846321106,-17.726181030,-0.100510865,0.041545775,0.954401731
58.142773,-17.840682983,5.846321106,-17.749069214,-0.100144655,0.042034056,0.954523802
58.155377,-5.534469604,2.275764465,-19.435165405,-0.115037233,0.000896362,0.940973997
58.156109,-4.603683472,2.428352356,-19.534347534,-0.117356569,0.001750855,0.942927122
58.156734,-3.527938843,1.940071106,-19.511459351,-0.116013795,-0.002155395,0.943293333
58.157361,-2.711593628,1.947700500,-19.725082397,-0.115769655,-0.003864380,0.944025755
58.157986,-1.689254761,1.856147766,-19.877670288,-0.115281373,-0.003742310,0.945002317
58.158611,-0.392257690,1.596748352,-19.747970581,-0.114304811,-0.002521606,0.944880247
58.159236,0.591934204,1.474678040,-19.915817261,-0.116013795,-0.005817505,0.947321653
58.159862,1.446426392,1.138984680,-20.068405151,-0.113816530,-0.002765747,0.951472044
58.160487,2.392471313,1.131355286,-20.022628784,-0.113694459,-0.004718872,0.949640989
58.161200,4.345596313,1.047431946,-20.495651245,-0.112107545,-0.004718872,0.951227903
58.162024,5.215347290,0.894844055,-20.289657593,-0.115403444,-0.003986450,0.955500364
58.162796,6.169021606,0.513374329,-20.564315796,-0.113694459,-0.006549927,0.952570677
58.163421,6.962478638,0.459968567,-20.465133667,-0.112717897,-0.006916138,0.955866575
58.164047,7.832229614,0.536262512,-20.640609741,-0.111375123,-0.007404419,0.953913450
58.164673,8.457839966,0.322639465,-20.678756714,-0.111619264,-0.010334106,0.959162474
58.165299,9.396255493,0.223457336,-20.892379761,-0.114915162,-0.007526489,0.955256224
58.165924,10.128677368,0.246345520,-21.006820679,-0.114060670,-0.008869262,0.955866575
58.166549,11.013687134,0.070869446,-20.961044312,-0.117112428,-0.009357544,0.953547239
58.167175,11.669815063,-0.234306335,-21.052597046,-0.114671022,-0.004474732,0.956110716
58.167800,12.348831177,-0.249565125,-21.167037964,-0.114671022,-0.005939575,0.953058958
58.168425,13.134658813,-0.295341492,-21.144149780,-0.116257936,-0.001789185,0.951716185
58.169050,13.935745239,-0.402153015,-21.220443726,-0.114548951,-0.006671997,0.952448606
58.169677,14.401138306,-0.783622742,-21.144149780,-0.116746217,-0.006305786,0.950617552
58.170304,15.103042603,-0.775993347,-21.388290405,-0.119431764,-0.007404419,0.953425169
58.170930,15.759170532,-1.081169128,-21.342514038,-0.120042115,-0.003742310,0.952570677
58.171556,16.163528442,-1.218498230,-21.434066772,-0.118333131,-0.003986450,0.950373411
58.172182,16.422927856,-1.058280945,-21.617172241,-0.117600709,-0.001545044,0.951716185
58.172808,17.101943970,-1.447380066,-21.586654663,-0.115281373,-0.003620239,0.950007200
58.173434,17.742813110,-1.477897644,-21.640060425,-0.118333131,-0.002643677,0.947809935
58.174061,17.895401001,-1.729667664,-21.846054077,-0.117234498,-0.003864380,0.951349974
58.174687,18.299758911,-1.722038269,-21.662948608,-0.114915162,-0.003498169,0.948420286
58.175313,18.467605591,-1.828849792,-21.586654663,-0.116380006,-0.003864380,0.949274778
58.175939,18.963516235,-1.737297058,-21.861312866,-0.114915162,-0.002521606,0.950495481
58.176565,19.329727173,-2.172172546,-21.823165894,-0.117356569,0.000041870,0.954035521
58.177191,19.428909302,-2.256095886,-21.685836792,-0.117600709,-0.002399536,0.954401731
58.177816,19.711196899,-2.393424988,-21.876571655,-0.117112428,-0.001667114,0.957087278
58.178441,19.955337524,-2.401054382,-21.785018921,-0.117478639,0.000774292,0.955012083
58.179066,20.176589966,-2.584159851,-21.723983765,-0.116013795,-0.002521606,0.955622435
58.179691,20.077407837,-2.713859558,-22.143600464,-0.116257936,0.000530151,0.958430052
58.180316,20.397842407,-2.858818054,-21.891830444,-0.117722780,-0.000080200,0.958430052
58.180941,20.519912720,-2.828300476,-21.884201050,-0.118455201,-0.000080200,0.960505247
58.188161,21.092117310,-3.560722351,-21.777389526,-0.137131959,-0.014850708,0.973078489
58.188786,21.198928833,-3.400505066,-21.792648315,-0.137254030,-0.018634887,0.972223997
58.190641,21.778762817,-3.759086609,-21.960494995,-0.128953248,-0.024128051,0.975764036
58.191266,21.938980103,-4.209220886,-21.952865601,-0.121995240,-0.019611450,0.981501341
58.191893,22.648513794,-4.186332703,-21.861312866,-0.110886842,-0.017780395,0.978571653
58.192518,22.686660767,-4.537284851,-21.968124390,-0.101365358,-0.012409301,0.980036497
58.205228,18.597305298,-4.834831238,-20.770309448,-0.132005006,-0.008014770,0.966608763
58.206006,18.093765259,-4.995048523,-20.617721558,-0.138352662,-0.004474732,0.964899778
58.206632,17.437637329,-5.346000671,-20.495651245,-0.133713990,-0.002399536,0.966486692
58.207257,16.972244263,-5.826652527,-20.419357300,-0.133225709,-0.001789185,0.963312864
58.207883,16.026199341,-5.963981628,-20.343063354,-0.138230592,-0.002643677,0.962336302
58.208510,15.431106567,-6.475151062,-20.098922729,-0.139695436,-0.001911255,0.963923216
58.209136,14.752090454,-6.620109558,-19.946334839,-0.136399537,-0.000446411,0.962336302
58.209762,14.012039185,-6.894767761,-19.915817261,-0.135667115,0.000408081,0.963923216
58.210388,13.508499146,-7.283866882,-19.854782104,-0.132981569,0.000163940,0.964899778
58.211014,12.119949341,-7.337272644,-19.755599976,-0.124802858,0.003093628,0.969904661
58.211640,11.082351685,-7.413566589,-19.488571167,-0.125779420,0.000041870,0.973932981
58.212266,10.533035278,-7.573783875,-19.419906616,-0.121873170,-0.001667114,0.972346067
58.212892,9.739578247,-7.497489929,-19.274948120,-0.119431764,0.004802612,0.975641966
58.213518,8.808792114,-7.482231140,-19.046066284,-0.120530397,0.004192261,0.981867552
58.214144,8.206069946,-7.680595398,-18.969772339,-0.121873170,0.005901245,0.985895872
58.214770,7.351577759,-7.650077820,-18.893478394,-0.118455201,0.007854370,0.987848997
58.215395,6.481826782,-7.734001160,-18.748519897,-0.116135865,0.007121948,0.993220091
58.216021,5.482376099,-7.772148132,-18.824813843,-0.112962037,0.010661988,0.995783567
58.216647,4.688919067,-7.634819031,-18.672225952,-0.115891725,0.014446167,1.001154661
58.217273,3.582656860,-7.680595398,-18.428085327,-0.117234498,0.014934449,1.005549192
58.217898,2.758682251,-7.558525085,-18.496749878,-0.118333131,0.014812378,1.006281614
58.218523,1.606643677,-7.413566589,-18.412826538,-0.116502076,0.020427613,1.012995481
58.219149,0.477493286,-7.276237488,-18.206832886,-0.116868287,0.018474488,1.013361692
58.219775,-0.682174683,-7.360160828,-17.947433472,-0.116013795,0.018718628,1.017145872
58.220402,-1.704513550,-7.413566589,-17.855880737,-0.117600709,0.019817261,1.020930052
58.221027,-2.711593628,-7.024467468,-18.161056519,-0.118455201,0.017742066,1.023615599
58.221654,-3.741561890,-7.024467468,-17.779586792,-0.118211061,0.020305542,1.025690794
58.222279,-4.725753784,-7.054985046,-17.665145874,-0.119431764,0.019328980,1.027277708
58.222905,-5.862533569,-6.787956238,-17.779586792,-0.121018678,0.021282105,1.028132200
58.223532,-6.861984253,-6.894767761,-17.344711304,-0.120530397,0.019451050,1.030207396
58.224159,-7.716476440,-6.520927429,-17.405746460,-0.119920045,0.016399292,1.029352903
58.224784,-8.578598022,-6.612480164,-17.161605835,-0.121873170,0.016399292,1.027033567
58.225411,-9.494125366,-6.505668640,-17.565963745,-0.124680787,0.012981324,1.031183958
58.226037,-10.249435425,-6.269157410,-17.131088257,-0.120652467,0.012126831,1.030207396
58.226662,-10.966598511,-6.101310730,-17.070053101,-0.121506959,0.014690308,1.030695677
58.227288,-11.554061890,-6.353080750,-17.276046753,-0.121995240,0.012493042,1.031672239
58.227914,-12.164413452,-5.956352234,-16.848800659,-0.121873170,0.006877807,1.029963255
58.228540,-12.843429565,-5.872428894,-16.917465210,-0.120774537,0.007610229,1.032160521
58.229166,-13.415634155,-5.979240417,-16.726730347,-0.119797975,0.003215698,1.030085325
58.229791,-13.705551147,-6.070793152,-16.642807007,-0.121995240,0.003337769,1.031672239
58.230416,-14.277755737,-5.819023132,-16.589401245,-0.121140748,0.002849487,1.032892942
58.231043,-14.613449097,-5.712211609,-16.535995483,-0.118821412,0.001994995,1.029597044
58.231668,-14.674484253,-5.727470398,-16.604660034,-0.116868287,-0.000568481,1.033259153
58.232295,-14.949142456,-5.803764343,-16.215560913,-0.116868287,-0.002033325,1.036310911
58.232920,-15.338241577,-5.643547058,-16.268966675,-0.117234498,-0.004352661,1.033625364
58.233546,-15.391647339,-5.574882507,-16.383407593,-0.116013795,-0.007648560,1.035700560
58.234171,-15.361129761,-5.597770691,-16.116378784,-0.113084108,-0.007648560,1.037897825
58.248065,-6.854354858,-4.827201843,-16.085861206,-0.106004030,-0.008991333,1.056330442
58.248838,-6.099044800,-4.834831238,-16.085861206,-0.109666139,-0.007770630,1.056574583
58.249464,-5.557357788,-4.872978210,-16.223190308,-0.110154420,-0.004474732,1.054133177
58.250090,-4.695236206,-4.872978210,-16.017196655,-0.113084108,-0.004596802,1.057673216
58.250717,-3.962814331,-4.865348816,-16.185043335,-0.118943483,-0.006671997,1.057429075
58.251342,-3.436386108,-4.758537292,-16.070602417,-0.126878053,-0.004963013,1.056086302
58.251968,-3.146469116,-4.659355164,-16.017196655,-0.135911256,-0.003009888,1.057307005
58.252594,-2.436935425,-4.834831238,-15.994308472,-0.134446412,-0.000690552,1.054133177
58.253321,-1.773178101,-4.888237000,-16.169784546,-0.131516725,-0.004230591,1.057062864
