time,gyro x,gyro y,gyro z,accel x,accel y,accel z
31.171091,-1.228134155,-3.827278137,-0.927330017,-0.219106197,0.258721322,0.955488205
31.180867,2.906997681,-1.340095520,-1.835227966,-0.227651119,0.237481073,0.963666916
31.181494,3.181655884,-1.111213684,-1.758934021,-0.225820065,0.239312127,0.964033127
31.182120,3.456314087,-0.905220032,-1.774192810,-0.226918697,0.238945916,0.962324142
31.182745,4.089553833,-0.653450012,-1.949668884,-0.226186275,0.237847283,0.961591721
31.183370,4.181106567,-0.592414856,-2.117515564,-0.225331783,0.237725213,0.960981369
31.183996,4.661758423,-0.279609680,-2.033592224,-0.223500729,0.233941033,0.960004807
31.184623,4.837234497,-0.310127258,-2.216697693,-0.224843502,0.235650018,0.961469650
31.185248,5.195816040,-0.111763000,-2.201438904,-0.221059322,0.230400994,0.962812424
31.185875,5.531509399,0.239189148,-2.277732849,-0.222524166,0.231499627,0.963911057
31.186500,5.798538208,0.124748230,-2.376914978,-0.223989010,0.228692010,0.963178635
31.187125,5.790908813,0.559623718,-2.361656189,-0.223622799,0.226128533,0.960371017
31.187750,5.974014282,0.658805847,-2.491355896,-0.221303463,0.227715448,0.963788986
31.188376,6.042678833,0.651176453,-2.468467712,-0.221913815,0.222954705,0.960981369
31.189001,6.279190063,0.971611023,-2.460838318,-0.222890377,0.223931268,0.962202072
31.189626,6.477554321,1.040275574,-2.384544373,-0.219716549,0.222344354,0.959028244
31.190251,6.363113403,1.314933777,-2.308250427,-0.221181393,0.222832635,0.955366135
31.190878,6.485183716,1.345451355,-2.521873474,-0.221913815,0.218560174,0.953168869
31.191504,6.347854614,1.330192566,-2.361656189,-0.224233150,0.219048455,0.949506760
31.192130,6.202896118,1.665885925,-2.407432556,-0.225697994,0.216362908,0.949384689
31.192756,6.073196411,1.719291687,-2.415061951,-0.226796627,0.213555291,0.951459885
31.193381,5.981643677,1.780326843,-2.308250427,-0.225087643,0.217339471,0.943281174
31.194008,5.623062134,1.925285339,-2.292991638,-0.228017330,0.214287713,0.946577072
31.194633,5.508621216,2.054985046,-2.468467712,-0.227284908,0.216729119,0.945356369
31.195258,5.012710571,2.070243835,-2.262474060,-0.226674557,0.218438104,0.947431564
31.195883,4.646499634,2.207572937,-2.132774353,-0.225209713,0.216607049,0.948896408
31.196509,4.333694458,2.039726257,-2.178550720,-0.226064205,0.219902948,0.945966721
31.197136,4.150588989,2.276237488,-2.178550720,-0.233144283,0.216118768,0.935102463
31.197761,3.624160767,2.398307800,-2.117515564,-0.236928463,0.215508416,0.935468674
31.198388,3.311355591,2.054985046,-1.964927673,-0.235951900,0.214531854,0.936323166
31.199013,2.891738892,2.154167175,-2.056480408,-0.237538815,0.213189080,0.930952072
31.200775,1.518447876,2.161796570,-1.613975525,-0.233754635,0.214165643,0.928022385
31.201401,1.030166626,2.146537781,-1.743675232,-0.234853268,0.214653924,0.919477463
31.202026,0.618179321,2.184684753,-1.499534607,-0.236928463,0.211358026,0.914106369
31.202653,0.251968384,2.047355652,-1.407981873,-0.237538815,0.210747674,0.916669846
31.203278,-0.190536499,2.032096863,-1.530052185,-0.240224361,0.212090448,0.913251877
31.203905,-0.518600464,1.749809265,-1.415611267,-0.240224361,0.211968377,0.913129807
31.204530,-1.075546265,1.681144714,-1.476646423,-0.237782955,0.207940057,0.909711838
31.205156,-1.373092651,1.520927429,-1.293540955,-0.238027096,0.206841424,0.907514572
31.205782,-1.685897827,1.620109558,-1.232505798,-0.235341549,0.202324823,0.905805588
31.206409,-2.006332397,1.604850769,-1.118064880,-0.233876705,0.202324823,0.910688400
31.207035,-2.105514526,1.604850769,-0.988365173,-0.239614010,0.202324823,0.906293869
31.207660,-2.433578491,1.368339539,-1.095176697,-0.237782955,0.199028924,0.904706955
31.208286,-2.647201538,1.215751648,-1.209617615,-0.235585690,0.200615838,0.902875900
31.208911,-2.715866089,1.223381042,-0.904441833,-0.234975338,0.198784783,0.900678635
31.209538,-2.944747925,1.192863464,-1.072288513,-0.230458736,0.200859979,0.906293869
31.210165,-3.013412476,0.971611023,-0.896812439,-0.234120846,0.197442010,0.902265549
31.210790,-3.097335815,0.979240417,-0.744224548,-0.234853268,0.198418573,0.902631760
31.211415,-3.211776733,0.819023132,-0.835777283,-0.237294674,0.194634393,0.899824142
31.225765,-3.059188843,-2.087776184,-0.233055115,-0.234609127,0.216484979,0.908735275
31.226457,-2.860824585,-1.996223450,-0.385643005,-0.233144283,0.218316033,0.907148361
31.227082,-3.036300659,-1.973335266,-0.385643005,-0.232045650,0.219048455,0.902753830
31.227707,-2.944747925,-2.202217102,-0.378013611,-0.234487057,0.222344354,0.895917892
31.228332,-3.204147339,-2.309028625,-0.500083923,-0.232533932,0.222588494,0.895429611
31.228957,-3.257553101,-2.469245911,-0.515342712,-0.234609127,0.222466424,0.894086838
31.229583,-3.433029175,-2.614204407,-0.210166931,-0.236196041,0.226494744,0.892255783
31.230210,-3.837387085,-2.499763489,-0.286460876,-0.234487057,0.226983026,0.886152267
31.230836,-3.906051636,-3.026191711,-0.278831482,-0.237416744,0.227959588,0.885297775
31.231461,-4.028121948,-3.071968079,-0.370384216,-0.238027096,0.231377557,0.885786057
31.232087,-4.318038940,-3.293220520,-0.362754822,-0.235341549,0.231377557,0.889692307
31.232712,-4.340927124,-3.483955383,-0.141502380,-0.235097408,0.229424432,0.891401291
31.233337,-4.302780151,-3.583137512,-0.355125427,-0.230214596,0.233818963,0.895063400
31.233963,-4.752914429,-3.621284485,-0.515342712,-0.230824947,0.231865838,0.897748947
31.234589,-4.882614136,-3.873054504,-0.210166931,-0.228505611,0.233818963,0.897871017
31.235215,-5.042831421,-3.941719055,-0.103355408,-0.225820065,0.234307244,0.901533127
31.235840,-5.286972046,-4.002754211,-0.316978455,-0.225942135,0.237725213,0.902387619
31.236467,-5.561630249,-4.185859680,0.064491272,-0.225575924,0.240288690,0.906660080
31.237092,-5.668441772,-4.368965149,-0.225425720,-0.227773190,0.239434198,0.909833908
31.237718,-5.721847534,-4.262153625,-0.141502380,-0.226796627,0.243462518,0.907392502
31.238344,-5.767623901,-4.376594543,-0.194908142,-0.225087643,0.242608026,0.909101486
31.238969,-5.882064819,-4.483406067,-0.126243591,-0.223989010,0.242363885,0.914228439
31.239596,-6.065170288,-4.544441223,-0.042320251,-0.223866940,0.243584588,0.916913986
31.240222,-6.431381226,-4.895393372,-0.294090271,-0.224233150,0.246270135,0.917402267
31.240849,-6.240646362,-4.872505188,-0.042320251,-0.224721432,0.247734979,0.931196213
31.241475,-6.271163940,-4.895393372,0.064491272,-0.225087643,0.246392205,0.932783127
31.242101,-6.324569702,-4.613105774,-0.164390564,-0.222157955,0.250420541,0.937177658
31.242726,-6.408493042,-4.826728821,-0.301719666,-0.223012447,0.251763314,0.942304611
31.243352,-6.011764526,-4.643623352,-0.316978455,-0.223378658,0.253838509,0.943525314
31.243978,-6.110946655,-4.712287903,-0.202537537,-0.221303463,0.257500619,0.949506760
31.245765,-5.752365112,-4.750434875,-0.301719666,-0.223256588,0.258599252,0.957197189
31.246392,-5.569259644,-4.544441223,-0.263572693,-0.223744869,0.258965462,0.956464767
31.247017,-5.126754761,-4.475776672,-0.675559998,-0.223866940,0.262139291,0.958662033
31.247643,-4.997055054,-4.513923645,-0.622154236,-0.225697994,0.260918587,0.960004807
31.248269,-4.760543823,-4.712287903,-0.667930603,-0.222890377,0.262749642,0.958539963
31.248895,-4.501144409,-4.422370911,-0.973106384,-0.223012447,0.263115853,0.958173752
31.249520,-4.218856812,-4.368965149,-0.995994568,-0.225697994,0.263237923,0.967084885
31.250145,-3.867904663,-4.552070618,-1.041770935,-0.225697994,0.265313119,0.966352463
31.250770,-3.562728882,-4.430000305,-1.163841248,-0.221425533,0.263726205,0.970380783
31.251395,-3.394882202,-4.254524231,-1.232505798,-0.218617916,0.269707650,0.976118088
31.252026,-2.914230347,-4.216377258,-1.102806091,-0.219106197,0.269951791,0.983686447
31.252652,-2.891342163,-4.109565735,-1.491905212,-0.218617916,0.273735970,0.984785080
31.253277,-2.540390015,-4.162971497,-1.530052185,-0.217763424,0.275078744,0.991498947
31.253902,-2.578536987,-3.789131165,-1.537681580,-0.221303463,0.272393197,0.996992111
31.254528,-2.204696655,-3.766242981,-1.804710388,-0.218984127,0.274346322,0.997358322
31.255154,-2.097885132,-3.377143860,-1.705528259,-0.217275143,0.271904916,1.001508713
31.255780,-1.899520874,-3.461067200,-1.812339783,-0.218373775,0.269951791,1.003583908
31.256407,-1.975814819,-3.148262024,-2.071739197,-0.215810299,0.268609017,1.007734299
31.272346,4.440505981,-1.393501282,-3.055931091,-0.216054440,0.222954705,0.983808517
31.273078,4.501541138,-1.317207336,-3.345848083,-0.218617916,0.223198846,0.985273361
31.273705,4.875381470,-1.134101868,-3.261924744,-0.218007565,0.223442987,0.976850510
31.274331,4.860122681,-1.279060364,-3.322959900,-0.219350338,0.219170526,0.978681564
31.274956,4.997451782,-0.958625793,-3.109336853,-0.222768307,0.219048455,0.981977463
31.275582,5.340774536,-1.012031555,-3.292442322,-0.223256588,0.219292596,0.975751877
31.276207,5.432327271,-1.073066711,-3.445030212,-0.219960690,0.217095330,0.981367111
31.276834,5.310256958,-0.676338196,-3.315330505,-0.220204830,0.218071893,0.988691330
31.277461,5.386550903,-0.745002747,-3.345848083,-0.216786861,0.216973260,1.000776291
31.278086,5.409439087,-0.523750305,-3.368736267,-0.220204830,0.216240838,1.000165939
31.278712,5.592544556,-0.226203918,-3.208518982,-0.219838619,0.215264276,0.989301682
31.279337,5.890090942,-0.065986633,-3.322959900,-0.219838619,0.212578729,0.992109299
31.279963,5.912979126,-0.043098450,-3.452659607,-0.221669674,0.213067010,0.986738205
31.280588,5.790908813,0.315483093,-3.300071716,-0.221303463,0.209893182,0.988203049
31.281215,5.600173950,0.483329773,-3.300071716,-0.226674557,0.213433221,0.985395432
31.281840,5.821426392,0.613029480,-3.292442322,-0.231679440,0.212944940,0.983808517
31.282466,5.478103638,0.468070984,-3.300071716,-0.233632565,0.212700799,0.978315353
31.283092,5.523880005,0.674064636,-3.124595642,-0.230947018,0.205986932,0.970502853
31.283719,5.127151489,0.880058289,-3.269554138,-0.229726315,0.205742791,0.965131760
31.284344,5.150039673,0.902946472,-3.223777771,-0.228993893,0.204644158,0.967206955
31.284969,5.180557251,1.147087097,-3.025413513,-0.231435299,0.203911737,0.963544846
31.285595,4.875381470,1.307304382,-3.132225037,-0.231557369,0.200493768,0.958662033
31.286221,4.402359009,1.101310730,-3.063560486,-0.233144283,0.199517205,0.950361252
31.286847,4.280288696,1.345451355,-3.025413513,-0.233510494,0.196587518,0.951704025
31.287472,4.059036255,1.520927429,-2.972007751,-0.229604244,0.198418573,0.950605392
31.288099,3.700454712,1.673515320,-3.078819275,-0.237538815,0.195244744,0.915693283
31.288724,3.303726196,1.459892273,-2.926231384,-0.230947018,0.195855096,0.922529221
31.289350,3.143508911,1.635368347,-2.704978943,-0.232289791,0.193169549,0.924604416
31.289976,2.655227661,1.589591980,-2.704978943,-0.234609127,0.194756463,0.924604416
31.290601,2.289016724,1.322563171,-2.605796814,-0.234853268,0.192803338,0.921796799
31.292363,1.030166626,1.482780457,-2.445579529,-0.228993893,0.188530877,0.920820236
31.292988,0.854690552,1.688774109,-2.392173767,-0.230214596,0.185112908,0.926191330
31.293615,0.549514771,1.810844421,-2.224327087,-0.226796627,0.184868768,0.929365158
31.294242,0.488479614,1.780326843,-2.170921326,-0.227895260,0.184990838,0.931684494
31.294868,-0.297348022,2.184684753,-2.163291931,-0.224965572,0.191948846,0.931684494
31.295495,-0.533859253,2.123649597,-1.911521912,-0.225331783,0.189629510,0.934858322
31.296122,-0.709335327,2.367790222,-1.949668884,-0.227529049,0.185357049,0.934125900
31.296748,-0.907699585,2.154167175,-1.987815857,-0.230092525,0.187188104,0.934492111
31.297374,-1.350204468,2.489860535,-1.781822205,-0.230458736,0.186089471,0.932783127
31.298000,-1.731674194,2.528007507,-1.751304626,-0.229726315,0.189873651,0.934370041
31.298626,-1.830856323,2.550895691,-1.789451599,-0.228749752,0.191338494,0.935102463
31.299251,-2.357284546,2.810295105,-1.491905212,-0.228749752,0.191216424,0.935468674
31.299876,-2.540390015,2.817924500,-1.507164001,-0.227284908,0.189629510,0.933149338
31.300501,-2.853195190,2.749259949,-1.469017029,-0.230947018,0.193657830,0.932905197
31.301128,-3.074447632,2.688224792,-1.705528259,-0.233144283,0.195977166,0.929609299
31.301753,-3.402511597,3.008659363,-1.430870056,-0.230947018,0.197197869,0.928876877
31.302379,-3.593246460,3.023918152,-1.354576111,-0.230947018,0.199150994,0.924360275
31.303006,-3.913681030,2.741630554,-1.133323669,-0.233144283,0.197930291,0.923627853
31.317221,-4.310409546,0.391777039,-0.973106384,-0.221791744,0.230889276,0.902265549
31.317898,-4.234115601,0.445182800,-0.889183044,-0.222768307,0.230767205,0.902753830
31.318524,-4.257003784,0.223930359,-0.919700623,-0.221791744,0.235405877,0.901777267
31.319150,-3.829757690,0.147636414,-0.919700623,-0.223622799,0.236016229,0.902875900
31.319776,-3.722946167,-0.020210266,-0.988365173,-0.223989010,0.236870721,0.905317307
31.320401,-3.440658569,-0.165168762,-1.079917908,-0.225697994,0.242608026,0.905561447
31.321031,-3.463546753,-0.180427551,-0.927330017,-0.223989010,0.241143182,0.902753830
31.321657,-3.379623413,-0.584785461,-1.110435486,-0.224355221,0.243462518,0.902631760
31.322283,-3.280441284,-0.592414856,-0.881553650,-0.222646236,0.243096307,0.905317307
31.322910,-3.158370972,-0.752632141,-1.072288513,-0.226918697,0.244561151,0.907636642
31.323536,-3.097335815,-0.897590637,-1.209617615,-0.226552486,0.243218377,0.908369064
31.324162,-2.868453979,-1.263801575,-1.270652771,-0.224355221,0.247002557,0.902997971
31.324787,-2.715866089,-1.279060364,-1.102806091,-0.228505611,0.243096307,0.906782150
31.325413,-2.700607300,-1.416389465,-1.263023376,-0.227284908,0.246636346,0.904462814
31.326038,-2.593795776,-1.362983704,-1.110435486,-0.228993893,0.244927362,0.906538010
31.326665,-2.204696655,-1.805488586,-1.263023376,-0.230214596,0.246880487,0.903974533
31.327290,-2.197067261,-1.988594055,-1.545310974,-0.228749752,0.247124627,0.908369064
31.327916,-2.067367554,-2.003852844,-1.476646423,-0.226308346,0.244927362,0.906415939
31.328541,-1.991073608,-2.156440735,-1.324058533,-0.226186275,0.243950799,0.906538010
31.329167,-2.151290894,-2.476875305,-1.530052185,-0.226918697,0.243462518,0.905073166
31.329794,-1.869003296,-2.476875305,-1.346946716,-0.226064205,0.244317010,0.905683517
31.330420,-1.586715698,-2.576057434,-1.575828552,-0.226308346,0.245659783,0.906171799
31.331045,-1.861373901,-2.515022278,-1.530052185,-0.227406979,0.237969354,0.907758713
31.331672,-1.777450562,-2.804939270,-1.499534607,-0.226186275,0.240410760,0.907636642
31.332298,-1.449386597,-2.949897766,-1.736045837,-0.228261471,0.238945916,0.907514572
31.332924,-1.586715698,-3.224555969,-1.369834900,-0.223500729,0.238457635,0.904584885
31.333551,-1.678268433,-3.255073547,-1.537681580,-0.225820065,0.234307244,0.905439377
31.334178,-1.678268433,-3.567878723,-1.736045837,-0.224233150,0.235039666,0.904462814
31.334803,-1.533309937,-3.483955383,-1.636863708,-0.222402096,0.232720330,0.903608322
31.335428,-1.289169312,-3.651802063,-1.713157654,-0.222646236,0.233818963,0.904951096
31.337210,-1.540939331,-3.895942688,-1.552940369,-0.223500729,0.228447869,0.902631760
31.337836,-1.678268433,-3.956977844,-1.407981873,-0.223256588,0.224785760,0.900800705
31.338461,-1.663009644,-4.132453918,-1.438499451,-0.221181393,0.224663690,0.905683517
31.339086,-1.342575073,-4.178230286,-1.438499451,-0.223500729,0.221978143,0.903974533
31.339712,-1.373092651,-4.483406067,-1.499534607,-0.221913815,0.220635369,0.907392502
31.340337,-1.395980835,-4.643623352,-1.499534607,-0.224599361,0.217583612,0.904706955
31.340963,-1.373092651,-4.460517883,-1.652122498,-0.223378658,0.219048455,0.906538010
31.341589,-1.380722046,-4.567329407,-1.377464294,-0.224965572,0.214653924,0.906415939
31.342214,-1.266281128,-4.712287903,-1.324058533,-0.223500729,0.216607049,0.905073166
31.342840,-1.434127808,-4.979316711,-1.278282166,-0.222768307,0.216240838,0.906904221
31.343466,-1.525680542,-5.177680969,-1.438499451,-0.223744869,0.212334588,0.905805588
31.344091,-1.426498413,-5.292121887,-1.331687927,-0.226674557,0.210137323,0.904951096
31.344718,-1.495162964,-5.406562805,-1.339317322,-0.228261471,0.210625604,0.909589767
31.345343,-1.487533569,-5.658332825,-1.171470642,-0.225820065,0.212212518,0.908369064
31.345969,-1.624862671,-5.589668274,-1.133323669,-0.226308346,0.208672479,0.905927658
31.346595,-1.609603882,-5.688850403,-1.354576111,-0.226796627,0.206841424,0.908369064
31.347220,-1.769821167,-5.994026184,-1.110435486,-0.226552486,0.208306268,0.905683517
31.347845,-1.952926636,-5.932991028,-1.186729431,-0.225453854,0.207817987,0.907148361
31.361721,-4.821578979,-7.878486633,-0.278831482,-0.222280025,0.213189080,0.932661057
31.362432,-5.523483276,-7.756416321,-0.194908142,-0.221913815,0.213433221,0.933149338
31.363059,-5.637924194,-7.764045715,0.003456116,-0.221913815,0.211846307,0.934247971
31.363684,-5.882064819,-7.718269348,0.163673401,-0.224233150,0.213921502,0.936323166
31.364310,-6.210128784,-7.695381165,0.064491272,-0.223500729,0.214775994,0.938520432
31.364937,-6.530563354,-7.474128723,0.033973694,-0.225087643,0.214409783,0.938642502
31.365563,-6.759445190,-7.489387512,0.194190979,-0.223989010,0.218438104,0.940351486
31.366190,-7.026473999,-7.168952942,0.201820374,-0.220571041,0.217217401,0.941083908
31.366815,-6.988327026,-7.229988098,0.285743713,-0.225942135,0.217095330,0.941572189
31.367441,-7.430831909,-7.077400208,0.316261292,-0.224111080,0.217461541,0.944868088
31.368067,-7.621566772,-7.046882629,0.346778870,-0.224477291,0.221489862,0.946699142
31.368693,-7.598678589,-6.810371399,0.255226135,-0.224965572,0.221734002,0.949384689
31.369318,-7.903854370,-6.993476868,0.316261292,-0.223134518,0.223198846,0.947309494
31.369944,-7.949630737,-6.749336243,0.545143127,-0.224233150,0.224785760,0.946699142
31.370569,-8.018295288,-6.535713196,0.064491272,-0.227040768,0.224907830,0.950239182
31.371195,-8.216659546,-6.383125305,0.232337952,-0.225087643,0.224785760,0.952070236
31.371821,-8.460800171,-6.360237122,0.323890686,-0.227773190,0.227349237,0.954999924
31.372447,-8.361618042,-6.238166809,0.308631897,-0.230336666,0.227837518,0.953535080
31.373073,-8.514205933,-6.138984680,0.194190979,-0.223378658,0.230400994,0.956342697
31.373698,-8.445541382,-5.871955872,0.308631897,-0.222768307,0.231377557,0.957441330
31.374323,-8.323471069,-5.742256165,0.316261292,-0.226064205,0.229790643,0.958295822
31.374948,-8.262435913,-5.711738586,0.140785217,-0.225820065,0.228569940,0.963056564
31.375575,-8.231918335,-5.513374329,-0.034690857,-0.223256588,0.229668573,0.960126877
31.376201,-8.170883179,-5.345527649,0.095008850,-0.226430416,0.231865838,0.959272385
31.376827,-8.262435913,-5.093757629,-0.133872986,-0.225087643,0.233208612,0.963666916
31.377453,-7.911483765,-5.009834290,0.148414612,-0.225453854,0.231743768,0.960493088
31.378078,-7.957260132,-4.834358215,-0.080467224,-0.224233150,0.231865838,0.963911057
31.378704,-7.980148315,-4.750434875,-0.103355408,-0.225453854,0.235161737,0.963911057
31.379330,-7.942001343,-4.628364563,-0.301719666,-0.225942135,0.233574823,0.963788986
31.379955,-8.003036499,-4.658882141,-0.118614197,-0.224355221,0.234551385,0.962080002
31.381711,-7.705490112,-4.185859680,-0.431419373,-0.223622799,0.232476190,0.966840744
31.382336,-7.797042847,-3.979866028,-0.324607849,-0.222280025,0.229912713,0.970380783
31.382962,-7.613937378,-3.697578430,-0.637413025,-0.221059322,0.232476190,0.968549728
31.383587,-7.644454956,-3.712837219,-0.362754822,-0.221059322,0.228692010,0.969892502
31.384214,-7.850448608,-3.659431458,-0.309349060,-0.220571041,0.225640252,0.966962814
31.384839,-7.621566772,-3.499214172,-0.355125427,-0.220571041,0.227105096,0.967939377
31.385466,-7.705490112,-3.346626282,-0.301719666,-0.221425533,0.226250604,0.970014572
31.386091,-7.621566772,-3.270332336,-0.492454529,-0.220693111,0.222100213,0.971967697
31.386718,-7.407943726,-3.171150208,-0.347496033,-0.221791744,0.223809198,0.968305588
31.387345,-7.583419800,-2.698127747,-0.324607849,-0.221303463,0.222832635,0.970014572
31.387971,-7.560531616,-2.919380188,-0.782371521,-0.223134518,0.222222283,0.969892502
31.388596,-7.621566772,-2.904121399,-0.385643005,-0.220815182,0.218926385,0.967329025
31.389222,-7.446090698,-2.629463196,-0.568748474,-0.222280025,0.216973260,0.966596603
31.389848,-7.186691284,-2.652351379,-0.584007263,-0.221303463,0.219170526,0.966718674
31.390474,-7.262985229,-2.705757141,-0.400901794,-0.226918697,0.218560174,0.967329025
31.391099,-7.240097046,-2.331916809,-0.545860291,-0.222768307,0.216851190,0.963178635
31.391724,-7.224838257,-2.347175598,-0.576377869,-0.220937252,0.213555291,0.961225510
31.392351,-7.118026733,-2.476875305,-0.423789978,-0.224843502,0.215630487,0.959272385
31.406159,-4.768173218,-3.216926575,-0.584007263,-0.229360104,0.217827752,0.928754807
31.406829,-4.508773804,-3.293220520,-0.507713318,-0.226552486,0.216240838,0.930219650
31.407455,-4.531661987,-3.346626282,-0.637413025,-0.227529049,0.214287713,0.927534103
31.408081,-4.020492554,-3.323738098,-0.774742126,-0.229115963,0.212944940,0.931684494
31.408708,-3.936569214,-3.773872375,-0.561119080,-0.225331783,0.210869744,0.932050705
31.409333,-3.646652222,-3.689949036,-0.667930603,-0.225453854,0.211724237,0.928754807
31.409959,-3.204147339,-3.621284485,-0.683189392,-0.226552486,0.214898065,0.920454025
31.410584,-3.257553101,-3.827278137,-0.797630310,-0.227773190,0.215508416,0.920209885
31.411210,-3.288070679,-3.697578430,-0.706077576,-0.225820065,0.220757440,0.917036057
31.411836,-3.013412476,-4.155342102,-0.683189392,-0.228993893,0.222954705,0.913007736
31.412461,-2.815048218,-4.124824524,-0.713706970,-0.230092525,0.223565057,0.909345627
31.413086,-2.700607300,-4.147712708,-0.614524841,-0.226186275,0.224907830,0.908124924
31.413713,-2.837936401,-4.529182434,-0.645042419,-0.230336666,0.221245721,0.906904221
31.414339,-2.586166382,-4.727546692,-0.835777283,-0.233388424,0.222344354,0.899580002
31.414964,-2.486984253,-4.826728821,-0.797630310,-0.229482174,0.223198846,0.893842697
31.415590,-2.448837280,-5.223457336,-0.721336365,-0.230214596,0.226250604,0.888471603
31.416216,-2.456466675,-5.116645813,-0.797630310,-0.228383541,0.229058221,0.894819260
31.416842,-2.448837280,-5.566780090,-0.797630310,-0.230702877,0.229180291,0.895795822
31.417469,-2.357284546,-5.719367981,-0.736595154,-0.227529049,0.228814080,0.897260666
31.418094,-2.090255737,-5.711738586,-0.812889099,-0.225942135,0.231743768,0.902143478
31.418721,-2.204696655,-5.986396790,-0.759483337,-0.231679440,0.230767205,0.896284103
31.419347,-2.403060913,-6.146614075,-0.744224548,-0.233998775,0.226372674,0.886030197
31.419974,-2.334396362,-6.238166809,-0.820518494,-0.234609127,0.231499627,0.891645432
31.420600,-2.258102417,-6.528083801,-0.713706970,-0.232656002,0.234063104,0.888593674
31.421227,-2.509872437,-6.566230774,-0.767112732,-0.230947018,0.237236932,0.884687424
31.421853,-2.380172729,-6.734077454,-0.851036072,-0.234731197,0.242608026,0.881757736
31.430424,-3.974716187,-8.389656067,-0.759483337,-0.221669674,0.232598260,0.899946213
31.431051,-3.959457397,-8.191291809,-0.782371521,-0.221669674,0.226983026,0.899946213
31.431677,-4.005233765,-8.458320618,-0.797630310,-0.223500729,0.226983026,0.909467697
31.432304,-4.020492554,-8.473579407,-0.820518494,-0.228261471,0.225396112,0.914716721
31.432929,-3.951828003,-8.443061829,-0.721336365,-0.228871822,0.227105096,0.926191330
31.433555,-3.677169800,-8.336250305,-0.683189392,-0.228261471,0.226860955,0.935834885
31.434180,-3.707687378,-8.588020325,-0.728965759,-0.235707760,0.226616815,0.919965744
31.434805,-3.730575562,-8.687202454,-0.812889099,-0.229115963,0.230156854,0.933881760
31.435430,-3.631393433,-8.298103333,-0.721336365,-0.228505611,0.235283807,0.929975510
31.436055,-3.616134644,-8.443061829,-0.706077576,-0.233022213,0.243096307,0.928022385
31.436682,-3.799240112,-8.229438782,-0.759483337,-0.232289791,0.246270135,0.913862228
31.437307,-3.814498901,-8.389656067,-0.995994568,-0.234242916,0.249321893,0.898359299
31.437933,-4.066268921,-8.412544250,-0.950218201,-0.236196041,0.252129525,0.895185471
31.438560,-4.081527710,-8.732978821,-1.102806091,-0.234120846,0.251397103,0.887250900
31.439186,-4.257003784,-8.732978821,-1.186729431,-0.238881588,0.245781854,0.876752853
31.439812,-4.401962280,-9.358589172,-1.034141541,-0.233022213,0.242608026,0.876508713
31.440438,-4.508773804,-9.411994934,-1.186729431,-0.232167721,0.236626580,0.877363205
31.441064,-4.165451050,-9.762947083,-1.301170349,-0.228627682,0.231011346,0.885663986
31.441691,-4.333297729,-10.045234680,-1.140953064,-0.225087643,0.228447869,0.887006760
31.442316,-4.440109253,-10.136787415,-1.186729431,-0.225331783,0.225396112,0.883222580
31.442942,-4.165451050,-10.342781067,-1.354576111,-0.221913815,0.222100213,0.893842697
31.456885,-2.868453979,-10.953132629,-1.369834900,-0.219228268,0.232354119,0.920576096
31.457616,-3.043930054,-11.090461731,-1.354576111,-0.219472408,0.233452752,0.926435471
31.458241,-2.914230347,-10.861579895,-1.598716736,-0.221181393,0.236016229,0.928876877
31.458867,-3.043930054,-10.739509583,-1.522422791,-0.222646236,0.233208612,0.929487228
31.459492,-3.150741577,-10.670845032,-1.400352478,-0.219960690,0.236504510,0.935224533
31.460119,-3.310958862,-10.411445618,-1.522422791,-0.219716549,0.234429315,0.940595627
31.460746,-3.455917358,-10.472480774,-1.415611267,-0.219228268,0.233696893,0.938520432
31.461373,-3.356735229,-10.441963196,-1.522422791,-0.222768307,0.232354119,0.942060471
31.461998,-3.616134644,-9.984199524,-1.407981873,-0.217153072,0.233452752,0.949018478
31.462624,-3.745834351,-10.052864075,-1.339317322,-0.221425533,0.233574823,0.946821213
31.463250,-3.303329468,-10.998908997,-1.438499451,-0.275014400,0.198418573,1.188154221
31.463877,-2.181808472,-8.732978821,-1.827598572,-0.185536861,0.184502557,1.243818283
31.464502,-1.632492065,-7.336799622,-2.392173767,-0.172109127,0.172783807,1.339155197
31.465127,0.595291138,-6.322090149,-1.881004333,-0.142201900,0.149956658,1.423994064
31.465752,2.762039185,-3.644172668,-1.659751892,-0.139272213,0.162041619,1.481000900
31.466379,4.059036255,-1.370613098,-2.178550720,-0.166493893,0.201836541,1.462080002
31.467006,4.821975708,0.620658875,-2.552391052,-0.169423580,0.213189080,1.425580978
31.467633,4.570205688,3.687675476,-2.437950134,-0.181752682,0.256768197,1.088422775
31.468258,4.577835083,2.100761414,-2.849937439,-0.281606197,0.272271127,0.883466721
31.468884,4.776199341,1.742179871,-2.537132263,-0.222035885,0.257012337,0.925580978
31.469509,3.692825317,1.124198914,-2.369285583,-0.253530025,0.318779916,0.922895432
31.470135,1.495559692,0.269706726,-3.246665955,-0.266591549,0.331597298,0.896284103
31.470761,-1.411239624,-0.630561829,-3.681541443,-0.275136471,0.304253548,0.757978439
31.471387,-3.158370972,-2.515022278,-3.223777771,-0.240712643,0.267632455,0.748945236
31.472014,-4.417221069,-3.842536926,-2.621055603,-0.220204830,0.223809198,0.724653244
31.472639,-4.783432007,-4.643623352,-2.842308044,-0.200307369,0.215264276,0.760297775
31.473265,-5.454818726,-4.719917297,-2.224327087,-0.181752682,0.212578729,0.792768478
31.473891,-6.515304565,-5.139533997,-1.552940369,-0.189931393,0.226860955,0.785810471
31.474518,-7.446090698,-5.414192200,-1.354576111,-0.203114986,0.234551385,0.770307541
31.475145,-7.980148315,-6.390754700,-1.011253357,-0.197865963,0.223320916,0.771528244
31.476899,-8.559982300,-7.886116028,-0.866294861,-0.195546627,0.231255487,0.775556564
31.477524,-8.575241089,-8.427803040,-0.873924255,-0.198964596,0.231011346,0.767744064
31.478151,-8.682052612,-9.213630676,-1.034141541,-0.195058346,0.232842401,0.765058517
31.478776,-8.888046265,-9.656135559,-0.988365173,-0.197499752,0.237236932,0.775190353
31.479402,-8.994857788,-10.167304993,-1.163841248,-0.188710690,0.224175408,0.800947189
31.480029,-9.139816284,-10.297004700,-1.270652771,-0.192494869,0.210747674,0.824018478
31.480654,-8.910934448,-10.571662903,-0.919700623,-0.197865963,0.198296502,0.828657150
31.481281,-9.048263550,-10.518257141,-1.186729431,-0.204701900,0.201348260,0.820356369
31.481907,-8.804122925,-10.876838684,-1.102806091,-0.209950924,0.195733026,0.822065353
31.482532,-8.827011108,-11.265937805,-1.270652771,-0.210805416,0.187432244,0.839155197
31.483158,-8.750717163,-11.243049622,-0.866294861,-0.211171627,0.172173455,0.852338791
31.483785,-8.811752319,-11.365119934,-0.934959412,-0.219350338,0.169609979,0.854413986
31.484412,-8.277694702,-11.204902649,-0.675559998,-0.227529049,0.172295526,0.846601486
31.485039,-8.460800171,-11.380378723,-0.843406677,-0.227895260,0.181206658,0.849287033
31.485666,-8.369247437,-11.624519348,-0.690818787,-0.225820065,0.170098260,0.862104416
31.486293,-8.056442261,-11.296455383,-0.454307556,-0.228871822,0.156670526,0.866498947
31.486919,-7.591049194,-11.189643860,-0.461936951,-0.234364986,0.146538690,0.871137619
31.487546,-6.683151245,-11.120979309,-0.797630310,-0.235707760,0.149834588,0.867475510
31.501371,8.964736938,-9.457771301,-1.255393982,-0.203481197,0.167168573,0.866865158
31.502066,9.155471802,-9.488288879,-1.278282166,-0.207997799,0.155083612,0.858442307
31.502692,9.269912720,-9.885017395,-1.354576111,-0.205678463,0.148980096,0.852949142
31.503319,9.567459106,-10.388557434,-1.339317322,-0.203114986,0.152153924,0.856611252
31.503945,9.689529419,-10.701362610,-1.217247009,-0.198110104,0.152520135,0.860639572
31.504570,9.643753052,-10.831062317,-1.110435486,-0.195912838,0.154839471,0.865400314
31.505196,9.704788208,-11.189643860,-1.133323669,-0.197499752,0.144463494,0.871015549
31.505821,9.781082153,-11.510078430,-1.064659119,-0.203847408,0.136773065,0.890424728
31.506446,10.383804321,-11.571113586,-0.950218201,-0.166982174,0.143853143,0.932172775
31.507071,10.040481567,-11.609260559,-0.843406677,-0.222768307,0.144585565,0.848920822
31.507697,10.078628540,-11.761848450,-0.927330017,-0.201039791,0.157280877,0.880781174
31.508323,10.093887329,-11.563484192,-0.400901794,-0.184682369,0.149102166,0.867597580
31.508948,9.933670044,-11.937324524,-0.416160583,-0.199452877,0.167534783,0.898359299
31.509573,9.704788208,-12.021247864,-0.538230896,-0.196156979,0.173394158,0.891645432
31.510200,9.185989380,-12.196723938,-0.393272400,-0.201283932,0.184014276,0.883222580
31.510826,8.094985962,-12.540046692,-0.362754822,-0.201894283,0.183892205,0.885541916
31.511451,7.568557739,-12.776557922,-0.126243591,-0.200917721,0.180108026,0.884077072
31.512077,6.973464966,-13.096992493,-0.149131775,-0.199574947,0.179253533,0.894453049
31.512704,6.309707642,-13.051216125,0.033973694,-0.193105221,0.173760369,0.897016525
31.513330,5.409439087,-13.112251282,0.217079163,-0.198110104,0.182549432,0.898725510
31.513956,4.677017212,-13.173286438,0.453590393,-0.194447994,0.178399041,0.904218674
31.514582,3.952224731,-13.302986145,0.575660706,-0.196034908,0.175225213,0.909955978
31.515207,3.212173462,-13.089363098,0.804542542,-0.197988033,0.171563104,0.907026291
31.515834,2.807815552,-13.287727356,0.888465881,-0.198842525,0.170952752,0.906293869
31.516461,2.136428833,-13.318244934,0.964759827,-0.196889400,0.174859002,0.905561447
31.517088,1.716812134,-13.364021301,0.880836487,-0.194936275,0.177910760,0.909223557
31.517714,1.068313599,-13.249580383,1.186012268,-0.197011471,0.184380487,0.914106369
31.518340,0.740249634,-13.508979797,1.285194397,-0.195668697,0.179619744,0.918989182
31.518967,0.160415649,-13.394538879,1.407264709,-0.193959713,0.178643182,0.921308517
31.519593,-0.175277710,-13.272468567,1.491188049,-0.192739010,0.183525994,0.921918869
31.521357,-1.487533569,-13.150398254,1.605628967,-0.192861080,0.185479119,0.931074142
31.521983,-1.792709351,-12.990180969,1.758216858,-0.193227291,0.183159783,0.936445236
31.522608,-2.189437866,-12.990180969,1.803993225,-0.194814205,0.179863885,0.932172775
31.523233,-2.219955444,-13.028327942,1.979469299,-0.192983150,0.182427362,0.930219650
31.523859,-2.738754272,-12.944404602,1.964210510,-0.194570065,0.185112908,0.931074142
31.524485,-2.723495483,-12.875740051,1.910804749,-0.195302486,0.187920526,0.929731369
31.525111,-2.799789429,-12.723152161,1.903175354,-0.192372799,0.188530877,0.933149338
31.525736,-2.692977905,-12.753669739,2.322792053,-0.191884518,0.188042596,0.930585861
31.526363,-2.853195190,-12.715522766,1.941322327,-0.194570065,0.189019158,0.927045822
31.526989,-2.731124878,-12.692634583,1.880287170,-0.194814205,0.192681268,0.927656174
31.527614,-2.868453979,-12.639228821,1.956581116,-0.193105221,0.194634393,0.926801682
31.528240,-2.639572144,-12.662117004,1.849769592,-0.193715572,0.193779901,0.932050705
31.528865,-2.685348511,-12.440864563,2.193092346,-0.192983150,0.192192987,0.934125900
31.529492,-2.479354858,-12.425605774,2.017616272,-0.189931393,0.191704705,0.932416916
31.530119,-2.265731812,-12.501899719,1.926063538,-0.188710690,0.194878533,0.934003830
31.530745,-2.120773315,-12.448493958,1.918434143,-0.188466549,0.198052362,0.938276291
31.531370,-1.701156616,-12.318794250,1.926063538,-0.191396236,0.196709588,0.942914963
31.545251,2.243240356,-10.434333801,1.254676819,-0.178822994,0.249077752,0.981489182
31.545971,2.044876099,-10.045234680,1.208900452,-0.179433346,0.251397103,0.981611252
31.546597,1.915176392,-9.961311340,0.941871643,-0.176137447,0.252373666,0.980756760
31.547224,1.663406372,-10.014717102,0.949501038,-0.176625729,0.255547494,0.980146408
31.547849,1.281936646,-9.686653137,1.033424377,-0.175160885,0.253106087,0.980268478
31.548476,0.839431763,-9.549324036,0.835060120,-0.174916744,0.254448861,0.984785080
31.549102,0.587661743,-9.427253723,1.025794983,-0.177358150,0.255425423,0.986616135
31.549727,0.236709595,-9.312812805,0.987648010,-0.176991940,0.257134408,0.986860275
31.550352,-0.259201050,-9.190742493,0.941871643,-0.178700924,0.255791634,0.992109299
31.550977,-0.366012573,-9.167854309,0.941871643,-0.179311275,0.256524056,0.992231369
31.551602,-0.732223511,-8.794013977,0.911354065,-0.178578854,0.256035775,0.994184494
31.552227,-1.083175659,-8.824531555,0.934242249,-0.176869869,0.257134408,0.993574142
31.552854,-1.670639038,-8.366767883,0.888465881,-0.176991940,0.257988900,0.994062424
31.553480,-1.891891479,-8.328620911,0.918983459,-0.183949947,0.255059212,0.994428635
31.554107,-2.204696655,-7.886116028,0.857948303,-0.183705807,0.256035775,0.994672775
31.554734,-2.609054565,-7.878486633,0.827430725,-0.183949947,0.257134408,0.994428635
31.555360,-2.715866089,-7.786933899,0.850318909,-0.183217525,0.252373666,0.987958908
31.555987,-3.463546753,-7.901374817,0.682472229,-0.183095455,0.252617806,0.986371994
31.556614,-3.585617065,-7.237617493,0.980018616,-0.185048580,0.251519173,0.985761642
31.557239,-3.875534058,-7.519905090,1.056312561,-0.185781002,0.252739877,0.983198166
31.557865,-4.096786499,-7.214729309,0.781654358,-0.183095455,0.250908822,0.984174728
31.558490,-4.310409546,-7.016365051,0.941871643,-0.185536861,0.249077752,0.981000900
31.559116,-4.363815308,-6.818000793,0.957130432,-0.182363033,0.249932244,0.981611252
31.559743,-4.653732300,-6.627265930,0.712989807,-0.183095455,0.246880487,0.982343674
31.560368,-4.974166870,-6.573860168,0.819801331,-0.181508541,0.247124627,0.987104416
31.560993,-4.775802612,-6.398384094,0.835060120,-0.181020260,0.247979119,0.986616135
31.561619,-5.019943237,-6.467048645,0.720619202,-0.179067135,0.247857049,0.984540939
31.562246,-5.317489624,-6.024543762,0.789283752,-0.182607174,0.246392205,0.986738205
31.562872,-5.180160522,-6.268684387,0.728248596,-0.180043697,0.246025994,0.982099533
31.563498,-5.286972046,-5.940620422,0.651954651,-0.180043697,0.245171502,0.977827072
31.565237,-5.370895386,-5.734626770,0.468849182,-0.180165768,0.238213494,0.970258713
31.565863,-5.355636597,-5.498115540,0.545143127,-0.178578854,0.236260369,0.966230392
31.566490,-5.401412964,-5.505744934,0.545143127,-0.178456783,0.232964471,0.960371017
31.567115,-5.187789917,-5.307380676,0.461219788,-0.178578854,0.233574823,0.958295822
31.567741,-5.149642944,-5.528633118,0.285743713,-0.178212643,0.231133416,0.956708908
31.568367,-4.951278687,-5.307380676,0.362037659,-0.180776119,0.228325799,0.952558517
31.568993,-4.707138062,-5.284492493,0.339149475,-0.179677486,0.229790643,0.949262619
31.569618,-4.386703491,-5.215827942,0.125526428,-0.183217525,0.230889276,0.945722580
31.570245,-4.363815308,-5.315010071,0.354408264,-0.182485104,0.233330682,0.945600510
31.570870,-4.264633179,-5.421821594,0.308631897,-0.182851315,0.228203729,0.940107346
31.571496,-3.989974976,-5.513374329,0.415443420,-0.184560299,0.230034783,0.942426682
31.572123,-3.845016479,-5.726997375,0.293373108,-0.182851315,0.234917596,0.934125900
31.572749,-3.577987671,-5.849067688,0.018714905,-0.185658932,0.234185174,0.931928635
31.573375,-3.616134644,-5.879585266,0.140785217,-0.182607174,0.227105096,0.928022385
31.574001,-3.112594604,-6.116096497,0.156044006,-0.187856197,0.228936151,0.923627853
31.574626,-3.013412476,-6.055061340,0.033973694,-0.183949947,0.224419549,0.916669846
31.575252,-2.433578491,-6.474678040,-0.088096619,-0.182851315,0.223198846,0.913373947
31.575878,-2.097885132,-6.642524719,-0.080467224,-0.182851315,0.214531854,0.913373947
31.576503,-1.846115112,-6.787483215,-0.110984802,-0.185170650,0.216240838,0.911054611
31.590353,10.093887329,-10.968391418,-1.171470642,-0.178578854,0.206109002,0.933393478
31.591055,10.399063110,-10.869209290,-1.301170349,-0.179067135,0.206353143,0.937665939
31.591681,10.856826782,-11.227790833,-1.369834900,-0.175649166,0.207085565,0.940351486
31.592307,10.856826782,-11.105720520,-1.392723083,-0.178822994,0.203179315,0.937788010
31.592934,11.230667114,-11.120979309,-1.362205505,-0.179189205,0.206353143,0.939496994
31.593559,11.451919556,-11.143867493,-1.407981873,-0.181142330,0.205010369,0.938764572
31.594185,11.970718384,-11.265937805,-1.652122498,-0.182973385,0.205010369,0.940107346
31.594811,11.993606567,-10.945503235,-1.537681580,-0.181142330,0.200493768,0.937543869
31.595437,12.344558716,-11.212532043,-1.545310974,-0.184682369,0.202691033,0.937665939
31.596062,12.550552368,-11.403266907,-1.476646423,-0.186513424,0.199761346,0.935346603
31.596689,12.901504517,-11.227790833,-1.552940369,-0.187001705,0.200615838,0.936201096
31.597315,12.848098755,-11.296455383,-1.613975525,-0.191518307,0.199150994,0.932905197
31.597940,13.099868774,-11.143867493,-1.461387634,-0.190419674,0.200371698,0.929853439
31.598565,13.237197876,-11.204902649,-1.575828552,-0.191030025,0.200737908,0.928510666
31.599191,13.267715454,-11.227790833,-1.552940369,-0.190907955,0.200249627,0.929731369
31.599816,13.099868774,-11.532966614,-1.316429138,-0.189198971,0.202202752,0.927045822
31.600443,13.511856079,-11.349861145,-1.659751892,-0.192250729,0.199395135,0.930341721
31.601068,13.305862427,-11.456672668,-1.537681580,-0.192128658,0.198662713,0.931074142
31.601695,13.221939087,-11.365119934,-1.346946716,-0.194447994,0.202446893,0.929365158
31.602321,13.267715454,-11.563484192,-1.613975525,-0.189321041,0.199028924,0.929121017
31.602946,13.115127563,-11.555854797,-1.491905212,-0.189198971,0.193901971,0.928998947
31.603572,13.023574829,-11.464302063,-1.316429138,-0.189809322,0.196709588,0.927900314
31.604197,12.916763306,-11.349861145,-1.247764587,-0.185170650,0.195244744,0.930341721
31.604822,12.893875122,-11.456672668,-1.240135193,-0.186879635,0.193413690,0.928632736
31.605448,12.710769653,-11.670295715,-1.179100037,-0.188588619,0.188408807,0.924238205
31.606075,12.893875122,-11.586372375,-0.942588806,-0.188954830,0.191582635,0.924726486
31.606700,12.649734497,-11.517707825,-1.209617615,-0.191396236,0.189263299,0.927167892
31.607326,12.703140259,-11.799995422,-1.072288513,-0.189809322,0.187798455,0.922163010
31.607951,12.703140259,-11.799995422,-1.072288513,-0.189809322,0.187798455,0.922163010
31.608576,12.336929321,-11.822883606,-0.873924255,-0.189443111,0.185723260,0.919233322
31.610340,12.397964478,-11.983100891,-0.744224548,-0.187612057,0.185967401,0.921918869
31.610966,12.260635376,-11.990730286,-0.683189392,-0.190053463,0.184258416,0.921796799
31.611592,12.214859009,-11.853401184,-0.690818787,-0.189076900,0.182671502,0.922407150
31.612218,12.245376587,-11.815254211,-0.561119080,-0.188100338,0.174981073,0.920576096
31.612843,12.008865356,-12.005989075,-0.721336365,-0.189443111,0.179497674,0.920942307
31.613469,11.963088989,-11.960212708,-0.561119080,-0.189565182,0.174126580,0.916181564
31.614095,11.886795044,-11.853401184,-0.370384216,-0.187001705,0.178276971,0.915815353
31.614720,11.985977173,-11.967842102,-0.225425720,-0.186147213,0.175591424,0.913740158
31.615345,11.993606567,-12.417976379,-0.255943298,-0.187123775,0.174859002,0.915205002
31.615970,11.985977173,-12.173835754,-0.423789978,-0.186025143,0.174248651,0.912275314
31.616597,11.841018677,-12.211982727,-0.164390564,-0.186635494,0.175713494,0.913251877
31.617222,11.741836548,-12.051765442,-0.065208435,-0.185536861,0.176201776,0.908735275
31.617847,11.543472290,-12.295906067,-0.004173279,-0.183461666,0.177300408,0.910200119
31.618473,11.627395630,-12.410346985,0.262855530,-0.185048580,0.175103143,0.909955978
31.619099,11.490066528,-12.311164856,0.232337952,-0.187734127,0.178643182,0.913618088
31.619726,11.146743774,-12.540046692,0.079750061,-0.185170650,0.179253533,0.909345627
31.620352,10.879714966,-12.417976379,0.178932190,-0.183339596,0.181939080,0.910078049
31.635521,-1.975814819,-11.243049622,3.390907288,-0.194203854,0.198418573,0.901777267
31.636245,-2.685348511,-11.433784485,3.230690002,-0.194447994,0.198662713,0.902143478
31.636871,-3.196517944,-11.151496887,3.436683655,-0.194447994,0.199517205,0.897626877
31.637496,-3.677169800,-11.220161438,3.497718811,-0.193715572,0.200982049,0.895795822
31.638122,-4.478256226,-11.380378723,3.734230042,-0.195424557,0.203301385,0.892377853
31.638748,-4.752914429,-11.510078430,3.909706116,-0.192983150,0.198906854,0.889081955
31.639373,-5.363265991,-11.365119934,3.917335510,-0.193715572,0.197808221,0.889692307
31.639998,-5.714218140,-11.487190247,4.031776428,-0.191030025,0.198418573,0.888105392
31.640625,-6.110946655,-11.388008118,4.329322815,-0.196156979,0.200005487,0.888593674
31.641252,-6.713668823,-11.616889954,4.199623108,-0.191518307,0.200737908,0.885297775
31.641877,-6.873886108,-11.548225403,4.390357971,-0.192616940,0.198296502,0.885786057
31.642504,-7.179061890,-11.677925110,4.436134338,-0.191396236,0.198540643,0.885541916
31.643129,-7.354537964,-11.761848450,4.161476135,-0.189931393,0.200249627,0.878339767
31.643756,-7.919113159,-11.677925110,4.413246155,-0.190175533,0.198052362,0.882856369
31.644382,-7.819931030,-11.868659973,4.420875549,-0.191762447,0.199150994,0.876020432
31.645007,-8.033554077,-11.960212708,4.489540100,-0.189443111,0.200005487,0.876264572
31.645633,-8.094589233,-12.044136047,4.680274963,-0.188344479,0.200615838,0.874921799
31.646258,-8.064071655,-12.356941223,4.710792542,-0.188222408,0.201348260,0.874921799
31.646885,-8.193771362,-12.448493958,4.680274963,-0.186147213,0.201592401,0.875410080
31.647512,-8.361618042,-12.341682434,4.665016174,-0.184316158,0.205010369,0.874921799
31.648137,-8.056442261,-12.494270325,4.588722229,-0.183827877,0.205986932,0.877851486
31.648764,-8.102218628,-12.433235168,4.642127991,-0.181874752,0.208062127,0.881147385
31.649390,-7.919113159,-12.723152161,4.634498596,-0.180409908,0.204766229,0.881147385
31.650016,-8.163253784,-12.631599426,4.657386780,-0.180165768,0.208062127,0.883100510
31.650641,-7.713119507,-12.700263977,4.840492249,-0.178212643,0.210381463,0.886396408
31.651267,-7.720748901,-12.822334290,4.550575256,-0.177236080,0.214775994,0.890302658
31.651892,-7.423202515,-13.058845520,4.382728577,-0.175405025,0.213433221,0.892988205
31.652517,-7.514755249,-12.852851868,4.649757385,-0.175893307,0.219048455,0.895185471
31.653142,-7.362167358,-12.860481262,4.680274963,-0.177968502,0.222100213,0.896650314
31.653767,-6.919662476,-13.135139465,4.367469788,-0.176747799,0.219780877,0.898359299
31.655532,-6.141464233,-13.035957336,4.481910706,-0.173940182,0.226494744,0.903364182
31.656158,-5.714218140,-13.135139465,4.214881897,-0.172353268,0.226494744,0.906538010
31.656783,-5.279342651,-13.219062805,4.298805237,-0.175405025,0.226372674,0.908979416
31.657408,-5.050460815,-13.119880676,4.283546448,-0.176625729,0.227227166,0.911054611
31.658033,-4.539291382,-13.264839172,4.184364319,-0.175527096,0.230156854,0.913129807
31.658659,-4.356185913,-13.257209778,4.054664612,-0.174794674,0.230645135,0.918989182
31.659284,-3.593246460,-13.241950989,4.024147034,-0.173451900,0.232720330,0.918989182
31.659910,-3.188888550,-13.310615540,3.749488831,-0.175405025,0.232109979,0.920820236
31.660537,-2.891342163,-13.310615540,3.894447327,-0.172475338,0.232232049,0.921430588
31.661162,-2.349655151,-13.425056458,3.833412170,-0.174306393,0.229668573,0.926923752
31.661787,-1.457015991,-13.318244934,3.589271545,-0.171498775,0.234917596,0.930585861
31.662413,-1.174728394,-13.341133118,3.490089417,-0.171254635,0.236504510,0.935224533
31.663039,-0.579635620,-13.379280090,3.261207581,-0.168935299,0.237847283,0.932661057
31.663664,-0.228683472,-13.608161926,3.322242737,-0.172719479,0.238091424,0.936445236
31.664290,0.389297485,-13.325874329,3.192543030,-0.170522213,0.239434198,0.941205978
31.664915,0.915725708,-13.379280090,3.146766663,-0.169179440,0.237847283,0.942426682
31.665541,1.571853638,-13.600532532,2.849220276,-0.166615963,0.238457635,0.946088791
31.686143,9.086807251,-14.218513489,0.445960999,-0.153676510,0.268120736,1.007612228
31.686860,9.285171509,-14.409248352,0.545143127,-0.155873775,0.265435189,1.008588791
31.687487,9.323318481,-14.424507141,0.392555237,-0.150624752,0.265801400,1.004438400
31.688113,9.369094849,-14.455024719,0.308631897,-0.153310299,0.263115853,1.007001877
31.688738,9.544570923,-14.683906555,0.301002502,-0.152211666,0.263604134,1.007734299
31.689363,9.735305786,-14.821235657,0.392555237,-0.152211666,0.262139291,1.006879807
31.689989,9.781082153,-14.584724426,0.278114319,-0.153798580,0.259697884,1.007001877
31.690614,9.857376099,-15.095893860,0.163673401,-0.152699947,0.260674447,1.005292892
31.691239,10.063369751,-14.722053528,0.087379456,-0.152211666,0.259087533,1.002851486
31.691865,10.193069458,-14.935676575,0.125526428,-0.152333736,0.255791634,1.006269455
31.692490,10.399063110,-15.080635071,-0.034690857,-0.155751705,0.251030892,1.003095627
31.693115,10.879714966,-15.057746887,-0.118614197,-0.156362057,0.248223260,1.002973557
31.693741,11.337478638,-15.172187805,0.072120667,-0.157460690,0.244194940,1.001020432
31.694366,11.505325317,-15.156929016,0.033973694,-0.157704830,0.242119744,0.993818283
31.694991,11.741836548,-15.385810852,-0.126243591,-0.159169674,0.241509393,0.994306564
31.695617,12.062271118,-15.439216614,-0.095726013,-0.160146236,0.240166619,0.991376877
31.696242,12.611587524,-15.530769348,-0.027061462,-0.162221432,0.238945916,0.992475510
31.696868,12.870986938,-15.584175110,-0.149131775,-0.160146236,0.243218377,0.987714767
31.697493,13.237197876,-15.744392395,-0.149131775,-0.163564205,0.242852166,0.989912033
31.698119,13.481338501,-15.828315735,-0.202537537,-0.159535885,0.242485955,0.987592697
31.698744,13.519485474,-15.576545715,-0.263572693,-0.163564205,0.239800408,0.985151291
31.699370,13.763626099,-15.698616028,-0.149131775,-0.166371822,0.242363885,0.983686447
31.699996,13.931472778,-15.835945129,-0.355125427,-0.163075924,0.241997674,0.984174728
31.700621,13.862808228,-16.003791809,-0.416160583,-0.163930416,0.238091424,0.983442307
31.701248,14.053543091,-15.752021790,-0.072837830,-0.161366940,0.242363885,0.983076096
31.701874,13.824661255,-15.668098450,-0.194908142,-0.161977291,0.246880487,0.984907150
31.702499,14.076431274,-15.698616028,-0.057579041,-0.162587643,0.243340448,0.979658127
31.703125,13.694961548,-15.889350891,-0.019432068,-0.164174557,0.247124627,0.979169846
31.703751,13.534744263,-15.744392395,-0.164390564,-0.163686275,0.250054330,0.981489182
31.704376,13.221939087,-15.690986633,-0.179649353,-0.161489010,0.250908822,0.978193283
31.706135,12.474258423,-15.454475403,0.049232483,-0.163075924,0.255059212,0.980024338
31.706760,11.848648071,-15.652839661,0.095008850,-0.166860104,0.253838509,0.979169846
31.707387,11.421401978,-15.393440247,0.186561584,-0.169423580,0.256157845,0.977460861
31.708012,11.116226196,-15.286628723,0.270484924,-0.168202877,0.255303353,0.973066330
31.708638,10.788162231,-15.172187805,0.339149475,-0.167714596,0.255913705,0.979047775
31.709263,10.322769165,-15.217964172,0.224708557,-0.168691158,0.251275033,0.980390549
31.709889,9.918411255,-15.004341125,0.369667053,-0.170522213,0.249077752,0.980878830
31.710516,9.300430298,-15.126411438,0.423072815,-0.168691158,0.250054330,0.984663010
31.711141,8.857925415,-14.851753235,0.537513733,-0.170278072,0.251885384,0.983808517
31.711767,8.453567505,-14.561836243,0.796913147,-0.170644283,0.251275033,0.985151291
31.712394,7.942398071,-14.424507141,0.857948303,-0.165517330,0.250664681,0.987348557
31.713028,7.484634399,-14.661018372,0.720619202,-0.169423580,0.251030892,0.986860275
31.713655,6.988723755,-14.165107727,0.728248596,-0.169789791,0.250786752,0.986738205
31.714281,6.599624634,-14.187995911,0.911354065,-0.171742916,0.249199823,0.987836838
31.714907,6.035049438,-13.898078918,0.903724670,-0.169911861,0.249199823,0.987104416
31.715534,5.745132446,-13.684455872,0.911354065,-0.170522213,0.249810174,0.989667892
31.716160,5.287368774,-13.570014954,0.896095276,-0.172841549,0.249932244,0.990888596
31.716785,4.821975708,-13.402168274,0.972389221,-0.173573971,0.246514276,0.989789963
31.730774,-0.091354370,-8.595649719,1.987098694,-0.166982174,0.238335565,0.992109299
31.731528,-0.457565308,-8.282844543,1.918434143,-0.166615963,0.239800408,0.990888596
31.732153,-0.716964722,-8.267585754,2.307533264,-0.172231197,0.238945916,0.991376877
31.732780,-0.816146851,-8.023445129,1.956581116,-0.166615963,0.239067987,0.989912033
31.733407,-1.167098999,-7.916633606,2.002357483,-0.165761471,0.240166619,0.985639572
31.734032,-1.510421753,-7.733528137,1.880287170,-0.166615963,0.240288690,0.984418869
31.734657,-1.769821167,-7.451240540,2.093910217,-0.165883541,0.241021112,0.982954025
31.735284,-1.968185425,-7.245246887,2.223609924,-0.160756588,0.243218377,0.983198166
31.735910,-2.174179077,-7.039253235,2.071022034,-0.154897213,0.244927362,0.982831955
31.736536,-2.685348511,-6.695930481,2.078651428,-0.149037838,0.247246698,0.986860275
31.737161,-2.799789429,-6.283943176,2.009986877,-0.144887447,0.252495736,0.991254807
31.737786,-2.990524292,-6.009284973,2.048133850,-0.138417721,0.253228158,0.990278244
31.738412,-3.440658569,-5.658332825,1.887916565,-0.142079830,0.249810174,0.994794846
31.739037,-3.883163452,-5.360786438,2.132057190,-0.121205807,0.254326791,0.997846603
31.739663,-4.104415894,-5.055610657,1.956581116,-0.150136471,0.262627572,1.011640549
31.740442,-4.257003784,-4.979316711,1.781105042,-0.147939205,0.261284798,0.992109299
31.741252,-4.737655640,-5.162422180,2.048133850,-0.159902096,0.237603143,0.987592697
31.741878,-4.462997437,-5.574409485,2.063392639,-0.171254635,0.224907830,0.998456955
31.742504,-4.409591675,-5.688850403,1.918434143,-0.152944088,0.224541619,1.013227463
31.743129,-4.379074097,-5.780403137,2.223609924,-0.163564205,0.226738885,1.005903244
31.743790,-4.340927124,-5.612556458,2.132057190,-0.154897213,0.218682244,0.997602463
31.744416,-4.081527710,-5.231086731,2.269386292,-0.160268307,0.216240838,1.000776291
31.745042,-4.096786499,-4.910652161,2.025245667,-0.155263424,0.221001580,1.004682541
31.745667,-3.768722534,-4.719917297,2.132057190,-0.159047604,0.227593377,0.999189377
31.746294,-3.654281616,-4.491035461,2.246498108,-0.172475338,0.234185174,0.996015549
31.746919,-3.478805542,-4.750434875,2.025245667,-0.178212643,0.234795526,0.983930588
31.747545,-3.257553101,-4.864875793,1.826881409,-0.176015377,0.231621698,0.980146408
31.748171,-2.860824585,-5.047981262,1.971839905,-0.173818111,0.226006463,0.986860275
31.748798,-2.631942749,-4.956428528,1.865028381,-0.164540768,0.215752557,0.988813400
31.749423,-2.197067261,-5.093757629,1.803993225,-0.164296627,0.208794549,0.981855392
31.751178,-0.861923218,-5.231086731,1.689552307,-0.163808346,0.203667596,0.968427658
31.751804,-0.488082886,-5.253974915,1.819252014,-0.167348385,0.204400018,0.957807541
31.752429,-0.182907104,-5.780403137,1.865028381,-0.165639400,0.210503533,0.953290939
31.753054,0.129898071,-5.459968567,1.765846252,-0.161855221,0.214653924,0.948896408
31.753680,0.229080200,-5.780403137,1.956581116,-0.161733150,0.219170526,0.944990158
31.754305,0.259597778,-5.940620422,1.720069885,-0.155141354,0.217949823,0.945478439
31.754931,0.549514771,-5.994026184,2.009986877,-0.157460690,0.214775994,0.948530197
31.755558,0.862319946,-6.444160461,1.811622620,-0.154897213,0.215020135,0.949262619
31.756184,1.030166626,-6.467048645,1.636146545,-0.148549557,0.217095330,0.951093674
31.756811,1.129348755,-6.291572571,1.529335022,-0.150868893,0.213677362,0.952680588
31.757436,1.289566040,-6.680671692,1.735328674,-0.153310299,0.208916619,0.947553635
31.758063,1.465042114,-6.818000793,1.880287170,-0.152822018,0.207085565,0.948896408
31.758688,1.785476685,-6.795112610,1.735328674,-0.153432369,0.205498651,0.953779221
31.759315,1.983840942,-6.497566223,1.781105042,-0.151357174,0.209771112,0.955976486
31.759942,2.060134888,-6.848518372,1.613258362,-0.152822018,0.215264276,0.956708908
31.760568,2.311904907,-6.840888977,1.880287170,-0.155385494,0.215142205,0.955854416
31.761195,2.205093384,-6.741706848,1.765846252,-0.156117916,0.216362908,0.956220627
31.761820,2.220352173,-7.115547180,1.865028381,-0.158681393,0.219414666,0.956708908
31.762445,2.395828247,-6.978218079,1.697181702,-0.157582760,0.224297479,0.956586838
31.776230,-0.785629272,-7.115547180,2.460121155,-0.154408932,0.233818963,0.969526291
31.776916,-0.938217163,-7.275764465,2.757667542,-0.159657955,0.235161737,0.970014572
31.777541,-0.961105347,-7.146064758,2.643226624,-0.155629635,0.235405877,0.973188400
31.778166,-1.296798706,-6.871406555,2.803443909,-0.157338619,0.234307244,0.971723557
31.778792,-1.540939331,-7.138435364,2.742408752,-0.158437252,0.240654901,0.969648361
31.779418,-1.701156616,-7.435981750,2.978919983,-0.161366940,0.240288690,0.971723557
31.780045,-1.945297241,-7.130805969,2.673744202,-0.156728268,0.243950799,0.968061447
31.780670,-2.151290894,-6.909553528,2.765296936,-0.154042721,0.238213494,0.972089767
31.781295,-2.586166382,-7.313911438,2.925514221,-0.156362057,0.242730096,0.971601486
31.781920,-2.746383667,-7.085029602,3.009437561,-0.154653072,0.239556268,0.967206955
31.782545,-2.952377319,-7.176582336,2.841590881,-0.160634518,0.236748651,0.967206955
31.783171,-3.303329468,-7.374946594,3.093360901,-0.152822018,0.234917596,0.962080002
31.783796,-3.509323120,-7.313911438,3.329872131,-0.154531002,0.236260369,0.967817307
31.784421,-3.646652222,-7.321540833,3.184913635,-0.153310299,0.238457635,0.961469650
31.785046,-3.814498901,-7.207099915,3.177284241,-0.151113033,0.238701776,0.956586838
31.785673,-3.745834351,-7.283393860,3.375648499,-0.152211666,0.241631463,0.961347580
31.786300,-4.447738647,-7.039253235,3.329872131,-0.147572994,0.242730096,0.960371017
31.786925,-4.325668335,-7.329170227,3.390907288,-0.154164791,0.240776971,0.958784103
31.787550,-4.501144409,-7.214729309,3.299354553,-0.150624752,0.241509393,0.952436447
31.788176,-4.478256226,-7.252876282,3.459571838,-0.150014400,0.237236932,0.955244064
31.788803,-4.913131714,-7.519905090,3.375648499,-0.150136471,0.239800408,0.954389572
31.789430,-4.913131714,-7.527534485,3.520606995,-0.148915768,0.241387323,0.956830978
31.790056,-5.119125366,-7.512275696,3.551124573,-0.150014400,0.235772088,0.954267502
31.790681,-5.164901733,-7.687751770,3.543495178,-0.149648190,0.237847283,0.953657150
31.791307,-5.134384155,-7.733528137,3.398536682,-0.148671627,0.240776971,0.953290939
31.791934,-5.271713257,-7.695381165,3.863929749,-0.149770260,0.242974237,0.948896408
31.792560,-5.386154175,-7.512275696,3.635047913,-0.149037838,0.240044549,0.947919846
31.793187,-5.355636597,-7.596199036,3.589271545,-0.153554440,0.242852166,0.944868088
31.793813,-5.683700562,-7.809822083,3.604530334,-0.154531002,0.248223260,0.940717697
31.794439,-5.813400269,-7.939521790,3.482460022,-0.154531002,0.248833612,0.936689377
31.796218,-5.836288452,-8.176033020,3.520606995,-0.157582760,0.244805291,0.939496994
31.796845,-5.759994507,-8.229438782,3.772377014,-0.158193111,0.245781854,0.942914963
31.797471,-5.714218140,-8.389656067,3.459571838,-0.149892330,0.247490838,0.947797775
31.798098,-6.027023315,-8.229438782,3.566383362,-0.153188229,0.247124627,0.946332932
31.798724,-5.782882690,-7.909004211,3.512977600,-0.154531002,0.248101190,0.947187424
31.799350,-5.653182983,-8.076850891,3.535865784,-0.157826900,0.250054330,0.944623947
31.799977,-5.546371460,-8.191291809,3.390907288,-0.161366940,0.247490838,0.951093674
31.800604,-5.492965698,-8.168403625,3.329872131,-0.160146236,0.248101190,0.950727463
31.801229,-5.523483276,-8.145515442,3.192543030,-0.155507565,0.250786752,0.950971603
31.801854,-5.676071167,-8.176033020,3.444313049,-0.157460690,0.251885384,0.955121994
31.802479,-5.424301147,-7.985298157,3.100990295,-0.156484127,0.252129525,0.955610275
31.803105,-5.447189331,-7.962409973,3.375648499,-0.152211666,0.250420541,0.955366135
31.803730,-5.134384155,-7.771675110,3.398536682,-0.155995846,0.254570931,0.960737228
31.804376,-5.409042358,-7.458869934,3.039955139,-0.154775143,0.257744759,0.961225510
31.805119,-5.126754761,-7.260505676,3.085731506,-0.156606197,0.259942025,0.954389572
31.805755,-5.058090210,-7.161323547,3.184913635,-0.162343502,0.262017220,0.951337814
31.806382,-5.302230835,-7.138435364,3.200172424,-0.157582760,0.264092416,0.950727463
31.807009,-5.248825073,-7.092658997,2.887367249,-0.159780025,0.260308236,0.951704025
31.820908,-5.088607788,-5.582038879,1.628517151,-0.150502682,0.286919564,0.965375900
31.821629,-5.126754761,-5.551521301,1.422523499,-0.147450924,0.289971322,0.965620041
31.822256,-5.050460815,-5.582038879,1.277565002,-0.148305416,0.284722298,0.966596603
31.822883,-4.615585327,-5.665962219,1.369117737,-0.145619869,0.288262337,0.968793869
31.823509,-4.234115601,-5.559150696,1.117347717,-0.145009518,0.287285775,0.969892502
31.824135,-4.089157104,-5.543891907,1.056312561,-0.144521236,0.283745736,0.969282150
31.824762,-3.845016479,-5.597297668,0.911354065,-0.147206783,0.284234017,0.973310471
31.825387,-3.715316772,-5.299751282,0.957130432,-0.146596432,0.286675423,0.975385666
31.826013,-3.341476440,-5.429450989,0.568031311,-0.146962643,0.285332650,0.976362228
31.826639,-3.150741577,-5.261604309,0.674842834,-0.148183346,0.284722298,0.982709885
31.827265,-2.639572144,-5.223457336,0.323890686,-0.146718502,0.287407845,0.986371994
31.827892,-2.586166382,-5.292121887,0.476478577,-0.147817135,0.286065072,0.989545822
31.828518,-2.044479370,-5.208198547,0.072120667,-0.145741940,0.288140267,0.992841721
31.829143,-1.724044800,-5.093757629,0.095008850,-0.144643307,0.289605111,0.996870041
31.829770,-1.281539917,-5.101387024,-0.049949646,-0.145864010,0.288628548,0.998701096
31.830396,-1.151840210,-5.093757629,-0.095726013,-0.146840572,0.289238900,1.003705978
31.831026,-0.777999878,-5.093757629,-0.400901794,-0.149281979,0.288750619,1.006147385
31.831652,-0.610153198,-4.788581848,-0.294090271,-0.146108150,0.291680306,1.006269455
31.832278,-0.198165894,-4.826728821,-0.553489685,-0.152089596,0.290093392,1.008222580
31.832903,-0.037948608,-4.697029114,-0.576377869,-0.148549557,0.290337533,1.009687424
31.833530,0.335891724,-4.582588196,-0.774742126,-0.150746822,0.291680306,1.010786057
31.834156,0.412185669,-4.620735168,-1.057029724,-0.150990963,0.288872689,1.010175705
31.834781,0.511367798,-4.582588196,-1.049400330,-0.151479244,0.288506478,1.010053635
31.835406,0.747879028,-4.552070618,-1.102806091,-0.148305416,0.284356087,1.007368088
31.836031,1.091201782,-4.643623352,-1.140953064,-0.151967525,0.288506478,1.005292892
31.836658,1.167495728,-4.574958801,-1.423240662,-0.149648190,0.288262337,1.001508713
31.837284,1.152236938,-4.498664856,-1.392723083,-0.146474361,0.290947884,1.004926682
31.837910,1.152236938,-4.285041809,-1.507164001,-0.148427486,0.290947884,1.000043869
31.838537,1.182754517,-4.521553040,-1.423240662,-0.148427486,0.292901009,0.996381760
31.839162,1.068313599,-4.544441223,-1.598716736,-0.146840572,0.293267220,0.998334885
31.840918,0.732620239,-4.582588196,-1.797080994,-0.142690182,0.289971322,0.992475510
31.841543,0.717361450,-4.483406067,-2.048851013,-0.141469479,0.292656869,0.991498947
31.842170,0.854690552,-4.712287903,-1.881004333,-0.140492916,0.291924447,0.988447189
31.842797,0.541885376,-4.597846985,-2.086997986,-0.141103268,0.292290658,0.986616135
31.843423,0.389297485,-4.605476379,-2.003074646,-0.142201900,0.291069955,0.984296799
31.844050,0.190933228,-4.750434875,-2.056480408,-0.139760494,0.290703744,0.980268478
31.844675,-0.007431030,-4.788581848,-2.094627380,-0.140370846,0.288506478,0.979658127
31.845300,-0.335494995,-4.697029114,-2.224327087,-0.142812252,0.287774056,0.975263596
31.845925,-0.495712280,-4.689399719,-2.239585876,-0.144277096,0.286675423,0.970991135
31.846550,-0.747482300,-4.872505188,-2.247215271,-0.143300533,0.287285775,0.969160080
31.847175,-0.777999878,-5.009834290,-2.384544373,-0.141347408,0.286187142,0.968793869
31.847801,-0.877182007,-4.964057922,-2.270103455,-0.145864010,0.281792611,0.965131760
31.848428,-1.319686890,-5.040351868,-2.308250427,-0.146230221,0.282891244,0.963300705
31.849055,-1.449386597,-5.360786438,-2.407432556,-0.147084713,0.281548470,0.962080002
31.849680,-1.937667847,-5.223457336,-2.323509216,-0.148183346,0.279473275,0.960371017
31.850306,-1.769821167,-5.322639465,-2.498985291,-0.148183346,0.276421517,0.957075119
31.850933,-2.013961792,-5.276863098,-2.468467712,-0.149892330,0.276909798,0.960371017
31.851559,-2.074996948,-5.582038879,-2.598167419,-0.148427486,0.271416634,0.959272385
31.865353,2.670486450,-3.590766907,-3.345848083,-0.156362057,0.218926385,0.992597580
31.866046,2.960403442,-3.628913879,-3.300071716,-0.155507565,0.215142205,0.997480392
31.866673,3.288467407,-3.323738098,-3.597618103,-0.156239986,0.211724237,0.997480392
31.867299,3.738601685,-3.033821106,-3.528953552,-0.158437252,0.209160760,0.998701096
31.867925,3.921707153,-3.209297180,-3.345848083,-0.159657955,0.210015252,1.000165939
31.868550,4.265029907,-3.064338684,-3.536582947,-0.156239986,0.205986932,1.003705978
31.869176,4.562576294,-3.010932922,-3.490806580,-0.155019283,0.202935174,1.004560471
31.869801,4.715164185,-2.858345032,-3.582359314,-0.151601315,0.201836541,1.003583908
31.870427,5.111892700,-2.675239563,-3.513694763,-0.153310299,0.202935174,1.002241135
31.871053,5.066116333,-2.545539856,-3.628135681,-0.151967525,0.203667596,0.998823166
31.871678,5.539138794,-2.560798645,-3.490806580,-0.153188229,0.204400018,0.997358322
31.872303,5.562026978,-2.682868958,-3.429771423,-0.150746822,0.202813104,0.999677658
31.872930,5.539138794,-2.576057434,-3.513694763,-0.151357174,0.197319940,0.997480392
31.873555,5.531509399,-2.461616516,-3.452659607,-0.151967525,0.198662713,0.998579025
31.874180,5.661209106,-2.522651672,-3.353477478,-0.147939205,0.197930291,0.997358322
31.874806,5.737503052,-2.583686829,-3.399253845,-0.143300533,0.196221307,0.997114182
31.875431,5.562026978,-2.675239563,-3.147483826,-0.147450924,0.195610955,0.994550705
31.876057,5.424697876,-2.476875305,-2.926231384,-0.146108150,0.193779901,0.999311447
31.876682,5.264480591,-2.774421692,-3.116966248,-0.140859127,0.194146112,0.998701096
31.877308,4.928787231,-2.652351379,-2.895713806,-0.144643307,0.195366815,0.997114182
31.877935,4.921157837,-2.675239563,-2.682090759,-0.144032955,0.198662713,0.995893478
31.878560,4.638870239,-2.659980774,-2.643943787,-0.145009518,0.196099237,0.996137619
31.879186,4.272659302,-2.743904114,-2.674461365,-0.143300533,0.198540643,0.992109299
31.879813,3.837783813,-2.881233215,-2.483726501,-0.143544674,0.199150994,0.991621017
31.880440,3.456314087,-2.736274719,-2.285362244,-0.142323971,0.199639276,0.989667892
31.881065,3.235061646,-3.117744446,-2.407432556,-0.142568111,0.197442010,0.988813400
31.881690,3.074844360,-2.995674133,-2.201438904,-0.145986080,0.195000604,0.985517502
31.882316,2.365310669,-3.010932922,-2.247215271,-0.145497799,0.196099237,0.985273361
31.882942,2.014358521,-3.102485657,-2.079368591,-0.148183346,0.197686151,0.984540939
31.883567,1.869400024,-3.201667786,-1.797080994,-0.148915768,0.197442010,0.981122971
31.885340,0.557144165,-3.621284485,-1.423240662,-0.147328854,0.197075799,0.974653244
31.885966,0.122268677,-3.743354797,-1.537681580,-0.152089596,0.195122674,0.977216721
31.886592,-0.205795288,-3.918830872,-1.186729431,-0.150746822,0.194390252,0.973554611
31.887218,-0.602523804,-3.781501770,-1.324058533,-0.153676510,0.195977166,0.973676682
31.887844,-1.037399292,-4.216377258,-1.026512146,-0.152333736,0.195855096,0.970380783
31.888471,-1.365463257,-4.162971497,-0.889183044,-0.152822018,0.199028924,0.974653244
31.889098,-1.907150269,-4.010383606,-0.713706970,-0.153920650,0.198906854,0.971723557
31.889724,-2.280990601,-4.323188782,-0.912071228,-0.155263424,0.198906854,0.970746994
31.890350,-2.456466675,-4.475776672,-0.400901794,-0.155019283,0.201714471,0.970502853
31.890975,-2.845565796,-4.506294250,-0.698448181,-0.155019283,0.200127557,0.970624924
31.891601,-3.295700073,-4.666511536,-0.469566345,-0.156484127,0.204522088,0.968915939
31.892226,-3.669540405,-4.597846985,-0.194908142,-0.153798580,0.204766229,0.967451096
31.892852,-3.944198608,-4.704658508,-0.355125427,-0.156728268,0.203545526,0.967817307
31.893477,-4.226486206,-4.681770325,-0.126243591,-0.156484127,0.205376580,0.964643478
31.894103,-4.379074097,-5.139533997,-0.179649353,-0.155263424,0.204522088,0.966840744
31.894728,-4.646102905,-4.910652161,-0.080467224,-0.153798580,0.211235955,0.963056564
31.895355,-4.867355347,-4.948799133,0.056861877,-0.155019283,0.207329705,0.964887619
31.895980,-4.874984741,-5.017463684,0.064491272,-0.156728268,0.205498651,0.961591721
31.909816,1.022537231,-8.252326965,-0.133872986,-0.148305416,0.214043573,0.911420822
31.910531,1.548965454,-8.603279114,-0.370384216,-0.150258541,0.214531854,0.906660080
31.911157,2.128799438,-8.717720032,-0.286460876,-0.149159908,0.212578729,0.901655197
31.911782,2.647598267,-8.938972473,-0.698448181,-0.149159908,0.217217401,0.896039963
31.912407,2.815444946,-9.381477356,-0.591636658,-0.150746822,0.213555291,0.893964767
31.913033,3.402908325,-9.656135559,-0.698448181,-0.152089596,0.216484979,0.888105392
31.913660,3.929336548,-9.648506165,-0.667930603,-0.152455807,0.217339471,0.882856369
31.914287,4.333694458,-10.220710754,-0.851036072,-0.152089596,0.219048455,0.879072189
31.914912,4.646499634,-10.350410461,-0.774742126,-0.152333736,0.220879510,0.876020432
31.915538,5.096633911,-10.846321106,-0.851036072,-0.150380611,0.220269158,0.872724533
31.916163,5.279739380,-11.159126282,-0.927330017,-0.152333736,0.221978143,0.869184494
31.916790,5.867202759,-11.380378723,-0.973106384,-0.149770260,0.223931268,0.870649338
31.917415,6.248672485,-11.792366028,-0.965476990,-0.151113033,0.224053338,0.866376877
31.918041,6.408889771,-12.158576965,-1.034141541,-0.146108150,0.228081658,0.865278244
31.918666,6.706436157,-12.318794250,-1.049400330,-0.145009518,0.228814080,0.869184494
31.919291,6.752212524,-12.784187317,-1.148582458,-0.142446041,0.230034783,0.871747971
31.919917,7.286270142,-12.967292786,-1.064659119,-0.146962643,0.230278924,0.869428635
31.920543,7.461746216,-13.272468567,-1.240135193,-0.144521236,0.230767205,0.871747971
31.921169,7.721145630,-13.386909485,-1.240135193,-0.141469479,0.231377557,0.874311447
31.921795,7.858474731,-13.554756165,-1.324058533,-0.141347408,0.232232049,0.878339767
31.922421,7.965286255,-13.776008606,-1.278282166,-0.143422604,0.230034783,0.884809494
31.923047,8.415420532,-14.180366516,-1.194358826,-0.141591549,0.232964471,0.887372971
31.923672,8.651931763,-14.310066223,-1.255393982,-0.140126705,0.232598260,0.894208908
31.924299,8.514602661,-14.546577454,-1.407981873,-0.141591549,0.236626580,0.895551682
31.924924,8.949478149,-14.531318665,-1.278282166,-0.139638424,0.232476190,0.903974533
31.925550,9.269912720,-14.462654114,-1.446128845,-0.148061275,0.236870721,0.915205002
31.926175,9.185989380,-14.905158997,-1.491905212,-0.142323971,0.235405877,0.908613205
31.926801,9.330947876,-14.691535950,-1.545310974,-0.146108150,0.231255487,0.914838791
31.927427,9.529312134,-14.592353821,-1.522422791,-0.141347408,0.233696893,0.920087814
31.928054,9.407241821,-14.790718079,-1.530052185,-0.141225338,0.234551385,0.925336838
31.936525,10.170181274,-13.760749817,-2.018333435,-0.145375729,0.230400994,0.960615158
31.937150,10.292251587,-13.524238586,-1.926780701,-0.146596432,0.227593377,0.962690353
31.937777,10.040481567,-13.379280090,-1.972557068,-0.146718502,0.227959588,0.965009689
31.938403,9.971817017,-13.196174622,-1.957298279,-0.142812252,0.229546502,0.969770432
31.939028,10.040481567,-13.051216125,-2.041221619,-0.145253658,0.228325799,0.967695236
31.939653,9.895523071,-12.852851868,-2.071739197,-0.142812252,0.230400994,0.969160080
31.940279,9.887893677,-12.616340637,-1.972557068,-0.141957760,0.226616815,0.970746994
31.940905,9.674270630,-12.555305481,-1.964927673,-0.141225338,0.225029901,0.971601486
31.941531,9.430130005,-12.356941223,-2.064109802,-0.144887447,0.225274041,0.975629807
31.942156,9.231765747,-12.128059387,-2.003074646,-0.144277096,0.224663690,0.972578049
31.942783,9.384353638,-11.883918762,-2.079368591,-0.149281979,0.226006463,0.980878830
31.943408,9.025772095,-11.853401184,-1.911521912,-0.143056393,0.223687127,0.978071213
31.944033,8.911331177,-11.578742981,-1.934410095,-0.142079830,0.222100213,0.981122971
31.944658,8.415420532,-11.403266907,-1.835227966,-0.142323971,0.222466424,0.981000900
31.945283,8.331497192,-11.258308411,-1.819969177,-0.141713619,0.221489862,0.986371994
31.945908,8.125503540,-10.998908997,-1.896263123,-0.140248775,0.221978143,0.985639572
31.946533,7.835586548,-10.655586243,-1.697898865,-0.141469479,0.221611932,0.988813400
31.960360,-1.273910522,-3.857795715,-0.370384216,-0.127797604,0.211846307,1.068159103
31.961066,-1.777450562,-3.392402649,-0.393272400,-0.141591549,0.218193963,1.078535080
31.961691,-1.884262085,-2.942268372,-0.370384216,-0.129750729,0.211846307,1.091840744
31.962317,-2.418319702,-2.202217102,-0.263572693,-0.118031979,0.201104119,1.092817307
31.962942,-2.616683960,-1.614753723,-0.240684509,-0.124135494,0.187432244,1.085737228
31.963568,-2.967636108,-1.263801575,0.133155823,-0.133656979,0.186333612,1.070478439
31.964194,-2.761642456,-1.172248840,0.056861877,-0.135854244,0.193291619,1.077070236
31.964820,-2.929489136,-0.783149719,0.064491272,-0.130361080,0.188042596,1.105512619
31.965446,-2.975265503,-0.592414856,0.217079163,-0.122060299,0.181328729,1.128583908
31.966072,-3.104965210,0.170524597,0.415443420,-0.127675533,0.192559198,1.122602463
31.966699,-3.425399780,0.536735535,0.354408264,-0.124013424,0.185112908,1.115888596
31.967325,-3.204147339,1.284416199,0.720619202,-0.122060299,0.164238885,1.124067307
31.967952,-3.021041870,1.879508972,0.751136780,-0.123525143,0.168999627,1.134077072
31.968577,-2.593795776,2.672966003,0.781654358,-0.129262447,0.182915643,1.129194260
31.969202,-2.624313354,3.275688171,0.941871643,-0.140126705,0.195366815,1.121747971
31.969828,-2.898971558,3.458793640,1.269935608,-0.141957760,0.195244744,1.114301682
31.970455,-2.830307007,3.939445496,0.796913147,-0.146840572,0.193901971,1.111127853
31.971081,-2.586166382,4.236991882,0.522254944,-0.141103268,0.195977166,1.115034103
31.971708,-2.593795776,4.290397644,0.835060120,-0.133412838,0.197442010,1.111127853
31.972334,-2.616683960,4.626091003,0.651954651,-0.132192135,0.197686151,1.105024338
31.972960,-2.303878784,4.938896179,0.766395569,-0.128774166,0.186699823,1.102460861
31.973585,-2.052108765,5.205924988,0.796913147,-0.125356197,0.175225213,1.096113205
31.974211,-1.754562378,5.465324402,0.781654358,-0.126576900,0.175347283,1.094770432
31.974838,-1.434127808,5.678947449,0.796913147,-0.126576900,0.177300408,1.091840744
31.975465,-0.953475952,5.617912292,0.636695862,-0.127431393,0.177300408,1.085371017
31.976090,-0.602523804,5.602653503,0.819801331,-0.128407955,0.179253533,1.081342697
31.976715,-0.350753784,5.259330750,0.758766174,-0.124623775,0.180596307,1.079145432
31.977342,-0.007431030,5.343254089,0.941871643,-0.124379635,0.178765252,1.076215744
31.977967,0.518997192,5.617912292,0.712989807,-0.119130611,0.187310174,1.076093674
31.978592,0.679214478,5.213554382,0.918983459,-0.116078854,0.186211541,1.076826096
31.980383,1.434524536,5.152519226,0.766395569,-0.110097408,0.188652948,1.083295822
31.981008,1.548965454,5.167778015,1.033424377,-0.106435299,0.191460565,1.082197189
31.981634,1.815994263,5.183036804,1.231788635,-0.109242916,0.192070916,1.086957932
31.982259,2.083023071,5.198295593,1.155494690,-0.109487057,0.191216424,1.085737228
31.982885,2.151687622,5.381401062,1.132606506,-0.108632565,0.193779901,1.085004807
31.983511,2.067764282,5.396659851,1.575111389,-0.109609127,0.196709588,1.086347580
31.984138,2.433975220,5.656059265,1.338600159,-0.109853268,0.202324823,1.089033127
31.984763,2.258499146,5.610282898,1.308082581,-0.111928463,0.202813104,1.090864182
31.985388,2.273757935,5.884941101,1.559852600,-0.113149166,0.206597283,1.093183517
31.986015,2.433975220,5.945976257,1.468299866,-0.116078854,0.209160760,1.090864182
31.986640,2.266128540,6.197746277,1.773475647,-0.120107174,0.209160760,1.089765549
31.987265,2.151687622,6.281669617,1.819252014,-0.121938229,0.212944940,1.089399338
31.987890,1.976211548,6.586845398,1.674293518,-0.122182369,0.215264276,1.087690353
31.988515,2.098281860,6.823356628,1.788734436,-0.127309322,0.212578729,1.086347580
31.989141,2.075393677,6.937797546,1.933692932,-0.131093502,0.212090448,1.083784103
31.989767,1.892288208,7.334526062,1.811622620,-0.132314205,0.208184198,1.079755783
31.990393,1.930435181,7.403190613,2.071022034,-0.136220455,0.209160760,1.080244064
31.991027,1.854141235,7.723625183,2.284645081,-0.136342525,0.206841424,1.071577072
31.991652,2.166946411,7.891471863,2.208351135,-0.139882565,0.207940057,1.062543869
32.005539,10.650833130,3.680046082,2.910255432,-0.138661861,0.178032830,0.911664963
32.006300,10.795791626,3.138359070,2.917884827,-0.134389400,0.181939080,0.901655197
32.006926,11.474807739,2.680595398,2.948402405,-0.136220455,0.184136346,0.894208908
32.007551,11.596878052,2.352531433,2.841590881,-0.138783932,0.184990838,0.885541916
32.008176,11.993606567,1.902397156,3.078102112,-0.139272213,0.184014276,0.875776291
32.008803,12.390335083,1.490409851,3.032325745,-0.140004635,0.185112908,0.868574142
32.009429,12.687881470,0.872428894,2.917884827,-0.140492916,0.181939080,0.861127853
32.010055,13.015945435,0.346000671,3.108619690,-0.145253658,0.182427362,0.849164963
32.010681,13.176162720,-0.203315735,3.078102112,-0.144643307,0.176690057,0.844404221
32.011307,13.817031860,-0.683967590,2.963661194,-0.145619869,0.174248651,0.842206955
32.011934,13.908584595,-1.179878235,3.230690002,-0.144399166,0.171318963,0.841474533
32.012560,14.167984009,-1.408760071,3.192543030,-0.144521236,0.168267205,0.833539963
32.013186,14.450271606,-2.080146790,3.078102112,-0.146596432,0.163384393,0.829511642
32.013811,14.618118286,-2.606575012,3.413795471,-0.148549557,0.160454705,0.828535080
32.014437,15.342910767,-2.881233215,3.223060608,-0.149404049,0.161431268,0.823286057
32.015062,15.426834106,-3.316108704,3.261207581,-0.148671627,0.161309198,0.819257736
32.015689,15.701492310,-3.651802063,3.535865784,-0.148793697,0.156426385,0.821210861
32.016315,16.166885376,-4.216377258,3.680824280,-0.149648190,0.157402948,0.821821213
32.016941,16.517837524,-4.445259094,3.604530334,-0.151845455,0.157280877,0.825361252
32.017566,16.746719360,-4.811470032,3.657936096,-0.148793697,0.159844354,0.823652267
32.018192,16.929824829,-5.116645813,3.635047913,-0.150624752,0.159111932,0.825727463
32.018818,17.288406372,-5.101387024,3.642677307,-0.152211666,0.159600213,0.826948166
32.019443,17.456253052,-5.658332825,3.551124573,-0.150014400,0.164116815,0.825483322
32.020069,17.723281860,-5.788032532,3.566383362,-0.153676510,0.163262323,0.825361252
32.020694,17.852981567,-6.016914368,3.749488831,-0.157094479,0.166069940,0.825849533
32.021319,17.906387329,-5.994026184,3.726600647,-0.157094479,0.167046502,0.823286057
32.021944,17.891128540,-6.535713196,4.008888245,-0.158437252,0.167534783,0.823774338
32.022570,18.058975220,-6.909553528,4.008888245,-0.162465572,0.169609979,0.821455002
32.023196,18.135269165,-6.871406555,3.856300354,-0.161000729,0.170220330,0.821088791
32.023821,18.280227661,-7.146064758,4.054664612,-0.164296627,0.170830682,0.820966721
32.025587,18.036087036,-7.680122375,4.291175842,-0.165639400,0.175835565,0.826704025
32.026214,17.990310669,-8.053962708,4.100440979,-0.163930416,0.178887323,0.826826096
32.026840,17.799575806,-8.336250305,4.275917053,-0.164296627,0.179131463,0.829755783
32.027467,17.700393677,-8.427803040,4.329322815,-0.166615963,0.184502557,0.831220627
32.028093,17.601211548,-8.435432434,4.260658264,-0.165273190,0.183892205,0.836225510
32.028718,17.578323364,-8.977119446,4.420875549,-0.165517330,0.185357049,0.838178635
32.029344,17.341812134,-9.061042786,4.535316467,-0.161122799,0.187676385,0.839521408
32.029970,16.975601196,-9.198371887,4.611610413,-0.160878658,0.192681268,0.840742111
32.030596,17.006118774,-9.663764954,4.504798889,-0.158559322,0.194390252,0.843915939
32.031222,16.609390259,-9.610359192,4.520057678,-0.155507565,0.198906854,0.843915939
32.031848,16.105850220,-9.686653137,5.069374084,-0.152211666,0.203179315,0.854047775
32.032474,15.831192017,-10.106269836,4.695533752,-0.148671627,0.208428338,0.855878830
32.033099,15.480239868,-10.228340149,4.909156799,-0.149770260,0.210991815,0.858686447
32.033726,14.854629517,-10.449592590,4.924415588,-0.145986080,0.212090448,0.861005783
32.034352,14.152725220,-10.342781067,5.153297424,-0.143666744,0.217827752,0.863935471
32.034977,13.817031860,-10.701362610,4.832862854,-0.144521236,0.219902948,0.871259689
32.035603,13.229568481,-10.609809875,5.244850159,-0.141225338,0.221734002,0.869672775
32.036228,12.787063599,-11.082832336,5.038856506,-0.138906002,0.223320916,0.877729416
32.050347,-4.211227417,-6.932441711,6.877540588,-0.131581783,0.283867806,1.021528244
32.051055,-4.730026245,-6.695930481,6.915687561,-0.135121822,0.285698861,1.024335861
32.051682,-5.248825073,-6.276313782,6.831764221,-0.134389400,0.287041634,1.029951096
32.052307,-6.049911499,-5.681221008,6.915687561,-0.129994869,0.290825814,1.032880783
32.052932,-6.522933960,-5.658332825,7.053016663,-0.134999752,0.295830697,1.033857346
32.053557,-7.148544312,-4.941169739,7.129310608,-0.134145260,0.308770150,1.039960861
32.054184,-7.926742554,-4.552070618,6.816505432,-0.133412838,0.314995736,1.040082932
32.054809,-8.483688354,-4.323188782,6.930946350,-0.133168697,0.319756478,1.039716721
32.055436,-8.941452026,-3.628913879,7.053016663,-0.130483150,0.315239877,1.043622971
32.056062,-9.757797241,-3.338996887,6.923316956,-0.132924557,0.312310189,1.042768478
32.056687,-9.773056030,-3.163520813,6.793617249,-0.133046627,0.312920541,1.038862228
32.057313,-10.635177612,-2.431098938,6.824134827,-0.133046627,0.307915658,1.042768478
32.057939,-10.879318237,-2.217475891,7.007240295,-0.131337643,0.306328744,1.043134689
32.058564,-11.092941284,-2.011482239,6.808876038,-0.130116940,0.301445931,1.045820236
32.059190,-11.283676147,-1.591865540,6.930946350,-0.129628658,0.300713509,1.043867111
32.059815,-11.405746460,-1.012031555,7.022499084,-0.130849361,0.301568002,1.041669846
32.060440,-11.497299194,-0.722114563,7.014869690,-0.131459713,0.304741830,1.048383713
32.061065,-11.703292847,-0.294868469,6.816505432,-0.127919674,0.306450814,1.048261642
32.061691,-11.710922241,-0.203315735,6.854652405,-0.124623775,0.309136361,1.048017502
32.062316,-11.688034058,0.201042175,6.732582092,-0.129628658,0.312432259,1.049604416
32.062941,-11.382858276,0.559623718,6.595252991,-0.131337643,0.310112923,1.047040939
32.063566,-11.237899780,0.696952820,6.427406311,-0.130116940,0.311455697,1.048505783
32.064193,-11.009017944,1.063163757,6.656288147,-0.126943111,0.309502572,1.051313400
32.064818,-10.864059448,1.398857117,6.190895081,-0.122060299,0.307793587,1.050458908
32.065444,-10.513107300,1.574333191,6.145118713,-0.125356197,0.306206673,1.055952072
32.066070,-9.887496948,2.100761414,5.962013245,-0.123891354,0.297173470,1.055097580
32.066695,-9.330551147,2.421195984,5.832313538,-0.123891354,0.245537713,1.047040939
32.067320,-8.834640503,2.627189636,6.595252991,-0.126821041,0.308037728,1.052778244
32.067946,-8.430282593,2.573783875,6.343482971,-0.132558346,0.310479134,1.046430588
32.068573,-8.193771362,2.695854187,5.763648987,-0.124257565,0.335747689,1.059125900
32.070393,-6.995956421,3.443534851,5.359291077,-0.123281002,0.330986947,1.057294846
32.071027,-7.102767944,3.702934265,5.038856506,-0.122060299,0.333550423,1.061567307
32.071652,-6.667892456,4.122550964,4.809974670,-0.123403072,0.318657845,1.064130783
32.072277,-6.156723022,3.985221863,4.809974670,-0.122792721,0.312798470,1.067548752
32.072903,-5.775253296,4.175956726,4.672645569,-0.123647213,0.309624642,1.070600510
32.073528,-5.294601440,4.488761902,4.535316467,-0.122182369,0.308892220,1.073530197
32.074155,-4.760543823,4.717643738,4.527687073,-0.120473385,0.309746712,1.071210861
32.074782,-4.310409546,4.961784363,4.382728577,-0.121083736,0.306939095,1.069379807
32.075409,-3.837387085,5.144889832,4.245399475,-0.122426510,0.307671517,1.069013596
32.076036,-3.371994019,5.404289246,4.191993713,-0.124379635,0.310601205,1.071088791
32.076662,-2.914230347,5.739982605,4.146217346,-0.124013424,0.315484017,1.068403244
32.077288,-2.662460327,5.953605652,3.940223694,-0.127065182,0.313897103,1.066572189
32.077914,-2.250473022,6.037528992,4.001258850,-0.125844479,0.316216439,1.069379807
32.078540,-1.724044800,6.213005066,3.718971252,-0.131093502,0.312798470,1.066450119
32.079167,-1.647750854,6.495292664,3.787635803,-0.126210690,0.313286752,1.062055588
32.079793,-1.075546265,6.411369324,3.497718811,-0.130727291,0.308770150,1.062788010
32.080419,-0.854293823,6.998832703,3.467201233,-0.129750729,0.306328744,1.062421799
32.081045,-0.602523804,6.991203308,3.200172424,-0.129994869,0.307793587,1.057905197
32.081672,-0.236312866,7.159049988,3.261207581,-0.132680416,0.304009408,1.055585861
32.095516,0.381668091,7.952507019,2.948402405,-0.146352291,0.310967416,0.906171799
32.096259,0.061233521,7.380302429,3.253578186,-0.154653072,0.314507455,0.897016525
32.096885,-0.213424683,7.090385437,3.032325745,-0.151113033,0.317681283,0.888959885
32.097511,-0.251571655,6.754692078,3.039955139,-0.149648190,0.321465462,0.880903244
32.098137,-0.610153198,6.373222351,3.314613342,-0.148793697,0.319268197,0.874799728
32.098764,-0.793258667,6.205375671,3.017066956,-0.152577877,0.321343392,0.870161057
32.099389,-0.877182007,5.846794128,3.268836975,-0.150258541,0.320733041,0.860273361
32.100015,-1.167098999,5.396659851,3.451942444,-0.154286861,0.327080697,0.852705002
32.100641,-1.449386597,4.908378601,3.146766663,-0.154286861,0.325982064,0.850996017
32.101266,-1.373092651,4.458244324,3.406166077,-0.154897213,0.326836556,0.844160080
32.101891,-1.479904175,3.947074890,3.169654846,-0.150868893,0.327446908,0.835248947
32.102516,-1.617233276,3.680046082,3.162025452,-0.153676510,0.329033822,0.831464767
32.103141,-1.708786011,3.161247253,3.230690002,-0.154286861,0.329888314,0.829511642
32.103766,-1.518051147,2.886589050,3.253578186,-0.156117916,0.322442025,0.822309494
32.104391,-1.525680542,2.528007507,3.245948792,-0.155141354,0.333428353,0.818769455
32.105018,-1.350204468,2.032096863,3.215431213,-0.154531002,0.327324837,0.822187424
32.105643,-1.113693237,1.520927429,2.887367249,-0.153188229,0.340020150,0.816694260
32.106268,-1.022140503,1.360710144,3.032325745,-0.154897213,0.337700814,0.814130783
32.106893,-1.006881714,0.719841003,2.902626038,-0.159291744,0.334893197,0.810224533
32.107519,-0.510971069,0.376518250,2.689002991,-0.155751705,0.336602181,0.812665939
32.108144,-0.297348022,0.201042175,2.635597229,-0.155263424,0.335991830,0.807416916
32.108771,0.030715942,-0.401679993,2.536415100,-0.155141354,0.337700814,0.808637619
32.109397,0.518997192,-0.600044250,2.452491760,-0.153310299,0.342217416,0.807294846
32.110026,0.793655396,-0.745002747,2.460121155,-0.152577877,0.341118783,0.809125900
32.110651,1.205642700,-0.989143372,2.200721741,-0.151479244,0.342949837,0.809247971
32.111277,2.182205200,-1.393501282,1.643775940,-0.151357174,0.350151986,0.817670822
32.111902,2.487380981,-1.393501282,1.605628967,-0.150746822,0.352349252,0.824018478
32.112529,3.059585571,-1.599494934,1.437782288,-0.149892330,0.354302377,0.826581955
32.113155,3.563125610,-1.568977356,1.216529846,-0.149037838,0.356743783,0.830366135
32.113781,4.135330200,-1.752082825,0.972389221,-0.148061275,0.361138314,0.835737228
32.115527,5.012710571,-1.675788879,0.606178284,-0.146108150,0.364312142,0.842695236
32.116154,5.363662720,-1.691047668,0.308631897,-0.148549557,0.366509408,0.849287033
32.116779,6.256301880,-1.523200989,0.133155823,-0.149404049,0.365654916,0.851362228
32.117405,6.469924927,-1.477424622,-0.126243591,-0.151235104,0.369439095,0.857831955
32.118031,7.034500122,-1.446907043,-0.355125427,-0.149892330,0.371636361,0.855634689
32.118656,7.240493774,-1.599494934,-0.545860291,-0.153920650,0.371026009,0.860761642
32.119282,7.728775024,-1.492683411,-0.843406677,-0.160390377,0.374077767,0.859663010
32.119909,8.156021118,-1.713935852,-0.934959412,-0.176381588,0.378594369,0.858198166
32.120534,8.423049927,-2.240364075,-1.179100037,-0.176137447,0.385064095,0.828413010
32.121161,8.735855103,-2.392951965,-1.537681580,-0.185658932,0.370049447,0.841230392
32.121787,8.957107544,-2.438728333,-1.789451599,-0.172597408,0.382134408,0.849287033
32.122412,9.285171509,-2.530281067,-1.789451599,-0.142690182,0.373833627,0.847700119
32.123038,9.773452759,-2.255622864,-2.071739197,-0.166738033,0.391655892,0.855390549
32.123663,9.681900024,-1.973335266,-2.437950134,-0.149404049,0.379937142,0.846845627
32.124289,9.597976685,-2.141181946,-2.445579529,-0.155507565,0.387627572,0.856367111
32.124914,9.422500610,-1.980964661,-2.712608337,-0.153310299,0.387017220,0.865644455
32.125539,9.742935181,-1.927558899,-2.888084412,-0.147206783,0.392754525,0.865400314
32.126165,9.491165161,-2.316658020,-2.842308044,-0.154408932,0.395440072,0.866621017
32.139931,1.037796021,-3.560249329,-5.787254333,-0.132924557,0.351860970,0.933149338
32.140743,0.557144165,-3.674690247,-5.726219177,-0.125844479,0.351494759,0.939863205
32.141368,0.663955688,-3.712837219,-5.794883728,-0.130727291,0.353081673,0.944746017
32.141994,0.038345337,-3.544990540,-5.955101013,-0.131337643,0.348320931,0.945844650
32.142619,-0.083724976,-3.865425110,-5.939842224,-0.133534908,0.348443002,0.945722580
32.143244,-0.724594116,-3.918830872,-6.000877380,-0.131337643,0.343438119,0.948408127
32.143870,-0.953475952,-4.048530579,-6.183982849,-0.131825924,0.343438119,0.949506760
32.144496,-1.189987183,-4.094306946,-6.336570740,-0.123525143,0.342339486,0.951581955
32.145122,-1.327316284,-4.170600891,-6.466270447,-0.126943111,0.343071908,0.954145432
32.145747,-1.731674194,-3.880683899,-6.328941345,-0.122426510,0.341851205,0.953290939
32.146374,-1.991073608,-3.918830872,-6.626487732,-0.121449947,0.340752572,0.953413010
32.146999,-2.113143921,-3.956977844,-6.740928650,-0.127431393,0.341362923,0.953657150
32.147625,-2.471725464,-3.918830872,-6.634117126,-0.125966549,0.335381478,0.951215744
32.148250,-2.883712769,-4.170600891,-6.718040466,-0.131215572,0.335991830,0.954023361
32.148875,-3.188888550,-4.124824524,-6.725669861,-0.128652096,0.332940072,0.952802658
32.149500,-3.166000366,-4.147712708,-6.801963806,-0.134389400,0.327568978,0.952924728
32.150125,-3.639022827,-4.178230286,-6.893516541,-0.135610104,0.326714486,0.946821213
32.150750,-3.524581909,-4.491035461,-6.801963806,-0.131947994,0.321953744,0.952558517
32.151375,-3.745834351,-4.468147278,-6.939292908,-0.132680416,0.317559212,0.954145432
32.152001,-3.875534058,-4.315559387,-7.084251404,-0.134877682,0.316948861,0.951826096
32.152628,-3.967086792,-4.475776672,-7.030845642,-0.134999752,0.314507455,0.953901291
32.153255,-4.058639526,-4.506294250,-7.076622009,-0.137074947,0.311455697,0.956830978
32.153882,-3.898422241,-4.697029114,-7.229209900,-0.133412838,0.305230111,0.959638596
32.154507,-3.616134644,-4.826728821,-7.351280212,-0.139028072,0.304253548,0.960981369
32.155132,-3.349105835,-4.765693665,-7.366539001,-0.137807369,0.304497689,0.961225510
32.155758,-3.280441284,-4.773323059,-7.313133240,-0.137807369,0.299126595,0.968061447
32.156383,-2.967636108,-4.948799133,-7.297874451,-0.137563229,0.290459603,0.964887619
32.157010,-2.944747925,-5.002204895,-7.412315369,-0.134633541,0.287896127,0.972089767
32.157636,-2.525131226,-4.750434875,-7.618309021,-0.133168697,0.288628548,0.972578049
32.158261,-2.181808472,-5.093757629,-7.641197205,-0.132924557,0.291069955,0.976240158
32.160016,-0.953475952,-4.948799133,-7.915855408,-0.130361080,0.279717416,0.984663010
32.160642,-0.602523804,-4.864875793,-7.931114197,-0.131459713,0.277886361,0.984907150
32.161268,-0.251571655,-4.933540344,-7.954002380,-0.131215572,0.274468392,0.991010666
32.161894,0.198562622,-4.895393372,-8.114219666,-0.127431393,0.275200814,0.989789963
32.162520,0.480850220,-4.872505188,-8.106590271,-0.126576900,0.265801400,0.992109299
32.163147,0.755508423,-4.780952454,-8.304954529,-0.126698971,0.266167611,0.996381760
32.163772,1.342971802,-4.887763977,-8.015037537,-0.123525143,0.263482064,0.999311447
32.164397,1.594741821,-4.513923645,-8.137107849,-0.127553463,0.259087533,1.001508713
32.165026,2.021987915,-4.414741516,-8.365989685,-0.127431393,0.257012337,1.003828049
32.165652,2.243240356,-4.391853333,-8.320213318,-0.124379635,0.253472298,1.005048752
32.166278,2.670486450,-4.361335754,-8.388877869,-0.127309322,0.251641244,1.003217697
32.166905,3.067214966,-4.346076965,-8.335472107,-0.127431393,0.247857049,1.007978439
32.167531,3.395278931,-4.140083313,-8.167625427,-0.124867916,0.247124627,1.010786057
32.168157,3.837783813,-4.048530579,-8.571983337,-0.130361080,0.244072869,1.012495041
32.168782,4.188735962,-4.170600891,-8.510948181,-0.129384518,0.237847283,1.012250900
32.169408,4.417617798,-4.056159973,-8.320213318,-0.128530025,0.236748651,1.014936447
32.170033,4.951675415,-3.796760559,-8.633018494,-0.127675533,0.230889276,1.017988205
32.170659,5.516250610,-3.995124817,-8.327842712,-0.129384518,0.228447869,1.017866135
32.191244,12.520034790,-1.843635559,-6.054283142,-0.124501705,0.149590448,1.090375900
32.192009,12.932022095,-1.736824036,-5.939842224,-0.123036861,0.147515252,1.090742111
32.192635,13.168533325,-1.546089172,-5.886436462,-0.126088619,0.146050408,1.093793869
32.193260,13.160903931,-1.317207336,-5.764366150,-0.123769283,0.142998651,1.093549728
32.193886,13.282974243,-1.118843079,-5.718589783,-0.126210690,0.143853143,1.096235275
32.194512,13.801773071,-0.897590637,-5.710960388,-0.123281002,0.138237908,1.098554611
32.195139,13.710220337,-0.691596985,-5.329490662,-0.123647213,0.135674432,1.097578049
32.195764,13.939102173,-0.683967590,-5.382896423,-0.124867916,0.138237908,1.098066330
32.196391,13.923843384,-0.508491516,-5.360008240,-0.125356197,0.135186151,1.097700119
32.197017,14.061172485,-0.294868469,-5.070091248,-0.128163815,0.130669549,1.094282150
32.197644,14.122207642,0.140007019,-4.940391541,-0.127919674,0.135064080,1.094404221
32.198269,14.229019165,0.094230652,-4.978538513,-0.127309322,0.132256463,1.092206955
32.198894,13.778884888,0.292594910,-4.444480896,-0.124379635,0.132378533,1.085126877
32.199519,13.786514282,0.620658875,-4.604698181,-0.127431393,0.130791619,1.078657150
32.200145,13.626296997,0.483329773,-4.391075134,-0.127065182,0.132866815,1.073041916
32.200771,13.252456665,0.864799500,-4.261375427,-0.125966549,0.130059198,1.070478439
32.201397,13.038833618,1.086051941,-3.902793884,-0.125966549,0.132378533,1.060712814
32.202028,12.520034790,0.864799500,-3.811241150,-0.133046627,0.131646112,1.054487228
32.202653,12.191970825,1.047904968,-3.681541443,-0.128652096,0.131279901,1.041791916
32.203279,11.810501099,1.124198914,-3.277183533,-0.131215572,0.129448846,1.036054611
32.203905,11.573989868,1.292045593,-3.162742615,-0.129140377,0.130425408,1.027387619
32.204530,10.933120728,1.215751648,-2.964378357,-0.131581783,0.132378533,1.019575119
32.205156,10.246475220,1.215751648,-2.804161072,-0.131459713,0.133110955,1.014081955
32.205781,9.788711548,1.223381042,-2.720237732,-0.130605221,0.132134393,1.005903244
32.206406,9.178359985,1.459892273,-2.460838318,-0.130605221,0.132866815,0.998456955
32.207031,8.827407837,1.086051941,-2.132774353,-0.130971432,0.132256463,0.996625900
32.207657,8.194168091,1.238639832,-2.132774353,-0.129750729,0.135430291,0.990034103
32.208283,7.927139282,1.185234070,-1.728416443,-0.131825924,0.131157830,0.986860275
32.208909,7.477005005,1.108940125,-1.552940369,-0.129994869,0.130059198,0.981367111
32.209534,7.049758911,1.246269226,-1.240135193,-0.129750729,0.130547479,0.976972580
32.211293,5.653579712,1.154716492,-0.881553650,-0.135732174,0.129448846,0.964277267
32.211918,5.424697876,1.108940125,-0.683189392,-0.134633541,0.127251580,0.963422775
32.212545,5.134780884,1.162345886,-0.667930603,-0.138417721,0.129692987,0.957441330
32.213172,4.821975708,0.979240417,-0.355125427,-0.136952877,0.129082635,0.956098557
32.213797,4.623611450,0.902946472,-0.072837830,-0.136342525,0.127617791,0.953901291
32.214423,4.341323853,1.055534363,-0.057579041,-0.140370846,0.130181268,0.956342697
32.215050,4.120071411,0.941093445,0.209449768,-0.141835690,0.133477166,0.949262619
32.215676,4.135330200,1.093681335,0.178932190,-0.139638424,0.134087518,0.945722580
32.216301,3.708084106,0.864799500,0.270484924,-0.139394283,0.136650994,0.943891525
32.216927,3.669937134,0.849540710,0.491737366,-0.144887447,0.136528924,0.946088791
32.217553,3.799636841,1.017387390,0.712989807,-0.140859127,0.121392213,0.942182541
32.218179,3.578384399,0.872428894,0.888465881,-0.141347408,0.153618768,0.945844650
32.218804,3.425796509,1.002128601,0.865577698,-0.133656979,0.127251580,0.939741135
32.219429,3.311355591,1.093681335,1.094459534,-0.141591549,0.147515252,0.943769455
32.220055,3.120620728,0.864799500,1.186012268,-0.140004635,0.143609002,0.936445236
32.220681,2.800186157,1.116569519,1.498817444,-0.144032955,0.158501580,0.943159103
32.221307,2.830703735,1.253898621,1.666664124,-0.142446041,0.148980096,0.942182541
32.221933,2.556045532,1.406486511,1.628517151,-0.136220455,0.150689080,0.940961838
32.222558,2.510269165,1.314933777,1.834510803,-0.140859127,0.146782830,0.932050705
32.236369,-7.362167358,0.887687683,4.153846741,-0.139516354,0.202446893,0.894575119
32.237078,-7.568161011,0.780876160,4.108070374,-0.133901119,0.204888299,0.897016525
32.237703,-8.010665894,0.307853699,4.497169495,-0.135610104,0.204888299,0.900800705
32.238330,-8.529464722,0.223930359,4.314064026,-0.136220455,0.208794549,0.898847580
32.238955,-8.987228394,0.208671570,4.626869202,-0.132802486,0.208428338,0.900312424
32.239581,-9.414474487,-0.127021790,4.565834045,-0.133168697,0.208428338,0.901288986
32.240207,-9.910385132,-0.317756653,4.535316467,-0.134267330,0.212334588,0.903974533
32.240833,-10.375778198,-0.157539368,4.687904358,-0.134877682,0.212700799,0.905073166
32.241458,-10.696212769,-0.676338196,4.855751038,-0.134145260,0.213799432,0.906904221
32.242083,-10.963241577,-0.813667297,4.901527405,-0.135121822,0.214165643,0.907392502
32.242710,-11.115829468,-0.836555481,4.878639221,-0.134999752,0.218438104,0.908735275
32.243336,-11.520187378,-1.202766418,5.000709534,-0.132924557,0.218804315,0.910444260
32.243963,-11.794845581,-1.240913391,4.962562561,-0.130239010,0.223076776,0.914594650
32.244589,-12.176315308,-1.515571594,5.260108948,-0.134023190,0.224541619,0.921430588
32.245216,-12.283126831,-1.401130676,5.267738342,-0.134877682,0.225396112,0.922773361
32.245841,-12.359420776,-1.401130676,5.160926819,-0.135732174,0.226494744,0.923261642
32.246466,-12.367050171,-1.660530090,5.206703186,-0.135732174,0.227471307,0.927167892
32.247091,-12.443344116,-1.706306458,5.046485901,-0.133534908,0.229790643,0.928632736
32.247718,-12.450973511,-1.744453430,5.115150452,-0.131947994,0.228936151,0.934247971
32.248344,-12.283126831,-1.912300110,5.115150452,-0.134023190,0.233696893,0.934492111
32.248969,-12.222091675,-2.103034973,5.084632874,-0.134999752,0.231133416,0.937299728
32.249594,-11.771957397,-2.225105286,5.000709534,-0.134633541,0.230767205,0.938276291
32.250219,-11.703292847,-1.996223450,4.855751038,-0.137197018,0.232476190,0.937910080
32.250844,-11.482040405,-2.530281067,4.924415588,-0.138906002,0.230034783,0.938642502
32.251470,-11.024276733,-2.362434387,4.939674377,-0.134877682,0.231255487,0.935956955
32.252095,-10.635177612,-2.606575012,4.840492249,-0.133412838,0.236260369,0.939008713
32.252720,-10.131637573,-2.881233215,4.733680725,-0.135488033,0.239678338,0.940839767
32.253346,-9.734909058,-2.881233215,4.649757385,-0.134511471,0.242363885,0.946088791
32.253972,-9.124557495,-2.965156555,4.459022522,-0.132436275,0.243340448,0.942426682
32.254598,-8.567611694,-3.476325989,4.359840393,-0.130727291,0.242974237,0.942426682
32.256363,-6.538192749,-3.789131165,4.184364319,-0.132680416,0.254082650,0.944257736
32.256988,-5.813400269,-4.117195129,3.955482483,-0.130849361,0.261040658,0.943647385
32.257613,-5.012313843,-4.132453918,3.871559143,-0.126088619,0.262627572,0.945966721
32.258239,-4.409591675,-4.384223938,3.902076721,-0.128041744,0.264824837,0.941938400
32.258864,-3.631393433,-4.536811829,3.512977600,-0.124745846,0.267754525,0.942792892
32.259490,-2.815048218,-4.613105774,3.551124573,-0.124501705,0.268242806,0.943647385
32.260116,-1.952926636,-4.910652161,3.261207581,-0.124623775,0.270684212,0.944990158
32.260741,-0.877182007,-5.063240051,3.001808167,-0.126332760,0.270440072,0.943037033
32.261367,-0.091354370,-5.505744934,2.925514221,-0.122182369,0.275567025,0.945722580
32.261992,1.083572388,-5.681221008,2.635597229,-0.121816158,0.273125619,0.946332932
32.262618,2.159317017,-5.925361633,2.658485413,-0.123036861,0.274956673,0.946821213
32.263244,3.021438599,-6.032173157,2.429603577,-0.119374752,0.280205697,0.947187424
32.263869,4.135330200,-6.314460754,2.124427795,-0.118398190,0.277520150,0.945234299
32.264494,5.119522095,-6.589118958,1.811622620,-0.117177486,0.275567025,0.944501877
32.265120,6.134231567,-7.023994446,1.750587463,-0.117543697,0.279229134,0.941694260
32.265745,7.446487427,-7.275764465,1.468299866,-0.117909908,0.281304330,0.944623947
32.266370,8.522232056,-7.634346008,1.559852600,-0.119130611,0.276665658,0.942060471
32.266997,9.704788208,-7.535163879,1.216529846,-0.117055416,0.277153939,0.941694260
32.280848,30.525405884,-11.296455383,-2.262474060,-0.134633541,0.287285775,0.973310471
32.281571,30.700881958,-11.166755676,-2.674461365,-0.136220455,0.288506478,0.977338791
32.282196,30.449111938,-11.151496887,-2.399803162,-0.130849361,0.289238900,0.976606369
32.282822,30.464370728,-11.075202942,-2.544761658,-0.134999752,0.287651986,0.980512619
32.283448,30.418594360,-11.052314758,-2.529502869,-0.134755611,0.287041634,0.980756760
32.284073,29.930313110,-10.823432922,-2.392173767,-0.135610104,0.288384408,0.980268478
32.284698,29.487808228,-10.861579895,-2.521873474,-0.137074947,0.288018197,0.982221603
32.285323,29.190261841,-10.686103821,-2.224327087,-0.135732174,0.286797494,0.981489182
32.285948,28.816421509,-10.327522278,-2.384544373,-0.134999752,0.284600228,0.980146408
32.286573,28.183181763,-10.197822571,-2.262474060,-0.135243893,0.284356087,0.975629807
32.287199,27.603347778,-9.999458313,-2.415061951,-0.136220455,0.286797494,0.972944260
32.287825,26.779373169,-9.602729797,-2.392173767,-0.139028072,0.283867806,0.970380783
32.288451,26.100357056,-9.625617981,-1.827598572,-0.134755611,0.283989877,0.970136642
32.289077,25.558670044,-9.366218567,-2.025962830,-0.135121822,0.278618783,0.966596603
32.289704,24.841506958,-9.328071594,-2.094627380,-0.136586666,0.276787728,0.967084885
32.290331,23.987014771,-9.129707336,-1.804710388,-0.136830807,0.275811166,0.960737228
32.290956,23.178298950,-8.839790344,-1.591087341,-0.141835690,0.274102181,0.959638596
32.291582,22.422988892,-8.885566711,-1.736045837,-0.138906002,0.272393197,0.957563400
32.292209,21.682937622,-8.511726379,-1.537681580,-0.136952877,0.270928353,0.953901291
32.292836,20.797927856,-8.427803040,-1.324058533,-0.140614986,0.271416634,0.950849533
32.293462,19.600112915,-8.221809387,-1.247764587,-0.139028072,0.271172494,0.950605392
32.294089,18.814285278,-7.886116028,-0.843406677,-0.142934322,0.271660775,0.945478439
32.294714,17.860610962,-7.878486633,-0.759483337,-0.141103268,0.272637337,0.940595627
32.295339,16.792495728,-7.542793274,-0.713706970,-0.145864010,0.269463509,0.937421799
32.295966,15.579421997,-7.687751770,-0.408531189,-0.144887447,0.268731087,0.931928635
32.296593,14.801223755,-7.329170227,-0.370384216,-0.146596432,0.267266244,0.928510666
32.297220,13.717849731,-7.367317200,-0.088096619,-0.148793697,0.265923470,0.922895432
32.297846,12.672622681,-7.252876282,-0.172019958,-0.148305416,0.267510384,0.921064377
32.298473,11.619766235,-6.940071106,0.018714905,-0.150502682,0.266533822,0.912519455
32.299099,10.444839478,-6.924812317,0.499366760,-0.147206783,0.266777962,0.908979416
32.300859,8.346755981,-6.940071106,0.743507385,-0.151845455,0.264580697,0.902509689
32.301485,7.370193481,-6.840888977,0.995277405,-0.150258541,0.261406869,0.896894455
32.302111,6.408889771,-6.711189270,0.888465881,-0.145253658,0.261284798,0.890790939
32.302736,5.417068481,-6.764595032,1.216529846,-0.152089596,0.260918587,0.891767502
32.303361,4.425247192,-6.688301086,1.384376526,-0.149159908,0.257744759,0.882978439
32.303987,3.608901978,-6.581489563,1.620887756,-0.149526119,0.259575814,0.884199142
32.304613,2.556045532,-6.627265930,1.544593811,-0.149281979,0.259575814,0.881025314
32.305239,1.579483032,-6.535713196,1.994728088,-0.148183346,0.260064095,0.878950119
32.305865,1.053054810,-6.383125305,2.154945374,-0.150014400,0.257866830,0.873823166
32.306492,-0.068466187,-6.528083801,2.353309631,-0.147084713,0.255547494,0.873456955
32.307117,-1.449386597,-6.329719543,2.429603577,-0.149281979,0.253106087,0.868452072
32.307742,-2.059738159,-6.566230774,2.582191467,-0.144765377,0.254693002,0.868085861
32.308368,-2.982894897,-6.291572571,2.872108459,-0.146962643,0.257134408,0.864179611
32.308993,-3.463546753,-6.299201965,2.551673889,-0.148183346,0.258233041,0.866254807
32.309619,-3.974716187,-6.138984680,2.727149963,-0.151723385,0.256890267,0.860029221
32.310246,-4.722396851,-6.222908020,3.078102112,-0.149770260,0.257378548,0.859907150
32.310872,-5.241195679,-6.154243469,3.223060608,-0.154042721,0.257866830,0.859907150
32.311497,-5.767623901,-6.062690735,3.085731506,-0.149648190,0.258477181,0.855878830
32.325277,-12.695114136,-6.207649231,4.108070374,-0.148427486,0.307305306,0.852582932
32.325966,-12.878219604,-6.268684387,3.963111877,-0.145131588,0.307183236,0.852460861
32.326592,-13.099472046,-6.261054993,3.848670959,-0.146230221,0.310234994,0.850751877
32.327218,-13.152877808,-6.268684387,4.001258850,-0.144277096,0.309990853,0.857709885
32.327845,-13.229171753,-6.222908020,3.970741272,-0.143178463,0.314995736,0.857221603
32.328471,-13.557235718,-5.978767395,3.657936096,-0.142201900,0.315239877,0.859174728
32.329096,-13.564865112,-6.161872864,3.741859436,-0.143788815,0.313042611,0.864789963
32.329723,-13.641159058,-6.612007141,3.757118225,-0.145009518,0.318657845,0.870283127
32.330348,-13.686935425,-6.200019836,3.444313049,-0.142934322,0.319024056,0.870527267
32.330975,-13.580123901,-6.291572571,3.581642151,-0.138051510,0.318901986,0.875165939
32.331602,-13.557235718,-6.276313782,3.200172424,-0.137563229,0.321099252,0.876508713
32.332228,-13.664047241,-6.283943176,3.337501526,-0.137807369,0.322686166,0.876142502
32.332853,-13.747970581,-6.230537415,3.306983948,-0.139638424,0.322808236,0.882612228
32.333479,-13.702194214,-6.100837708,3.169654846,-0.136952877,0.321221322,0.886762619
32.334104,-13.358871460,-6.108467102,3.131507874,-0.137685299,0.322319955,0.889936447
32.334731,-13.305465698,-6.322090149,2.940773010,-0.138539791,0.321343392,0.891157150
32.335357,-13.137619019,-6.451789856,2.528785706,-0.138539791,0.323296517,0.895673752
32.335984,-12.573043823,-6.482307434,2.948402405,-0.134267330,0.321465462,0.895307541
32.336611,-12.557785034,-6.467048645,2.864479065,-0.136586666,0.318657845,0.897504807
32.337236,-12.260238647,-6.413642883,2.460121155,-0.134267330,0.318779916,0.900922775
32.337861,-11.840621948,-6.550971985,2.360939026,-0.128652096,0.320610970,0.906171799
32.338487,-11.466781616,-6.428901672,2.292274475,-0.131703854,0.320488900,0.906415939
32.339112,-11.108200073,-6.337348938,2.277015686,-0.133534908,0.318535775,0.910932541
32.339738,-10.696212769,-6.764595032,1.826881409,-0.131337643,0.320244759,0.914350510
32.340363,-10.185043335,-6.558601379,1.849769592,-0.127797604,0.320855111,0.918134689
32.340989,-9.643356323,-6.703559875,1.491188049,-0.125234127,0.320855111,0.917768478
32.341616,-9.399215698,-6.688301086,1.491188049,-0.122060299,0.323052377,0.921552658
32.342241,-8.651535034,-6.741706848,1.491188049,-0.122304440,0.320122689,0.924360275
32.342866,-8.086959839,-6.756965637,1.247047424,-0.117299557,0.318413705,0.927534103
32.343491,-7.499496460,-6.863777161,0.880836487,-0.117787838,0.320855111,0.936201096
32.345269,-5.569259644,-7.054512024,0.384925842,-0.113393307,0.318047494,0.941816330
32.345895,-4.905502319,-6.955329895,0.537513733,-0.111806393,0.316094369,0.946332932
32.346520,-3.974716187,-7.085029602,0.148414612,-0.112660885,0.313042611,0.947797775
32.347147,-3.303329468,-7.069770813,0.079750061,-0.108022213,0.312920541,0.948896408
32.347774,-2.372543335,-7.146064758,-0.164390564,-0.105824947,0.315361947,0.950727463
32.348401,-1.601974487,-7.352058411,-0.400901794,-0.107167721,0.314507455,0.953290939
32.349026,-0.640670776,-7.237617493,-0.423789978,-0.108022213,0.315850228,0.953168869
32.349653,0.061233521,-7.344429016,-0.797630310,-0.108876705,0.314507455,0.954755783
32.350280,0.953872681,-7.497016907,-0.744224548,-0.108266354,0.316094369,0.954877853
32.350905,1.426895142,-7.703010559,-1.057029724,-0.107778072,0.307915658,0.953290939
32.351531,2.289016724,-7.603828430,-1.217247009,-0.111073971,0.311821908,0.956098557
32.352156,3.364761353,-7.802192688,-1.438499451,-0.107411861,0.314385384,0.958662033
32.352782,4.333694458,-8.015815735,-1.552940369,-0.107411861,0.309746712,0.960859299
32.353407,5.188186646,-8.229438782,-1.827598572,-0.106679440,0.310723275,0.963056564
32.354033,5.844314575,-8.221809387,-1.949668884,-0.110341549,0.310601205,0.964643478
32.354658,6.660659790,-8.237068176,-2.132774353,-0.108266354,0.310234994,0.968915939
32.355284,7.644851685,-8.511726379,-2.346397400,-0.108144283,0.309746712,0.976240158
32.355911,8.171279907,-8.565132141,-2.407432556,-0.104848385,0.310112923,0.975507736
32.369753,11.879165649,-6.695930481,-4.398704529,-0.112294674,0.304497689,1.037519455
32.370480,11.360366821,-6.741706848,-4.269004822,-0.112294674,0.298882455,1.028120041
32.371105,11.001785278,-6.688301086,-4.063011169,-0.106557369,0.285698861,1.036909103
32.371732,10.887344360,-6.596748352,-4.124046326,-0.110219479,0.287285775,1.038251877
32.372359,10.391433716,-6.306831360,-3.895164490,-0.110707760,0.296807259,1.037275314
32.372986,9.857376099,-6.131355286,-3.895164490,-0.110463619,0.289727181,1.034223557
32.373612,9.659011841,-6.138984680,-3.765464783,-0.111318111,0.278130502,1.032880783
32.374239,9.521682739,-5.955879211,-3.788352966,-0.111073971,0.273613900,1.031171799
32.374864,9.185989380,-5.887214661,-3.612876892,-0.115712643,0.274224252,1.036054611
32.375491,8.789260864,-5.772773743,-3.628135681,-0.112660885,0.272271127,1.030073166
32.376116,8.453567505,-5.551521301,-3.345848083,-0.115346432,0.271904916,1.030805588
32.376741,8.026321411,-5.513374329,-3.261924744,-0.113515377,0.270318002,1.028608322
32.377367,7.835586548,-5.276863098,-3.338218689,-0.111196041,0.270684212,1.029951096
32.377993,7.377822876,-5.185310364,-3.300071716,-0.111318111,0.270195931,1.027997971
32.378620,6.744583130,-5.177680969,-3.162742615,-0.109364986,0.271050423,1.028608322
32.379246,6.492813110,-5.292121887,-3.002525330,-0.112294674,0.267632455,1.028730392
32.379871,6.256301880,-4.887763977,-2.796531677,-0.110463619,0.270073861,1.026777267
32.380497,5.691726685,-4.727546692,-2.689720154,-0.111073971,0.269585580,1.027387619
32.381124,5.226333618,-4.697029114,-2.590538025,-0.108876705,0.266900033,1.029096603
32.381749,4.677017212,-4.544441223,-2.529502869,-0.112050533,0.267022103,1.030927658
32.382374,4.127700806,-4.460517883,-2.399803162,-0.111684322,0.272026986,1.028730392
32.383000,3.738601685,-4.124824524,-2.155662537,-0.111928463,0.268609017,1.033491135
32.383627,3.181655884,-4.224006653,-2.247215271,-0.112782955,0.271294564,1.032026291
32.384253,2.708633423,-3.789131165,-2.331138611,-0.111562252,0.270928353,1.034345627
32.384879,2.182205200,-3.895942688,-1.835227966,-0.112416744,0.270562142,1.031538010
32.385506,1.564224243,-3.941719055,-1.942039490,-0.114614010,0.270073861,1.032514572
32.386132,1.152236938,-3.590766907,-1.766563416,-0.113515377,0.273613900,1.033491135
32.386758,0.503738403,-3.415290833,-1.591087341,-0.116200924,0.269951791,1.036054611
32.387383,-0.106613159,-3.636543274,-1.743675232,-0.115102291,0.271904916,1.037275314
32.388009,-0.671188354,-2.988044739,-1.453758240,-0.115468502,0.273125619,1.037153244
32.389801,-2.136032104,-2.675239563,-1.163841248,-0.116322994,0.269463509,1.037763596
32.390428,-2.509872437,-2.537910461,-0.828147888,-0.114736080,0.272393197,1.037885666
32.391055,-2.944747925,-2.400581360,-0.919700623,-0.116811275,0.274102181,1.040571213
32.391680,-3.272811890,-2.232734680,-0.988365173,-0.118154049,0.272881478,1.038007736
32.392305,-3.783981323,-2.171699524,-0.622154236,-0.116078854,0.273858041,1.035322189
32.392931,-4.401962280,-1.767341614,-0.553489685,-0.116445065,0.274956673,1.038129807
32.393557,-4.646102905,-1.836006165,-0.728965759,-0.116322994,0.272515267,1.034345627
32.394184,-5.042831421,-1.279060364,-0.362754822,-0.116811275,0.273003548,1.033613205
32.394810,-5.256454468,-1.294319153,-0.454307556,-0.120717525,0.276177377,1.029951096
32.395436,-5.546371460,-1.095954895,-0.393272400,-0.120351315,0.273735970,1.030805588
32.396061,-5.920211792,-1.057807922,-0.187278748,-0.120107174,0.274102181,1.027509689
32.396687,-6.255905151,-0.668708801,-0.149131775,-0.120107174,0.269829720,1.023725510
32.397313,-6.316940308,-0.607673645,-0.400901794,-0.123647213,0.274224252,1.022260666
32.397939,-6.751815796,-0.584785461,-0.004173279,-0.125356197,0.274712533,1.017255783
32.398565,-6.912033081,-0.203315735,-0.149131775,-0.122914791,0.277642220,1.016889572
32.399191,-6.995956421,-0.027839661,-0.255943298,-0.127065182,0.275078744,1.014081955
32.399816,-7.316390991,0.117118835,0.049232483,-0.125356197,0.274468392,1.009443283
32.400441,-7.545272827,0.078971863,0.072120667,-0.126698971,0.278374642,1.008710861
32.414254,-11.535446167,1.383598328,0.270484924,-0.120351315,0.298516244,0.958784103
32.414978,-11.626998901,1.345451355,-0.004173279,-0.119008541,0.298150033,0.958173752
32.415604,-11.794845581,1.269157410,0.247596741,-0.119863033,0.298760384,0.955732346
32.416230,-11.764328003,1.391227722,0.133155823,-0.118642330,0.298272103,0.953046799
32.416857,-11.863510132,1.307304382,0.217079163,-0.120961666,0.296807259,0.953290939
32.417483,-12.000839233,1.581962585,0.087379456,-0.118520260,0.296441048,0.947431564
32.418109,-11.977951050,1.223381042,0.033973694,-0.119130611,0.297905892,0.951337814
32.418736,-11.894027710,1.231010437,-0.019432068,-0.118764400,0.294243783,0.945722580
32.419362,-11.901657104,1.307304382,-0.103355408,-0.119374752,0.295220345,0.944623947
32.419989,-11.901657104,1.269157410,-0.027061462,-0.118642330,0.293023080,0.941205978
32.420616,-11.535446167,1.284416199,-0.202537537,-0.119618893,0.291436166,0.938154221
32.421241,-11.253158569,1.200492859,-0.187278748,-0.121449947,0.291802377,0.936933517
32.421866,-11.459152222,0.986869812,-0.156761169,-0.121572018,0.287163705,0.934858322
32.422491,-10.795394897,1.070793152,-0.400901794,-0.122792721,0.285576791,0.930463791
32.423117,-10.375778198,0.933464050,-0.309349060,-0.121694088,0.285454720,0.927289963
32.423742,-9.979049683,0.712211609,-0.439048767,-0.121449947,0.281304330,0.928144455
32.424367,-9.704391479,0.742729187,-0.629783630,-0.119496822,0.282769173,0.926557541
32.424994,-9.124557495,0.422294617,-0.637413025,-0.119374752,0.282280892,0.923139572
32.425621,-7.896224976,-0.012580872,-0.866294861,-0.120107174,0.279595345,0.920576096
32.426246,-7.339279175,0.040824890,-1.148582458,-0.119252682,0.277520150,0.918256760
32.426872,-6.660263062,-0.241462708,-1.140953064,-0.119618893,0.275567025,0.918500900
32.427498,-6.042282104,-0.638191223,-1.308799744,-0.117177486,0.274102181,0.916303635
32.428125,-5.134384155,-0.577156067,-1.331687927,-0.115468502,0.273613900,0.914106369
32.428751,-4.455368042,-1.065437317,-1.514793396,-0.116445065,0.268364877,0.912031174
32.429376,-3.791610718,-1.103584290,-1.919151306,-0.114491940,0.267266244,0.913862228
32.430002,-2.960006714,-1.446907043,-1.888633728,-0.117665768,0.268975228,0.914350510
32.430629,-2.036849976,-1.660530090,-1.804710388,-0.114003658,0.267388314,0.914960861
32.431254,-1.334945679,-2.049629211,-2.025962830,-0.111440182,0.267266244,0.917524338
32.431881,-0.449935913,-2.225105286,-2.224327087,-0.111928463,0.264946908,0.914716721
32.432507,0.282485962,-2.423469543,-2.308250427,-0.109364986,0.264702767,0.914960861
32.434273,1.655776978,-2.759162903,-2.544761658,-0.106679440,0.270684212,0.921064377
32.441439,6.706436157,-4.643623352,-3.513694763,-0.111196041,0.274590462,0.944623947
32.442065,6.927688599,-4.933540344,-3.559471130,-0.106069088,0.273858041,0.944379807
32.442692,7.042129517,-4.903022766,-3.696800232,-0.109487057,0.274834603,0.946455002
32.443317,7.431228638,-5.017463684,-3.734947205,-0.109487057,0.272759408,0.950483322
32.443944,7.164199829,-5.055610657,-3.666282654,-0.111562252,0.273003548,0.949750900
32.444571,7.309158325,-5.040351868,-3.795982361,-0.105947018,0.273125619,0.954023361
32.445198,7.232864380,-5.162422180,-3.605247498,-0.108510494,0.269829720,0.954511642
32.445823,7.286270142,-5.116645813,-3.895164490,-0.109609127,0.269097298,0.953290939
32.446450,7.019241333,-5.009834290,-3.849388123,-0.111684322,0.270562142,0.958051682
32.447075,7.049758911,-5.093757629,-3.834129333,-0.109120846,0.264824837,0.960981369
32.447702,6.836135864,-5.231086731,-3.788352966,-0.110219479,0.268120736,0.965253830
32.448327,6.942947388,-5.147163391,-3.788352966,-0.111196041,0.261284798,0.964155197
32.448953,6.576736450,-4.941169739,-3.635765076,-0.112538815,0.263970345,0.966962814
32.449579,6.340225220,-5.139533997,-3.681541443,-0.110585690,0.262383431,0.966474533
32.450204,6.126602173,-5.086128235,-3.574729919,-0.108144283,0.262627572,0.970991135
32.450830,5.798538208,-4.903022766,-3.727317810,-0.111073971,0.261651009,0.972578049
32.451456,5.691726685,-4.849617004,-3.467918396,-0.108876705,0.259087533,0.974164963
32.465353,-2.609054565,-3.194038391,-1.964927673,-0.109120846,0.227227166,0.987470627
32.466083,-2.799789429,-3.140632629,-1.728416443,-0.108876705,0.225274041,0.991621017
32.466708,-2.883712769,-2.957527161,-1.652122498,-0.108754635,0.222954705,0.989789963
32.467333,-3.166000366,-3.003303528,-1.690269470,-0.107289791,0.222100213,0.987836838
32.467959,-3.166000366,-2.858345032,-1.751304626,-0.104726315,0.220025018,0.994794846
32.468586,-3.005783081,-2.736274719,-1.491905212,-0.107656002,0.216240838,0.994184494
32.469213,-3.143112183,-2.598945618,-1.385093689,-0.105824947,0.217705682,0.996747971
32.469838,-2.944747925,-2.629463196,-1.469017029,-0.103871822,0.216362908,1.001142502
32.470465,-3.028671265,-2.545539856,-1.461387634,-0.104115963,0.213433221,1.000043869
32.471091,-2.631942749,-2.385322571,-1.385093689,-0.100453854,0.213311151,0.998701096
32.471716,-2.593795776,-2.301399231,-1.339317322,-0.101308346,0.212822869,1.004072189
32.472343,-2.410690308,-2.408210754,-1.346946716,-0.104970455,0.215752557,1.001386642
32.472970,-2.296249390,-2.171699524,-1.377464294,-0.103261471,0.214165643,1.000410080
32.473595,-1.823226929,-2.186958313,-1.263023376,-0.104238033,0.212456658,1.000532150
32.474220,-1.869003296,-1.965705872,-1.217247009,-0.105214596,0.209771112,1.000532150
32.474847,-1.708786011,-1.836006165,-1.316429138,-0.103261471,0.210747674,0.999433517
32.475473,-1.464645386,-1.858894348,-1.301170349,-0.106435299,0.212212518,0.998823166
32.476098,-1.228134155,-1.973335266,-1.316429138,-0.109609127,0.212090448,0.998823166
32.476723,-1.098434448,-1.454536438,-1.018882751,-0.109364986,0.210503533,0.993940353
32.477348,-0.785629272,-1.599494934,-1.270652771,-0.110707760,0.210747674,0.991865158
32.477975,-0.945846558,-1.622383118,-1.095176697,-0.111806393,0.212090448,0.988569260
32.478601,-0.739852905,-1.691047668,-0.995994568,-0.109609127,0.211968377,0.987714767
32.479227,-0.335494995,-1.576606750,-0.873924255,-0.112294674,0.213555291,0.989423752
32.479854,-0.335494995,-1.698677063,-0.927330017,-0.114003658,0.213677362,0.988813400
32.480479,-0.228683472,-1.767341614,-1.003623962,-0.110097408,0.209771112,0.986616135
32.481104,-0.236312866,-1.729194641,-0.820518494,-0.112172604,0.208428338,0.988447189
32.481729,-0.091354370,-1.576606750,-0.805259705,-0.116445065,0.205376580,0.983808517
32.482355,0.076492310,-1.538459778,-0.995994568,-0.114980221,0.206231073,0.983564377
32.482980,0.290115356,-1.630012512,-0.751853943,-0.115468502,0.204033807,0.982954025
32.483607,0.274856567,-1.561347961,-0.820518494,-0.116078854,0.204766229,0.980024338
32.485355,0.190933228,-1.752082825,-0.652671814,-0.116567135,0.209771112,0.970991135
32.485981,0.076492310,-1.820747375,-0.530601501,-0.115468502,0.210991815,0.969404221
32.486606,0.091751099,-1.797859192,-0.393272400,-0.114736080,0.211113885,0.964765549
32.487233,-0.320236206,-1.713935852,-0.294090271,-0.115468502,0.208672479,0.957197189
32.487858,-0.320236206,-1.935188293,-0.423789978,-0.118886471,0.211358026,0.951948166
32.488483,-0.648300171,-1.958076477,-0.187278748,-0.118520260,0.213189080,0.948041916
32.489110,-0.861923218,-1.828376770,-0.248313904,-0.116567135,0.213921502,0.945844650
32.489736,-1.365463257,-2.278511047,-0.118614197,-0.115224361,0.215996698,0.940351486
32.490361,-1.647750854,-2.095405579,0.018714905,-0.117543697,0.216240838,0.931684494
32.490988,-1.800338745,-2.316658020,0.194190979,-0.116811275,0.218316033,0.929609299
32.491614,-2.372543335,-2.576057434,0.209449768,-0.119374752,0.220635369,0.923749924
32.492240,-2.471725464,-2.583686829,0.484107971,-0.118520260,0.221001580,0.923749924
32.492866,-2.845565796,-2.469245911,0.301002502,-0.119985104,0.220635369,0.916669846
32.493492,-3.066818237,-2.774421692,0.461219788,-0.111073971,0.202324823,0.913862228
32.494119,-3.127853394,-2.782051086,0.506996155,-0.120961666,0.222832635,0.906538010
32.494746,-3.783981323,-3.071968079,1.018165588,-0.131215572,0.220757440,0.909223557
32.495373,-4.150192261,-3.255073547,0.850318909,-0.129018307,0.235772088,0.899580002
32.509190,-1.655380249,-5.040351868,1.140235901,-0.130239010,0.214287713,0.889326096
32.509874,-1.090805054,-5.177680969,1.170753479,-0.128285885,0.218316033,0.890913010
32.510500,-0.961105347,-5.086128235,1.163124084,-0.126943111,0.222222283,0.892499924
32.511125,-0.503341675,-5.147163391,1.102088928,-0.128285885,0.224785760,0.887739182
32.511751,0.145156860,-5.246345520,1.102088928,-0.127797604,0.225640252,0.887006760
32.512377,0.229080200,-5.215827942,1.071571350,-0.126698971,0.227227166,0.883466721
32.513003,0.694473267,-5.093757629,1.041053772,-0.123036861,0.229668573,0.882612228
32.513630,0.709732056,-5.406562805,1.041053772,-0.125966549,0.233452752,0.879316330
32.514255,0.930984497,-5.437080383,0.880836487,-0.121938229,0.234307244,0.879438400
32.514880,1.213272095,-5.498115540,0.880836487,-0.120351315,0.231621698,0.880292892
32.515505,1.136978149,-5.650703430,0.751136780,-0.119985104,0.233696893,0.883588791
32.516130,1.587112427,-5.681221008,0.865577698,-0.120229244,0.244683221,0.882734299
32.516757,1.541336060,-5.765144348,0.796913147,-0.118154049,0.229424432,0.878950119
