time,gyro x,gyro y,gyro z,accel x,accel y,accel z
24.000130,0.003404200,1.631275892,3.553585768,-0.055808324,0.112006471,0.918461680
24.000755,-0.370436132,1.158253431,3.477291822,-0.056784887,0.110175416,0.915043712
24.001381,-0.599317968,1.066700697,3.614620924,-0.058005590,0.111762330,0.920048594
24.002008,-1.232557774,1.081959486,3.767208815,-0.058005590,0.114936158,0.919560313
24.002634,-1.385145664,0.784413159,3.584103346,-0.057029027,0.118842408,0.916996837
24.003261,-1.621656895,0.471607983,3.400997877,-0.056052465,0.115790650,0.916508555
24.003887,-1.942091465,0.349537671,3.553585768,-0.055930395,0.116278931,0.915531993
24.004512,-2.224379063,0.158802807,3.568844557,-0.058860082,0.120063111,0.917118907
24.005137,-2.659254551,0.227467358,3.339962721,-0.059348363,0.120795533,0.915776134
24.005763,-2.926283360,-0.291331470,3.645138502,-0.059104223,0.118354127,0.917118907
24.006389,-3.254347324,-0.550730884,3.187374830,-0.063010469,0.114936158,0.916752696
24.007020,-3.429823399,-0.726206958,3.378109694,-0.060446996,0.115790650,0.918461680
24.008726,-4.230909824,-1.306041002,3.225521803,-0.060324926,0.111274049,0.919316173
24.009351,-4.284315586,-1.481517076,3.286556959,-0.059714574,0.111396119,0.917607188
24.009977,-4.566603184,-1.756175280,3.126339674,-0.061423559,0.107734010,0.919438243
24.010604,-4.558973789,-1.916392565,3.286556959,-0.062888399,0.103827760,0.916996837
24.011229,-5.070143223,-2.175791979,3.149227858,-0.062033910,0.100898072,0.916508555
24.011855,-4.787855625,-2.259715319,3.225521803,-0.061911840,0.096747681,0.920903087
24.012481,-4.780226231,-2.435191393,3.263668776,-0.065085664,0.099067017,0.917485118
24.013190,-4.826002598,-2.915843248,3.217892408,-0.062278051,0.094916627,0.919682384
24.013838,-5.054884434,-3.015025377,3.095822096,-0.061545629,0.094062135,0.919194102
24.014463,-4.696302891,-3.205760241,3.072933912,-0.061667699,0.092109010,0.919560313
24.015088,-4.764967442,-3.320201159,3.095822096,-0.061667699,0.090155885,0.919560313
24.015713,-4.307203770,-3.594859362,2.989010572,-0.062522188,0.083930299,0.917851329
24.016338,-4.108839512,-3.716929674,3.011898756,-0.060569067,0.084052369,0.918827891
24.016964,-3.803663731,-3.900035143,3.011898756,-0.059592504,0.081000611,0.917240977
24.018723,-2.697401524,-4.441721916,3.133969069,-0.062278051,0.072943971,0.918949962
24.019349,-2.285414219,-4.601939201,3.202633619,-0.060446996,0.068671510,0.919072032
24.019974,-1.934462070,-4.815562248,3.027157545,-0.063254610,0.069892213,0.921269298
24.020599,-1.789503574,-5.036814690,2.973751783,-0.063132539,0.065741822,0.920170665
24.021225,-1.041822910,-5.303843498,3.080563307,-0.062888399,0.067084596,0.920781016
24.021851,-0.881605566,-5.547984123,3.164486647,-0.062522188,0.064765260,0.920781016
24.035650,7.793015957,-8.935435295,3.614620924,-0.075583711,0.048774049,0.945927501
24.036348,7.983750820,-8.897288322,4.141049385,-0.077903047,0.043769166,0.947026134
24.036974,8.197374344,-9.110911369,3.797726393,-0.075827852,0.046698853,0.945683360
24.037601,8.296556473,-9.255869865,4.080014229,-0.077170625,0.047187135,0.947392344
24.038228,8.494920731,-9.614451408,4.064755440,-0.076682344,0.048285767,0.951054454
24.038853,8.914537430,-9.278758049,4.118161201,-0.079367891,0.049872681,0.954472423
24.039480,8.937425613,-9.652598381,4.202084541,-0.078635469,0.049750611,0.953129649
24.040107,9.044237137,-9.843333244,4.171566963,-0.076804414,0.053656861,0.955693126
24.040733,9.158678055,-9.805186272,4.331784248,-0.078025118,0.053290650,0.956547618
24.041360,9.105272293,-9.866221428,4.224972725,-0.079489961,0.053168580,0.959721446
24.041986,9.181566238,-9.973032951,4.469113350,-0.073142305,0.055976197,0.956547618
24.042613,9.318895340,-10.217173576,4.537777901,-0.078513399,0.057441041,0.960453868
24.043240,9.120531082,-10.171397209,4.545407295,-0.077292696,0.056464478,0.963261485
24.043865,9.181566238,-10.125620842,4.591183662,-0.077048555,0.058905885,0.967778087
24.045627,8.624620438,-10.491831779,4.820065498,-0.078635469,0.058417603,0.972905040
24.046252,8.357591629,-10.552866936,4.789547920,-0.077658907,0.062445924,0.975956798
24.046877,8.288927078,-10.560496330,4.743771553,-0.079856172,0.065985963,0.976323009
24.047502,7.983750820,-10.568125725,5.041317940,-0.080588594,0.066596314,0.978642344
24.048129,7.724351406,-10.957224846,4.980282784,-0.079734102,0.066840455,0.978520274
24.048754,7.319993496,-10.934336662,5.102353096,-0.078269258,0.071234986,0.981938243
24.049379,7.167405605,-10.735972404,5.331234932,-0.076682344,0.066596314,0.983891368
24.050005,6.930894375,-10.812266350,5.422787666,-0.080100313,0.070014283,0.988774180
24.050734,6.740159512,-10.842783928,5.094723701,-0.079734102,0.070136353,0.986210704
24.051360,6.213731289,-10.873301506,5.422787666,-0.082175508,0.067328736,0.986698985
24.051985,5.992478848,-10.919077873,5.453305244,-0.079245821,0.070258424,0.989994884
24.052668,5.725450039,-10.865672112,5.613522530,-0.079245821,0.073676392,0.995243907
24.053293,5.534715176,-11.018260002,5.407528877,-0.077658907,0.075141236,0.995854259
24.053918,5.023545742,-11.132700920,5.483822823,-0.077780977,0.072577760,0.993656993
24.055633,4.108018398,-11.094553947,5.918698311,-0.078391328,0.073676392,1.001103282
24.056259,3.718919277,-10.873301506,5.941586494,-0.078391328,0.074775025,1.004765391
24.056884,3.367967129,-10.774119377,5.956845284,-0.076438203,0.073554322,1.005497813
24.057510,3.207749844,-10.865672112,5.933957100,-0.078269258,0.077460572,1.007084727
24.058136,3.024644375,-10.850413322,6.010251045,-0.079001680,0.076361939,1.008915782
24.058761,2.421922207,-10.507090569,6.071286201,-0.079245821,0.076606080,1.009648204
24.059387,2.116746426,-10.659678459,6.170468330,-0.077414766,0.079535767,1.010746837
24.060018,1.788682461,-10.583384514,6.323056221,-0.076194063,0.079291627,1.015507579
24.060645,1.674241543,-10.476572990,6.223874092,-0.077170625,0.081610963,1.015751719
24.061271,1.308030605,-10.499461174,6.414608955,-0.078147188,0.079657838,1.018071055
24.061896,1.178330898,-10.446055412,6.468014717,-0.078269258,0.080756471,1.020512462
24.062521,0.575608790,-10.194285393,6.429867744,-0.077536836,0.081977174,1.020878673
24.063146,0.346726954,-10.285838127,6.750302315,-0.077780977,0.083686158,1.022831798
24.063772,-0.042372167,-10.125620842,6.643490791,-0.076071993,0.083442017,1.025151134
24.064398,-0.271254003,-10.049326897,6.651120186,-0.076682344,0.081000611,1.027104259
24.066120,-1.049452305,-9.965403557,6.849484444,-0.075339571,0.083686158,1.029423594
24.066746,-1.537733555,-9.736521721,7.002072334,-0.076438203,0.088813111,1.026493907
24.067372,-1.575880527,-9.728892326,6.895260811,-0.072654024,0.087348267,1.031620860
24.067999,-1.911573887,-9.469492912,7.032589912,-0.075705782,0.085273072,1.028691173
24.068624,-1.987867832,-9.377940178,7.040219307,-0.075339571,0.087836549,1.031742930
24.082496,-4.269056797,-7.318003654,7.711606026,-0.070945039,0.113837525,1.051152110
24.083234,-4.200392246,-7.096751213,7.765011787,-0.068747774,0.119208619,1.050663829
24.083861,-4.108839512,-7.012827873,8.016781807,-0.069846407,0.122870728,1.048588634
24.084488,-4.085951328,-7.134898186,7.795529366,-0.071067110,0.125190064,1.050541759
24.085113,-4.238539219,-6.715281487,7.986264229,-0.071433321,0.127509400,1.049076915
24.085738,-4.421644688,-6.753428459,7.742123604,-0.068259493,0.127997681,1.049321055
24.086365,-4.307203770,-6.791575432,7.635312080,-0.065085664,0.134467408,1.053593516
24.086991,-4.284315586,-6.715281487,7.711606026,-0.065818086,0.136054322,1.052861094
24.087618,-4.414015293,-6.661875725,7.757382393,-0.064231172,0.137641236,1.059208751
24.088244,-4.536085606,-6.638987541,7.658200264,-0.063376680,0.140692994,1.057011485
24.088870,-4.421644688,-6.379588127,7.551388741,-0.062033910,0.140204713,1.060063243
24.089495,-4.581861973,-6.318552971,7.391171455,-0.063742891,0.142401978,1.058964610
24.090122,-4.650526524,-6.272776604,7.368283272,-0.065818086,0.144965455,1.062748790
24.090747,-4.673414707,-5.998118401,7.421689034,-0.064475313,0.146674439,1.064823985
24.092473,-4.810743809,-5.609019279,7.070736885,-0.062766328,0.151801392,1.068730235
24.093100,-4.558973789,-5.532725334,7.200436592,-0.061179418,0.152289674,1.068974376
24.093726,-4.826002598,-5.448801994,6.986813545,-0.059592504,0.152167603,1.073124766
24.094352,-4.742079258,-5.227549553,6.956295967,-0.058127660,0.154120728,1.068730235
24.094978,-4.780226231,-5.166514397,7.147030830,-0.056174535,0.149604127,1.071293712
24.095605,-4.963331699,-5.044444084,6.971554756,-0.053122777,0.152655885,1.072758555
24.096231,-5.039625645,-4.762156487,7.085995674,-0.053000707,0.155951783,1.076542735
24.096856,-4.810743809,-4.487498283,6.902890205,-0.057151098,0.154731080,1.072514415
24.097483,-4.841261387,-4.502757072,6.895260811,-0.059104223,0.158637330,1.074955821
24.098109,-4.963331699,-4.464610100,6.902890205,-0.058249731,0.158026978,1.071293712
24.098735,-4.925184727,-4.060252190,6.574826241,-0.056174535,0.157538697,1.072148204
24.099360,-4.688673496,-4.243357658,6.605343819,-0.054831762,0.157050416,1.071049571
24.099986,-4.650526524,-3.892405748,6.651120186,-0.055442113,0.158271119,1.070683360
24.100611,-4.459791660,-3.716929674,6.498532295,-0.053733129,0.156073853,1.070805430
24.101237,-4.261427402,-3.800853014,6.338315010,-0.056052465,0.157782838,1.074467540
24.102954,-3.651075840,-3.343089342,6.231503487,-0.050193090,0.159858033,1.073857188
24.103581,-3.582411289,-3.175242662,5.979733467,-0.055686254,0.160834596,1.075932384
24.104207,-3.429823399,-3.198130846,5.888180733,-0.054953832,0.159125611,1.074467540
24.104834,-3.529005527,-2.946360826,5.895810127,-0.053244848,0.159247681,1.073246837
24.105460,-3.055983067,-2.580149889,5.697445869,-0.049216527,0.160956666,1.077031016
24.106086,-2.880506992,-2.770884752,5.514340401,-0.049582738,0.161078736,1.076542735
24.106712,-2.659254551,-2.450450182,5.697445869,-0.050925512,0.159247681,1.076542735
24.107338,-2.323561192,-2.274974108,5.529599190,-0.048484106,0.160224244,1.080326915
24.107963,-2.270155430,-2.320750475,5.552487373,-0.048606176,0.160712525,1.075810313
24.108589,-1.858168125,-2.152903795,5.247311592,-0.050437231,0.160956666,1.077397227
24.109215,-1.522474766,-1.916392565,5.323605537,-0.052024145,0.163764283,1.077275157
24.109841,-1.499586582,-1.809581041,5.270199776,-0.047141332,0.161811158,1.076786876
24.110467,-1.232557774,-1.718028307,5.079464912,-0.048606176,0.163276002,1.077519298
24.111092,-0.828199804,-1.359446764,5.018429756,-0.047263402,0.162909791,1.078007579
24.111718,-0.866346776,-1.367076159,4.926877022,-0.046408910,0.166205689,1.079716563
24.113461,-0.187330663,-0.733836353,4.804806709,-0.047507543,0.163642213,1.081547618
24.114207,-0.004225194,-0.710948169,4.774289131,-0.046408910,0.168158814,1.081059337
24.115048,0.133103907,-0.512583911,4.469113350,-0.045554418,0.169745728,1.078495860
24.115827,0.354356349,-0.413401783,4.453854561,-0.047263402,0.164496705,1.081303477
24.116650,0.728196681,0.082508862,4.286007881,-0.046042699,0.168158814,1.082646251
24.148303,0.094956934,4.835621834,0.486569226,-0.057761449,0.134467408,1.055912852
24.149045,0.209397852,5.255238533,0.425534070,-0.052634496,0.134711549,1.056401134
24.149672,0.445909083,5.125538826,0.333981335,-0.055075902,0.133368775,1.055790782
24.150297,0.476426661,5.217091560,0.288204968,-0.055320043,0.132026002,1.053593516
24.150923,0.545091212,5.430714607,0.410275280,-0.053977270,0.131415650,1.055424571
24.151548,0.499314845,5.560414314,0.410275280,-0.053244848,0.136176392,1.055180430
24.152173,0.644273341,5.468861580,0.211911008,-0.055930395,0.135321900,1.051640391
24.152800,0.651902735,5.728260994,0.105099484,-0.056906957,0.133979127,1.054203868
24.153530,0.720567286,5.629078865,0.501828015,-0.055564184,0.133124635,1.052983165
24.154155,0.918931544,5.918995857,0.364498913,-0.059470434,0.132636353,1.049687266
24.154782,0.903672755,5.774037361,0.028805539,-0.056174535,0.132880494,1.050175548
24.155447,0.979966700,6.239430428,0.242428586,-0.055197973,0.130683228,1.047123790
24.156074,0.857896388,6.132618904,0.150875852,-0.056540746,0.135688111,1.047367930
24.156699,0.941819727,6.201283455,0.227169797,-0.056662817,0.138861939,1.047978282
24.158409,1.102036953,6.521718025,-0.139041141,-0.057273168,0.135688111,1.043827891
24.159211,1.216477871,6.369130135,-0.078005984,-0.058127660,0.138251588,1.043705821
24.160026,1.216477871,6.590382576,0.166134641,-0.056784887,0.140326783,1.041386485
24.160823,1.056260586,6.758229256,-0.276370227,-0.056174535,0.141059205,1.040531993
24.161637,1.109666348,6.750599861,-0.055117801,-0.058738012,0.141669556,1.039555430
24.162491,1.117295742,7.002369881,-0.261111438,-0.056418676,0.143744752,1.039433360
24.163306,0.949449122,6.971852303,-0.146670535,-0.059104223,0.142890260,1.038090587
24.163967,0.842637599,6.971852303,-0.283999622,-0.055564184,0.140692994,1.038578868
24.164592,0.812120020,7.002369881,-0.314517200,-0.059226293,0.143988892,1.037480235
24.165217,0.606126368,7.093922615,-0.535769641,-0.057517309,0.145331666,1.034062266
24.165843,0.613755763,7.277028084,-0.192446902,-0.058249731,0.145575806,1.033696055
24.166469,0.415391505,7.322804451,-0.558657825,-0.060935277,0.143622681,1.034550548
24.167094,0.377244532,7.215992928,-0.467105091,-0.056052465,0.144721314,1.033085704
24.168797,-0.072889745,7.528798103,-0.589175403,-0.054221410,0.148749635,1.032597423
24.169422,-0.355177343,7.307545662,-0.650210559,-0.058371801,0.146430299,1.031498790
24.170047,-0.576429784,7.483021736,-0.520510852,-0.060569067,0.145331666,1.032841563
24.170672,-0.713758886,7.589833260,-0.673098743,-0.056784887,0.147040650,1.028202891
24.171297,-1.179152012,7.597462654,-0.558657825,-0.056784887,0.145453736,1.027592540
24.171923,-1.285963535,7.353322029,-0.673098743,-0.058615942,0.147528931,1.026615977
24.172548,-1.453810215,7.559315681,-0.589175403,-0.061789770,0.146674439,1.025395274
24.173173,-1.713209629,7.589833260,-0.917239368,-0.063010469,0.148017213,1.026615977
24.173799,-2.026014805,7.795826912,-0.627322376,-0.060813207,0.145942017,1.019291759
24.174429,-2.148085117,7.643239021,-1.001162767,-0.062033910,0.142035767,1.018681407
24.175256,-2.659254551,7.879750252,-0.833316028,-0.060569067,0.142035767,1.019413829
24.176065,-3.078871250,7.917897224,-0.909609973,-0.063376680,0.143622681,1.013188243
24.176857,-3.475599766,7.933156013,-0.978274524,-0.062155981,0.141913697,1.016850352
24.178864,-4.070692539,7.750050545,-1.100344896,-0.063620821,0.142157838,1.012211680
24.179490,-4.429274082,7.811085701,-0.940127552,-0.062888399,0.141913697,1.013554454
24.180117,-4.940443516,7.872120857,-1.031680346,-0.062766328,0.137641236,1.010868907
24.180743,-5.360060215,7.734791756,-1.100344896,-0.062400121,0.133857056,1.006840587
24.181368,-5.512648106,7.673756599,-1.260562181,-0.066916719,0.136786744,1.006230235
24.181993,-5.878859043,7.605092049,-1.367373705,-0.061301488,0.138984010,1.003544688
24.182619,-6.084852695,7.719532967,-1.146121264,-0.064109102,0.134589478,1.001713634
24.183245,-6.473951817,7.627980232,-1.245303392,-0.064719453,0.133124635,1.002446055
24.197188,-5.993299961,5.217091560,-1.199527025,-0.070578828,0.094184205,0.976445079
24.197925,-5.695753574,5.171315193,-1.397891283,-0.072287813,0.089423463,0.977299571
24.198550,-5.573683262,5.133168221,-1.138491869,-0.074729219,0.091010377,0.976200938
24.199177,-5.291395664,5.156056404,-1.283450365,-0.073874727,0.086859986,0.977055430
24.199802,-5.070143223,5.041615486,-1.230044603,-0.072165743,0.085761353,0.978764415
24.200429,-4.795485020,4.660145760,-1.031680346,-0.068625703,0.084296510,0.980351329
24.201055,-4.238539219,4.652516365,-1.298709154,-0.071189180,0.082953736,0.979008555
24.201681,-4.177504063,4.454152107,-1.230044603,-0.073996797,0.085151002,0.978520274
24.202307,-3.918104649,4.431263924,-1.046939135,-0.069480196,0.078925416,0.980961680
24.202933,-3.368788242,4.438893318,-1.283450365,-0.068625703,0.082343385,0.978154063
24.203558,-2.979689121,4.049794197,-1.146121264,-0.071799532,0.078803346,0.979863048
24.204184,-2.766066074,4.080311775,-1.092715502,-0.069846407,0.079169556,0.976811290
24.204811,-2.552443027,4.148976326,-1.115603685,-0.071921602,0.075263306,0.976567149
24.205436,-2.178602695,3.836170912,-0.978274524,-0.071311250,0.077582642,0.979863048
24.207134,-1.270704746,3.447071791,-0.764651477,-0.072043672,0.074775025,0.981694102
24.207760,-1.110487461,3.828541517,-0.909609973,-0.072287813,0.075263306,0.981816173
24.208386,-0.736647069,3.698841810,-0.932498157,-0.071189180,0.074164674,0.981938243
24.209017,-0.828199804,3.477589369,-0.924868762,-0.072898164,0.073188111,0.982792735
24.209643,-0.385694921,3.317372084,-0.787539661,-0.075461641,0.071723267,0.981938243
24.210268,0.049180567,3.378407240,-0.779910266,-0.072531953,0.074286744,0.981327891
24.210894,0.033921778,3.370777845,-0.711245716,-0.076316133,0.072821900,0.985844493
24.211519,0.346726954,3.485218763,-0.711245716,-0.077048555,0.073188111,0.988774180
24.212146,0.667161524,3.126637220,-0.695986927,-0.074607149,0.070014283,0.987553477
24.212771,0.720567286,3.363148451,-0.650210559,-0.070700899,0.070868775,0.989140391
24.213396,0.743455470,3.256336927,-0.520510852,-0.073142305,0.070746705,0.986332774
24.214021,0.995225489,3.218189955,-0.604434192,-0.071311250,0.072821900,0.989628673
24.214646,1.132554531,3.141896009,-0.589175403,-0.069968477,0.071845338,0.989628673
24.215273,1.414842129,3.088490248,-0.375552356,-0.071311250,0.072577760,0.990361094
24.215898,1.300401211,3.195301771,-0.428958118,-0.075461641,0.069892213,0.992680430
24.217602,1.391953945,3.248707533,-0.413699329,-0.073630586,0.074408814,0.994999766
24.218228,1.422471523,3.347889662,-0.238223270,-0.074729219,0.073432252,0.993290782
24.218854,1.323289394,3.340260267,0.005917355,-0.070700899,0.076239869,0.994877696
24.219480,1.369065762,3.569142103,-0.238223270,-0.071189180,0.074897096,0.992802501
24.220107,1.094407558,3.668324232,0.120358273,-0.072287813,0.073920533,0.993779063
24.220733,1.140183926,3.576771498,0.112728879,-0.072654024,0.073554322,0.996708751
24.221360,1.063889980,3.767506361,0.112728879,-0.073020235,0.074286744,0.998906016
24.221985,0.827378809,3.752247572,0.227169797,-0.071555391,0.076117799,1.000004649
24.222612,0.964707911,3.836170912,0.135617062,-0.070822969,0.077948853,0.997807384
24.223239,0.743455470,3.881947279,0.387387097,-0.070578828,0.076728150,0.996342540
24.223866,0.346726954,3.820912123,0.166134641,-0.072531953,0.075141236,0.999028087
24.224492,0.331468165,3.965870619,0.402645886,-0.071677461,0.078070924,0.998051524
24.225118,0.110215724,4.179493904,0.562863171,-0.071433321,0.077460572,0.999760509
24.225744,0.201768458,4.293934822,0.440792859,-0.070212618,0.079535767,0.997929454
24.226370,-0.400953710,4.240529060,0.654415905,-0.069724336,0.082465455,0.997319102
24.228071,-0.927381933,4.423634529,0.669674695,-0.072531953,0.081000611,0.996220469
24.228697,-1.064711094,4.683033943,0.852780163,-0.072043672,0.083442017,0.993168712
24.229322,-1.537733555,4.820363045,0.829891980,-0.072776094,0.082831666,0.992314219
24.229947,-1.919203281,4.820363045,0.822262585,-0.073630586,0.085151002,0.992924571
24.230574,-2.193861485,4.629628181,1.104550123,-0.072043672,0.084296510,0.995121837
24.244382,-8.182935715,6.071583748,2.157406569,-0.075217500,0.070502564,0.978398204
24.245073,-8.015089035,6.140248299,2.264218092,-0.074485078,0.067450806,0.978276134
24.245699,-8.060865402,6.063954353,2.531246901,-0.077170625,0.069159791,0.975590587
24.246326,-7.938795567,6.437794685,2.210812330,-0.077658907,0.069526002,0.977055430
24.246952,-8.144788742,6.132618904,2.500729322,-0.078025118,0.066474244,0.977177501
24.247577,-7.915907383,6.308094978,2.485470533,-0.079245821,0.067939088,0.977177501
24.248202,-7.809095860,6.468312263,2.676205397,-0.078513399,0.067328736,0.976567149
24.248827,-7.786207676,6.475941658,2.424435377,-0.079612032,0.063910767,0.973759532
24.249453,-7.473402500,6.575123787,2.691464186,-0.079123750,0.065741822,0.975346446
24.250080,-7.419996738,6.468312263,2.866940260,-0.081687227,0.066596314,0.972660899
24.250705,-7.397108555,6.636158943,2.798275709,-0.080100313,0.069892213,0.968998790
24.251330,-7.206373692,6.758229256,2.729611158,-0.083518282,0.065497681,0.970463634
24.251957,-7.107191563,6.468312263,2.912716627,-0.080222383,0.064399049,0.970097423
24.252583,-6.916456699,6.811635017,2.950863600,-0.082053438,0.066474244,0.963871837
24.254362,-6.138258457,6.529347420,3.195004225,-0.088889375,0.069037721,0.956303477
24.255102,-5.939894199,6.659047127,3.027157545,-0.083030000,0.068671510,0.953984141
24.255915,-5.619459629,6.628529549,3.156857252,-0.077903047,0.071357056,0.958622813
24.256675,-5.390577793,6.697194099,3.416256666,-0.080100313,0.075141236,0.954960704
24.257452,-4.764967442,6.590382576,3.378109694,-0.081565157,0.075141236,0.953129649
24.258251,-4.497938633,6.384388924,3.233151197,-0.084128633,0.075751588,0.950322032
24.259074,-4.261427402,6.506459236,3.439144850,-0.086936250,0.074775025,0.948979259
24.259853,-4.154615879,6.529347420,3.347592115,-0.088156953,0.075263306,0.950688243
24.260656,-3.750257969,6.407277107,3.515438795,-0.084250703,0.077094361,0.952397227
24.261433,-3.559523106,6.605641365,3.317074537,-0.084861055,0.078315064,0.948735118
24.262245,-3.452711582,6.300465584,3.515438795,-0.086325899,0.080024049,0.946293712
24.262993,-3.437452793,6.269948006,3.568844557,-0.086447969,0.081855103,0.947148204
24.264998,-2.903395176,5.751149178,3.637509108,-0.088889375,0.081244752,0.939335704
24.265799,-2.674513340,5.629078865,3.660397291,-0.093283907,0.084052369,0.936772227
24.266615,-2.438002110,5.239979744,3.927426100,-0.090598360,0.084906861,0.937870860
24.267408,-2.170973301,5.049244881,3.454403639,-0.088156953,0.084174439,0.937504649
24.268198,-1.865797520,4.652516365,3.645138502,-0.092429414,0.082831666,0.932133555
24.268982,-1.652174473,4.591481209,3.767208815,-0.088889375,0.078070924,0.931156993
24.269798,-1.408033848,4.278676033,3.874020338,-0.092307344,0.081000611,0.930668712
24.270592,-0.957899511,4.034535408,3.751950026,-0.089621797,0.077094361,0.927006602
24.271362,-0.881605566,3.889576674,3.729061842,-0.091941133,0.075995728,0.923832774
24.272157,-0.088148534,3.790394545,3.774838209,-0.093039766,0.075751588,0.921147227
24.272944,-0.042372167,3.752247572,3.599362135,-0.092063203,0.077460572,0.920903087
24.273751,0.537461817,3.370777845,3.881649733,-0.092917696,0.079047486,0.925785899
24.275614,1.491136074,2.981678724,3.996090651,-0.090598360,0.081244752,0.929936290
24.276241,1.552171230,2.752796888,3.851132154,-0.093283907,0.084296510,0.935063243
24.276867,1.399583340,2.768055677,3.919796705,-0.091208711,0.084540650,0.936283946
24.277494,1.849717617,2.653614759,3.835873365,-0.091574922,0.086371705,0.938603282
24.278120,1.826829433,2.523915052,4.034237862,-0.092673555,0.084784791,0.941410899
24.278746,1.933640957,2.478138685,4.026608467,-0.089133516,0.087226197,0.945927501
24.279372,1.910752773,2.600208998,3.950314283,-0.090842500,0.087958619,0.948002696
24.279997,1.994676113,2.172962904,3.866390944,-0.091941133,0.085883424,0.950077891
24.280622,1.903123379,2.501026869,4.110531807,-0.089743868,0.086982056,0.951054454
24.281249,1.826829433,2.478138685,3.973202467,-0.086570039,0.086982056,0.953984141
24.281875,2.109117031,2.249256849,4.232602119,-0.086814180,0.086249635,0.953740001
24.295802,3.650254726,2.905384779,4.682736397,-0.081443086,0.075995728,0.954838634
24.296827,3.863877773,3.035084486,4.499630928,-0.081565157,0.079779908,0.957280040
24.297601,3.932542324,3.004566908,4.827694893,-0.078391328,0.079413697,0.956181407
24.298414,3.604478359,2.867237806,4.697995186,-0.084861055,0.082465455,0.958012462
24.299212,3.634995937,3.103749037,4.858212471,-0.082175508,0.080634400,0.958500743
24.299976,3.406114101,3.073231459,4.987912178,-0.085227266,0.084418580,0.956547618
24.300781,3.177232265,2.943531752,5.048947334,-0.085959688,0.086005494,0.958744884
24.301558,2.818650723,3.080860853,5.087094307,-0.081931368,0.089545533,0.957280040
24.302226,2.376145840,3.065602064,5.125241280,-0.082907930,0.092719361,0.955937266
24.302853,2.368516445,3.157154799,5.140500069,-0.080832735,0.091986939,0.957280040
24.303478,2.269334316,3.073231459,5.094723701,-0.080588594,0.095404908,0.959721446
24.304104,1.887864590,3.126637220,5.331234932,-0.078025118,0.093207642,0.959355235
24.305814,0.995225489,3.492848158,5.354123116,-0.079856172,0.096381471,0.959965587
24.306439,0.636643946,3.508106947,5.331234932,-0.078025118,0.097846314,0.962040782
24.307064,-0.042372167,3.538624525,5.293087959,-0.081076875,0.099433228,0.962162852
24.307690,-0.370436132,3.553883314,5.544857979,-0.083152071,0.099189088,0.961796641
24.308316,-0.645094335,3.538624525,5.468564034,-0.080466524,0.097480103,0.961308360
24.308942,-0.904493749,3.622547865,5.315976143,-0.084494844,0.099433228,0.965580821
24.309568,-1.438551426,3.950611830,5.590634346,-0.085349336,0.101630494,0.959233165
24.310276,-1.881056309,3.820912123,5.537228584,-0.084983125,0.098578736,0.961186290
24.311086,-2.422743320,4.034535408,5.590634346,-0.088767305,0.100409791,0.957035899
24.311896,-2.888136387,3.866688490,5.483822823,-0.085715547,0.101752564,0.956913829
24.312702,-3.193312168,3.721729994,5.506711006,-0.084861055,0.099921510,0.955571055
24.313329,-3.376417637,3.927723646,5.644040108,-0.089743868,0.100043580,0.955326915
24.313954,-3.475599766,3.798023939,5.659298897,-0.087058321,0.101630494,0.953862071
24.314579,-4.009657383,3.859059095,5.544857979,-0.087546602,0.099555299,0.948857188
24.316290,-4.352980137,3.508106947,5.705075264,-0.083274141,0.102851197,0.947880626
24.316916,-4.665785313,3.561512709,5.651669502,-0.081931368,0.103095338,0.945927501
24.317543,-4.696302891,3.622547865,5.270199776,-0.081687227,0.105170533,0.947148204
24.318168,-4.490309238,3.553883314,5.666928291,-0.080710664,0.105902955,0.946415782
24.318793,-4.764967442,3.485218763,5.415158272,-0.078513399,0.107734010,0.947392344
24.319418,-4.810743809,3.370777845,5.583004951,-0.076071993,0.105658814,0.946537852
24.320043,-4.970961094,3.386036634,5.483822823,-0.078391328,0.110175416,0.946293712
24.320701,-4.887037754,3.393666029,5.598263741,-0.076316133,0.108466431,0.947270274
24.321326,-5.016737461,3.386036634,5.720334053,-0.077536836,0.107856080,0.948124766
24.321952,-5.009108067,3.462330580,5.460934639,-0.074729219,0.112860963,0.950932384
24.322578,-5.047255039,3.393666029,5.583004951,-0.077292696,0.113471314,0.947758555
24.323203,-5.306654453,3.187672377,5.407528877,-0.078269258,0.112738892,0.953129649
24.323829,-5.321913242,3.317372084,5.430417061,-0.078757539,0.116523072,0.954838634
24.324454,-5.299025059,3.431813002,5.407528877,-0.077903047,0.117865846,0.953251719
24.325079,-5.550795078,3.157154799,5.537228584,-0.080100313,0.118598267,0.950566173
24.326780,-5.733900547,3.248707533,5.445675850,-0.077170625,0.120185181,0.953862071
24.327406,-5.886488438,3.271595716,5.338864326,-0.077780977,0.122016236,0.955326915
24.328033,-5.894117832,3.393666029,4.987912178,-0.077903047,0.119941041,0.956303477
24.328659,-5.749159336,3.218189955,5.422787666,-0.077170625,0.122992799,0.955693126
24.329285,-5.962782383,3.363148451,5.094723701,-0.079489961,0.123725221,0.956791759
24.329910,-6.191664219,3.340260267,5.155758858,-0.077292696,0.125678346,0.954106212
24.330537,-5.924635410,3.340260267,5.163388252,-0.078147188,0.124213502,0.954960704
24.331163,-6.252699375,3.317372084,5.148129463,-0.077170625,0.122016236,0.955693126
24.344986,-2.865248203,3.500477552,3.950314283,-0.076316133,0.119818971,0.945683360
24.345684,-2.781324863,3.256336927,3.767208815,-0.076071993,0.124091431,0.945927501
24.346310,-2.384596348,3.187672377,3.721432447,-0.078147188,0.119452760,0.943730235
24.346937,-2.323561192,3.134266615,3.553585768,-0.075827852,0.121161744,0.944218516
24.347563,-2.438002110,3.447071791,3.614620924,-0.077048555,0.119696900,0.946904063
24.348189,-1.797132969,3.309742689,3.523068190,-0.080588594,0.121894166,0.946049571
24.348814,-1.858168125,3.347889662,3.362850904,-0.080954805,0.124213502,0.943608165
24.349440,-1.644545078,3.210560560,3.362850904,-0.081809297,0.120551392,0.943486094
24.350066,-1.583509922,3.065602064,3.385739088,-0.081198946,0.121161744,0.939579844
24.350692,-1.408033848,3.065602064,3.393368483,-0.084372774,0.120429322,0.943364024
24.351317,-1.217298985,3.157154799,3.217892408,-0.080344453,0.117377564,0.940312266
24.351943,-1.034193516,3.141896009,3.393368483,-0.083152071,0.119086549,0.936772227
24.352570,-1.095228672,3.012196302,3.019528151,-0.082419649,0.120185181,0.937504649
24.353196,-0.927381933,2.928272963,3.027157545,-0.080466524,0.121039674,0.940556407
24.354954,-0.431471288,2.737538099,2.989010572,-0.081931368,0.116034791,0.938115001
24.355581,-0.080519140,2.775685072,2.973751783,-0.081931368,0.118720338,0.936894298
24.356207,-0.126295507,2.752796888,3.027157545,-0.082053438,0.115912721,0.935917735
24.356834,0.232286036,2.768055677,3.027157545,-0.084616914,0.118598267,0.934208751
24.357461,0.072068751,2.554432631,2.813534498,-0.080710664,0.115424439,0.933354259
24.358203,0.262803614,2.554432631,2.905087233,-0.086570039,0.118476197,0.928959727
24.358828,0.239915431,2.325550795,2.744869947,-0.083152071,0.117377564,0.934330821
24.359454,0.552720606,2.630726576,2.676205397,-0.084250703,0.115546510,0.932621837
24.360079,0.651902735,2.577320814,2.683834791,-0.083640352,0.113471314,0.933110118
24.360704,0.796861231,2.363697767,2.813534498,-0.085837618,0.113471314,0.933964610
24.361508,0.514573634,2.310292006,2.493099928,-0.085471407,0.116034791,0.934086680
24.362237,0.926560938,2.272145033,2.638058424,-0.087058321,0.114081666,0.934086680
24.363032,0.972337306,2.028004408,2.645687819,-0.088523164,0.109809205,0.934574962
24.363785,0.720567286,2.150074720,2.569393873,-0.088034883,0.111274049,0.932133555
24.365780,1.155442715,1.875416517,2.271847486,-0.088889375,0.107734010,0.934086680
24.366546,1.124925137,1.944081068,2.233700514,-0.092917696,0.105780885,0.933354259
24.367366,1.468247890,1.493946791,2.287106276,-0.089255586,0.108344361,0.931523204
24.368144,1.346177578,1.791493177,2.203182936,-0.087790743,0.101752564,0.928227305
24.368786,1.674241543,1.387135267,2.149777174,-0.088767305,0.104560181,0.927739024
24.369412,1.552171230,1.455799818,2.279476881,-0.089011446,0.103217408,0.925907969
24.370037,1.575059414,1.295582533,1.936154127,-0.086447969,0.100409791,0.926518321
24.370663,1.864976406,1.341358900,2.035336256,-0.087668672,0.097846314,0.921635509
24.371290,1.895493984,1.020924330,2.027706861,-0.086081758,0.098578736,0.923588634
24.371916,1.926011562,0.990406811,2.058224440,-0.086692110,0.098334596,0.921513438
24.372542,2.086228848,1.097218275,1.936154127,-0.090354219,0.100043580,0.922245860
24.373167,2.284593105,0.776783764,2.142147779,-0.089377657,0.099677369,0.920658946
24.373793,2.307481289,0.814930737,2.050595045,-0.090598360,0.096259400,0.923222423
24.374419,2.727097988,0.784413159,1.859860182,-0.089743868,0.101386353,0.919804454
24.376115,2.948350430,0.433461010,1.882748365,-0.092185274,0.098456666,0.923710704
24.376742,2.887315273,0.692860425,1.920895338,-0.093650118,0.095038697,0.917973399
24.377367,3.177232265,0.395314038,1.974301100,-0.093650118,0.098944947,0.922612071
24.377992,3.306931973,0.029103100,1.898007154,-0.093283907,0.097480103,0.924198985
24.378617,2.910203457,0.166432202,1.859860182,-0.095725313,0.098700806,0.924198985
24.379244,2.780503750,0.097767651,1.974301100,-0.095969453,0.098578736,0.924687266
24.398414,-4.162245274,-1.641734362,2.020077467,-0.096579805,0.107489869,0.926762462
24.412445,-8.617811203,-2.030833483,1.356320143,-0.094382539,0.119696900,0.925175548
24.413565,-9.190015793,-1.985057116,1.188473463,-0.097678438,0.118476197,0.919560313
24.414368,-9.228162766,-2.114756823,1.165585279,-0.094870821,0.121161744,0.919438243
24.415148,-9.334974289,-2.107127428,1.142697096,-0.100119844,0.119574830,0.918827891
24.415775,-9.457044601,-2.198680162,1.272396803,-0.098166719,0.118354127,0.917485118
24.416401,-9.602003098,-2.252085924,1.104550123,-0.100852266,0.117377564,0.919682384
24.417028,-9.640150070,-2.488597155,0.936703503,-0.101462618,0.117987916,0.914799571
24.417654,-9.556226730,-2.534373522,0.990109265,-0.101462618,0.115424439,0.913334727
24.418341,-9.518079758,-2.778514147,0.967221081,-0.103049532,0.116034791,0.910527110
24.418967,-9.518079758,-2.778514147,0.967221081,-0.103049532,0.116034791,0.910527110
24.419594,-9.533338547,-3.091319323,0.791745007,-0.103904024,0.116401002,0.910160899
24.420219,-9.220533371,-3.159983873,0.677304089,-0.106345430,0.112983033,0.910038829
24.420844,-9.212903976,-3.274424791,0.501828015,-0.105246797,0.116767213,0.908696055
24.422525,-9.083204269,-3.625376940,0.509457409,-0.107077852,0.114447877,0.906742930
24.423150,-8.831434250,-3.541453600,0.448422253,-0.106711641,0.116034791,0.910038829
24.423777,-8.457593918,-3.854258776,0.410275280,-0.109641328,0.115546510,0.905522227
24.424403,-8.579664230,-3.915293932,0.333981335,-0.103904024,0.116645142,0.905644298
24.425029,-8.419446945,-4.136546135,0.158505246,-0.106467500,0.115180299,0.909916759
24.425680,-8.358411789,-4.434092522,0.143246457,-0.107199922,0.118354127,0.907963634
24.426306,-7.946424961,-4.495127678,0.005917355,-0.106101289,0.114692017,0.906010509
24.426931,-8.045606613,-4.518015862,0.135617062,-0.105979219,0.116156861,0.903447032
24.427557,-7.976942539,-4.838450432,0.005917355,-0.104514375,0.116156861,0.905644298
24.428182,-8.037977219,-4.930003166,-0.085635379,-0.105002657,0.116401002,0.908818126
24.428808,-7.831984043,-4.907114983,-0.184817508,-0.107932344,0.114081666,0.909184337
24.429434,-7.687025547,-5.280955315,-0.299258411,-0.103171602,0.115180299,0.908696055
24.430059,-7.488661289,-5.448801994,-0.390811145,-0.106833711,0.115180299,0.906987071
24.430684,-7.358961582,-5.593760490,-0.192446902,-0.104636446,0.116156861,0.905522227
24.431310,-7.511549473,-5.731089592,-0.345034778,-0.107077852,0.116401002,0.911625743
24.432991,-7.236891270,-6.326182365,-0.451846302,-0.106955782,0.115912721,0.914433360
24.433616,-7.168226719,-6.265147209,-0.673098743,-0.105368868,0.115058228,0.911869884
24.434242,-7.107191563,-6.539805412,-0.619692981,-0.105613008,0.114081666,0.913090587
24.434868,-6.840162754,-6.524546623,-0.718875110,-0.107321993,0.113959596,0.914311290
24.435494,-7.076673985,-6.890757561,-0.787539661,-0.110251680,0.107856080,0.914067149
24.436119,-6.794386387,-6.852610588,-0.894351184,-0.112571016,0.110907838,0.913334727
24.436745,-6.763868809,-7.020457268,-0.985903919,-0.107810274,0.114447877,0.912602305
24.437370,-6.512098789,-7.157786369,-1.062197924,-0.108054414,0.112738892,0.914433360
24.437997,-6.695204258,-7.218821526,-1.092715502,-0.109030977,0.111396119,0.914921641
24.438623,-6.557875156,-7.432444572,-1.001162767,-0.111838594,0.108344361,0.912968516
24.439248,-6.397657871,-7.394297600,-1.169009447,-0.110373750,0.111274049,0.916996837
24.439875,-6.428175449,-7.638438225,-1.024050951,-0.108420625,0.110053346,0.917851329
24.440500,-6.397657871,-7.745249748,-1.382632494,-0.110984102,0.105902955,0.917729259
24.441126,-6.420546055,-7.691843987,-1.359744310,-0.109641328,0.110297486,0.918461680
24.441751,-6.145887852,-8.065684319,-1.298709154,-0.109397188,0.107367799,0.919072032
24.443435,-5.688124180,-8.256419182,-1.558108568,-0.113059297,0.105536744,0.918461680
24.444062,-5.825453281,-8.454783440,-1.580996752,-0.111716524,0.104438111,0.918339610
24.444687,-5.642347813,-8.576853752,-1.519961596,-0.112571016,0.105658814,0.920048594
24.445314,-5.642347813,-8.714182854,-1.550479174,-0.114157930,0.107489869,0.920292735
24.445941,-5.588942051,-8.828623772,-1.580996752,-0.114157930,0.106635377,0.921635509
24.459728,-2.941542149,-10.606272697,-2.366824389,-0.109275118,0.086859986,0.948735118
24.460645,-2.705030918,-11.056406975,-2.519412279,-0.110251680,0.084540650,0.950199962
24.461272,-2.682142735,-10.774119377,-2.664370775,-0.106589571,0.085761353,0.950322032
24.461897,-2.643995762,-10.751231194,-2.412600756,-0.109275118,0.085395142,0.952153087
24.462523,-2.468519688,-10.964854240,-2.229495287,-0.108786836,0.085639283,0.958866954
24.463161,-2.605848789,-10.674937248,-2.443118334,-0.110862032,0.083319947,0.959233165
24.463786,-2.445631504,-10.758860588,-2.305789232,-0.106223360,0.084296510,0.958866954
24.464413,-2.308302402,-10.659678459,-2.610965014,-0.105490938,0.082953736,0.961430430
24.465038,-2.354078770,-10.560496330,-2.527041674,-0.108908907,0.084174439,0.963505626
24.465663,-2.491407871,-10.545237541,-2.557559252,-0.110373750,0.083075806,0.961674571
24.466290,-2.521925449,-10.682566643,-2.473635912,-0.111716524,0.082831666,0.967656016
24.466916,-2.422743320,-10.385020256,-2.481265306,-0.110373750,0.081488892,0.964970469
24.467541,-2.476149082,-10.499461174,-2.511782885,-0.109397188,0.084418580,0.968266368
24.468167,-2.293043613,-10.262949944,-2.481265306,-0.108664766,0.080634400,0.969609141
24.470079,-2.491407871,-10.262949944,-2.496524096,-0.105368868,0.079169556,0.968998790
24.470704,-2.582960606,-10.339243889,-2.694888353,-0.107444063,0.080634400,0.972782969
24.471329,-2.727919102,-10.140879631,-2.504153490,-0.110617891,0.080878541,0.975224376
24.471955,-2.888136387,-10.148509026,-2.778811693,-0.109275118,0.079657838,0.967656016
24.472581,-2.834730625,-10.018809319,-2.443118334,-0.107444063,0.079047486,0.969975352
24.473208,-2.979689121,-10.026438713,-2.504153490,-0.106589571,0.077582642,0.972416759
24.473834,-2.933912754,-9.812815666,-2.473635912,-0.106589571,0.080024049,0.973027110
24.474460,-3.200941563,-9.950144768,-2.664370775,-0.107566133,0.080512330,0.974858165
24.475085,-3.628187656,-9.805186272,-2.313418627,-0.107566133,0.079779908,0.974003673
24.475712,-3.559523106,-9.751780510,-2.527041674,-0.108542696,0.081488892,0.974736094
24.476338,-3.536634922,-9.652598381,-2.527041674,-0.107199922,0.082953736,0.975102305
24.476963,-4.162245274,-9.385569572,-2.450747728,-0.109519258,0.078559205,0.976445079
24.477588,-4.162245274,-9.385569572,-2.450747728,-0.109519258,0.078559205,0.976445079
24.478213,-4.391127110,-9.431345940,-2.328677416,-0.111228243,0.078925416,0.977909923
24.478839,-4.368238926,-9.309275627,-2.504153490,-0.111106172,0.078559205,0.976933360
24.480545,-4.955702305,-9.225352287,-2.572818041,-0.109885469,0.079413697,0.977665782
24.481172,-5.131178379,-8.988841057,-2.328677416,-0.110251680,0.077826783,0.977177501
24.481798,-5.321913242,-9.004099846,-2.137942553,-0.111472383,0.078070924,0.979008555
24.482424,-5.634718418,-9.065135002,-2.565188646,-0.111716524,0.076606080,0.978276134
24.483050,-5.733900547,-9.026988029,-2.534671068,-0.111228243,0.074897096,0.979618907
24.483676,-5.802565098,-8.904917717,-2.542300463,-0.113303438,0.078070924,0.977909923
24.484302,-6.199293613,-8.782847404,-2.404971361,-0.113303438,0.074652955,0.977299571
24.484929,-6.275587559,-8.805735588,-2.343936205,-0.111838594,0.073066041,0.977787852
24.485555,-6.397657871,-8.637888908,-2.374453783,-0.110129610,0.071723267,0.981205821
24.486182,-6.824903965,-8.653147697,-2.557559252,-0.109153047,0.071723267,0.976323009
24.486808,-6.969862461,-8.485301018,-2.260012865,-0.110129610,0.072211549,0.979252696
24.487434,-6.931715488,-8.653147697,-2.206607103,-0.110251680,0.071723267,0.979863048
24.488061,-7.168226719,-8.294566154,-2.481265306,-0.110373750,0.068793580,0.981694102
24.488687,-7.419996738,-8.286936760,-2.084536791,-0.108054414,0.066352174,0.982548594
24.489312,-7.473402500,-8.279307365,-2.321048021,-0.107444063,0.066962525,0.981816173
24.491092,-8.045606613,-8.080943108,-2.366824389,-0.108664766,0.063422486,0.981572032
24.491882,-8.099012375,-8.012278557,-2.221865892,-0.108786836,0.065741822,0.979496837
24.492680,-8.305006027,-7.874949455,-2.099795580,-0.110129610,0.061103150,0.978154063
24.506899,-9.533338547,-7.768137932,-1.283450365,-0.119406953,0.053412721,0.960575938
24.507624,-9.273939133,-7.661326408,-1.451297045,-0.116965547,0.057074830,0.959721446
24.508249,-9.502820969,-7.752879143,-1.275820971,-0.121970430,0.056220338,0.956669688
24.508875,-9.457044601,-7.806284904,-1.344485521,-0.118796602,0.055121705,0.960209727
24.509501,-9.312086105,-7.905467033,-1.420779467,-0.116843477,0.052314088,0.960087657
24.510127,-9.434156418,-7.951243401,-1.062197924,-0.119406953,0.054633424,0.958866954
24.510753,-9.334974289,-8.203013420,-1.237673998,-0.118552461,0.053901002,0.961064219
24.511378,-9.266309738,-8.149607658,-1.161380053,-0.117087618,0.053534791,0.958134532
24.512004,-9.144239426,-8.370860100,-1.191897631,-0.119040743,0.053290650,0.959965587
24.512629,-9.121351242,-8.462412834,-0.917239368,-0.117697969,0.054023072,0.961430430
24.513256,-8.854322433,-8.615000725,-1.077456713,-0.119773164,0.050605103,0.960331798
24.513881,-8.915357590,-8.508189201,-1.077456713,-0.118064180,0.050727174,0.960209727
24.514508,-8.739881516,-8.935435295,-0.940127552,-0.115866914,0.050727174,0.960453868
24.515134,-8.587293625,-8.943064690,-1.107974291,-0.120749727,0.047675416,0.962162852
24.516853,-8.274488449,-8.851511955,-0.810427845,-0.119895235,0.045234010,0.960087657
24.517478,-8.114271164,-9.255869865,-0.970645130,-0.117209688,0.044989869,0.960942149
24.518105,-7.824354649,-9.194834709,-0.955386341,-0.115744844,0.044501588,0.962651134
24.518730,-7.557325840,-9.561045647,-0.795169055,-0.114646211,0.046820924,0.961430430
24.519355,-7.282667637,-9.454234123,-0.848574817,-0.117453828,0.044989869,0.963749766
24.519982,-6.969862461,-9.690745354,-0.772280872,-0.116111055,0.043647096,0.963505626
24.520609,-6.527357578,-9.805186272,-0.757022083,-0.115378633,0.041327760,0.965214610
24.521234,-6.145887852,-9.820445061,-0.718875110,-0.116843477,0.040473267,0.964848399
24.521861,-5.840712070,-9.911997795,-0.695986927,-0.115744844,0.039496705,0.966313243
24.522487,-4.917555332,-10.026438713,-0.695986927,-0.114890352,0.040961549,0.966069102
24.523112,-4.917555332,-10.026438713,-0.695986927,-0.114890352,0.040961549,0.966069102
24.523738,-4.215651035,-10.262949944,-0.657839954,-0.113303438,0.040473267,0.971928477
24.524364,-3.536634922,-10.438426018,-0.497622669,-0.113547578,0.042914674,0.971684337
24.524991,-3.208570957,-10.545237541,-0.558657825,-0.113303438,0.039496705,0.974614024
24.525617,-2.804213047,-10.407908440,-0.444216907,-0.111594453,0.041571900,0.974491954
24.527331,-1.804762363,-10.613902092,-0.390811145,-0.111716524,0.043647096,0.974736094
24.527958,-1.324110508,-10.713084221,-0.543399036,-0.109030977,0.039374635,0.976078868
24.528583,-0.912123144,-10.636790276,-0.558657825,-0.108664766,0.046332642,0.977909923
24.529209,-0.690870702,-10.758860588,-0.375552356,-0.110862032,0.047309205,0.978886485
24.529836,-0.255995214,-10.644419670,-0.406069934,-0.108664766,0.046576783,0.981205821
24.530462,0.293321192,-10.781748772,-0.253482044,-0.110862032,0.050238892,0.984501719
24.531087,0.636643946,-10.636790276,-0.398440540,-0.108908907,0.049506471,0.984135509
24.531713,0.751084864,-10.720713615,-0.375552356,-0.109519258,0.055609986,0.985234141
24.532338,0.957078516,-10.667307854,-0.428958118,-0.109275118,0.058905885,0.986576915
24.532963,1.193589687,-10.705454826,-0.268740833,-0.109641328,0.060126588,0.986454844
24.533588,1.246995449,-10.850413322,-0.283999622,-0.107444063,0.060981080,0.991215587
24.534215,1.506394863,-10.560496330,-0.123782352,-0.106589571,0.060370728,0.991948009
24.534841,1.628465176,-10.613902092,-0.322146595,-0.108786836,0.065131471,0.992070079
24.535467,1.536912441,-10.743601799,-0.222964481,-0.108664766,0.066108033,0.991215587
24.536092,1.590318203,-10.690196037,-0.230593875,-0.111350313,0.072577760,0.993290782
24.537794,1.430100918,-10.758860588,-0.146670535,-0.108664766,0.074775025,0.993534923
24.538419,1.033372402,-10.591013908,-0.146670535,-0.108908907,0.077460572,0.990239024
24.539045,0.819749415,-10.720713615,0.173764035,-0.107566133,0.082465455,0.994389415
24.539670,0.735826075,-10.720713615,-0.032229617,-0.108908907,0.085761353,0.991215587
24.553501,-6.992750645,-11.529429436,-0.146670535,-0.106101289,0.092231080,1.015873790
24.554203,-7.336073399,-11.529429436,-0.345034778,-0.108176485,0.086615846,1.013554454
24.554828,-7.641249180,-11.529429436,-0.093264773,-0.102561250,0.086493775,1.019413829
24.555454,-7.763319492,-11.407359123,-0.314517200,-0.100119844,0.086859986,1.023198009
24.556080,-8.076124191,-11.193736076,-0.230593875,-0.101828828,0.086493775,1.019902110
24.556706,-8.083753586,-11.323435783,-0.276370227,-0.103659883,0.083075806,1.020146251
24.557333,-8.182935715,-11.414988518,-0.169558719,-0.100363985,0.081610963,1.022953868
24.557959,-8.488111496,-11.018260002,-0.123782352,-0.102927461,0.081977174,1.022099376
24.558585,-8.564405441,-11.109812737,-0.345034778,-0.105124727,0.079657838,1.024906993
24.559212,-8.465223312,-10.949595451,-0.345034778,-0.103781953,0.080512330,1.026127696
24.559839,-8.640699387,-11.003001213,-0.032229617,-0.100730196,0.078803346,1.029667735
24.560464,-8.747510910,-10.850413322,-0.131411746,-0.103171602,0.077216431,1.030522227
24.561089,-8.510999680,-10.735972404,-0.093264773,-0.103537813,0.075751588,1.031498790
24.561715,-8.915357590,-10.911448479,-0.253482044,-0.103659883,0.075507447,1.027226329
24.563690,-8.419446945,-10.713084221,0.013546750,-0.106223360,0.074775025,1.035038829
24.564316,-8.640699387,-10.522349358,0.044064328,-0.106467500,0.074286744,1.033085704
24.564972,-8.587293625,-10.224802971,0.013546750,-0.104148164,0.075995728,1.036625743
24.565598,-8.594923019,-10.423167229,0.150875852,-0.108420625,0.074897096,1.041386485
24.566224,-8.518629074,-10.308726311,-0.001712039,-0.105490938,0.076361939,1.042973399
24.566849,-8.671216965,-10.049326897,0.326351941,-0.106833711,0.075507447,1.042729259
24.567475,-8.610181808,-10.087473869,0.051693723,-0.104392305,0.075385377,1.045658946
24.568101,-8.480482101,-9.927256584,0.082211301,-0.101828828,0.076728150,1.045170665
24.568727,-8.594923019,-9.942515373,0.204281613,-0.099753633,0.076728150,1.047001719
24.569353,-8.694105148,-9.820445061,0.150875852,-0.101462618,0.077216431,1.044072032
24.569978,-8.625440598,-9.675486565,0.120358273,-0.099875703,0.079413697,1.044926524
24.570604,-8.778028488,-9.683115959,0.242428586,-0.101828828,0.081610963,1.048832774
24.571230,-8.968763351,-9.370310783,0.074581906,-0.100241914,0.082099244,1.050541759
24.571856,-8.846693039,-9.515269279,0.135617062,-0.101462618,0.079535767,1.049076915
24.572481,-8.701734543,-9.194834709,0.189022824,-0.100974336,0.081855103,1.047612071
24.574198,-8.869581223,-9.049876213,0.478939831,-0.097312227,0.077094361,1.048832774
24.574825,-8.968763351,-9.080393791,0.280575573,-0.097556368,0.079535767,1.047490001
24.575452,-8.892469406,-8.798106194,0.280575573,-0.099753633,0.081610963,1.051030040
24.576077,-8.930616379,-8.836253166,0.234799191,-0.101218477,0.080268189,1.050541759
24.576702,-9.128980637,-8.691294670,0.570492566,-0.102683321,0.082343385,1.050785899
24.577329,-9.151868820,-8.523447990,0.410275280,-0.101340547,0.079657838,1.053349376
24.577956,-9.083204269,-8.630259514,0.173764035,-0.095114961,0.080512330,1.053593516
24.578583,-9.167127609,-8.309824944,0.623898327,-0.098288789,0.082953736,1.051762462
24.579209,-9.380750656,-8.164866447,0.501828015,-0.098655000,0.082709596,1.052861094
24.579835,-9.357862473,-8.180125237,0.364498913,-0.100363985,0.083197877,1.055424571
24.580461,-9.655408859,-7.874949455,0.402645886,-0.100119844,0.083197877,1.054448009
24.581088,-9.464673996,-7.592661858,0.517086804,-0.098777071,0.083686158,1.053471446
24.581713,-9.655408859,-7.791026115,0.448422253,-0.100730196,0.082343385,1.055180430
24.582339,-9.731702805,-7.462962151,0.456051648,-0.099631563,0.081122681,1.056401134
24.582966,-9.899549484,-7.485850334,0.539974988,-0.097434297,0.080756471,1.053837657
24.584679,-10.136060715,-7.318003654,0.738339245,-0.094382539,0.077338502,1.054936290
24.585304,-10.097913742,-6.974680901,0.501828015,-0.093650118,0.076972291,1.057865977
24.585931,-10.181837082,-7.020457268,0.456051648,-0.095969453,0.074042603,1.056279063
24.599818,-7.015638828,-5.158885002,0.692562878,-0.082175508,0.054145142,1.053959727
24.600546,-6.985121250,-4.891856194,1.066403151,-0.080466524,0.052680299,1.057743907
24.601172,-6.618910313,-4.762156487,1.035885572,-0.078391328,0.047675416,1.054936290
24.601797,-6.435804844,-4.632456779,0.959591687,-0.076926485,0.051703736,1.052983165
24.602422,-6.153517246,-4.601939201,1.226620436,-0.078025118,0.049872681,1.056523204
24.603049,-6.199293613,-4.601939201,1.348690748,-0.077780977,0.048529908,1.056645274
24.603675,-5.894117832,-4.197581291,1.028256178,-0.074118868,0.049750611,1.059574962
24.604301,-5.421095371,-4.090769768,1.341061354,-0.071067110,0.047431275,1.057621837
24.604926,-5.352430820,-4.197581291,1.318173170,-0.070822969,0.051947877,1.055058360
24.605552,-5.062513828,-4.136546135,1.486019850,-0.074729219,0.053534791,1.053959727
24.606177,-4.833631992,-3.823741198,1.188473463,-0.072287813,0.053778931,1.056767344
24.606803,-4.970961094,-3.793223619,1.310543776,-0.071677461,0.052924439,1.056523204
24.607429,-4.520826817,-3.762706041,1.432614088,-0.069480196,0.052558228,1.055790782
24.608056,-4.414015293,-3.510936022,1.463131666,-0.066306368,0.052802369,1.055424571
24.609772,-4.185133457,-3.350718737,1.600460768,-0.066916719,0.056220338,1.054203868
24.610398,-3.834181309,-3.205760241,1.402096510,-0.068137422,0.054755494,1.052861094
24.611023,-3.979139805,-2.778514147,1.356320143,-0.069602266,0.057563111,1.050907969
24.611649,-3.902845860,-2.870066881,1.722531080,-0.068503633,0.056830689,1.052494884
24.612276,-4.139357090,-2.786143541,1.630978346,-0.068137422,0.057563111,1.052616954
24.612902,-4.047804356,-2.595408678,1.676754713,-0.067649141,0.055243775,1.054325938
24.613528,-3.757887363,-2.564891100,1.730160475,-0.065451875,0.059638306,1.053471446
24.614154,-3.643446445,-2.717478991,1.493649244,-0.064475313,0.058295533,1.054081798
24.614779,-3.902845860,-2.244456530,1.730160475,-0.066184297,0.058295533,1.054448009
24.615405,-3.826551914,-2.183421373,1.943783522,-0.065940157,0.058905885,1.049931407
24.616030,-3.796034336,-2.236827135,1.920895338,-0.066672578,0.059638306,1.049565196
24.616655,-3.796034336,-1.893504381,1.768307447,-0.064719453,0.059394166,1.047978282
24.617280,-3.796034336,-1.893504381,1.768307447,-0.064719453,0.059394166,1.047978282
24.617906,-3.712110996,-1.977427721,1.867489576,-0.063376680,0.061103150,1.047367930
24.618533,-3.872328281,-1.687510729,1.798825026,-0.067649141,0.061469361,1.045781016
24.620258,-3.666334629,-1.656993151,2.126888990,-0.065207735,0.060248658,1.039555430
24.620885,-3.864698887,-1.603587389,1.852230787,-0.065696016,0.062567994,1.037480235
24.621511,-3.895216465,-1.725657701,1.936154127,-0.065451875,0.065863892,1.036381602
24.622136,-3.994398594,-1.679881334,1.966671705,-0.064109102,0.063178346,1.036503673
24.622763,-3.849440098,-1.740916491,2.142147779,-0.065085664,0.060859010,1.034550548
24.623389,-3.940992832,-1.702769518,2.218441725,-0.063620821,0.063178346,1.033329844
24.624019,-3.940992832,-1.679881334,2.218441725,-0.067649141,0.066230103,1.032841563
24.624645,-3.673964024,-1.573069811,2.065853834,-0.064841524,0.065619752,1.031132579
24.625271,-3.849440098,-1.733287096,2.294735670,-0.066184297,0.065131471,1.030156016
24.625897,-3.788404942,-1.710398912,2.134518385,-0.067160860,0.064154908,1.029057384
24.626523,-3.567152500,-1.656993151,2.073483229,-0.067527071,0.067694947,1.024052501
24.627149,-3.681593418,-1.725657701,2.271847486,-0.070334688,0.066230103,1.021733165
24.627774,-3.605299473,-1.794322252,2.332882643,-0.071067110,0.066474244,1.024662852
24.628399,-3.567152500,-2.084239244,2.165035963,-0.065085664,0.066596314,1.024052501
24.629025,-3.506117344,-2.023204088,2.332882643,-0.069846407,0.065619752,1.021244884
24.630741,-3.345900059,-2.259715319,2.424435377,-0.069724336,0.068183228,1.019169688
24.675917,-1.743727207,-8.882029533,1.096920729,-0.046042699,0.119574830,1.061406016
24.676708,-1.949720860,-9.080393791,1.241879225,-0.045920629,0.118720338,1.060917735
24.677334,-2.438002110,-8.920176506,1.043514967,-0.046042699,0.121527955,1.064701915
24.677961,-2.796583652,-8.653147697,1.035885572,-0.052390356,0.119330689,1.063603282
24.690170,-6.847792149,-7.112010002,0.318722546,-0.029074926,0.119941041,1.081425548
24.690863,-7.130079746,-6.753428459,0.257687390,-0.029074926,0.119086549,1.085087657
24.691488,-7.313185215,-6.638987541,0.082211301,-0.030905981,0.119086549,1.084721446
24.692114,-7.313185215,-6.638987541,0.082211301,-0.030905981,0.119086549,1.084721446
24.692739,-7.671766758,-6.341441154,-0.161929324,-0.031516332,0.119208619,1.084477305
24.693364,-7.877760410,-6.158335686,-0.200076297,-0.025901098,0.118109986,1.085698009
24.693990,-8.037977219,-6.005747795,-0.001712039,-0.024558324,0.118109986,1.086308360
24.694616,-7.946424961,-5.738718987,-0.222964481,-0.024192113,0.115790650,1.084843516
24.695242,-8.358411789,-5.692942619,-0.230593875,-0.020041723,0.116523072,1.084721446
24.695868,-8.259229660,-5.364878654,-0.268740833,-0.026999731,0.117133424,1.085575938
24.696494,-8.282117844,-5.349619865,-0.283999622,-0.022361059,0.116523072,1.087162852
24.697120,-8.549146652,-5.357249260,-0.482363880,-0.022971410,0.115424439,1.084965587
24.697747,-8.457593918,-5.105479240,-0.444216907,-0.020041723,0.113837525,1.084721446
24.698372,-8.541517258,-4.769785881,-0.612063587,-0.017966527,0.115058228,1.081791759
24.700154,-8.732252121,-4.487498283,-0.688357532,-0.018576879,0.113837525,1.082280040
24.700779,-8.587293625,-4.525645256,-0.947756946,-0.017234106,0.110785767,1.081303477
24.701405,-8.633069992,-4.495127678,-0.535769641,-0.015769262,0.107611939,1.077519298
24.702031,-8.732252121,-4.212840080,-0.634951770,-0.013694067,0.107245728,1.077397227
24.702658,-8.518629074,-4.243357658,-0.871463001,-0.014304418,0.108832642,1.079350352
24.703284,-8.526258469,-4.075510979,-1.107974291,-0.015525121,0.107001588,1.075566173
24.703909,-8.488111496,-4.044993401,-0.970645130,-0.010154027,0.103949830,1.074833751
24.704536,-8.190565109,-3.663523912,-1.138491869,-0.010886449,0.105536744,1.074467540
24.705162,-8.327894211,-3.770335436,-1.077456713,-0.011130590,0.104804322,1.071659923
24.705788,-8.053236008,-3.663523912,-1.138491869,-0.011130590,0.104071900,1.068364024
24.706413,-7.748060703,-3.671153307,-1.039309740,-0.012351293,0.101508424,1.068608165
24.707039,-7.717543125,-3.556712389,-1.321597338,-0.011374731,0.101630494,1.065068126
24.707664,-7.488661289,-3.373606920,-1.329226732,-0.008078832,0.101386353,1.065800548
24.708289,-7.397108555,-3.465159655,-1.397891283,-0.007956762,0.101508424,1.065312266
24.708914,-7.076673985,-3.388865709,-1.603884935,-0.008445043,0.099921510,1.065556407
24.710638,-6.763868809,-3.251536608,-1.657290697,-0.007834692,0.098578736,1.064701915
24.711264,-6.252699375,-3.320201159,-1.878543139,-0.006125707,0.096503541,1.065434337
24.711890,-6.115370274,-3.297312975,-1.779361010,-0.004294652,0.098700806,1.063847423
24.712515,-5.894117832,-2.877696276,-1.870913744,-0.006491918,0.097846314,1.061161876
24.713140,-5.802565098,-3.015025377,-1.825137377,-0.004416723,0.098456666,1.061894298
24.713767,-5.764418125,-3.060801744,-1.870913744,-0.010154027,0.097602174,1.063237071
24.714393,-5.146437168,-2.862437487,-1.931948900,-0.005881567,0.095526978,1.060795665
24.715018,-5.184584141,-2.885325670,-1.954837084,-0.004294652,0.094916627,1.060185313
24.715644,-4.879408360,-3.022654772,-2.115054369,-0.004905004,0.094428346,1.061039805
24.716271,-5.001478672,-2.839549303,-2.206607103,-0.002707738,0.092719361,1.062748790
24.716898,-4.734449863,-2.625926256,-2.183718920,-0.003440160,0.095404908,1.061283946
24.717523,-4.398756504,-2.885325670,-2.130313158,-0.001975317,0.095404908,1.057865977
24.718149,-4.322462559,-2.717478991,-2.244754076,-0.007224340,0.088568971,1.059452891
24.718774,-4.055433750,-2.580149889,-2.282901049,-0.004050512,0.089301392,1.058232188
24.719400,-4.146986485,-2.671702623,-2.290530443,-0.006736059,0.086615846,1.055790782
24.743889,5.031175137,-3.610118151,-3.564639330,0.002175074,0.084540650,1.041264415
24.745836,5.199021816,-3.800853014,-3.793521166,0.001198512,0.091742799,1.041752696
24.746461,5.313462734,-3.869517565,-3.663821459,0.003761988,0.087836549,1.041874766
24.764321,1.025743008,-4.098399162,-5.449099541,0.013039332,0.116523072,1.051274180
24.765057,0.606126368,-3.930552721,-5.609316826,0.009743433,0.113715455,1.052006602
24.765683,0.430650294,-4.044993401,-5.906863213,0.008766871,0.116523072,1.052739024
24.766308,0.026292384,-3.854258776,-5.922122002,0.011696558,0.112983033,1.049931407
24.766935,-0.202589452,-3.747447252,-5.899233818,0.010842066,0.113227174,1.053593516
24.767589,-0.973158300,-3.617747545,-5.853457451,0.009621363,0.113227174,1.054448009
24.768311,-1.202040195,-3.648265123,-6.135745049,0.011208277,0.113471314,1.055180430
24.768937,-1.545362949,-3.488047838,-6.379885674,0.013405543,0.110175416,1.052739024
24.769562,-2.140455723,-3.579600573,-6.273074150,0.011696558,0.109320924,1.054081798
24.770208,-2.262526035,-3.457530260,-6.303591728,0.010719996,0.107489869,1.051030040
24.770834,-2.590590000,-3.419383287,-6.463809013,0.008888941,0.109198853,1.051152110
24.771460,-2.964430332,-3.259166002,-6.318850517,0.009133082,0.106513306,1.052983165
24.772086,-3.239088535,-3.304942369,-6.326479912,0.013161402,0.105536744,1.049809337
24.772711,-3.429823399,-3.205760241,-6.677432060,0.008400660,0.104193971,1.051152110
24.774435,-4.375868320,-3.015025377,-6.883425713,0.009011012,0.100531861,1.047123790
24.775062,-4.818373203,-3.221019030,-6.784243584,0.006081324,0.098822877,1.043339610
24.775688,-4.734449863,-2.938731432,-6.761355400,0.010475855,0.096869752,1.047490001
24.776313,-5.131178379,-2.908213854,-6.929202080,0.007424098,0.095649049,1.044316173
24.776939,-5.276136875,-2.892955065,-6.860537529,0.006935816,0.094550416,1.045781016
24.777640,-5.421095371,-3.129466295,-7.013125420,0.005226832,0.093695924,1.042485118
24.778472,-5.649977207,-2.831919909,-7.196230888,0.007546168,0.091010377,1.041996837
24.779286,-5.756788731,-2.946360826,-7.165713310,0.009011012,0.086982056,1.040898204
24.780089,-6.184034824,-2.992137194,-7.249636650,0.005837183,0.083930299,1.040165782
24.780934,-6.451063633,-2.763255358,-7.432742119,0.004250269,0.086005494,1.041020274
24.781767,-6.382399082,-2.786143541,-7.257266045,0.005715113,0.084662721,1.039067149
24.782428,-6.596022129,-2.656443834,-7.127566338,0.008766871,0.076850221,1.036869884
24.783054,-6.611280918,-2.892955065,-7.432742119,0.003395777,0.078192994,1.038578868
24.784789,-6.962233067,-2.763255358,-7.463259697,0.003884058,0.071234986,1.036747813
24.785461,-7.046156406,-2.770884752,-7.356448174,0.003761988,0.070502564,1.039677501
24.786087,-7.198744297,-2.747996569,-7.547183037,0.003517848,0.070990846,1.036747813
24.786712,-7.458143711,-2.740367174,-7.592959404,0.005470973,0.065497681,1.037968516
24.787339,-7.358961582,-2.686961412,-7.669253349,0.001442652,0.062690064,1.037968516
24.787966,-7.488661289,-2.747996569,-7.715029716,0.004250269,0.063056275,1.033940196
24.788593,-7.404737949,-2.755625963,-7.669253349,0.003884058,0.060492799,1.033451915
24.789220,-7.625990391,-2.610667467,-7.562441826,0.002053004,0.056708619,1.035160899
24.790049,-7.648878574,-2.519114733,-7.631106377,0.002663355,0.053534791,1.033085704
24.790744,-7.473402500,-2.786143541,-7.623476982,0.002663355,0.049384400,1.032353282
24.791564,-7.511549473,-2.488597155,-7.661623955,0.003273707,0.050849244,1.030156016
24.792377,-7.603102207,-2.747996569,-7.699770927,0.000954371,0.046942994,1.032963634
24.793209,-7.625990391,-2.542002916,-7.608218193,0.002419215,0.043525025,1.032109141
24.795222,-7.198744297,-2.435191393,-7.539553642,0.001442652,0.034125611,1.026615977
24.796062,-6.954603672,-2.763255358,-7.615847588,-0.000266332,0.035956666,1.026371837
24.796857,-6.916456699,-2.595408678,-7.592959404,-0.001731176,0.032782838,1.028813243
24.797665,-6.702833652,-2.580149889,-7.722659111,0.002297144,0.031440064,1.022953868
24.798459,-6.695204258,-2.786143541,-7.478518486,0.001442652,0.030829713,1.025151134
24.799283,-6.695204258,-2.686961412,-7.524294853,-0.004905004,0.026557252,1.024784923
24.800116,-6.122999668,-2.755625963,-7.333559990,-0.002097387,0.024970338,1.022953868
24.800930,-6.176405430,-2.557261705,-7.562441826,-0.004172582,0.024359986,1.022221446
24.801753,-5.978041172,-2.686961412,-7.402224541,-0.006003637,0.021308228,1.023320079
24.816331,-3.200941563,-1.733287096,-6.356997490,-0.006369848,-0.010063842,1.027958751
24.817034,-3.269606113,-1.519664049,-6.265444756,-0.005515356,-0.007866576,1.028935313
24.817660,-3.040724277,-1.817210436,-6.273074150,-0.006736059,-0.010796264,1.033451915
24.818493,-2.857618809,-1.687510729,-6.189150810,-0.004050512,-0.012749389,1.031742930
24.819119,-2.651625156,-1.199229479,-6.227297783,-0.006736059,-0.011162475,1.029545665
24.819745,-2.499037266,-1.336558580,-5.906863213,-0.005027074,-0.012993529,1.031376719
24.820370,-2.087049961,-1.290782213,-5.914492607,-0.005271215,-0.012993529,1.033573985
24.820995,-2.109938145,-0.855906665,-5.800051689,-0.005027074,-0.016045287,1.031865001
24.821620,-2.232008457,-0.878794849,-5.616946220,-0.000388402,-0.015312865,1.033696055
24.822247,-2.140455723,-0.924571216,-5.838198662,-0.004782934,-0.017021850,1.036991954
24.822873,-1.713209629,-0.771983325,-5.693240166,-0.004782934,-0.016655639,1.038823009
24.823499,-1.636915684,-0.527842700,-5.662722588,-0.004660863,-0.015557006,1.038700938
24.824124,-1.423292637,-0.489695728,-5.243105888,-0.003440160,-0.016289428,1.035893321
24.824750,-1.339369297,-0.314219654,-5.235476494,-0.003440160,-0.015068725,1.038578868
24.826466,-0.881605566,0.296131909,-5.166811943,0.002053004,-0.016777709,1.040409923
24.827092,-0.645094335,0.410572827,-5.075259209,0.001198512,-0.014458373,1.040531993
24.827718,-0.423841894,0.601307690,-5.021853447,-0.001487035,-0.012993529,1.039555430
24.828343,-0.439100683,0.807301342,-4.754824638,0.000221949,-0.016289428,1.044682384
24.828970,-0.065260351,0.746266186,-4.724307060,-0.001242895,-0.016533569,1.044194102
24.829597,-0.072889745,1.081959486,-4.678530693,0.000344019,-0.015068725,1.045781016
24.830224,0.087327540,1.318470716,-4.648013115,0.000954371,-0.015434936,1.043095469
24.830851,0.262803614,1.104847670,-4.602236748,0.001564723,-0.011894897,1.044682384
24.831478,0.522203028,1.646534681,-4.442019463,-0.000876684,-0.014702514,1.043949962
24.832105,0.659532130,1.822010756,-4.487795830,0.002419215,-0.013115600,1.041996837
24.832731,0.949449122,2.081410170,-4.510684013,-0.000510473,-0.012016967,1.041142344
24.833356,1.376695156,1.883045912,-4.243655205,0.001686793,-0.014458373,1.045658946
24.833982,1.041001797,2.623097181,-4.144473076,0.001198512,-0.015312865,1.039433360
24.834607,1.475877285,2.523915052,-4.274172783,0.002175074,-0.012627319,1.041630626
24.835233,1.613206387,2.714649916,-4.113955498,0.002419215,-0.011284545,1.041874766
24.836950,2.406663418,3.134266615,-3.938479662,0.003761988,-0.006767944,1.041020274
24.837576,2.612657070,3.294483900,-3.869815111,0.004616480,-0.007866576,1.038090587
24.838202,2.605027676,3.431813002,-3.747744799,0.005715113,-0.004082397,1.039677501
24.838827,2.971238613,3.836170912,-3.785891771,0.003639918,-0.003227904,1.037114024
24.839454,3.215379238,3.859059095,-3.701968431,0.003884058,-0.001030639,1.035282969
24.840080,3.367967129,3.813282728,-3.717227221,0.006813746,0.000312135,1.033818126
24.840707,3.573960781,4.347340584,-3.518862963,0.006935816,0.003852174,1.036747813
24.841333,3.795213223,4.461781502,-3.564639330,0.007546168,0.004096314,1.034916759
24.841960,3.863877773,4.553334236,-3.526492357,0.004372340,0.003485963,1.038578868
24.842586,3.932542324,4.690663338,-3.305239916,0.009255152,0.007880494,1.037968516
24.843211,3.947801113,4.881398201,-3.404422045,0.006813746,0.012275025,1.036869884
24.843836,4.146165371,4.965321541,-3.488345385,0.007057887,0.007514283,1.036381602
24.844463,4.100389004,5.316273689,-3.335757494,0.009987574,0.012152955,1.033573985
24.845090,4.130906582,5.499379158,-3.404422045,0.009987574,0.013739869,1.035527110
24.845716,4.207200527,5.590931892,-3.114505053,0.008400660,0.013251588,1.037968516
24.847436,4.069871426,5.980031013,-3.152652025,0.004616480,0.022162721,1.037846446
24.848062,4.046983242,6.445424080,-2.969546556,0.008522730,0.023383424,1.038334727
24.848688,3.879136562,6.636158943,-2.923770189,0.008522730,0.025336549,1.035282969
24.849315,3.543443203,6.834523201,-3.000064135,0.010475855,0.026068971,1.033451915
24.863279,-0.690870702,10.420338631,-2.748294115,0.011574488,0.047797486,1.003666759
24.864007,-0.645094335,10.641591072,-2.580447435,0.009011012,0.048407838,0.998173594
24.864634,-0.835829198,10.542408943,-2.771182299,0.009987574,0.049994752,0.997074962
24.865259,-1.079969883,10.595814705,-2.626223803,0.008888941,0.051337525,0.994267344
24.865885,-1.057081699,10.496632576,-2.702517748,0.006203394,0.051459596,0.995732188
24.866511,-1.179152012,10.435597420,-2.687258959,0.006081324,0.049872681,0.990483165
24.867136,-1.400404453,10.664479256,-2.893252611,0.006325465,0.048407838,0.990727305
24.867762,-1.270704746,10.733143806,-2.939028978,0.006203394,0.047431275,0.988652110
24.868387,-1.148634434,10.504261971,-2.694888353,0.002175074,0.053046510,0.983281016
24.869022,-1.232557774,10.595814705,-2.870364428,0.006447535,0.055121705,0.982914805
24.869819,-1.171522617,10.633961678,-2.946658373,0.006447535,0.053412721,0.978764415
24.870446,-1.102858067,10.450856209,-3.129763842,0.003884058,0.049140260,0.977421641
24.871071,-1.133375645,10.427968025,-2.923770189,0.002663355,0.048163697,0.977665782
24.871696,-1.095228672,10.458485603,-2.969546556,0.000954371,0.046698853,0.975346446
24.873430,-0.736647069,10.389821053,-3.129763842,0.002419215,0.046210572,0.964970469
24.874055,-0.652723730,10.077015877,-3.335757494,0.003029566,0.051215455,0.962895274
24.874680,-0.576429784,10.191456795,-3.244204760,0.002907496,0.049018189,0.964726329
24.875305,-0.179701269,9.916798592,-3.114505053,0.004372340,0.050483033,0.962162852
24.875930,-0.294142187,9.916798592,-3.198428392,0.004128199,0.053778931,0.957524180
24.876557,-0.179701269,9.893910408,-3.343386889,0.004006129,0.050971314,0.958012462
24.877182,0.026292384,9.947316170,-3.305239916,0.002175074,0.053534791,0.956059337
24.877807,0.033921778,9.756581306,-3.282351732,0.000832301,0.054755494,0.955937266
24.878433,0.262803614,9.542958260,-3.518862963,0.003029566,0.052680299,0.954106212
24.879058,0.247544825,9.382740974,-3.434939623,0.001808863,0.052802369,0.955204844
24.879684,0.476426661,9.352223396,-3.343386889,0.002175074,0.055243775,0.951664805
24.880310,0.545091212,9.336964607,-3.457827806,0.001686793,0.053901002,0.948735118
24.880936,0.377244532,8.902089119,-3.427310228,-0.000144262,0.053901002,0.951542735
24.900293,1.155442715,4.354969978,-3.640933275,0.000099879,0.036200806,0.927372813
24.900919,1.353806973,4.248158455,-3.717227221,-0.000876684,0.037299439,0.927983165
24.901544,1.262254238,3.904835463,-3.679080248,-0.001975317,0.036811158,0.929081798
24.902239,1.231736660,3.714100599,-3.724856615,-0.000022192,0.038642213,0.925175548
24.902970,1.445359707,3.500477552,-3.778262377,-0.002829809,0.037421510,0.924443126
24.903597,2.017564297,3.317372084,-3.480715990,-0.003318090,0.039130494,0.924443126
24.904222,1.903123379,3.180042982,-3.701968431,-0.000632543,0.036444947,0.926030040
24.904849,2.307481289,3.065602064,-3.663821459,-0.001975317,0.038642213,0.922978282
24.905475,1.964158535,2.867237806,-3.389163256,0.000466090,0.040961549,0.926640391
24.906101,2.231187344,2.722279310,-3.495974779,0.002175074,0.041571900,0.926274180
24.906727,2.238816738,2.378956556,-3.495974779,0.006447535,0.044989869,0.925297618
24.907352,2.170152187,2.302662611,-3.541751146,0.004738551,0.042914674,0.925663829
24.907977,2.269334316,2.111927748,-3.541751146,0.001320582,0.045722291,0.926762462
24.908604,2.391404629,2.066151381,-3.579898119,0.004372340,0.047065064,0.929570079
24.910310,2.727097988,1.722828627,-3.610415697,0.005104762,0.049018189,0.930058360
24.910936,2.551621914,1.432911634,-3.602786303,0.005837183,0.052924439,0.930546641
24.911561,2.719468594,1.142994642,-3.572268724,0.005593043,0.051215455,0.929325938
24.912188,2.643174648,1.158253431,-3.534121752,0.005959254,0.054877564,0.927616954
24.912814,2.742356777,0.975148022,-3.541751146,0.008522730,0.055854127,0.930180430
24.913441,2.757615566,0.891224682,-3.473086596,0.005226832,0.056952760,0.933720469
24.914067,2.826280117,0.830189526,-3.663821459,0.006447535,0.059394166,0.936406016
24.914693,2.940721035,0.463978589,-3.389163256,0.007790308,0.059150025,0.935673594
24.928565,2.772874355,-1.801951647,-4.632754326,0.018776637,0.095893189,0.956913829
24.929275,2.597398281,-1.862986803,-4.861636162,0.018776637,0.095404908,0.958012462
24.929900,2.803391933,-1.870616198,-4.648013115,0.021706324,0.099433228,0.955571055
24.930527,2.475327969,-1.763804674,-4.777712822,0.022316676,0.099067017,0.959355235
24.931152,2.299851894,-1.901133776,-4.854006767,0.021828394,0.099921510,0.958134532
24.931778,2.337998867,-1.824839830,-4.915041924,0.021584254,0.102851197,0.960942149
24.932405,2.193040371,-1.969798326,-5.021853447,0.021828394,0.104560181,0.959111094
24.933031,1.857347012,-2.061351061,-5.227847099,0.022804957,0.105536744,0.960087657
24.933658,1.704759121,-1.954539537,-5.159182549,0.021950465,0.107001588,0.960453868
24.934285,1.712388515,-2.122386217,-5.388064384,0.022316676,0.107978150,0.962773204
24.934911,1.590318203,-2.313121080,-5.372805595,0.019753199,0.108954713,0.963627696
24.935536,1.346177578,-2.160533190,-5.365176201,0.024269801,0.110297486,0.961918712
24.936162,1.254624844,-1.962168932,-5.517764091,0.021340113,0.111151978,0.963383555
24.936788,1.079148769,-2.183421373,-5.685610771,0.026467066,0.113227174,0.965336680
24.938518,0.644273341,-2.107127428,-6.135745049,0.025002223,0.115912721,0.966435313
24.939143,0.270433009,-2.191050768,-6.082339287,0.025490504,0.114569947,0.965336680
24.939768,0.194139063,-2.343638659,-6.326479912,0.024758082,0.120429322,0.965947032
24.940393,-0.225477636,-2.343638659,-6.418032646,0.026711207,0.117255494,0.969120860
24.941019,-0.118666112,-2.435191393,-6.425662041,0.025734644,0.118964478,0.970341563
24.941644,-0.362806737,-2.404673815,-6.479067802,0.022072535,0.120307252,0.967778087
24.942270,-0.484877050,-2.343638659,-6.692690849,0.025002223,0.119208619,0.967778087
24.942896,-0.744276464,-2.191050768,-6.753726006,0.026467066,0.116156861,0.969731212
24.943521,-0.927381933,-2.175791979,-6.799502373,0.026833277,0.117377564,0.970097423
24.944147,-0.980787694,-2.198680162,-7.074160576,0.023903590,0.117743775,0.968022227
24.944773,-1.194410801,-2.343638659,-6.906313896,0.027077418,0.119086549,0.970463634
24.945399,-1.171522617,-2.290232897,-7.165713310,0.026467066,0.121650025,0.966557384
24.946025,-1.583509922,-2.297862291,-7.119936943,0.024636012,0.117255494,0.968998790
24.946650,-1.705580235,-2.320750475,-7.379336357,0.024269801,0.121527955,0.965214610
24.947275,-1.461439610,-2.290232897,-7.631106377,0.023049098,0.118964478,0.965824962
24.948980,-1.789503574,-2.427561998,-7.692141533,0.023171168,0.121650025,0.962895274
24.949605,-2.148085117,-2.107127428,-7.715029716,0.027565699,0.121039674,0.965214610
24.950230,-2.079420567,-2.381785631,-7.936282158,0.025734644,0.118232056,0.965580821
24.950857,-2.186232090,-2.488597155,-7.943911552,0.025490504,0.120307252,0.962040782
24.951483,-2.102308750,-2.374156237,-8.432192802,0.025246363,0.118476197,0.961308360
24.952110,-2.140455723,-2.343638659,-8.424563408,0.021950465,0.118109986,0.961308360
24.952736,-2.376966953,-2.564891100,-8.439822197,0.024269801,0.120185181,0.960698009
24.953363,-2.285414219,-2.580149889,-8.493227959,0.024758082,0.119330689,0.959233165
24.953989,-2.537184238,-2.633555651,-8.615298271,0.023049098,0.119086549,0.957402110
24.954615,-2.529554844,-2.717478991,-8.592410088,0.021706324,0.116156861,0.960331798
24.955241,-2.514296055,-2.618296862,-9.088320732,0.023171168,0.118354127,0.953007579
24.955867,-2.506666660,-2.549632311,-8.920474052,0.024269801,0.118964478,0.956547618
24.956492,-2.521925449,-2.870066881,-9.042544365,0.020729762,0.118232056,0.955815196
24.957118,-2.247267246,-2.969249010,-9.172244072,0.022072535,0.115912721,0.952641368
24.957745,-2.170973301,-2.938731432,-9.393496513,0.021950465,0.116156861,0.951908946
24.959449,-2.247267246,-3.083689928,-9.782595634,0.019997340,0.117987916,0.950322032
24.960075,-2.132826328,-3.266795397,-9.866518974,0.018654566,0.116278931,0.951420665
24.960701,-2.216749668,-3.358348131,-10.080142021,0.020729762,0.114447877,0.948979259
24.961328,-2.262526035,-3.724559069,-10.034365654,0.019142848,0.116156861,0.947026134
24.975226,-0.431471288,-7.050974846,-12.643618584,0.011818629,0.092231080,0.939213634
24.975946,-0.156813085,-7.050974846,-12.803835869,0.010597926,0.086493775,0.938603282
24.976571,-0.156813085,-7.356150627,-12.666506767,0.013893824,0.085395142,0.939457774
24.977198,0.217027247,-7.462962151,-12.864871025,0.016579371,0.084052369,0.940922618
24.977824,0.438279688,-7.829173088,-12.925906181,0.013893824,0.081000611,0.942509532
24.978449,0.682420313,-7.958872795,-13.116641045,0.013649683,0.084296510,0.940556407
24.979074,0.865525782,-7.920725822,-13.223452568,0.015480738,0.083442017,0.946171641
24.979701,0.995225489,-8.180125237,-13.276858330,0.013771754,0.078925416,0.943119884
24.980327,1.216477871,-8.294566154,-13.337893486,0.011696558,0.079291627,0.943608165
24.980953,1.330918789,-8.347971916,-13.467593193,0.016091090,0.075385377,0.942509532
24.981578,1.636094570,-8.721812248,-13.604922295,0.012917262,0.075873658,0.945317149
24.982204,1.750535488,-8.607371330,-13.444705009,0.011452418,0.072211549,0.942997813
24.982830,1.979417324,-8.965952873,-13.696475029,0.009621363,0.074652955,0.945561290
24.983455,1.948899746,-9.103281975,-13.665957451,0.011208277,0.073188111,0.947148204
24.985180,2.399034023,-9.446604729,-13.910098076,0.006935816,0.068183228,0.947514415
24.985805,2.574510098,-9.637339592,-13.940615654,0.006203394,0.067328736,0.947148204
24.986431,2.666062832,-9.835703850,-14.016909599,0.009865504,0.064765260,0.946537852
24.987058,3.070420742,-9.843333244,-14.001650810,0.008034449,0.066230103,0.950810313
24.987685,3.116197109,-9.957774162,-14.032168388,0.008156519,0.066108033,0.947758555
24.988310,3.261155605,-10.301096916,-14.276309013,0.009011012,0.066718385,0.945195079
24.988936,3.573960781,-10.385020256,-14.360232353,0.009743433,0.065863892,0.949467540
24.989561,3.421372890,-10.568125725,-14.230532646,0.007790308,0.065375611,0.952275157
24.990187,3.581590176,-10.873301506,-14.406008720,0.009011012,0.068549439,0.951786876
24.990813,3.596848965,-11.018260002,-14.444155693,0.007912379,0.064154908,0.953495860
24.991439,3.612107754,-10.865672112,-14.337344170,0.009255152,0.068183228,0.951786876
24.992066,3.680772305,-11.086924553,-14.573855400,0.010475855,0.068549439,0.956547618
24.992693,3.879136562,-11.361582756,-14.756960869,0.012062769,0.072211549,0.959355235
24.993320,3.535813808,-11.201365471,-14.543337822,0.015236598,0.072577760,0.958989024
24.993947,3.764695644,-11.521800041,-14.718813896,0.017555933,0.075141236,0.964115977
24.995667,3.383225918,-11.445506096,-14.886660576,0.017189723,0.073676392,0.970707774
24.996293,3.001756191,-11.582835197,-15.046877861,0.019386988,0.074652955,0.974980235
24.996918,2.666062832,-11.613352776,-15.130801201,0.018898707,0.075019166,0.977665782
24.997544,2.498216152,-11.506541252,-15.054507256,0.019631129,0.075385377,0.983036876
24.998170,2.063340664,-11.582835197,-15.191836357,0.018898707,0.074286744,0.986943126
24.998795,1.872605801,-11.628611565,-15.245242119,0.018410426,0.074897096,0.988896251
24.999420,1.514024258,-11.422617912,-15.138430595,0.019142848,0.072821900,0.993534923
25.000046,1.239366055,-11.254771233,-15.397830009,0.016091090,0.073188111,0.995610118
25.000671,0.651902735,-11.437876701,-15.291018486,0.014137965,0.071357056,0.997197032
25.001296,0.567979395,-11.216624260,-15.298647881,0.016213160,0.069403931,0.996342540
25.001922,0.018662989,-11.201365471,-15.283389091,0.016335230,0.068671510,0.997074962
25.002547,-0.393324316,-11.430247307,-15.390200615,0.017189723,0.066962525,0.997319102
25.003173,-0.690870702,-11.384470940,-15.641970634,0.015480738,0.067328736,0.998661876
25.003971,-1.270704746,-11.331065178,-15.603823662,0.016091090,0.063056275,0.994633555
25.005737,-1.667433262,-11.338694572,-15.916628838,0.018654566,0.054877564,0.990727305
25.006364,-1.720839024,-11.582835197,-15.809817314,0.017433863,0.053412721,0.994023204
25.006990,-1.827650547,-11.392100334,-15.886111259,0.019264918,0.047797486,0.987187266
25.007616,-1.957350254,-11.483653069,-15.672488213,0.022927027,0.045844361,0.985722423
25.008243,-1.781874180,-11.628611565,-15.771670341,0.021584254,0.046332642,0.986576915
25.022082,-3.109388828,-9.606822014,-16.168399811,0.027077418,0.034735963,1.021244884
25.022782,-3.567152500,-9.576304436,-16.343875885,0.027321558,0.035102174,1.016117930
25.023408,-3.719740391,-9.339793205,-16.282840729,0.027321558,0.035590455,1.015629649
25.024033,-3.918104649,-9.278758049,-16.168399811,0.024758082,0.035224244,1.014897227
25.024658,-4.009657383,-9.187205315,-16.252323151,0.025856715,0.035224244,1.014164805
25.025283,-4.108839512,-9.248240471,-16.130252838,0.023537379,0.033515260,1.011235118
25.025910,-4.322462559,-8.820994377,-16.214176178,0.021095973,0.029486939,1.008793712
25.026537,-4.330091953,-9.164317131,-16.229434967,0.026222926,0.032416627,1.009648204
25.027162,-4.497938633,-8.965952873,-16.328617096,0.025368433,0.028632447,1.005131602
25.027793,-4.391127110,-8.882029533,-16.404911041,0.020241480,0.027411744,1.003178477
25.028418,-4.352980137,-8.851511955,-16.481204987,0.023415308,0.027411744,1.003666759
25.029043,-4.421644688,-8.851511955,-16.107364655,0.021340113,0.026557252,1.000004649
25.029670,-4.513197422,-8.790476799,-16.595645905,0.020485621,0.025092408,0.999516368
25.030296,-4.490309238,-8.744700432,-16.427799225,0.022194605,0.023871705,0.998661876
25.032046,-4.589491367,-8.584483147,-16.351505280,0.019631129,0.025336549,0.999150157
25.032671,-4.902296543,-8.676035881,-16.267581940,0.019753199,0.027533814,1.001347423
25.033297,-4.887037754,-8.546336174,-16.320987701,0.021095973,0.027167603,1.001591563
25.033924,-4.757338047,-8.546336174,-16.237064362,0.021706324,0.023749635,0.998661876
25.034550,-4.963331699,-8.347971916,-16.229434967,0.020119410,0.026313111,0.999882579
25.035177,-5.039625645,-8.378489494,-16.328617096,0.021340113,0.025336549,1.000370860
25.035804,-5.222731113,-8.477671623,-16.389652252,0.019142848,0.024604127,1.001835704
25.036430,-5.291395664,-8.424265862,-16.313358307,0.018898707,0.025946900,1.002446055
25.037057,-5.512648106,-8.149607658,-16.305728912,0.022316676,0.027045533,1.001347423
25.037682,-5.817823887,-8.424265862,-16.465946198,0.019631129,0.025092408,1.004277110
25.038307,-6.039076328,-8.271677971,-16.382022858,0.017800074,0.024482056,1.002079844
25.038933,-5.924635410,-8.195384026,-16.366764069,0.018044215,0.025702760,1.005986094
25.039559,-6.336622715,-8.233530998,-16.389652252,0.020241480,0.022895142,1.004887462
25.040185,-6.267958164,-8.500559807,-16.137882233,0.017678004,0.022406861,1.002812266
25.040811,-6.809645176,-7.989390373,-16.366764069,0.016213160,0.023017213,1.000859141
25.042540,-6.840162754,-8.096201897,-16.061588287,0.015480738,0.017890260,1.005131602
25.043166,-6.962233067,-7.920725822,-16.244693756,0.015480738,0.015326783,1.000248790
25.043792,-7.000380039,-8.027537346,-16.168399811,0.016701441,0.014472291,1.001835704
25.044418,-7.015638828,-8.203013420,-16.046329498,0.015480738,0.012275025,0.999638438
25.045043,-7.183485508,-7.913096428,-16.183658600,0.014382105,0.009833619,0.999882579
25.045669,-7.259779453,-7.920725822,-16.221805573,0.012917262,0.009223267,1.002812266
25.046295,-7.313185215,-7.829173088,-16.122623444,0.013405543,0.006903931,1.001591563
25.046922,-7.030897617,-7.775767326,-15.992922783,0.012795191,0.004828736,1.000126719
25.047549,-7.152967930,-7.752879143,-16.130252838,0.014626246,0.004828736,0.994145274
25.048174,-6.977491856,-7.836802483,-16.069217682,0.013649683,0.003608033,0.997197032
25.048799,-6.977491856,-7.699473381,-15.947146416,0.013893824,-0.000542358,0.994511485
25.049424,-6.870680332,-7.722361565,-16.153141022,0.012673121,-0.000176147,0.993901134
25.050049,-6.733351231,-7.638438225,-16.229434967,0.009011012,-0.004448608,0.994511485
25.050676,-6.550245762,-7.462962151,-15.916628838,0.013649683,-0.005547240,0.994267344
25.051303,-6.451063633,-7.508738518,-15.985293388,0.009621363,-0.013115600,0.991093516
25.053026,-5.627089024,-7.661326408,-15.703005791,0.010475855,-0.017265990,0.990361094
25.053652,-5.566053867,-7.607920647,-15.817446709,0.008644801,-0.018974975,0.988041759
25.054277,-5.093031406,-7.493479729,-15.611453056,0.006935816,-0.020439819,0.992192149
25.068155,2.299851894,-8.019907951,-13.894839287,0.001320582,-0.045098022,0.981449962
25.068878,2.673692226,-8.035166740,-13.978762627,0.001564723,-0.039848998,0.983036876
25.069505,2.612657070,-8.195384026,-13.856692314,0.001076441,-0.040703490,0.984379649
25.070131,2.917832851,-8.279307365,-13.711733818,0.000832301,-0.039604858,0.981083751
25.070756,3.337449551,-8.203013420,-13.536257744,-0.001120824,-0.038262084,0.985234141
25.071381,3.421372890,-8.180125237,-13.543887138,0.000466090,-0.034111694,0.986821055
25.072007,3.535813808,-8.195384026,-13.459963799,0.002297144,-0.034722045,0.988530040
25.072632,3.505296230,-8.134348869,-13.337893486,0.001076441,-0.035698608,0.989994884
25.073257,3.589219570,-8.225901604,-13.383669853,0.001564723,-0.030449584,0.986943126
25.073882,3.787583828,-8.119090080,-13.307375908,0.001686793,-0.033867553,0.991459727
25.074606,3.703660488,-8.027537346,-13.162417412,0.002663355,-0.031059936,0.993656993
25.075258,3.840989590,-8.157237053,-12.986941338,0.001564723,-0.030327514,0.990239024
25.075883,3.863877773,-7.989390373,-13.002200127,0.001564723,-0.025932983,0.992680430
25.076509,3.749436855,-8.073313713,-12.841982841,0.002663355,-0.023247436,0.994633555
25.078338,3.406114101,-8.004649162,-12.681765556,0.002419215,-0.018364623,0.997197032
25.078964,3.200120449,-7.783396721,-12.483401299,0.002419215,-0.017998412,0.997807384
25.079590,3.238267422,-7.722361565,-12.162966728,0.003517848,-0.015679076,0.998539805
25.080215,2.811021328,-7.775767326,-12.079043388,0.001320582,-0.017388061,0.997197032
25.080841,2.582139492,-7.638438225,-12.246890068,0.003029566,-0.018974975,0.997929454
25.081467,2.566880703,-7.699473381,-12.330813408,0.002297144,-0.015190795,0.999638438
25.082092,2.254075527,-7.470591545,-12.079043388,0.004250269,-0.012993529,1.000859141
25.082718,2.002305508,-7.562144279,-11.689944267,0.003884058,-0.014824584,1.000370860
25.083344,1.857347012,-7.455332756,-11.842532158,0.003151637,-0.012627319,0.999150157
25.083971,1.681870937,-7.440073967,-11.758608818,0.003761988,-0.012139037,1.001713634
25.084597,1.422471523,-7.577403069,-11.728091240,0.001808863,-0.010918334,1.003056407
25.085224,1.399583340,-7.501109123,-11.560244560,0.003029566,-0.009575561,1.004155040
25.085849,1.124925137,-7.272227287,-11.697573662,0.001930933,-0.006401733,1.002568126
25.086474,0.842637599,-7.523997307,-11.483950615,0.002419215,-0.009941772,1.001347423
25.087101,0.911302149,-7.539256096,-11.331362724,0.001808863,-0.010918334,1.000615001
25.088824,0.567979395,-7.279856682,-11.277956963,0.002419215,-0.010552123,1.003788829
25.089449,0.583238184,-7.318003654,-11.194033623,-0.000266332,-0.009697631,1.003910899
25.090076,0.545091212,-7.211192131,-10.995669365,0.002785426,-0.010674194,1.005009532
25.090701,0.552720606,-7.150156975,-11.018557549,0.003884058,-0.011772826,1.002812266
25.091326,0.636643946,-7.081492424,-10.995669365,0.003151637,-0.011040404,1.005375743
25.091951,0.743455470,-7.142527580,-10.949892998,0.007424098,-0.011284545,1.005253673
25.092577,0.804490626,-7.211192131,-10.804934502,0.004006129,-0.012505248,1.004643321
25.093202,0.728196681,-6.936533928,-10.789675713,0.005715113,-0.009697631,1.006596446
25.093828,0.743455470,-6.867869377,-10.698122978,0.003029566,-0.007500365,1.009281993
25.094454,0.972337306,-6.997569084,-10.652346611,0.005593043,-0.007378295,1.008183360
25.095080,1.102036953,-6.951792717,-10.530276299,0.006813746,-0.012627319,1.012455821
25.095705,1.216477871,-6.913645744,-10.606570244,0.008888941,-0.009697631,1.009404063
25.096332,1.506394863,-6.837351799,-10.598940849,0.009987574,-0.012749389,1.012944102
25.096957,1.452989101,-6.600840569,-10.453982353,0.008278590,-0.009697631,1.013920665
25.097582,1.567430019,-6.806834221,-10.644717216,0.009133082,-0.006645873,1.013676524
25.099312,1.933640957,-6.417735100,-10.354800224,0.011818629,-0.004570678,1.016606212
25.099937,2.132005215,-6.249888420,-10.202212334,0.013527613,-0.003472045,1.018925548
25.100563,2.315110683,-6.211741447,-10.385317802,0.011940699,-0.003105834,1.018315196
25.101189,2.147264004,-6.104929924,-10.446352959,0.014260035,0.001532838,1.019902110
25.115028,0.690049708,-3.671153307,-9.546084404,0.009499293,0.043647096,1.015019298
25.115718,0.590867579,-3.968699694,-9.408755302,0.012917262,0.042914674,1.012822032
25.116344,0.499314845,-3.610118151,-9.568972588,0.014137965,0.043158814,1.013554454
25.116970,0.293321192,-3.640635729,-9.561343193,0.008766871,0.048651978,1.015995860
25.117717,0.148362696,-3.594859362,-9.515566826,0.008278590,0.048163697,1.014408946
25.118395,-0.004225194,-3.358348131,-9.408755302,0.010964137,0.049140260,1.014042735
25.119020,-0.141554296,-3.388865709,-9.507937431,0.013283473,0.047919556,1.013432384
25.119646,-0.133924901,-3.488047838,-9.469790459,0.008400660,0.049628541,1.012577891
25.120272,-0.278883398,-3.610118151,-9.370608330,0.013039332,0.050727174,1.011357188
25.120898,-0.324659765,-3.556712389,-9.614748955,0.009865504,0.050849244,1.012822032
25.121525,-0.584059179,-3.503306627,-9.645266533,0.009499293,0.053901002,1.011479259
25.122150,-0.507765234,-3.381236315,-9.271426201,0.009377223,0.053778931,1.008671641
25.122775,-0.614576757,-3.327830553,-9.477419853,0.012184840,0.053656861,1.011845469
25.123400,-0.660353124,-3.343089342,-9.332461357,0.008034449,0.053656861,1.012822032
25.125111,-0.721388280,-3.358348131,-9.721560478,0.010109644,0.055487916,1.009404063
25.125737,-0.835829198,-3.106578112,-9.492678642,0.010109644,0.058173463,1.009037852
25.126364,-0.576429784,-3.625376940,-9.622378349,0.009987574,0.056586549,1.010380626
25.126990,-0.622206151,-3.465159655,-9.553713799,0.007912379,0.059882447,1.005619884
25.127615,-0.523024023,-3.472789049,-9.500308037,0.007424098,0.059272096,1.005619884
25.128241,-0.263624609,-3.571971178,-9.866518974,0.006325465,0.061469361,1.005131602
25.128867,-0.461988866,-3.518565416,-9.660525322,0.004738551,0.060126588,1.005009532
25.129494,-0.294142187,-3.686412096,-9.698672295,0.007668238,0.059516236,1.004277110
25.130119,-0.095777929,-3.564341784,-9.790225029,0.001564723,0.062079713,1.003056407
25.130745,0.201768458,-3.510936022,-9.843630791,0.005226832,0.063422486,1.003056407
25.131372,0.102586329,-3.526194811,-9.919924736,0.011208277,0.063422486,1.007206798
25.150738,3.879136562,-5.555613518,-11.392397881,-0.001975317,0.077582642,1.009648204
25.151364,4.016465664,-5.464060783,-11.598391533,-0.000388402,0.078315064,1.012211680
25.151990,3.879136562,-5.578501701,-11.590762138,0.000221949,0.081122681,1.012333751
25.152615,3.718919277,-5.662425041,-11.468691826,-0.005271215,0.078925416,1.013554454
25.153240,3.795213223,-5.448801994,-11.796755791,0.000344019,0.078803346,1.013554454
25.153865,3.764695644,-5.609019279,-11.667056084,-0.000510473,0.075507447,1.017094493
25.154490,3.726548672,-5.677683830,-11.758608818,-0.000510473,0.077338502,1.016117930
25.155115,3.528184414,-5.708201408,-11.743350029,-0.000998754,0.076850221,1.016728282
25.155741,3.421372890,-5.540354729,-11.575503349,0.000588160,0.076606080,1.017704844
25.156367,3.352708340,-5.586131096,-11.781497002,0.000954371,0.078559205,1.022343516
25.156993,3.444261074,-5.677683830,-12.040896416,0.004860621,0.078070924,1.019657969
25.157618,3.161973476,-5.540354729,-11.987490654,0.003029566,0.077704713,1.019902110
25.158244,2.803391933,-5.677683830,-11.926455498,0.007302027,0.080268189,1.020756602
25.158869,2.772874355,-5.494578362,-12.124819756,0.005715113,0.080024049,1.021977305
25.159495,2.620286465,-5.517466545,-11.956973076,0.006935816,0.080146119,1.019780040
25.161229,2.009934902,-5.319102287,-12.201113701,0.008156519,0.075995728,1.018803477
25.161854,1.941270351,-5.341990471,-11.941714287,0.005470973,0.078437135,1.023075938
25.162481,1.468247890,-5.303843498,-12.239260674,0.004006129,0.079413697,1.020634532
25.163108,1.246995449,-5.219920158,-12.185854912,0.003517848,0.078070924,1.023808360
25.163733,1.178330898,-5.288584709,-12.124819756,0.004494410,0.079413697,1.020878673
25.164358,0.842637599,-5.128367424,-12.132449150,0.003151637,0.076239869,1.017460704
25.164983,0.621385157,-5.288584709,-12.140078545,0.002663355,0.079901978,1.019413829
25.165610,0.461167872,-5.311472893,-12.422366142,0.001198512,0.076239869,1.021733165
25.179567,-1.789503574,-4.815562248,-12.758059502,0.004128199,0.076972291,1.027348399
25.180323,-1.736097813,-4.807932854,-12.864871025,0.004982691,0.075263306,1.027348399
25.180950,-1.911573887,-4.968150139,-13.177676201,0.003884058,0.075263306,1.032719493
25.181575,-1.903944492,-4.693491936,-13.047976494,0.001320582,0.076606080,1.030400157
25.182200,-1.903944492,-4.716380119,-13.284487724,0.000588160,0.073554322,1.028935313
25.182825,-1.659803867,-4.693491936,-13.055605888,0.002175074,0.077216431,1.029545665
25.183450,-1.858168125,-4.487498283,-13.078494072,0.002785426,0.076728150,1.032841563
25.184077,-1.614027500,-4.456980705,-13.345522881,0.004982691,0.078192994,1.029179454
25.184703,-1.736097813,-4.678233147,-13.383669853,0.004616480,0.076850221,1.029911876
25.185329,-1.720839024,-4.243357658,-13.116641045,0.003151637,0.076850221,1.028569102
25.185954,-1.362257481,-4.205210686,-13.345522881,0.001442652,0.075141236,1.033329844
25.186579,-1.308851719,-4.327280998,-13.391299248,0.003517848,0.076728150,1.035282969
25.187205,-1.469069004,-4.304392815,-13.383669853,0.002541285,0.075507447,1.031742930
25.187832,-1.194410801,-4.189951897,-13.406558037,0.001320582,0.078070924,1.031865001
25.189560,-0.797682226,-3.915293932,-13.658328056,0.000099879,0.077460572,1.030644298
25.190187,-0.889234960,-3.976329088,-13.635439873,0.000588160,0.076850221,1.031010509
25.190814,-0.561170995,-3.991587877,-13.681216240,-0.000144262,0.077704713,1.032353282
25.191439,-0.500135839,-3.900035143,-13.757510185,0.002785426,0.078192994,1.032353282
25.192066,-0.507765234,-3.861888170,-13.780398369,-0.001242895,0.076484010,1.030644298
25.192691,-0.385694921,-3.808482409,-13.955874443,0.001808863,0.076117799,1.030033946
25.193316,-0.126295507,-3.900035143,-13.658328056,0.003151637,0.079901978,1.034428477
25.193942,-0.057630956,-3.793223619,-14.077944756,0.003761988,0.076850221,1.031376719
25.194568,0.110215724,-3.633006334,-14.154238701,0.004860621,0.078559205,1.032353282
25.195193,0.056809962,-3.816111803,-14.192385674,0.003273707,0.079413697,1.033451915
25.195820,0.247544825,-3.602488756,-14.077944756,0.004250269,0.080878541,1.029423594
25.196445,0.194139063,-3.709300280,-14.566226006,0.004616480,0.082831666,1.033329844
25.197072,0.697679102,-3.480418444,-14.428896904,0.005470973,0.085395142,1.031865001
25.197698,0.377244532,-3.335459948,-14.581484795,0.004250269,0.083075806,1.031742930
25.198323,0.667161524,-3.266795397,-14.383120537,0.005104762,0.082953736,1.033940196
25.200058,0.651902735,-3.015025377,-14.718813896,0.003517848,0.088691041,1.031498790
25.200683,0.667161524,-3.205760241,-14.779849052,0.005226832,0.091010377,1.034794688
25.201310,0.522203028,-3.114207506,-14.756960869,0.002785426,0.086615846,1.033818126
25.201935,0.758714259,-2.976878405,-14.810366631,0.001808863,0.086859986,1.032841563
25.202562,0.651902735,-2.915843248,-14.749331474,0.002541285,0.089789674,1.034428477
25.203187,0.796861231,-2.801402330,-14.894289970,0.001808863,0.086615846,1.033573985
25.203814,0.743455470,-2.763255358,-14.917178154,0.002419215,0.089789674,1.033696055
25.204439,0.796861231,-2.633555651,-14.909548759,0.001320582,0.091010377,1.035282969
25.205064,0.484056056,-2.656443834,-14.909548759,0.004006129,0.091376588,1.033207774
25.205689,0.377244532,-2.648814440,-15.184206963,0.003151637,0.088691041,1.033818126
25.206316,0.484056056,-2.427561998,-15.153689384,-0.001120824,0.089789674,1.031620860
25.206942,0.560350001,-2.427561998,-15.161318779,0.001686793,0.089179322,1.029179454
25.207568,-0.011854589,-2.290232897,-15.336794853,-0.000266332,0.092353150,1.029545665
25.208193,0.072068751,-2.320750475,-15.275759697,0.000954371,0.091620728,1.031742930
25.208819,0.178880274,-2.503855944,-15.275759697,-0.001120824,0.094916627,1.033451915
25.210545,0.026292384,-2.191050768,-15.657229424,0.000954371,0.096503541,1.026249766
25.211170,-0.362806737,-2.236827135,-15.817446709,0.000344019,0.095282838,1.026615977
25.211795,-0.370436132,-2.084239244,-15.817446709,0.000344019,0.096137330,1.024784923
25.212420,-0.210218847,-1.908763170,-15.725893974,0.002419215,0.094794556,1.026615977
25.226260,-1.926832676,-1.946910143,-17.610355377,0.002053004,0.094916627,1.020512462
25.226967,-1.743727207,-1.641734362,-17.541690826,-0.001609106,0.094428346,1.018437266
25.227593,-1.766615391,-1.817210436,-17.671390533,0.000954371,0.094306275,1.020512462
25.228220,-1.652174473,-1.710398912,-17.755313873,0.000099879,0.090400025,1.025151134
25.228845,-1.644545078,-1.794322252,-17.694278717,0.000221949,0.092597291,1.020756602
25.229470,-1.430922031,-1.634104967,-17.930789948,0.003151637,0.091376588,1.021977305
25.230097,-1.537733555,-1.580699205,-18.113895416,0.002297144,0.091254517,1.023686290
25.230724,-1.331739902,-1.847728014,-17.846866608,0.005348902,0.095404908,1.019413829
25.231351,-0.996046484,-1.481517076,-18.258853912,0.003761988,0.091254517,1.020878673
25.231976,-0.843458593,-1.771434069,-18.358036041,0.005226832,0.090522096,1.020390391
25.232601,-0.919752538,-1.687510729,-18.297000885,0.002541285,0.086371705,1.023198009
25.233227,-0.584059179,-1.504405260,-18.358036041,0.002419215,0.089789674,1.021611094
25.233853,-0.355177343,-1.687510729,-18.533512115,0.004128199,0.087592408,1.019535899
25.234478,-0.408583105,-1.664622545,-18.533512115,0.005959254,0.088324830,1.023930430
25.236233,0.224656641,-1.458628893,-18.747135162,0.005593043,0.086371705,1.023564219
25.236858,0.476426661,-1.458628893,-18.914981842,0.001686793,0.087714478,1.022831798
25.237483,0.506944239,-1.603587389,-18.838687897,0.000954371,0.084906861,1.022343516
25.238108,1.094407558,-1.382334948,-19.014163971,0.000832301,0.085395142,1.024052501
25.238734,1.102036953,-1.656993151,-19.037052155,0.000588160,0.085761353,1.023564219
25.239361,1.338548183,-1.595957994,-19.090457916,0.001198512,0.086859986,1.021855235
25.239986,1.567430019,-1.496775866,-19.220157623,-0.000144262,0.086859986,1.024418712
25.240612,1.811570644,-1.313670397,-19.372745514,0.002297144,0.086005494,1.021977305
25.241239,1.910752773,-1.489146471,-19.433780670,0.003884058,0.087958619,1.023808360
25.241866,2.070970058,-1.367076159,-19.616886139,0.002907496,0.089423463,1.023564219
25.242493,2.429551601,-1.321299791,-19.593997955,0.005837183,0.092109010,1.025151134
25.243118,2.551621914,-1.321299791,-19.601627350,0.005715113,0.091132447,1.025151134
25.243744,2.818650723,-1.245005846,-19.761844635,0.000099879,0.091864869,1.023198009
25.244371,3.108567715,-1.267894030,-19.807621002,0.006813746,0.093085572,1.023442149
25.244997,3.024644375,-1.229747057,-19.822879791,0.006813746,0.092719361,1.022343516
25.246734,3.497666836,-1.176341295,-20.082279205,0.007546168,0.096259400,1.024540782
25.247360,3.535813808,-1.222117662,-20.135684967,0.008644801,0.098944947,1.024784923
25.247986,3.718919277,-1.245005846,-20.143314362,0.010231715,0.098456666,1.026127696
25.248611,3.688401699,-0.947459400,-20.204349518,0.008888941,0.102118775,1.026493907
25.249237,3.673142910,-0.947459400,-20.288272858,0.008400660,0.101752564,1.027470469
25.249863,3.627366543,-0.878794849,-20.685001373,0.010109644,0.104804322,1.026860118
25.250489,3.642625332,-0.817759693,-20.852848053,0.008278590,0.107245728,1.025639415
25.251115,3.421372890,-0.817759693,-20.807071686,0.009743433,0.107978150,1.029301524
25.251740,3.436631680,-0.833018482,-20.921512604,0.010231715,0.107978150,1.028447032
25.252365,3.429002285,-0.649913013,-21.005435944,0.008644801,0.110053346,1.028324962
25.252991,3.314561367,-0.703318775,-20.921512604,0.009377223,0.111518189,1.028569102
25.253618,3.299302578,-0.619395435,-21.081729889,0.009987574,0.111396119,1.028569102
25.254245,3.123826504,-0.520213306,-21.173282623,0.008400660,0.111396119,1.028447032
25.254870,2.803391933,-0.260813892,-21.280094147,0.009621363,0.111274049,1.029545665
25.255495,2.505845547,-0.359996021,-21.371646881,0.007790308,0.113837525,1.030522227
25.257235,2.070970058,-0.237925708,-21.737857819,0.011208277,0.114692017,1.029179454
25.257861,1.933640957,-0.436289966,-21.676822662,0.007179957,0.112860963,1.027226329
25.258486,1.636094570,-0.222666919,-21.936222076,0.008888941,0.110297486,1.026127696
25.259111,1.399583340,0.013844311,-21.997257233,0.008644801,0.112983033,1.027104259
25.273001,-0.667982519,0.463978589,-24.263187408,-0.001609106,0.103461549,1.011479259
25.273727,-0.683241308,0.555531323,-24.202152252,-0.001242895,0.104071900,1.010380626
25.274352,-0.645094335,0.677601635,-24.316593170,-0.004416723,0.102973267,1.012089610
25.274977,-0.713758886,0.669972241,-24.553104401,0.000832301,0.105048463,1.008915782
25.275604,-0.713758886,0.715748608,-24.507328033,-0.000144262,0.101996705,1.005497813
25.276231,-0.629835546,0.563160717,-24.843021393,-0.002829809,0.102484986,1.005131602
25.276856,-0.606947362,0.563160717,-24.606510162,-0.005759496,0.101386353,1.008183360
25.277481,-0.751905859,0.753895581,-24.820133209,-0.003073949,0.101752564,1.008183360
25.278107,-0.729017675,0.547901928,-25.094791412,-0.002707738,0.099555299,1.010990977
25.278734,-0.606947362,0.547901928,-25.209232330,0.000221949,0.100898072,1.005497813
25.279359,-0.584059179,0.769154370,-25.316043854,-0.001242895,0.098944947,1.009281993
25.280057,-0.652723730,0.479237378,-25.140567780,-0.003806371,0.098456666,1.009281993
25.280683,-0.667982519,0.807301342,-25.461002350,-0.004416723,0.101264283,1.008671641
25.281309,-0.477247655,0.669972241,-25.354190826,-0.006613988,0.097480103,1.006474376
25.283040,-0.599317968,0.814930737,-25.872989655,-0.005149145,0.098822877,1.006962657
25.283665,-0.736647069,0.677601635,-25.697513580,-0.002219457,0.096869752,1.007573009
25.284291,-0.561170995,0.654713452,-25.636478424,-0.006247777,0.093207642,1.005986094
25.284917,-0.614576757,0.547901928,-26.254459381,-0.005515356,0.094672486,1.003910899
25.285543,-0.713758886,0.677601635,-26.117130280,-0.007102270,0.092719361,1.004643321
25.286168,-0.706129491,0.662342846,-26.094242096,-0.009543676,0.091864869,1.001835704
25.286795,-0.713758886,0.433461010,-26.147647858,-0.006613988,0.094062135,1.000126719
25.287420,-0.767164648,0.654713452,-26.452823639,-0.007590551,0.092719361,1.000737071
25.288046,-0.629835546,0.433461010,-26.490970612,-0.004905004,0.091376588,0.999882579
25.288673,-0.690870702,0.662342846,-26.490970612,-0.004050512,0.091132447,0.999638438
25.289298,-0.568800390,0.486866772,-26.689334869,-0.002951879,0.091864869,1.000859141
25.289923,-0.576429784,0.624195874,-26.513858795,-0.007346410,0.087592408,1.000004649
25.290548,-0.667982519,0.525013745,-26.643558502,-0.006369848,0.087958619,1.000248790
25.291175,-0.461988866,0.502125561,-26.857181549,-0.006613988,0.089301392,1.001103282
25.291801,-0.454359472,0.486866772,-26.979251862,-0.006125707,0.087836549,0.997807384
25.293512,-0.484877050,0.311390698,-26.994510651,-0.007346410,0.085517213,0.998417735
25.294138,-0.309400976,0.517384350,-27.070804596,-0.007712621,0.086982056,0.998173594
25.294763,-0.194960058,0.288502514,-27.261539459,-0.006125707,0.083808228,0.995610118
25.295389,-0.004225194,0.265614331,-27.223392487,-0.006613988,0.086615846,0.995976329
25.296020,0.064439356,0.105397046,-27.459903717,-0.006736059,0.083808228,0.994023204
25.296646,0.201768458,0.097767651,-27.452274323,-0.008445043,0.084296510,0.997074962
25.297271,0.270433009,0.303761303,-27.589603424,-0.007956762,0.084174439,0.993901134
25.297924,0.354356349,0.357167065,-27.772708893,-0.006980199,0.081977174,0.994511485
25.298549,0.545091212,-0.001414478,-27.742191315,-0.006736059,0.082831666,0.996952891
25.299174,0.667161524,0.189320385,-27.688785553,-0.006613988,0.077704713,0.996708751
25.299799,0.758714259,0.288502514,-27.688785553,-0.006613988,0.078681275,0.994023204
25.300425,0.873155177,0.113026440,-27.887149811,-0.006613988,0.078803346,0.996952891
25.301050,1.063889980,0.143544018,-28.093143463,-0.005149145,0.078070924,0.997685313
25.301785,1.193589687,0.082508862,-27.993961334,-0.005881567,0.077704713,0.997319102
25.303758,1.849717617,0.181690991,-28.161808014,-0.005027074,0.077460572,0.998906016
25.304565,1.773423672,0.280873120,-28.322025299,-0.003806371,0.077704713,1.001103282
25.305366,2.078599453,0.174061596,-28.329654694,-0.001609106,0.078070924,0.998783946
25.306165,2.254075527,0.357167065,-28.352542877,-0.001364965,0.080878541,1.000615001
25.306920,2.223557949,0.219837964,-28.413578033,-0.005027074,0.079779908,1.000126719
25.321156,1.803941250,1.074330091,-30.488773346,-0.006613988,0.084662721,0.987431407
25.321854,1.590318203,0.593678296,-30.351444244,-0.009543676,0.086493775,0.989384532
25.322479,1.575059414,0.662342846,-30.542179108,-0.006613988,0.082831666,0.985966563
25.323105,1.422471523,0.868336499,-30.519290924,-0.008445043,0.083442017,0.983769298
25.323731,1.529283047,0.830189526,-30.381961823,-0.006858129,0.081488892,0.982060313
25.324356,1.323289394,0.601307690,-30.832096100,-0.009787817,0.081000611,0.980473399
25.324982,1.414842129,0.547901928,-30.694766998,-0.006491918,0.083930299,0.976933360
25.325607,1.369065762,0.494496167,-30.748172760,-0.006736059,0.083319947,0.976078868
25.326232,1.407212734,0.319020092,-31.091495514,-0.009665746,0.081000611,0.975590587
25.326859,1.117295742,0.441090405,-31.060977936,-0.009055395,0.081000611,0.971684337
25.327486,1.208848476,0.387684643,-31.038089752,-0.009055395,0.081610963,0.975224376
25.328113,0.911302149,0.326649487,-30.916019440,-0.010031957,0.083930299,0.972294688
25.328738,1.140183926,0.036732495,-31.129642487,-0.009543676,0.085517213,0.971928477
25.329364,0.819749415,0.006214917,-31.129642487,-0.009543676,0.083319947,0.972050548
25.331118,0.964707911,-0.138743579,-31.549259186,-0.008200902,0.085883424,0.973271251
25.331743,0.644273341,-0.100596607,-31.396671295,-0.010520238,0.085395142,0.973637462
25.332368,0.949449122,-0.131114185,-31.625553131,-0.006247777,0.084540650,0.970463634
25.332993,0.636643946,-0.245555103,-31.724735260,-0.007224340,0.089301392,0.971806407
25.333619,0.484056056,-0.337107837,-31.739994049,-0.011008520,0.087714478,0.975346446
25.334245,0.484056056,-0.306590259,-31.823917389,-0.007102270,0.088324830,0.977299571
25.334872,0.384873927,-0.382884204,-31.900211334,-0.006736059,0.090033814,0.976811290
25.335499,0.247544825,-0.573619068,-32.182498932,-0.008445043,0.089179322,0.975834727
25.336126,0.125474513,-0.710948169,-32.075687408,-0.010642309,0.088568971,0.980107188
25.336752,0.110215724,-0.802500904,-32.159610748,-0.006613988,0.089545533,0.980717540
25.337378,-0.004225194,-0.512583911,-32.296939850,-0.006858129,0.089301392,0.979618907
25.338005,-0.317030370,-0.688059986,-32.220645905,-0.008200902,0.087226197,0.975224376
25.338630,-0.561170995,-0.924571216,-32.403751373,-0.009787817,0.086249635,0.978764415
25.339257,-0.652723730,-0.962718189,-32.357975006,-0.007590551,0.085273072,0.976689219
25.339883,-0.614576757,-1.130564928,-32.586856842,-0.011252660,0.086249635,0.980229259
25.341597,-1.011305332,-1.092417955,-32.869144440,-0.009665746,0.084418580,0.974614024
25.342224,-1.156263828,-1.138194323,-32.792850494,-0.010764379,0.081366822,0.977421641
25.342849,-1.064711094,-1.374705553,-32.800479889,-0.013205785,0.079291627,0.978886485
25.343474,-1.118116856,-1.374705553,-32.937808990,-0.009543676,0.080268189,0.974980235
25.344100,-0.828199804,-1.405223131,-33.052249908,-0.009665746,0.075385377,0.974491954
25.344725,-0.950270116,-1.275523424,-33.220096588,-0.006980199,0.078681275,0.978398204
25.345351,-0.927381933,-1.435740709,-33.250614166,-0.012839574,0.076484010,0.970097423
25.345976,-0.744276464,-1.611216784,-33.197208405,-0.013327856,0.075507447,0.972416759
25.346601,-0.828199804,-1.611216784,-33.395572662,-0.011374731,0.071845338,0.972905040
25.347226,-0.797682226,-1.771434069,-33.517642975,-0.009665746,0.071723267,0.970463634
25.347851,-0.645094335,-1.611216784,-33.433719635,-0.009055395,0.072699830,0.973393321
25.348477,-0.362806737,-1.969798326,-33.700748444,-0.012107152,0.072333619,0.970829844
25.349102,-0.263624609,-2.007945299,-33.868595123,-0.010642309,0.074164674,0.974614024
25.349728,-0.095777929,-1.840098619,-33.578678131,-0.011374731,0.073920533,0.969975352
25.350353,-0.141554296,-1.771434069,-33.807559967,-0.009055395,0.072699830,0.972660899
25.352069,-0.011854589,-2.191050768,-34.082218170,-0.007468481,0.075385377,0.975834727
25.352695,0.026292384,-2.290232897,-34.089847565,-0.006613988,0.073920533,0.975590587
25.353322,0.247544825,-2.259715319,-33.990665436,-0.008078832,0.078192994,0.977909923
25.367178,-0.843458593,-2.542002916,-35.379215240,-0.007346410,0.074652955,0.982792735
25.367896,-0.568800390,-2.480967760,-35.371585846,-0.004660863,0.075019166,0.985478282
25.368522,-0.576429784,-2.503855944,-35.562320709,-0.002585668,0.072577760,0.984379649
25.369149,-0.744276464,-2.641185045,-35.585208893,-0.002219457,0.072821900,0.984990001
25.369776,-0.523024023,-2.503855944,-35.539432526,-0.003684301,0.072211549,0.984013438
25.370402,-0.286512792,-2.648814440,-35.905643463,-0.003318090,0.071845338,0.982304454
25.371028,-0.141554296,-2.465708971,-35.768314362,-0.000876684,0.071601197,0.986210704
25.371654,0.102586329,-2.801402330,-35.829349518,-0.000876684,0.067206666,0.987309337
25.372280,0.461167872,-2.587779284,-36.065860748,0.000099879,0.067328736,0.987065196
25.372906,0.720567286,-2.633555651,-36.142154694,-0.002341527,0.072089478,0.987797618
25.373532,0.812120020,-2.564891100,-36.157413483,-0.000510473,0.068671510,0.986210704
25.374158,0.949449122,-2.587779284,-36.149784088,-0.002341527,0.066596314,0.983769298
25.374783,1.239366055,-2.641185045,-36.248966217,0.000466090,0.071601197,0.985966563
25.375409,1.498765469,-2.664073229,-36.195560455,0.000588160,0.068549439,0.986821055
25.377129,2.383775234,-2.465708971,-36.500736237,-0.000144262,0.068915650,0.990361094
25.377754,2.482957363,-2.633555651,-36.523624420,0.001198512,0.069770142,0.988163829
25.378380,2.742356777,-2.595408678,-36.729618073,0.000588160,0.073188111,0.988285899
25.379006,3.055161953,-2.427561998,-36.935611725,0.001930933,0.073310181,0.990849376
25.379819,3.108567715,-2.557261705,-36.889835358,0.003273707,0.075629517,0.991337657
25.380602,3.680772305,-2.419932604,-36.996646881,0.004128199,0.077094361,0.995121837
25.381425,3.619737148,-2.252085924,-37.111087799,0.003273707,0.076239869,0.996464610
25.401084,4.283494473,-1.374705553,-39.644046783,-0.004050512,0.089667603,0.986821055
25.401709,4.146165371,-1.321299791,-39.727970123,0.001442652,0.088446900,0.988285899
25.402336,4.046983242,-1.573069811,-39.727970123,-0.001609106,0.088324830,0.988163829
25.402962,3.825730801,-1.611216784,-39.750858307,-0.003318090,0.089423463,0.990605235
25.403587,3.795213223,-1.542552233,-40.078922272,-0.006003637,0.092353150,0.987919688
25.404213,3.634995937,-1.222117662,-39.888187408,-0.004782934,0.090400025,0.985966563
25.404838,3.497666836,-1.359446764,-40.185733795,-0.002219457,0.090644166,0.984135509
25.405465,3.329820156,-1.550181627,-40.147586823,0.001564723,0.092109010,0.983158946
25.406090,3.268785000,-1.382334948,-40.284915924,-0.003928442,0.087958619,0.984257579
25.406717,3.322190762,-1.306041002,-40.155216217,-0.000510473,0.088935181,0.983403087
25.407343,3.047532558,-1.542552233,-40.406986237,-0.003073949,0.088202760,0.984867930
25.407968,2.833909512,-1.588328600,-40.445133209,-0.001364965,0.089179322,0.985234141
25.408595,2.719468594,-1.504405260,-40.582462311,0.000344019,0.087226197,0.984379649
25.409221,2.696580410,-1.603587389,-40.757938385,-0.002219457,0.089667603,0.984990001
25.409847,2.574510098,-1.603587389,-40.857120514,-0.003318090,0.089423463,0.984990001
25.411579,2.124375820,-1.702769518,-41.055484772,-0.002829809,0.088935181,0.982304454
25.412395,1.666612148,-1.435740709,-41.200443268,-0.000998754,0.088202760,0.985966563
25.413196,1.491136074,-1.512034655,-41.337772369,-0.003440160,0.087226197,0.987919688
25.414022,1.445359707,-1.611216784,-41.497989655,-0.003806371,0.088446900,0.986821055
25.414820,1.330918789,-1.321299791,-41.414066315,-0.000510473,0.086493775,0.985966563
25.415614,0.888413966,-1.466258287,-41.673465729,-0.000510473,0.083197877,0.988407969
25.416380,0.712937891,-1.260264635,-41.642948151,-0.002829809,0.082221314,0.985844493
25.417196,0.567979395,-1.336558580,-41.871829987,-0.001975317,0.081610963,0.986332774
25.418000,0.178880274,-1.222117662,-41.909976959,-0.003806371,0.080024049,0.988163829
25.418647,0.102586329,-1.389964342,-42.032047272,-0.006613988,0.079169556,0.984990001
25.419272,-0.194960058,-1.252635241,-42.085453033,-0.007346410,0.077582642,0.986210704
25.419897,-0.233107030,-1.298411608,-42.115970612,-0.005759496,0.078070924,0.985478282
25.433777,-1.629286289,-2.511485338,-43.321414948,-0.011863012,0.062079713,0.959843516
25.434495,-1.690321445,-2.709849596,-43.596073151,-0.013327856,0.061347291,0.961064219
25.435121,-1.697950840,-2.595408678,-43.443485260,-0.012107152,0.058295533,0.960331798
25.435748,-1.835279942,-2.732737780,-43.733402252,-0.014060277,0.061347291,0.958378673
25.436373,-1.751356602,-2.816661119,-43.824954987,-0.012229223,0.063056275,0.958989024
25.436999,-1.842909336,-2.915843248,-43.893619537,-0.014060277,0.060859010,0.958622813
25.437626,-1.957350254,-2.923472643,-43.649478912,-0.016989965,0.060736939,0.958256602
25.438253,-2.071791172,-3.343089342,-43.802066803,-0.017112035,0.061957642,0.961064219
25.438878,-2.102308750,-3.274424791,-43.931766510,-0.014304418,0.060370728,0.957280040
25.439503,-2.293043613,-3.419383287,-43.985172272,-0.017112035,0.053778931,0.961064219
25.440129,-2.247267246,-3.541453600,-43.908878326,-0.018821020,0.058661744,0.959111094
25.440754,-2.239637852,-3.564341784,-44.000431061,-0.018454809,0.054877564,0.956547618
25.441381,-2.300673008,-3.922923326,-44.214054108,-0.016379613,0.060492799,0.957157969
25.442007,-2.521925449,-4.037364006,-44.198795319,-0.020774145,0.057196900,0.956913829
25.443732,-2.758436680,-4.510386467,-44.282718658,-0.021628637,0.053046510,0.958256602
25.444358,-2.766066074,-4.350169182,-44.442935944,-0.020041723,0.055365846,0.955448985
25.444984,-2.842360020,-4.617197990,-44.420047760,-0.018576879,0.053778931,0.954350352
25.445610,-2.544813633,-4.930003166,-44.626041412,-0.017966527,0.052436158,0.955448985
25.446235,-2.758436680,-4.800303459,-44.526859283,-0.018210668,0.051215455,0.956425548
25.446861,-2.697401524,-5.166514397,-44.404788971,-0.014914770,0.049018189,0.956547618
25.447488,-2.682142735,-5.204661369,-44.915958405,-0.015525121,0.047553346,0.957768321
25.448115,-2.483778477,-5.334361076,-44.923587799,-0.013571996,0.047797486,0.958989024
25.448740,-2.590590000,-5.364878654,-44.801517487,-0.013571996,0.047431275,0.959599376
25.449366,-2.651625156,-5.624278069,-44.931217194,-0.015280981,0.047309205,0.963017344
25.449992,-2.674513340,-5.731089592,-44.839664459,-0.013327856,0.047553346,0.962284923
25.450618,-2.384596348,-5.914195061,-44.854923248,-0.011130590,0.046698853,0.961186290
25.451245,-2.178602695,-5.952342033,-45.076175690,-0.011985082,0.042914674,0.962773204
25.451870,-2.186232090,-6.242259026,-45.167728424,-0.013938207,0.045478150,0.964360118
25.452495,-2.132826328,-6.249888420,-44.961734772,-0.010764379,0.045844361,0.967778087
25.454216,-1.682692051,-6.562693596,-45.289798737,-0.006736059,0.044623658,0.972172618
25.454841,-1.629286289,-6.440623283,-45.503421783,-0.005393285,0.041693971,0.972782969
25.455467,-1.736097813,-6.509287834,-45.480533600,-0.006247777,0.040961549,0.975346446
25.456093,-1.499586582,-6.562693596,-45.427127838,-0.006980199,0.041083619,0.977543712
25.456718,-1.408033848,-6.562693596,-45.602603912,-0.006125707,0.039984986,0.978642344
25.457343,-1.346998692,-6.593211174,-45.465274811,-0.007834692,0.038642213,0.980717540
25.457968,-1.041822910,-6.783946037,-45.366092682,-0.003806371,0.037543580,0.984501719
25.458594,-1.011305332,-6.722910881,-45.572086334,-0.002829809,0.033271119,0.985966563
25.459220,-0.843458593,-6.783946037,-45.472904205,-0.002829809,0.033881471,0.987309337
25.459846,-0.858717382,-6.646616936,-45.579715729,-0.004782934,0.033881471,0.987797618
25.460473,-0.729017675,-6.516917229,-45.755191803,-0.006247777,0.034980103,0.990361094
25.461100,-0.355177343,-6.791575432,-45.808597565,-0.002707738,0.033271119,0.992314219
25.461725,-0.187330663,-6.638987541,-45.694156647,-0.005393285,0.030097291,0.991093516
25.462350,-0.225477636,-6.501658440,-46.006961823,-0.001120824,0.033149049,0.994023204
25.462976,-0.217848241,-6.616099358,-45.976444244,-0.001975317,0.032050416,0.997563243
25.464691,0.354356349,-6.173594475,-45.968814850,-0.004050512,0.031928346,1.000492930
25.465318,0.331468165,-6.524546623,-46.090885162,-0.004294652,0.029242799,1.003544688
25.465945,0.323838770,-6.310923576,-46.037479401,-0.002829809,0.029120728,0.999882579
25.479820,2.444810390,-4.617197990,-46.731754303,0.003395777,0.042548463,1.012333751
25.480559,2.635545254,-4.495127678,-46.907230377,0.002541285,0.041205689,1.013432384
25.481185,2.353257656,-4.373057365,-46.556278229,0.004128199,0.042792603,1.012089610
25.481812,2.170152187,-4.220469475,-46.708866119,0.002541285,0.045844361,1.016850352
25.482438,2.315110683,-4.060252190,-46.777530670,0.005226832,0.045600221,1.016972423
25.483064,2.032823086,-4.312022209,-46.945377350,0.005470973,0.049140260,1.018315196
25.483860,1.918382168,-4.167063713,-47.029300690,0.005593043,0.047919556,1.015995860
25.484487,1.803941250,-3.838999987,-47.105594635,0.007424098,0.050360963,1.018925548
25.485112,1.514024258,-3.831370592,-46.960636139,0.002907496,0.049506471,1.019047618
25.485739,1.384324551,-3.709300280,-47.021671295,0.005226832,0.049018189,1.015141368
25.486370,1.468247890,-3.503306627,-47.143741608,0.005348902,0.053412721,1.020390391
25.486995,1.071519375,-3.251536608,-47.059818268,0.006691676,0.048529908,1.021855235
25.487621,1.124925137,-3.457530260,-47.380252838,0.007424098,0.048529908,1.021733165
25.488248,0.842637599,-3.251536608,-47.181888580,0.010353785,0.049872681,1.023930430
25.489974,0.346726954,-2.953990221,-47.410770416,0.008156519,0.050116822,1.022343516
25.490599,0.087327540,-2.786143541,-47.448917389,0.007912379,0.047065064,1.022953868
25.491224,0.033921778,-2.603038073,-47.403141022,0.009743433,0.048407838,1.020146251
25.491851,-0.156813085,-2.435191393,-47.639652252,0.008766871,0.046698853,1.021611094
25.492476,-0.278883398,-2.282603502,-47.693058014,0.009987574,0.046454713,1.019535899
25.493103,-0.141554296,-2.191050768,-47.708316803,0.008522730,0.043769166,1.018681407
25.493728,-0.317030370,-2.015574694,-47.929569244,0.006081324,0.044623658,1.017338634
25.494354,-0.179701269,-2.038462877,-47.700687408,0.007424098,0.041938111,1.019902110
25.494980,-0.255995214,-1.992686510,-47.807498932,0.008400660,0.042548463,1.019535899
25.495606,-0.370436132,-1.466258287,-47.975345612,0.004616480,0.038886353,1.016850352
25.496233,-0.370436132,-1.840098619,-48.013492584,0.008644801,0.038153931,1.017582774
25.496860,-0.362806737,-1.580699205,-48.074527740,0.006325465,0.035956666,1.017216563
25.497486,-0.172071874,-1.290782213,-48.135562897,0.006935816,0.033393189,1.013676524
25.498112,-0.111036718,-1.435740709,-48.120304108,0.005837183,0.034125611,1.011845469
25.498738,-0.095777929,-1.519664049,-48.127933502,0.006325465,0.032538697,1.012333751
25.500477,0.415391505,-1.298411608,-48.112674713,0.005593043,0.031928346,1.009404063
25.501103,0.476426661,-1.199229479,-48.463626862,0.003884058,0.029853150,1.008427501
25.501728,0.606126368,-0.863536060,-48.486515045,0.002053004,0.030341431,1.004399180
25.502354,0.720567286,-1.031382799,-48.494144440,0.004494410,0.031317994,1.007206798
25.502981,0.873155177,-0.916941822,-48.585697174,0.004006129,0.032294556,1.007939219
25.503607,1.063889980,-0.955088794,-48.585697174,0.010842066,0.031195924,1.003666759
25.504233,1.330918789,-0.840647876,-48.860355377,0.010719996,0.029975221,1.004887462
25.504859,1.529283047,-0.939830005,-48.684879303,0.008766871,0.024115846,1.003422618
25.505484,1.437730312,-0.688059986,-48.669620514,0.015480738,0.019233033,1.006840587
25.506111,1.353806973,-0.901683033,-48.578067780,0.013893824,0.016913697,1.006596446
25.506737,1.376695156,-0.611766040,-48.555179596,0.012795191,0.018378541,1.006108165
25.507362,1.437730312,-0.367625415,-48.631473541,0.008278590,0.022406861,1.003544688
25.508177,1.384324551,-0.504954517,-48.677249908,-0.003318090,0.029609010,1.000370860
25.508973,1.529283047,-0.352366626,-48.631473541,-0.005149145,0.032172486,0.997807384
25.510970,2.254075527,-0.337107837,-48.906131744,-0.006736059,0.035346314,0.998417735
25.511786,2.132005215,-0.283702075,-49.012943268,-0.002829809,0.029486939,0.999638438
25.512568,2.284593105,-0.245555103,-48.906131744,-0.006980199,0.033515260,1.000004649
25.513420,1.994676113,-0.039561450,-49.173160553,-0.006003637,0.032538697,1.002201915
25.514234,1.712388515,-0.062449634,-49.402042389,-0.005271215,0.037055299,1.002568126
25.528442,2.040452480,-1.183970690,-49.951358795,-0.009421606,0.024726197,0.966313243
25.529146,2.170152187,-1.344187975,-49.943729401,-0.011008520,0.026068971,0.964482188
25.529773,2.330369473,-1.527293444,-49.958988190,-0.010031957,0.022162721,0.967656016
25.530398,2.292222500,-1.481517076,-49.913211823,-0.012107152,0.024604127,0.964482188
25.531024,2.513474941,-1.771434069,-49.981876373,-0.009177465,0.019721314,0.967289805
25.531651,2.467698574,-1.870616198,-50.027652740,-0.012961645,0.023261353,0.966313243
25.532277,2.856797695,-2.053721666,-50.142093658,-0.012717504,0.025092408,0.967778087
25.532904,2.772874355,-1.924021959,-50.035282135,-0.009177465,0.021186158,0.966801524
25.533531,2.864427090,-2.191050768,-50.157352448,-0.012961645,0.022651002,0.965336680
25.534157,2.948350430,-2.374156237,-50.180240631,-0.009909887,0.025458619,0.969609141
25.534784,2.856797695,-2.549632311,-50.157352448,-0.012595434,0.019843385,0.970341563
25.535409,2.933091640,-2.595408678,-50.042911530,-0.010276098,0.022162721,0.970219493
25.536034,3.047532558,-2.984507799,-50.172611237,-0.009543676,0.023749635,0.970341563
25.536659,2.841538906,-2.885325670,-50.226016998,-0.008445043,0.019721314,0.973515391
25.538394,2.826280117,-3.114207506,-50.370975494,-0.006247777,0.021186158,0.972905040
25.539019,2.940721035,-3.167613268,-50.515933990,-0.010031957,0.021308228,0.974858165
25.539644,3.146714687,-3.427012682,-50.287052155,-0.008567113,0.018134400,0.977665782
25.540271,3.055161953,-3.571971178,-50.424381256,-0.009299535,0.020209596,0.974858165
25.540897,3.177232265,-3.579600573,-50.653263092,-0.005027074,0.018622681,0.979252696
25.541522,3.215379238,-3.587229967,-50.340457916,-0.006003637,0.018012330,0.977055430
25.542147,3.406114101,-3.625376940,-50.546451569,-0.006613988,0.017890260,0.976811290
25.542774,3.398484707,-3.640635729,-50.798221588,-0.004416723,0.018012330,0.981816173
25.543401,3.390855312,-3.724559069,-50.485416412,-0.006369848,0.018012330,0.980351329
25.544028,3.596848965,-3.694041491,-50.432010651,-0.005149145,0.016303346,0.984501719
25.544655,3.696031094,-3.900035143,-50.660892487,-0.005881567,0.020331666,0.985234141
25.545280,3.734178066,-3.968699694,-50.668521881,-0.005515356,0.017768189,0.984379649
25.545905,4.062242031,-4.014475822,-50.569339752,-0.002097387,0.020331666,0.988774180
25.546532,3.917283535,-4.083140373,-50.836368561,-0.001609106,0.017768189,0.987309337
25.547157,3.955430508,-4.334910393,-50.744815826,-0.002341527,0.020942017,0.988407969
