time,gyro x,gyro y,gyro z,accel x,accel y,accel z
166.016478,0.143167078,0.183087111,0.171699524,0.019761108,0.047569655,1.021560311
166.037086,0.196572840,0.114422560,0.072517395,0.017563842,0.040367506,1.018630624
166.037712,0.288125575,-0.129718065,0.011482239,0.017563842,0.045250319,1.019607186
166.038338,0.196572840,-0.030535936,0.125923157,0.016465209,0.043663405,1.015212655
166.038965,0.082131922,-0.289935350,0.019111633,0.019150756,0.045128249,1.013259530
166.039591,-0.009420812,-0.160235643,-0.049552917,0.018784545,0.041588210,1.008987069
166.040218,-0.146749914,-0.045794725,0.095405579,0.019394897,0.042442702,1.007156014
166.040843,-0.100973547,-0.137347460,0.141181946,0.016831420,0.040489577,1.001540780
166.041468,-0.100973547,-0.122088671,0.148811340,0.018296264,0.041954421,0.998977304
166.042093,0.074502528,-0.099200487,0.148811340,0.015854858,0.041099928,0.998366952
166.042718,0.181314051,-0.328082323,0.041999817,0.015366577,0.037193678,0.997634530
166.043343,0.265237391,-0.350970507,-0.087699890,0.018662475,0.039757155,0.997878671
166.043968,0.600930750,-0.099200487,-0.057182312,0.018784545,0.038658522,0.995925546
166.044594,0.715371668,0.045758009,0.049629211,0.017197631,0.040245436,0.997512460
166.045221,0.745889246,-0.122088671,0.186958313,0.019883178,0.038902663,0.998122811
166.046909,0.837441981,-0.267047167,0.049629211,0.018784545,0.040977858,1.003005624
166.047535,1.051064968,-0.022906542,0.072517395,0.017197631,0.038292311,1.003982186
166.048161,0.867959559,-0.091571093,-0.011405945,0.019150756,0.038902663,1.002761483
166.048786,0.928994715,-0.160235643,0.148811340,0.018784545,0.038048171,1.004104257
166.049413,0.936624110,-0.381488085,0.072517395,0.020981811,0.038170241,1.003860116
166.050040,0.944253504,-0.129718065,0.019111633,0.017319702,0.037681960,1.006667733
166.050665,0.928994715,-0.190753222,-0.225028992,0.019883178,0.035118483,1.002639413
166.051292,0.921365321,-0.244158983,0.103034973,0.015976928,0.037681960,1.004470468
166.051918,1.020547390,-0.320452929,0.141181946,0.018784545,0.038414381,1.005813241
166.052543,0.867959559,-0.206012011,0.011482239,0.017930053,0.038780592,1.004226327
166.053168,0.860330164,-0.030535936,0.156440735,0.018174194,0.041954421,1.004226327
166.053793,0.799295008,-0.198382616,-0.095329285,0.017807983,0.042076491,1.003127694
166.054420,0.906106532,-0.106829882,0.003852844,0.015244506,0.044273756,1.002517343
166.055045,0.784036219,-0.206012011,-0.003776550,0.018052123,0.044273756,1.005324960
166.055670,0.761148036,-0.083941698,-0.019035339,0.017685913,0.045006178,1.002151132
166.057400,0.822183192,-0.076312304,0.118293762,0.017685913,0.045128249,1.004104257
166.058026,0.776406825,-0.274676561,0.003852844,0.020737670,0.042686842,1.001906991
166.058651,0.730630457,-0.160235643,-0.026664734,0.016587280,0.043785475,1.005324960
166.059277,0.677224696,-0.267047167,0.041999817,0.019639038,0.041954421,1.005691171
166.059903,0.845071375,-0.267047167,-0.041923523,0.017807983,0.042442702,1.007888436
166.060530,0.768777430,-0.221270800,0.041999817,0.015366577,0.044273756,1.005813241
166.061155,0.791665614,-0.160235643,0.003852844,0.016465209,0.043175124,1.008498788
166.061782,0.723001063,-0.465411425,0.087776184,0.018906616,0.042198561,1.005569100
166.062408,0.784036219,-0.297564745,0.133552551,0.018174194,0.040733717,1.008254647
166.063033,0.623818934,-0.228900194,-0.118217468,0.022690795,0.041954421,1.009597421
166.063660,0.494119227,-0.122088671,0.278511047,0.016831420,0.041466139,1.008864999
166.064285,0.448342860,-0.412005663,-0.003776550,0.018052123,0.044151686,1.009353280
166.064912,0.631448328,-0.267047167,-0.041923523,0.020249389,0.043053053,1.011550546
166.065539,0.501748621,-0.343341112,0.171699524,0.020615600,0.044273756,1.009231210
166.066164,0.570413172,-0.236529589,0.209846497,0.017197631,0.041954421,1.008742929
166.067861,0.501748621,-0.061053514,0.156440735,0.015976928,0.043541335,1.009353280
166.068487,0.356790125,-0.236529589,0.087776184,0.020249389,0.046348952,1.005202889
166.069113,0.356790125,-0.045794725,0.125923157,0.015244506,0.043175124,1.004470468
166.069740,0.120278895,-0.083941698,0.072517395,0.016709350,0.042564772,1.002761483
166.084126,-0.062826574,-0.381488085,-0.102958679,0.019028686,0.048180006,1.012282968
166.084830,-0.131491125,-0.389117479,-0.072441101,0.015488647,0.046471022,1.015700936
166.085456,-0.337484777,-0.412005663,0.141181946,0.019516967,0.046715163,1.017165780
166.086082,-0.238302648,-0.511187792,0.156440735,0.019394897,0.047447585,1.015578866
166.086708,-0.398519933,-0.556964159,0.049629211,0.018418334,0.047569655,1.024367929
166.087335,-0.215414464,-0.373858690,-0.141105652,0.017197631,0.048546217,1.027785897
166.087960,-0.566366613,-0.373858690,-0.156364441,0.019639038,0.049278639,1.031448007
166.088586,-0.093344152,-0.602740526,0.087776184,0.018052123,0.054527663,1.042556405
166.089211,0.074502528,-0.633258104,0.270881653,0.019272827,0.058189772,1.063186288
166.089837,0.524636805,-1.022357225,0.148811340,0.011338256,0.067589186,1.104201913
166.090462,1.226541042,-1.564044237,0.186958313,0.029892944,0.095421217,1.146804452
166.091088,0.898477137,-0.854510546,-0.194511414,0.068833373,0.099205397,1.158279061
166.091713,-1.207235813,1.937847853,-1.193962097,0.083115600,0.059410475,1.127517343
166.092339,-3.808859348,3.410320997,-1.522026062,0.063584350,0.057823561,1.107131600
166.094091,-8.645895004,2.449017286,0.553169250,0.000840209,-0.036170579,1.001906991
166.094716,-7.921103001,2.761822462,0.530281067,-0.015761353,-0.005164720,0.968215585
166.095341,-6.845358372,2.387982130,-0.026664734,-0.012465455,0.019127272,0.937820077
166.095966,-5.365255833,1.808148146,0.072517395,0.003891967,0.044517897,0.894851327
166.096591,-5.823019505,1.914959669,0.324287415,-0.006484009,0.035972975,0.849929452
166.097216,-5.731466770,0.976544142,0.225105286,-0.031264283,0.030479811,0.830398202
166.097843,-5.220297337,0.030499220,0.453987122,-0.031874634,0.027794264,0.815505624
166.098468,-4.213217258,-0.938433886,0.721015930,-0.018935181,0.024376296,0.815383554
166.099094,-2.603415012,-1.571673632,0.362434387,-0.016615845,0.023521803,0.825759530
166.099719,-0.154379308,-2.029437304,0.270881653,-0.014052369,0.001427077,0.845412850
166.100344,1.958962917,-2.014178514,-0.255546570,0.005967163,0.013878249,0.863601327
166.100969,3.652688503,-2.136248827,-0.438652039,0.020371459,0.032432936,0.882522225
166.101595,4.499551296,-2.403277636,-0.301322937,0.020249389,0.045494460,0.900222421
166.102222,4.972573757,-2.586383104,-0.080070496,0.011094116,0.039879225,0.930739999
166.102848,5.415078640,-2.685565233,-0.186882019,0.007554077,0.038414381,0.973830819
166.104550,6.429788113,-1.899737597,-0.591239929,0.037827514,0.045738600,1.083938241
166.105176,6.139871120,-1.815814257,-0.720939636,0.038193725,0.037926100,1.110793710
166.105801,5.582925320,-1.472491503,-0.507316589,0.041123413,0.038780592,1.127273202
166.106426,4.644509792,-1.029986620,-0.278434753,0.042344116,0.040855788,1.134719491
166.107053,2.874490261,-0.663775682,-0.347099304,0.040879272,0.042442702,1.140945077
166.107679,1.287576199,-0.556964159,0.148811340,0.040635131,0.046471022,1.146804452
166.108304,0.021096766,-0.312823534,0.202217102,0.046860717,0.051475905,1.143508554
166.108931,-1.306417942,0.244122267,0.217475891,0.046616577,0.064049147,1.137405038
166.109556,-2.389791965,0.419598341,0.324287415,0.038193725,0.068077467,1.127639413
166.110183,-2.740744114,0.991802931,0.309028625,0.032334350,0.064293288,1.115432382
166.110809,-3.053549290,0.984173536,0.316658020,0.026841186,0.065025710,1.093215585
166.111435,-3.755453587,1.235943556,0.003852844,0.029404663,0.069664381,1.068191171
166.112061,-4.350546360,1.274090528,0.049629211,0.031601928,0.070396803,1.043166757
166.112688,-5.014303684,1.243572950,0.209846497,0.029160522,0.067222975,1.029372811
166.113313,-5.014303684,1.174908400,0.408210754,0.020249389,0.063194655,1.012038827
166.115033,-4.625204563,1.388531446,0.019111633,0.011460327,0.049278639,0.973464608
166.115660,-4.365805149,1.525860548,-0.232658386,0.007432006,0.040733717,0.951247811
166.116285,-4.526022434,1.213055372,-0.209770203,0.008530639,0.030357741,0.934035897
166.116910,-4.388693333,0.831585646,0.125923157,0.004380248,0.024742506,0.916335702
166.132764,-2.550009251,-0.083941698,0.339546204,0.017563842,0.049034499,1.009963632
166.133485,-2.519491673,-0.022906542,0.034370422,0.016098998,0.039390944,1.003982186
166.134110,-2.427938938,-0.053424120,0.057258606,0.018052123,0.037193678,0.994826913
166.134737,-2.046469212,-0.129718065,0.034370422,0.021836303,0.036949538,0.990310311
166.135363,-1.596334934,-0.091571093,0.148811340,0.018052123,0.035240553,0.988357186
166.135989,-1.237753391,-0.000018358,-0.156364441,0.017563842,0.030723952,0.982619882
166.136615,-0.947836339,0.213604689,-0.080070496,0.015366577,0.022423171,0.976150155
166.137240,-0.734213293,0.007611036,-0.064811707,0.012314819,0.027550124,0.976394296
166.137867,-0.146749914,-0.366229296,0.179328918,0.010117553,0.038780592,0.992019296
166.138492,0.982400477,-0.869769335,0.247993469,0.013413452,0.059410475,1.011184335
166.139119,1.104470730,-0.831622362,0.164070129,0.020737670,0.051842116,1.005813241
166.139746,0.890847743,0.305157423,-0.469169617,0.021225952,0.041710280,1.004592538
166.140371,0.257607996,0.579815626,-0.720939636,0.020981811,0.043785475,1.001784921
166.140998,-0.482443273,-0.022906542,-0.156364441,0.025498413,0.043419264,1.005324960
166.142724,-0.779989660,-0.061053514,0.110664368,0.003891967,0.021080397,0.986648202
166.143351,-0.657919347,0.022869825,-0.125846863,0.008042358,0.030846022,0.977737069
166.143977,-0.413778722,-0.274676561,0.011482239,0.016343139,0.044151686,0.971511483
166.144604,-0.245932043,-0.625628710,0.354804993,0.014756225,0.044639967,0.962234139
166.145230,-0.192526281,-0.625628710,0.240364075,0.009018920,0.039390944,0.956863046
166.145855,0.043984950,-0.831622362,0.049629211,0.002427123,0.035850905,0.964309335
166.146481,0.326272547,-1.037616014,-0.102958679,0.010483764,0.044762038,0.966018319
166.147107,0.509378016,-1.167315722,0.026741028,0.012436889,0.042808913,0.975783944
166.147733,1.150247097,-1.388568163,-0.095329285,0.016221069,0.037804030,0.983352304
166.148360,1.302834988,-1.243609667,-0.019035339,0.016587280,0.036827467,0.990798593
166.148986,1.707192898,-1.182574511,0.041999817,0.023545288,0.043541335,0.997634530
166.149611,1.806375027,-1.136798143,-0.011405945,0.022690795,0.047569655,1.007522225
166.150236,1.539346218,-1.106280565,-0.148735046,0.017319702,0.049034499,1.016189218
166.150862,1.501199245,-1.434344530,0.026741028,0.020005248,0.046471022,1.024123788
166.151488,1.272317410,-0.968951464,-0.003776550,0.023911498,0.050499342,1.039260507
166.153210,0.272866786,-0.572222948,-0.278434753,0.025620483,0.043907546,1.050735116
166.153837,0.150796473,-0.793475389,0.171699524,0.024888061,0.042442702,1.049758554
166.154463,-0.169638097,-0.434893847,-0.110588074,0.027695678,0.040001296,1.042068124
166.155088,-0.413778722,-0.236529589,0.026741028,0.023423217,0.037315749,1.048659921
166.155713,0.097390711,-0.495929003,0.164070129,0.016098998,0.055748366,1.073073983
166.156339,0.600930750,-1.022357225,0.331916809,0.029404663,0.072594069,1.092849374
166.156965,0.455972254,-0.366229296,0.194587708,0.051133178,0.073204421,1.083205819
166.157590,-1.024130344,1.457195997,-0.675163269,0.046372436,0.045738600,1.062209725
166.158216,-2.733114719,1.770001173,-0.812492371,0.035752319,0.046715163,1.045486093
166.158843,-4.014853001,1.106243849,0.225105286,0.028550170,0.045006178,1.026076913
166.159468,-4.579428196,0.602703810,0.919380188,0.022080444,0.029747389,1.003371835
166.160093,-4.449728489,0.686627150,0.637092590,0.001816772,0.011070631,0.984206796
166.160719,-3.694418430,0.907879591,0.209846497,-0.008070923,0.016197585,0.968825936
166.161344,-2.687338352,0.717144728,-0.232658386,0.001206420,0.035972975,0.951980233
166.161970,-2.176168919,0.343304396,0.301399231,0.013169311,0.055504225,0.930617929
166.163667,-1.924398899,-0.366229296,0.286140442,-0.006972291,0.033043288,0.914138436
166.164292,-1.619223118,-0.709552050,0.148811340,-0.008070923,0.023155592,0.916579843
166.164919,-0.657919347,-1.045245409,-0.080070496,0.004502319,0.030601881,0.921706796
166.165545,-0.047567785,-1.350421190,0.133552551,0.011094116,0.026451491,0.936233163
166.166170,1.020547390,-1.403826952,-0.011405945,0.014267944,0.021812819,0.951736093
166.180375,-3.984335423,1.968365431,-0.461540222,0.040757202,0.027061842,1.024367929
166.181071,-4.793051243,2.113323927,-0.278434753,0.015854858,0.016441725,0.997024179
166.181697,-5.357626438,1.686077833,0.247993469,0.006211303,0.017174147,0.973220468
166.182333,-4.846457005,0.808697462,0.690498352,0.011216186,0.010826491,0.953811288
166.182958,-3.969076633,1.213055372,0.110664368,0.016465209,0.024986647,0.939040780
166.183584,-2.939108372,1.182537794,0.072517395,-0.031508423,0.020592116,0.930007577
166.184211,-2.061728001,0.549298048,0.019111633,-0.021010377,0.027550124,0.909988046
166.184837,-1.771811008,0.030499220,-0.118217468,0.004014038,0.029259108,0.905837655
166.185462,-1.253012180,-0.556964159,0.019111633,0.007920288,0.034386061,0.902419686
166.186089,-0.863913000,-0.549334764,0.278511047,0.003037475,0.018028639,0.909865975
166.186714,-0.360372961,-1.052874804,0.408210754,0.003769897,0.011558913,0.918655038
166.187339,0.837441981,-1.297015429,0.316658020,0.009385131,0.016319655,0.929519296
166.187965,1.600381374,-1.327533007,0.087776184,0.017197631,0.025719069,0.939162850
166.188590,2.348062038,-1.274127245,-0.194511414,0.019761108,0.029747389,0.958083749
166.190349,3.599282742,-1.243609667,-0.125846863,0.018784545,0.053917311,0.994460702
166.190975,3.706094265,-1.480120897,-0.194511414,0.016221069,0.055992506,1.015578866
166.191602,3.599282742,-1.441973925,-0.118217468,0.025254272,0.052086256,1.033767343
166.192229,3.736611843,-0.877398729,-0.324211121,0.030137084,0.051720046,1.052566171
166.192854,3.149148464,-0.862139940,-0.392875671,0.034287475,0.049766921,1.066726327
166.193481,2.882119656,-0.572222948,-0.095329285,0.028672241,0.042686842,1.076125741
166.194107,2.081033230,-0.289935350,-0.209770203,0.027695678,0.037315749,1.076858163
166.194733,1.188394070,-0.282305956,-0.125846863,0.028428100,0.036461256,1.077224374
166.195358,0.272866786,0.083904982,0.026741028,0.028428100,0.047447585,1.074050546
166.195984,-0.528219640,0.175457716,0.286140442,0.028916381,0.053917311,1.071120858
166.196610,-1.359823704,0.129681349,0.164070129,0.026352905,0.055870436,1.064284921
166.197235,-1.985434055,0.236492872,0.232734680,0.024033569,0.057091139,1.052688241
166.197860,-2.153280735,0.289898634,0.377693176,0.019516967,0.062706374,1.043899179
166.198486,-2.511862278,0.549298048,0.118293762,0.018296264,0.056480788,1.031814218
166.199113,-2.740744114,0.389080763,0.064888000,0.019883178,0.046959303,1.021194100
166.200836,-2.237204075,0.465374708,0.034370422,0.020615600,0.043541335,0.992629647
166.201462,-2.237204075,0.411968946,0.202217102,0.020249389,0.039268874,0.987502694
166.202088,-1.840475559,0.511151075,0.103034973,0.013779663,0.037071608,0.982864022
166.202713,-1.352194309,0.251751661,-0.095329285,0.014878295,0.040611647,0.978225350
166.203339,-1.047018528,0.236492872,-0.110588074,0.012192748,0.038414381,0.975539804
166.203965,-1.016500950,0.205975294,-0.171623230,0.011460327,0.038536452,0.973952889
166.204590,-0.924948156,-0.129718065,0.026741028,0.010727905,0.037559889,0.971511483
166.205216,-0.787619054,-0.289935350,0.072517395,0.008408569,0.036949538,0.972243905
166.205842,-0.528219640,0.061016798,-0.102958679,0.014878295,0.031700514,0.973464608
166.206468,-0.528219640,-0.129718065,-0.125846863,0.015488647,0.028648756,0.973586679
166.207093,-0.451925695,-0.495929003,0.049629211,0.016343139,0.023765944,0.979690194
166.207718,-0.131491125,-0.328082323,0.026741028,0.015854858,0.021568678,0.983596444
166.208343,0.150796473,-0.282305956,0.080146790,0.020005248,0.024010085,0.986892343
166.208969,0.463601649,-0.656146288,0.103034973,0.020249389,0.027428053,0.988845468
166.209594,0.555154383,-0.419635057,0.278511047,0.021348022,0.031456374,0.991653085
166.211289,0.936624110,-0.267047167,0.133552551,0.017075561,0.045616530,1.003738046
166.211914,1.287576199,-0.350970507,-0.171623230,0.019883178,0.045128249,1.008742929
166.212541,1.318093777,-0.412005663,0.133552551,0.024033569,0.046348952,1.010207772
166.213168,1.028176785,-0.320452929,-0.026664734,0.023179077,0.048057936,1.012649179
166.227044,0.234719813,-0.068682909,-0.102958679,0.019639038,0.047569655,1.001784921
166.227762,0.082131922,-0.076312304,-0.011405945,0.016587280,0.041710280,1.002151132
166.228388,0.204202235,0.061016798,0.087776184,0.020859741,0.041710280,0.999831796
166.229018,0.120278895,0.152569532,-0.080070496,0.018052123,0.038048171,1.003982186
166.229645,0.059243739,-0.183123827,0.049629211,0.018418334,0.037315749,1.004470468
166.230270,0.120278895,0.022869825,0.103034973,0.021714233,0.038170241,1.002883554
166.230895,0.257607996,-0.061053514,-0.072441101,0.020859741,0.035240553,1.003860116
166.231520,0.066873133,0.083904982,0.034370422,0.019394897,0.034996413,1.003005624
166.232147,0.204202235,-0.114459276,0.057258606,0.020249389,0.038780592,1.002761483
166.232773,0.272866786,-0.068682909,0.095405579,0.018052123,0.040123366,1.002761483
166.233399,0.318643153,-0.022906542,-0.049552917,0.018174194,0.042198561,1.001906991
166.234024,0.127908289,-0.068682909,0.125923157,0.015732788,0.043175124,0.998977304
166.234650,0.013467371,-0.152606249,-0.034294128,0.015732788,0.045006178,1.001296639
166.235276,0.127908289,0.038128614,0.041999817,0.018662475,0.043297194,1.002395272
166.236998,0.089761317,-0.114459276,0.034370422,0.019028686,0.042442702,0.997512460
166.237625,0.059243739,-0.267047167,0.011482239,0.020859741,0.041954421,1.002761483
166.238250,-0.017050207,-0.114459276,0.041999817,0.018052123,0.040977858,1.000075936
166.238877,0.120278895,-0.328082323,-0.148735046,0.017319702,0.038414381,0.999587655
166.239502,0.013467371,-0.167865038,0.118293762,0.013535522,0.040245436,0.999099374
166.240127,0.280496180,-0.190753222,-0.003776550,0.019272827,0.039146803,0.998855233
166.240753,-0.017050207,-0.312823534,0.080146790,0.017930053,0.043053053,0.996902108
166.241378,0.135537684,-0.236529589,0.133552551,0.015610717,0.042076491,0.998000741
166.242005,0.105020106,-0.099200487,0.041999817,0.015976928,0.037437819,1.000808358
166.242630,0.082131922,-0.167865038,-0.019035339,0.018052123,0.037193678,1.003493905
166.243255,0.227090418,-0.480670214,0.087776184,0.019150756,0.040733717,0.999953866
166.243880,0.364419520,-0.091571093,-0.041923523,0.016098998,0.036949538,0.998733163
166.244505,0.188943446,-0.213641405,-0.019035339,0.020859741,0.036827467,1.001052499
166.245130,0.249978602,-0.213641405,-0.064811707,0.017930053,0.037071608,1.000564218
166.245757,0.326272547,-0.320452929,0.041999817,0.020371459,0.038902663,1.002761483
166.247474,0.707742274,-0.244158983,-0.186882019,0.016343139,0.035240553,1.004836679
166.248100,0.517007411,-0.228900194,-0.019035339,0.019639038,0.036827467,1.003615975
166.248726,0.471231043,-0.251788378,0.011482239,0.020493530,0.035972975,1.004104257
166.249351,0.753518641,-0.099200487,0.019111633,0.017930053,0.039268874,1.004470468
166.249976,0.852700770,-0.183123827,0.316658020,0.017685913,0.041710280,1.007278085
166.250603,0.951882899,-0.175494432,-0.034294128,0.018784545,0.048180006,1.008620858
166.251229,0.669595301,-0.320452929,-0.179252625,0.015854858,0.045616530,1.010818124
166.251854,0.723001063,-0.061053514,0.064888000,0.017807983,0.042076491,1.012771249
166.252480,0.578042567,-0.244158983,-0.064811707,0.019639038,0.042076491,1.010818124
166.253106,0.471231043,-0.144976854,-0.110588074,0.019394897,0.040123366,1.007522225
166.253731,0.455972254,-0.000018358,0.125923157,0.020005248,0.041710280,1.009231210
166.254356,0.539895594,-0.228900194,0.225105286,0.022202514,0.041588210,1.010085702
166.254982,0.219461024,0.213604689,0.011482239,0.021714233,0.053062819,1.009109139
166.255608,0.181314051,0.221234083,-0.026664734,0.018784545,0.043297194,1.008010507
166.256234,0.043984950,-0.022906542,-0.179252625,0.015244506,0.044639967,1.004470468
166.257955,0.074502528,-0.343341112,0.057258606,0.017319702,0.037437819,1.002639413
166.258581,0.425454676,-0.076312304,0.095405579,0.021714233,0.039513014,0.998489022
166.259208,0.425454676,-0.076312304,0.095405579,0.021714233,0.039513014,0.998489022
166.259833,0.387307703,-0.221270800,0.110664368,0.017807983,0.036461256,1.000075936
166.260460,0.578042567,0.068646193,-0.141105652,0.019516967,0.034019850,0.998977304
166.291865,0.387307703,0.152569532,-0.049552917,0.017685913,0.041954421,0.999465585
166.292579,0.440713465,0.259381056,0.041999817,0.016465209,0.040733717,0.998366952
166.293205,0.631448328,0.274639845,0.072517395,0.018296264,0.038780592,0.994460702
166.293832,0.478860438,0.244122267,-0.133476257,0.013169311,0.037437819,0.993972421
166.294458,0.715371668,0.038128614,0.026741028,0.014756225,0.036461256,0.991164804
166.295083,0.715371668,0.152569532,0.080146790,0.016221069,0.036949538,0.994094491
166.295708,0.715371668,0.251751661,0.087776184,0.015732788,0.038658522,0.993117929
166.296335,0.951882899,0.236492872,0.064888000,0.018052123,0.036095046,0.993850350
166.296962,0.982400477,0.030499220,0.041999817,0.016221069,0.036339186,0.992873788
166.297587,1.272317410,-0.137347460,0.041999817,0.015610717,0.033775710,0.998122811
166.298213,1.264688015,0.083904982,-0.064811707,0.017563842,0.036949538,0.995315194
166.298838,1.196023464,0.114422560,0.080146790,0.019028686,0.040123366,0.995559335
166.299465,1.218911648,0.068646193,0.125923157,0.017563842,0.040489577,0.998611093
166.300091,1.424905300,0.022869825,-0.087699890,0.016709350,0.041099928,0.995437264
166.301815,1.455422878,-0.000018358,0.110664368,0.018052123,0.042198561,1.004592538
166.302440,1.356240749,-0.022906542,0.026741028,0.018540405,0.042564772,1.002517343
166.303066,1.424905300,-0.030535936,0.049629211,0.017075561,0.039390944,1.001296639
166.303693,1.402017117,-0.122088671,-0.026664734,0.018540405,0.041832350,1.003860116
166.304319,1.562234402,-0.015277147,0.186958313,0.019272827,0.040489577,1.002395272
166.304946,1.569863796,0.030499220,0.087776184,0.017075561,0.040001296,1.007278085
166.305572,1.531716824,-0.251788378,-0.041923523,0.018662475,0.040367506,1.006301522
166.306198,1.402017117,0.106793165,0.087776184,0.019394897,0.041099928,1.005447030
166.306823,1.455422878,0.160198927,0.072517395,0.017563842,0.042320631,1.007400155
166.307448,1.470681667,-0.122088671,-0.148735046,0.020615600,0.043785475,1.009231210
166.308073,1.424905300,0.183087111,0.179328918,0.017319702,0.046471022,1.009475350
166.308698,1.165505886,-0.068682909,-0.102958679,0.018418334,0.043663405,1.008864999
166.309325,1.379128933,0.015240431,0.125923157,0.019272827,0.043663405,1.007156014
166.309950,1.424905300,0.015240431,-0.034294128,0.020981811,0.047447585,1.008498788
166.310583,1.348611355,0.053387403,0.125923157,0.019761108,0.042686842,1.008742929
166.312578,1.257058620,0.114422560,0.110664368,0.020005248,0.044639967,1.010451913
166.313205,0.951882899,-0.076312304,-0.125846863,0.020005248,0.043907546,1.010573983
166.313830,1.325723171,0.022869825,0.080146790,0.015122436,0.045006178,1.008010507
166.314456,0.738259852,0.198345900,0.080146790,0.018052123,0.042808913,1.011550546
166.315081,0.883218348,-0.045794725,0.103034973,0.018418334,0.047447585,1.009841561
166.315708,0.860330164,-0.030535936,0.148811340,0.018052123,0.045494460,1.008132577
166.316333,0.692483485,0.282269239,0.087776184,0.017319702,0.044762038,1.007033944
166.316989,0.906106532,-0.167865038,0.103034973,0.020737670,0.044517897,1.007156014
166.317616,0.593301356,-0.038165331,0.049629211,0.015610717,0.047691725,1.005935311
166.318243,0.738259852,-0.068682909,0.003852844,0.017807983,0.049034499,1.006667733
166.318868,0.585671961,0.083904982,0.118293762,0.015488647,0.049156569,1.004592538
166.319493,0.646707118,0.053387403,0.270881653,0.021958373,0.045860671,1.004714608
166.320119,0.585671961,-0.160235643,0.011482239,0.021836303,0.046593092,1.004958749
166.320744,0.372048914,0.175457716,0.072517395,0.022080444,0.049156569,1.007033944
166.321369,0.417825282,0.236492872,-0.003776550,0.020493530,0.050377272,1.012771249
166.323078,0.082131922,0.083904982,0.087776184,0.015366577,0.045006178,1.006667733
166.323703,-0.223043859,0.007611036,0.110664368,0.022446655,0.042808913,1.005324960
166.324329,0.036355555,0.198345900,-0.156364441,0.023789428,0.045006178,1.006423593
166.324955,-0.062826574,0.137310743,0.041999817,0.022934936,0.044884108,1.005935311
166.325581,0.028726161,0.007611036,0.202217102,0.018662475,0.045128249,1.003860116
166.339565,-1.031759739,-0.061053514,-0.194511414,0.020005248,0.046959303,1.011916757
166.340319,-1.047018528,-0.183123827,-0.209770203,0.020249389,0.046715163,1.015456796
166.340945,-1.237753391,-0.083941698,0.003852844,0.023301147,0.044029616,1.016433358
166.341571,-1.245382786,-0.022906542,0.034370422,0.020615600,0.044029616,1.016921639
166.342197,-1.275900364,-0.099200487,0.064888000,0.021348022,0.040489577,1.016189218
166.342823,-1.413229465,0.137310743,-0.202140808,0.018784545,0.044395827,1.016189218
166.343448,-1.459005833,0.045758009,-0.003776550,0.020859741,0.043785475,1.015700936
166.344075,-1.603964329,-0.000018358,0.209846497,0.017807983,0.041954421,1.017043710
166.344700,-1.680258274,0.015240431,-0.034294128,0.018540405,0.044273756,1.016311288
166.345327,-1.619223118,0.061016798,-0.072441101,0.019761108,0.045128249,1.013137460
166.345952,-1.695517063,0.205975294,-0.110588074,0.018906616,0.039879225,1.011306405
166.346579,-1.985434055,0.205975294,0.057258606,0.020005248,0.042442702,1.010329843
166.347205,-2.015951633,0.190716505,-0.080070496,0.020127319,0.040367506,1.007400155
166.347830,-1.901510715,0.022869825,0.110664368,0.017807983,0.040733717,1.003493905
166.349552,-1.962545872,0.213604689,-0.026664734,0.018052123,0.038536452,1.003005624
166.350178,-1.748922825,0.091534376,-0.133476257,0.018906616,0.036461256,0.999099374
166.350804,-1.542929173,0.022869825,0.057258606,0.016831420,0.035728835,0.994338632
166.351430,-1.649740696,0.144940138,0.034370422,0.019394897,0.036583327,0.997634530
166.352055,-1.230123997,0.038128614,-0.171623230,0.016465209,0.035240553,0.993850350
166.352681,-1.230123997,0.076275587,0.217475891,0.015000366,0.037559889,0.996535897
166.353307,-1.199606419,0.022869825,0.034370422,0.017685913,0.034630202,0.994460702
166.353932,-0.917318761,0.129681349,-0.003776550,0.018418334,0.039879225,0.993362069
166.354557,-0.795248449,0.053387403,0.087776184,0.016343139,0.033653639,0.991286874
166.355183,-0.497702062,0.053387403,0.148811340,0.016953491,0.036583327,0.991286874
166.355809,-0.566366613,-0.061053514,0.003852844,0.014512084,0.035362624,0.996291757
166.356435,-0.558737218,0.038128614,-0.156364441,0.016221069,0.035606764,0.995803475
166.357062,-0.627401769,0.038128614,0.171699524,0.012925170,0.037071608,0.993239999
166.357687,-0.398519933,-0.221270800,-0.118217468,0.017319702,0.036949538,0.995925546
166.358312,-0.116232336,0.007611036,-0.156364441,0.017685913,0.036827467,0.995925546
166.360005,-0.085714757,0.030499220,-0.011405945,0.017197631,0.038536452,0.997146249
166.360630,0.105020106,-0.236529589,-0.026664734,0.017197631,0.035972975,1.002517343
166.361257,0.326272547,-0.297564745,-0.026664734,0.018784545,0.035850905,1.000686288
166.361884,0.349160731,-0.251788378,-0.011405945,0.017075561,0.037071608,1.001540780
166.362511,0.616189539,-0.412005663,0.019111633,0.018540405,0.037559889,1.003127694
166.363136,0.585671961,-0.198382616,0.080146790,0.018052123,0.036827467,1.006301522
166.363761,0.524636805,-0.099200487,0.064888000,0.020005248,0.037071608,1.005935311
166.364386,0.608560145,-0.045794725,0.049629211,0.017197631,0.038902663,1.003738046
166.365019,0.776406825,-0.206012011,0.057258606,0.017685913,0.041344069,1.008498788
166.365645,0.806924403,-0.221270800,0.247993469,0.021592163,0.038658522,1.010329843
166.366272,0.631448328,-0.343341112,-0.125846863,0.018540405,0.040245436,1.010696054
166.366898,0.814553797,-0.106829882,-0.133476257,0.022934936,0.040611647,1.011428475
166.367524,0.867959559,-0.206012011,-0.041923523,0.018418334,0.041466139,1.011062264
166.368151,0.837441981,-0.068682909,0.141181946,0.019028686,0.044273756,1.014114022
166.368777,0.761148036,-0.061053514,-0.087699890,0.019394897,0.040489577,1.014236093
166.370514,0.898477137,0.068646193,0.011482239,0.020371459,0.038414381,1.013381600
166.371139,0.661965907,-0.038165331,0.057258606,0.021714233,0.041588210,1.013137460
166.371764,0.814553797,0.038128614,0.225105286,0.020615600,0.041099928,1.010329843
166.372389,0.883218348,0.190716505,-0.163993835,0.018662475,0.043785475,1.010451913
166.386195,0.982400477,-0.068682909,0.087776184,0.015122436,0.041099928,0.997512460
166.386881,1.066323757,-0.122088671,0.011482239,0.017685913,0.041588210,0.999953866
166.387616,1.089211941,-0.137347460,0.141181946,0.018784545,0.043663405,0.997268319
166.388243,1.043435574,0.045758009,0.179328918,0.014756225,0.044762038,0.997634530
166.388868,1.058694363,-0.129718065,0.125923157,0.021348022,0.045250319,1.002273202
166.389495,1.081582546,-0.221270800,0.217475891,0.019028686,0.042198561,1.001662850
166.390121,1.134988308,0.015240431,-0.133476257,0.018418334,0.046593092,1.003371835
166.390746,1.112100124,0.167828321,0.080146790,0.018296264,0.044395827,1.004348397
166.391373,0.822183192,-0.228900194,0.049629211,0.018296264,0.046593092,1.007156014
166.391998,0.875588953,-0.007647753,0.041999817,0.017441772,0.045860671,1.006545663
166.392623,0.806924403,0.045758009,0.156440735,0.016587280,0.047447585,1.008254647
166.393250,0.623818934,-0.068682909,-0.080070496,0.018296264,0.047447585,1.010696054
166.393876,0.684854090,-0.106829882,-0.019035339,0.029404663,0.033897780,1.011672616
166.394502,0.379678309,0.289898634,0.057258606,-0.004286744,0.060631178,1.013381600
166.396216,0.097390711,-0.137347460,0.072517395,0.027695678,0.041466139,1.015456796
166.396841,0.242349207,0.045758009,0.156440735,0.025986694,0.052818678,1.014846444
166.397467,-0.017050207,0.030499220,0.125923157,0.015976928,0.049644850,1.014358163
166.398093,0.127908289,0.198345900,0.080146790,0.019516967,0.046226881,1.013015389
166.398720,-0.039938390,0.061016798,0.041999817,0.018784545,0.051475905,1.014602304
166.399345,-0.230673254,-0.015277147,0.179328918,0.020249389,0.044151686,1.015334725
166.399970,-0.123861730,0.167828321,0.133552551,0.026230834,0.045128249,1.013625741
166.400596,-0.451925695,0.350933790,0.125923157,0.022080444,0.045006178,1.016189218
166.401223,-0.390890539,0.213604689,0.103034973,0.015854858,0.048302077,1.014846444
166.401850,-0.596884191,0.160198927,0.133552551,0.014390014,0.046715163,1.015578866
166.402475,-0.528219640,0.122051954,-0.125846863,0.015976928,0.047203444,1.014358163
166.403101,-0.963095129,0.022869825,-0.209770203,0.020737670,0.045128249,1.011794686
166.403728,-0.787619054,0.190716505,0.011482239,0.023179077,0.043663405,1.013991952
166.404354,-0.871542394,0.251751661,0.064888000,0.022324584,0.045372389,1.012038827
166.404979,-0.894430578,0.213604689,-0.179252625,0.017319702,0.043541335,1.011428475
166.406686,-0.894430578,0.083904982,0.049629211,0.019761108,0.042442702,1.011062264
166.407312,-0.917318761,0.366192579,-0.019035339,0.018418334,0.044762038,1.010696054
166.407938,-0.940206945,0.221234083,-0.141105652,0.021348022,0.043541335,1.013869882
166.408564,-0.963095129,0.244122267,-0.057182312,0.022690795,0.043419264,1.015578866
166.409189,-0.985983312,0.228863478,0.041999817,0.018540405,0.047813796,1.014480233
166.409816,-0.894430578,0.106793165,-0.064811707,0.020371459,0.044395827,1.014968514
166.410442,-1.008871555,0.244122267,0.011482239,0.020005248,0.046104811,1.013381600
166.411069,-1.108053684,0.137310743,-0.133476257,0.023301147,0.047935866,1.016677499
166.411694,-1.176718235,0.259381056,-0.225028992,0.022202514,0.048302077,1.015334725
166.412320,-1.336935520,0.312786818,-0.003776550,0.020615600,0.047203444,1.017287850
166.413061,-1.321676731,0.518780470,0.110664368,0.018418334,0.047325514,1.015945077
166.413865,-1.527670383,0.312786818,-0.019035339,0.018540405,0.044517897,1.014968514
166.414559,-1.565817356,0.526409864,-0.141105652,0.023423217,0.044151686,1.015456796
166.415184,-1.611593723,0.465374708,0.011482239,0.022080444,0.043785475,1.014846444
166.416902,-1.771811008,0.534039259,-0.148735046,0.020981811,0.041344069,1.014480233
166.417527,-1.611593723,0.366192579,-0.202140808,0.020859741,0.043663405,1.009719491
166.418153,-1.878622532,0.541668653,0.194587708,0.020005248,0.040245436,1.007888436
166.418780,-1.535299778,0.564556837,-0.163993835,0.017685913,0.041710280,1.006667733
166.419407,-1.855734348,0.549298048,-0.026664734,0.023179077,0.043785475,1.005935311
166.420033,-1.710775852,0.686627150,-0.003776550,0.020493530,0.041710280,1.001052499
166.433916,-0.390890539,0.358563185,0.057258606,0.019028686,0.042076491,1.004836679
166.434640,-0.520590246,0.465374708,-0.194511414,0.018296264,0.041588210,1.000686288
166.435266,-0.512960851,0.251751661,-0.049552917,0.019761108,0.041221999,1.003738046
166.435909,-0.726583898,0.396710157,0.026741028,0.018906616,0.041832350,1.003982186
166.436536,-0.604513586,0.465374708,-0.133476257,0.017807983,0.038536452,0.997024179
166.437161,-0.551107824,0.518780470,-0.064811707,0.016709350,0.040001296,1.003615975
166.437786,-0.497702062,0.259381056,0.072517395,0.014634155,0.042808913,1.000075936
166.438411,-0.459555089,0.297528028,-0.133476257,0.018784545,0.040489577,1.000686288
166.439037,-0.650289953,0.503521681,-0.125846863,0.018784545,0.043663405,0.997512460
166.439663,-0.375631750,0.221234083,-0.019035339,0.020127319,0.041588210,0.998366952
166.440288,-0.398519933,0.289898634,-0.072441101,0.016343139,0.039146803,0.998855233
166.440914,-0.177267492,0.259381056,-0.057182312,0.018906616,0.040123366,1.000320077
166.441539,-0.146749914,0.183087111,0.110664368,0.019394897,0.037926100,0.998000741
166.442164,-0.268820226,0.160198927,-0.057182312,0.015854858,0.039635085,0.998611093
166.443867,-0.039938390,0.358563185,-0.057182312,0.018784545,0.042686842,1.001174569
166.444492,-0.177267492,0.404339552,-0.026664734,0.017930053,0.041588210,1.002639413
166.445117,-0.245932043,0.144940138,0.080146790,0.017563842,0.040733717,0.999099374
166.445742,-0.009420812,0.305157423,-0.133476257,0.017319702,0.041710280,1.003127694
166.446368,0.082131922,0.297528028,0.110664368,0.017319702,0.041099928,1.001052499
166.446993,-0.146749914,0.366192579,0.080146790,0.015854858,0.042198561,1.004104257
166.447619,-0.299337804,0.358563185,-0.263175964,0.016831420,0.040855788,1.000564218
166.448245,-0.047567785,0.190716505,-0.186882019,0.017319702,0.043907546,1.004348397
166.448870,-0.322225988,0.129681349,-0.019035339,0.015000366,0.040977858,1.006545663
166.449496,-0.238302648,0.343304396,0.011482239,0.020005248,0.041832350,1.002029061
166.450122,-0.100973547,0.083904982,-0.064811707,0.018784545,0.041832350,1.007278085
166.450747,-0.207785070,0.366192579,0.141181946,0.015854858,0.039268874,0.999709725
166.451374,-0.085714757,0.267010450,-0.041923523,0.013291381,0.040001296,1.001174569
166.452000,-0.039938390,0.167828321,-0.148735046,0.015366577,0.042930983,1.002029061
166.452625,-0.337484777,0.228863478,-0.118217468,0.018662475,0.043053053,1.002761483
166.454336,-0.100973547,0.106793165,0.003852844,0.017930053,0.042930983,1.003615975
166.454961,-0.116232336,0.068646193,0.133552551,0.017319702,0.039879225,1.001296639
166.455588,0.013467371,0.114422560,-0.133476257,0.016831420,0.039513014,0.999099374
166.456215,0.173684657,0.244122267,-0.102958679,0.018662475,0.040367506,1.001906991
166.456841,-0.001791418,0.282269239,-0.049552917,0.017807983,0.041588210,1.004104257
166.457468,0.112649500,0.183087111,-0.087699890,0.018296264,0.043663405,1.000198007
166.458095,-0.047567785,0.358563185,-0.026664734,0.014390014,0.044151686,0.998366952
166.458720,0.242349207,0.114422560,-0.194511414,0.016953491,0.040001296,0.998122811
166.459346,0.127908289,0.175457716,0.049629211,0.016831420,0.042076491,0.999343514
166.459971,0.112649500,0.099163771,0.072517395,0.017441772,0.041221999,1.000808358
166.460597,0.043984950,0.114422560,-0.125846863,0.019028686,0.040367506,0.998000741
166.461223,-0.047567785,0.236492872,-0.064811707,0.017930053,0.041588210,1.001296639
166.461848,0.326272547,0.175457716,0.095405579,0.017930053,0.040245436,0.999709725
166.462473,0.242349207,0.045758009,-0.026664734,0.019639038,0.041832350,0.999831796
166.463098,0.387307703,0.091534376,0.041999817,0.016709350,0.037315749,1.000808358
166.464812,0.440713465,0.122051954,-0.148735046,0.017197631,0.038048171,0.998366952
166.465437,0.280496180,0.022869825,-0.026664734,0.015244506,0.038292311,0.997390389
166.466063,0.425454676,-0.183123827,-0.003776550,0.015610717,0.036339186,0.997756600
166.466688,0.730630457,0.091534376,0.072517395,0.015732788,0.036705397,0.997634530
166.480505,1.569863796,-0.000018358,-0.003776550,0.021592163,0.042320631,1.006057382
166.481209,1.424905300,0.152569532,0.026741028,0.017075561,0.044762038,1.008254647
166.481834,1.691934109,0.251751661,-0.034294128,0.018296264,0.043541335,1.013015389
166.482460,1.424905300,0.106793165,0.064888000,0.018784545,0.040367506,1.009597421
166.483087,1.569863796,0.068646193,0.164070129,0.019272827,0.041466139,1.011062264
166.483712,1.707192898,-0.007647753,-0.125846863,0.020737670,0.039390944,1.010451913
166.484339,1.569863796,0.236492872,-0.148735046,0.020005248,0.040489577,1.011184335
166.484966,1.318093777,0.541668653,0.049629211,0.018906616,0.044395827,1.014968514
166.485593,1.157876492,0.450115919,0.125923157,0.019150756,0.041710280,1.010696054
166.486218,1.150247097,0.122051954,0.247993469,0.019272827,0.042442702,1.009841561
166.486844,1.051064968,0.442486525,0.049629211,0.020371459,0.044395827,1.007522225
166.487470,1.203652859,0.297528028,0.110664368,0.018052123,0.043419264,1.006423593
166.488096,1.112100124,0.282269239,0.148811340,0.018906616,0.042930983,1.004714608
166.488723,0.928994715,0.183087111,0.072517395,0.018174194,0.040245436,1.005447030
166.490474,1.081582546,0.221234083,0.194587708,0.020737670,0.039146803,1.002273202
166.491099,1.295205593,0.267010450,0.019111633,0.017319702,0.042442702,1.002639413
166.491725,1.089211941,0.289898634,0.019111633,0.020005248,0.040855788,1.000442147
166.492352,1.310464382,0.259381056,0.049629211,0.019272827,0.038658522,1.003493905
166.492977,1.134988308,0.122051954,0.087776184,0.017930053,0.041710280,1.002883554
166.493603,1.096841335,0.167828321,0.148811340,0.016343139,0.042686842,1.003249764
166.494228,1.371499538,0.419598341,-0.102958679,0.015244506,0.043053053,1.003127694
166.494854,1.279946804,0.137310743,-0.087699890,0.015732788,0.042564772,1.004714608
166.495480,1.173135281,0.236492872,0.202217102,0.017563842,0.042442702,1.004714608
166.496106,1.211282253,0.350933790,0.232734680,0.018296264,0.044884108,1.005691171
166.496733,1.134988308,0.183087111,0.171699524,0.015976928,0.045738600,1.003493905
166.497360,1.203652859,0.297528028,0.118293762,0.014756225,0.042198561,1.003493905
166.497987,1.196023464,0.190716505,0.125923157,0.017563842,0.044273756,1.004348397
166.498613,1.203652859,0.251751661,0.034370422,0.015854858,0.041710280,1.006545663
166.499239,1.142617702,0.282269239,0.034370422,0.018540405,0.043297194,1.002395272
166.500952,1.211282253,0.152569532,0.034370422,0.015976928,0.043175124,1.009719491
166.501577,1.134988308,0.122051954,0.171699524,0.021103881,0.042564772,1.007888436
166.502202,0.967141688,0.289898634,0.118293762,0.016709350,0.042930983,1.008742929
166.502827,1.028176785,0.350933790,0.148811340,0.016343139,0.042442702,1.008742929
166.503453,1.043435574,0.129681349,0.110664368,0.016465209,0.044151686,1.008620858
166.504079,1.112100124,0.289898634,0.118293762,0.017807983,0.044884108,1.011550546
166.504705,0.890847743,0.381451368,0.133552551,0.015854858,0.043785475,1.007888436
166.505331,0.776406825,0.099163771,0.103034973,0.013901733,0.042686842,1.010207772
166.505957,0.730630457,0.328045607,-0.064811707,0.015854858,0.041832350,1.012527108
166.506583,1.028176785,0.343304396,0.270881653,0.020859741,0.045616530,1.010085702
166.507208,0.661965907,0.045758009,-0.019035339,0.015976928,0.044029616,1.008376718
166.507834,0.555154383,0.389080763,0.118293762,0.017563842,0.041588210,1.010085702
166.508459,0.753518641,0.389080763,0.347175598,0.020005248,0.043907546,1.008864999
166.509085,0.867959559,0.358563185,0.133552551,0.018174194,0.044395827,1.011306405
166.509710,0.738259852,0.022869825,0.225105286,0.014878295,0.042564772,1.009597421
166.511425,0.471231043,0.228863478,0.141181946,0.018174194,0.043175124,1.010085702
166.512052,0.463601649,0.198345900,0.286140442,0.018662475,0.041832350,1.007888436
166.512678,0.486489832,0.328045607,0.118293762,0.013779663,0.045128249,1.008376718
166.513304,0.326272547,0.183087111,0.087776184,0.012803100,0.043541335,1.006301522
166.513929,0.288125575,0.274639845,0.232734680,0.019761108,0.045982741,1.008132577
166.545345,-1.016500950,-0.114459276,0.278511047,0.015732788,0.045982741,1.005324960
166.546099,-0.856283605,-0.213641405,-0.041923523,0.017075561,0.045616530,0.999831796
166.546725,-0.886801183,-0.259417772,0.156440735,0.017807983,0.045616530,1.002395272
166.547351,-0.970724523,-0.350970507,0.110664368,0.016709350,0.047081374,1.002029061
166.547977,-0.879171789,-0.152606249,-0.034294128,0.015366577,0.042320631,1.000442147
166.548603,-1.069906712,-0.198382616,0.080146790,0.015122436,0.046471022,1.001784921
166.549229,-1.054647923,-0.259417772,0.103034973,0.019150756,0.044884108,1.003005624
166.549854,-0.955465734,-0.358599901,0.080146790,0.015854858,0.045250319,1.000564218
166.550481,-0.902059972,-0.236529589,0.133552551,0.016465209,0.042198561,1.001784921
166.551108,-1.016500950,-0.228900194,0.125923157,0.020249389,0.042076491,1.003860116
166.551733,-0.795248449,-0.251788378,-0.179252625,0.017807983,0.044762038,1.000930429
166.552359,-1.130941868,-0.350970507,0.133552551,0.019516967,0.041954421,1.001906991
166.552984,-0.924948156,-0.335711718,-0.118217468,0.018174194,0.043053053,1.004714608
166.553610,-0.932577550,-0.427264452,0.003852844,0.018784545,0.044151686,1.006667733
166.555327,-0.718954504,-0.236529589,-0.003776550,0.019761108,0.044884108,1.007278085
166.555953,-1.016500950,-0.335711718,-0.064811707,0.014390014,0.044395827,1.008254647
166.556579,-0.825766027,-0.282305956,0.141181946,0.018906616,0.045006178,1.007278085
166.557205,-1.001242161,-0.465411425,0.049629211,0.020005248,0.042808913,1.005935311
166.557830,-0.825766027,-0.412005663,-0.003776550,0.020493530,0.045860671,1.005935311
166.558456,-0.795248449,-0.434893847,0.064888000,0.018906616,0.047447585,1.005935311
166.559083,-1.031759739,-0.259417772,-0.034294128,0.018784545,0.045494460,1.008010507
166.559708,-0.940206945,-0.358599901,-0.102958679,0.014512084,0.045616530,1.006911874
166.560333,-0.970724523,-0.213641405,-0.026664734,0.017930053,0.041954421,1.008376718
166.560959,-1.054647923,-0.434893847,-0.041923523,0.016831420,0.040733717,1.001418710
166.561584,-1.031759739,-0.419635057,0.095405579,0.016465209,0.042686842,1.004592538
166.562210,-0.932577550,-0.198382616,0.026741028,0.017807983,0.043541335,1.005935311
166.562836,-0.932577550,-0.343341112,-0.034294128,0.014878295,0.040733717,1.003371835
166.563461,-0.863913000,-0.473040819,0.103034973,0.017685913,0.041344069,1.003982186
166.564086,-0.970724523,-0.312823534,-0.133476257,0.017807983,0.041710280,1.004226327
166.565785,-0.879171789,-0.366229296,0.217475891,0.017319702,0.039635085,1.003738046
166.566412,-0.825766027,-0.396746874,0.141181946,0.018052123,0.042930983,1.004592538
166.567037,-0.856283605,-0.350970507,-0.064811707,0.016465209,0.039390944,1.003860116
166.567663,-0.993612707,-0.297564745,-0.118217468,0.022080444,0.037926100,1.002883554
166.568290,-0.566366613,-0.312823534,0.080146790,0.017930053,0.037926100,1.003249764
166.568917,-0.718954504,-0.373858690,-0.080070496,0.018052123,0.039879225,1.000198007
166.569543,-0.749472082,-0.373858690,0.087776184,0.019028686,0.039757155,0.998611093
166.570170,-0.436666906,-0.282305956,-0.049552917,0.017197631,0.037559889,1.000198007
166.570797,-0.352743566,-0.274676561,-0.072441101,0.016709350,0.039513014,0.998122811
166.571422,-0.345114172,-0.198382616,-0.080070496,0.014023803,0.034508131,0.999099374
166.572047,-0.207785070,-0.358599901,0.041999817,0.018540405,0.036339186,1.000808358
166.572674,-0.184896886,-0.312823534,0.209846497,0.016098998,0.036095046,1.001052499
166.573300,-0.070455968,-0.396746874,0.041999817,0.016343139,0.037071608,1.000686288
166.573926,0.127908289,-0.473040819,-0.072441101,0.016343139,0.036827467,0.999953866
166.574552,0.410195887,-0.297564745,0.103034973,0.015854858,0.037559889,1.002395272
166.576257,0.410195887,-0.457782030,0.064888000,0.021348022,0.035728835,1.003860116
166.576883,0.608560145,-0.419635057,-0.110588074,0.017319702,0.042198561,1.004836679
166.577509,0.654336512,-0.396746874,-0.003776550,0.018906616,0.038536452,1.008864999
166.578134,0.806924403,-0.358599901,0.041999817,0.017807983,0.042198561,1.011062264
166.592035,-0.352743566,0.045758009,-0.064811707,0.018052123,0.041954421,0.999465585
166.592737,-0.223043859,-0.015277147,0.064888000,0.016953491,0.042076491,1.000442147
166.593363,-0.223043859,0.198345900,0.103034973,0.014512084,0.042930983,0.994948983
166.593989,-0.032308996,0.076275587,-0.148735046,0.016221069,0.039879225,0.995193124
166.594616,0.028726161,-0.236529589,0.270881653,0.018784545,0.043907546,0.997390389
166.595241,0.059243739,-0.129718065,-0.133476257,0.018174194,0.043419264,0.994338632
166.595867,-0.093344152,0.038128614,0.186958313,0.017441772,0.042076491,0.998122811
166.596493,0.074502528,-0.099200487,0.125923157,0.015854858,0.040123366,0.998122811
166.597118,-0.055197179,-0.190753222,0.217475891,0.018784545,0.043541335,1.000564218
166.597745,0.166055262,-0.129718065,0.034370422,0.016343139,0.042930983,0.995681405
166.598370,0.028726161,-0.213641405,0.049629211,0.015732788,0.042930983,0.998000741
166.598997,-0.093344152,-0.099200487,-0.003776550,0.017319702,0.041344069,1.003127694
166.599622,-0.024679601,0.129681349,0.003852844,0.017685913,0.040489577,1.000320077
166.600248,-0.062826574,-0.236529589,-0.019035339,0.017441772,0.044762038,1.000442147
166.601976,-0.024679601,0.068646193,0.164070129,0.020493530,0.043541335,1.005813241
166.602601,-0.162008703,0.061016798,0.095405579,0.018784545,0.044762038,1.008987069
166.603228,0.043984950,-0.068682909,-0.041923523,0.019028686,0.047447585,1.006545663
166.603853,-0.223043859,-0.289935350,0.064888000,0.021103881,0.045372389,1.009109139
166.604479,-0.177267492,-0.312823534,0.148811340,0.018906616,0.045250319,1.007644296
166.605105,-0.261190832,-0.129718065,-0.049552917,0.021103881,0.040367506,1.011306405
166.605730,-0.444296300,-0.061053514,0.148811340,0.020005248,0.042808913,1.008132577
166.606355,-0.558737218,-0.000018358,0.095405579,0.018662475,0.044884108,1.007644296
166.606981,-0.337484777,0.137310743,0.110664368,0.017930053,0.043785475,1.008620858
166.607607,-0.421408117,-0.190753222,0.064888000,0.019272827,0.043053053,1.005813241
166.608232,-0.528219640,-0.022906542,0.141181946,0.021592163,0.040855788,1.004592538
166.608859,-0.406149328,0.038128614,0.041999817,0.021714233,0.042564772,1.004104257
166.609484,-0.490072668,-0.106829882,0.171699524,0.017075561,0.041344069,1.003493905
166.610109,-0.520590246,-0.076312304,0.026741028,0.019272827,0.039513014,1.003615975
166.610736,-0.490072668,-0.053424120,0.125923157,0.021225952,0.041954421,1.005202889
166.612451,-0.429037511,-0.114459276,0.225105286,0.018174194,0.041221999,1.000075936
166.613076,-0.421408117,-0.122088671,0.041999817,0.018052123,0.040245436,1.002029061
166.613701,-0.207785070,0.045758009,0.019111633,0.016098998,0.041832350,0.997268319
166.614328,-0.093344152,-0.289935350,0.179328918,0.017930053,0.043297194,1.001052499
166.614954,-0.192526281,-0.022906542,0.057258606,0.018052123,0.044151686,1.002395272
166.615580,-0.291708410,0.038128614,-0.163993835,0.020615600,0.043053053,1.004348397
166.616205,-0.314596593,-0.099200487,0.103034973,0.022080444,0.045494460,1.003249764
166.616832,-0.245932043,-0.427264452,0.072517395,0.020249389,0.043663405,1.003860116
166.617459,-0.306967199,-0.183123827,0.141181946,0.020005248,0.043907546,1.005324960
166.618086,-0.291708410,-0.221270800,0.080146790,0.020615600,0.045616530,1.000686288
166.618712,-0.573996007,-0.190753222,-0.041923523,0.019272827,0.042930983,1.005691171
166.619338,-0.398519933,-0.175494432,-0.125846863,0.019883178,0.041344069,1.003860116
166.619963,-0.459555089,-0.038165331,0.003852844,0.018052123,0.043907546,1.003371835
166.620589,-0.276449621,-0.045794725,0.011482239,0.019516967,0.046837233,1.003982186
166.621215,-0.368002355,-0.282305956,0.095405579,0.015854858,0.041710280,1.007888436
166.622926,-0.413778722,-0.228900194,0.118293762,0.019272827,0.044639967,1.003493905
166.623552,-0.337484777,-0.198382616,-0.255546570,0.018296264,0.043907546,1.007278085
166.624178,-0.451925695,-0.106829882,-0.034294128,0.019516967,0.042930983,1.007400155
166.624804,-0.345114172,0.015240431,0.263252258,0.017563842,0.045128249,1.010696054
166.625429,-0.635031164,-0.000018358,0.087776184,0.020127319,0.042686842,1.008498788
166.639305,-0.215414464,0.076275587,-0.057182312,0.017075561,0.040611647,1.001662850
166.640048,-0.223043859,-0.167865038,0.118293762,0.015244506,0.042564772,0.998977304
166.640675,-0.261190832,0.114422560,0.064888000,0.015366577,0.040001296,1.002761483
166.641301,-0.276449621,0.022869825,-0.095329285,0.017319702,0.041954421,1.004348397
166.641928,0.166055262,-0.099200487,-0.034294128,0.014878295,0.042076491,1.003249764
166.642554,-0.017050207,-0.000018358,0.209846497,0.018052123,0.040245436,1.005691171
166.643181,0.242349207,0.091534376,-0.125846863,0.018052123,0.039757155,1.003249764
166.643808,-0.070455968,-0.061053514,-0.057182312,0.018418334,0.044639967,1.007766366
166.644434,-0.093344152,0.015240431,0.003852844,0.015976928,0.044273756,1.007033944
166.645059,-0.070455968,-0.022906542,-0.003776550,0.015854858,0.042076491,1.009231210
166.645686,-0.024679601,0.244122267,-0.011405945,0.019394897,0.044395827,1.014968514
166.646313,-0.039938390,-0.068682909,-0.141105652,0.019150756,0.041099928,1.011062264
166.646940,-0.116232336,0.061016798,-0.064811707,0.018906616,0.042686842,1.012038827
166.647565,-0.230673254,0.022869825,0.019111633,0.020981811,0.042686842,1.011916757
166.649293,-0.261190832,0.045758009,-0.209770203,0.019516967,0.046837233,1.013625741
166.649919,-0.490072668,0.015240431,0.247993469,0.019150756,0.043297194,1.014846444
166.650544,-0.368002355,0.099163771,0.194587708,0.019761108,0.043541335,1.013625741
166.651169,-0.558737218,0.198345900,-0.202140808,0.017807983,0.042442702,1.010085702
166.651795,-0.749472082,0.106793165,0.156440735,0.013169311,0.045372389,1.011428475
166.652421,-0.581625402,0.297528028,0.026741028,0.018784545,0.045372389,1.011062264
166.653047,-0.650289953,0.129681349,-0.179252625,0.022324584,0.043785475,1.006911874
166.653672,-0.787619054,0.167828321,0.103034973,0.017441772,0.045250319,1.009841561
166.654298,-0.718954504,0.282269239,-0.118217468,0.015000366,0.045738600,1.006545663
166.654924,-0.924948156,0.350933790,-0.011405945,0.019272827,0.042198561,1.005935311
166.655551,-0.856283605,0.122051954,0.133552551,0.019394897,0.042808913,1.003493905
166.656178,-0.993612707,0.282269239,0.194587708,0.015488647,0.042198561,1.004836679
166.656804,-0.726583898,0.205975294,0.080146790,0.016465209,0.045494460,1.003371835
166.657429,-0.924948156,0.198345900,0.026741028,0.014756225,0.043297194,1.004470468
166.658054,-0.779989660,0.312786818,0.148811340,0.018418334,0.043053053,1.001052499
166.659754,-0.924948156,0.053387403,-0.019035339,0.017319702,0.039635085,1.001052499
166.660381,-0.734213293,0.282269239,-0.026664734,0.017319702,0.039024733,1.002151132
166.661007,-0.764730871,0.228863478,0.133552551,0.017319702,0.040367506,0.999709725
166.661632,-0.810507238,0.183087111,-0.118217468,0.018052123,0.041221999,0.999099374
166.662257,-0.818136632,-0.137347460,-0.095329285,0.016831420,0.043053053,0.996291757
166.662883,-0.619772375,0.183087111,-0.011405945,0.016221069,0.041832350,0.999953866
166.663509,-0.642660558,0.221234083,0.179328918,0.018296264,0.044151686,1.002517343
166.664134,-0.894430578,-0.030535936,-0.217399597,0.017563842,0.043175124,1.001906991
166.664759,-0.787619054,0.053387403,-0.049552917,0.019028686,0.045006178,1.002761483
166.665385,-0.558737218,0.091534376,-0.125846863,0.018052123,0.039390944,0.996902108
166.666019,-0.642660558,0.190716505,0.034370422,0.014267944,0.042930983,1.001174569
166.666644,-0.970724523,0.038128614,0.057258606,0.018418334,0.043053053,1.000198007
166.667271,-0.787619054,0.106793165,0.019111633,0.017807983,0.039146803,1.001296639
166.667897,-0.764730871,0.030499220,0.171699524,0.015366577,0.042442702,0.997268319
166.668524,-0.573996007,-0.007647753,-0.141105652,0.017075561,0.041344069,0.999709725
166.670227,-0.566366613,-0.045794725,-0.011405945,0.021592163,0.040001296,1.001540780
166.670853,-0.543478429,-0.045794725,-0.019035339,0.017563842,0.041344069,0.998611093
166.671480,-0.436666906,0.167828321,-0.034294128,0.020127319,0.040245436,1.004470468
166.672106,-0.383261144,0.038128614,-0.072441101,0.017807983,0.041099928,1.001540780
166.685911,0.082131922,-0.083941698,0.087776184,0.021592163,0.042808913,1.005935311
166.686630,0.204202235,-0.030535936,0.034370422,0.019639038,0.042320631,1.005813241
166.687257,0.143167078,-0.007647753,-0.011405945,0.018174194,0.043297194,1.005935311
166.687883,-0.070455968,0.068646193,0.057258606,0.020005248,0.041344069,1.003127694
166.688510,0.204202235,0.106793165,0.232734680,0.017563842,0.042686842,1.005935311
166.689135,0.196572840,0.045758009,0.041999817,0.016953491,0.042442702,1.005569100
166.689761,0.043984950,0.061016798,-0.057182312,0.020371459,0.042076491,1.007156014
166.690386,0.143167078,-0.144976854,0.003852844,0.018540405,0.041832350,1.003982186
166.691018,0.349160731,0.213604689,-0.118217468,0.017807983,0.041832350,1.007156014
166.691643,-0.024679601,-0.221270800,-0.019035339,0.015854858,0.038536452,1.010085702
166.692268,-0.108602941,0.061016798,-0.034294128,0.016953491,0.041832350,1.007522225
166.692894,0.234719813,0.091534376,0.057258606,0.016831420,0.040733717,1.008498788
166.693520,0.219461024,0.205975294,-0.141105652,0.014267944,0.042320631,1.005813241
166.694155,0.188943446,-0.015277147,0.072517395,0.018784545,0.039024733,1.008132577
166.695893,0.326272547,-0.045794725,-0.118217468,0.022080444,0.040123366,1.005935311
166.696520,0.219461024,0.030499220,0.049629211,0.019761108,0.040489577,1.006057382
166.697147,0.433084071,-0.076312304,0.003852844,0.019272827,0.039513014,1.005813241
166.697774,0.341531336,0.122051954,0.186958313,0.017685913,0.041954421,1.006667733
166.698399,0.333901942,0.068646193,-0.057182312,0.016953491,0.043053053,1.005324960
166.699024,0.166055262,0.099163771,-0.011405945,0.013169311,0.043053053,1.004348397
166.699649,0.356790125,0.106793165,-0.072441101,0.015000366,0.042320631,1.004104257
166.700274,0.295754969,0.045758009,-0.133476257,0.014878295,0.040855788,1.004714608
166.700899,0.379678309,0.061016798,0.263252258,0.018540405,0.041832350,1.006179452
166.701525,0.372048914,0.007611036,0.041999817,0.017441772,0.040855788,1.005569100
166.702150,0.288125575,0.038128614,-0.209770203,0.018784545,0.037437819,1.001906991
166.702775,0.448342860,-0.129718065,0.041999817,0.015244506,0.037315749,1.007644296
166.703401,0.517007411,-0.000018358,-0.080070496,0.014512084,0.036705397,1.003005624
166.704027,0.440713465,-0.045794725,-0.003776550,0.015854858,0.041099928,1.001784921
166.704652,0.517007411,-0.068682909,0.118293762,0.013535522,0.041099928,1.003615975
166.706369,0.677224696,0.061016798,-0.011405945,0.018784545,0.041344069,1.005813241
166.706994,0.555154383,0.022869825,0.026741028,0.017319702,0.038414381,1.006057382
166.707619,0.517007411,0.083904982,0.125923157,0.016953491,0.041344069,1.007156014
166.708244,0.791665614,-0.022906542,-0.156364441,0.013901733,0.039024733,1.001540780
166.708870,0.852700770,0.312786818,0.125923157,0.015488647,0.039757155,1.005202889
166.709497,0.661965907,0.144940138,-0.163993835,0.018052123,0.040245436,1.003249764
166.710123,0.532266200,-0.068682909,-0.003776550,0.017930053,0.039879225,1.005691171
166.710750,0.814553797,0.007611036,0.072517395,0.018052123,0.042808913,1.005324960
166.711375,0.547524989,0.175457716,-0.087699890,0.016465209,0.042686842,1.003249764
166.712000,0.921365321,-0.038165331,-0.049552917,0.017197631,0.039757155,1.004104257
166.712626,0.692483485,-0.045794725,0.003852844,0.017441772,0.040977858,1.004836679
166.713252,0.776406825,0.251751661,0.041999817,0.017685913,0.041832350,1.004958749
166.713878,0.768777430,-0.015277147,0.202217102,0.015366577,0.044639967,1.005691171
166.714504,0.822183192,0.061016798,-0.034294128,0.016221069,0.042442702,1.005813241
166.715129,0.723001063,-0.022906542,-0.064811707,0.018784545,0.039024733,1.002395272
166.716851,0.837441981,0.061016798,0.034370422,0.018784545,0.041832350,1.005080819
166.717478,0.723001063,-0.114459276,0.217475891,0.015122436,0.041099928,1.003738046
166.718104,0.684854090,-0.114459276,-0.156364441,0.016221069,0.043175124,1.003371835
166.718729,0.936624110,0.053387403,0.110664368,0.016953491,0.041588210,1.003371835
166.719356,0.677224696,0.152569532,0.087776184,0.017930053,0.041710280,1.002029061
166.733234,0.898477137,-0.144976854,0.064888000,0.021225952,0.046104811,1.008254647
166.733954,1.012917995,-0.183123827,0.041999817,0.019639038,0.044639967,1.008132577
166.734579,1.012917995,-0.091571093,-0.041923523,0.020493530,0.045860671,1.009231210
166.735204,0.730630457,-0.144976854,-0.003776550,0.019639038,0.044395827,1.008742929
166.735829,0.562783778,-0.206012011,0.049629211,0.020859741,0.045738600,1.008376718
166.736455,0.654336512,-0.114459276,0.278511047,0.017807983,0.048424147,1.010207772
166.737081,0.829812586,-0.106829882,-0.087699890,0.020127319,0.048302077,1.011916757
166.737708,0.707742274,-0.228900194,0.011482239,0.018418334,0.045128249,1.011306405
166.738333,0.524636805,-0.152606249,0.171699524,0.019394897,0.045616530,1.008987069
166.738959,0.402566493,-0.213641405,-0.202140808,0.020493530,0.046715163,1.008620858
166.739584,0.303384364,0.114422560,-0.179252625,0.020127319,0.044029616,1.010696054
166.740209,0.311013758,0.122051954,0.041999817,0.020493530,0.046593092,1.006911874
166.740836,0.333901942,-0.228900194,-0.057182312,0.018052123,0.041710280,1.004836679
166.741462,0.333901942,-0.129718065,0.225105286,0.018662475,0.044151686,1.004714608
166.743188,0.204202235,-0.167865038,0.072517395,0.018418334,0.048790358,1.004470468
166.743813,0.349160731,-0.366229296,-0.095329285,0.014145873,0.042686842,1.001906991
166.744439,0.227090418,-0.244158983,0.019111633,0.016098998,0.043907546,1.002029061
166.745064,0.181314051,-0.244158983,-0.118217468,0.017563842,0.045982741,1.002029061
166.745691,0.311013758,-0.297564745,-0.133476257,0.018662475,0.045006178,1.002761483
166.746317,0.219461024,-0.267047167,0.049629211,0.017319702,0.044639967,1.005080819
166.746944,0.219461024,-0.274676561,0.186958313,0.017685913,0.043663405,1.004714608
166.747570,0.051614344,-0.236529589,-0.072441101,0.015244506,0.045250319,1.002639413
166.748197,0.196572840,-0.251788378,0.057258606,0.015854858,0.045128249,1.002883554
166.748822,0.074502528,-0.267047167,0.003852844,0.017563842,0.044395827,1.003615975
166.749448,0.036355555,-0.343341112,0.064888000,0.016098998,0.043907546,1.005935311
166.750073,0.043984950,-0.114459276,0.003852844,0.014267944,0.043541335,1.003249764
166.750700,-0.131491125,-0.190753222,0.080146790,0.018906616,0.042442702,1.000930429
166.751327,-0.001791418,-0.244158983,-0.118217468,0.019761108,0.044639967,1.004592538
166.751953,-0.009420812,-0.267047167,-0.049552917,0.017197631,0.042930983,1.003615975
166.753682,-0.207785070,-0.289935350,0.003852844,0.014634155,0.049522780,1.003860116
166.754308,-0.123861730,-0.328082323,0.072517395,0.013901733,0.044517897,1.003860116
166.754933,-0.055197179,-0.305194139,-0.133476257,0.017319702,0.046104811,1.002151132
166.755559,-0.139120519,-0.206012011,0.110664368,0.015610717,0.044029616,1.007033944
166.756184,-0.337484777,-0.381488085,-0.133476257,0.017807983,0.041710280,1.006789804
166.756811,-0.329855382,-0.389117479,0.072517395,0.018662475,0.043907546,1.007644296
166.757436,-0.406149328,-0.198382616,-0.011405945,0.021348022,0.045616530,1.008376718
166.758062,-0.306967199,-0.450152636,0.003852844,0.018906616,0.044517897,1.010573983
166.758689,-0.368002355,-0.404376268,-0.041923523,0.018540405,0.039024733,1.011794686
166.759314,-0.314596593,-0.419635057,-0.003776550,0.018418334,0.040245436,1.012771249
166.759939,-0.329855382,-0.267047167,-0.057182312,0.016221069,0.042564772,1.006667733
166.760565,-0.497702062,-0.312823534,0.064888000,0.018906616,0.040245436,1.013259530
166.761191,-0.451925695,-0.396746874,0.209846497,0.021225952,0.041588210,1.012405038
166.761817,-0.871542394,-0.099200487,-0.019035339,0.017075561,0.041344069,1.011428475
166.762443,-0.612142980,-0.282305956,0.041999817,0.019150756,0.043907546,1.016677499
166.764158,-1.069906712,-0.251788378,0.019111633,0.015488647,0.048302077,1.011428475
166.764784,-0.841024816,-0.038165331,-0.141105652,0.016831420,0.045372389,1.011428475
166.765409,-1.085165501,-0.030535936,0.110664368,0.021103881,0.045372389,1.011306405
166.766036,-0.947836339,-0.160235643,-0.064811707,0.020981811,0.046837233,1.006789804
166.797359,-0.833395422,-0.114459276,0.171699524,0.018784545,0.042564772,1.004226327
166.798088,-0.955465734,-0.206012011,0.064888000,0.017197631,0.039879225,1.005202889
166.798713,-0.932577550,-0.213641405,-0.026664734,0.020371459,0.041466139,1.003371835
166.799339,-0.947836339,-0.122088671,-0.064811707,0.018418334,0.035972975,1.001662850
166.799966,-0.856283605,-0.160235643,-0.179252625,0.019394897,0.038902663,1.002639413
166.800591,-0.802877843,-0.083941698,-0.179252625,0.018540405,0.036827467,0.999587655
166.801216,-0.520590246,-0.190753222,0.103034973,0.022690795,0.037193678,0.999343514
166.801841,-0.543478429,-0.038165331,-0.041923523,0.018784545,0.038902663,0.998489022
166.802466,-0.497702062,-0.000018358,-0.034294128,0.018540405,0.042442702,0.994338632
166.803092,-0.688436925,-0.114459276,0.057258606,0.016098998,0.043907546,0.998611093
166.803717,-0.429037511,-0.114459276,0.072517395,0.014023803,0.048057936,1.001296639
166.804342,-0.436666906,-0.358599901,0.118293762,0.014512084,0.048180006,1.003371835
166.804968,-0.802877843,-0.335711718,-0.026664734,0.015488647,0.048180006,1.006179452
166.805595,-0.741842687,-0.442523241,0.095405579,0.017075561,0.047081374,1.008742929
166.807313,-0.680807531,-0.244158983,-0.102958679,0.020249389,0.045616530,1.008498788
166.807940,-0.985983312,-0.412005663,0.026741028,0.014634155,0.042320631,1.011916757
166.808565,-0.993612707,-0.045794725,0.186958313,0.017075561,0.043663405,1.010696054
166.809191,-1.176718235,-0.106829882,-0.240287781,0.016587280,0.047325514,1.007156014
166.809816,-1.222494602,-0.228900194,-0.263175964,0.018052123,0.043907546,1.009963632
166.810442,-1.306417942,-0.267047167,-0.034294128,0.017319702,0.042564772,1.011062264
166.811068,-0.985983312,-0.167865038,0.034370422,0.015976928,0.040733717,1.011916757
166.811693,-1.031759739,-0.228900194,0.003852844,0.017807983,0.043541335,1.011428475
166.812320,-1.130941868,-0.167865038,0.171699524,0.015488647,0.037071608,1.008376718
166.812945,-1.344564915,-0.190753222,-0.049552917,0.017685913,0.037437819,1.008498788
166.813570,-1.207235813,-0.251788378,-0.316581726,0.020249389,0.036827467,1.009231210
166.814196,-1.077536106,-0.236529589,-0.019035339,0.019883178,0.037559889,1.008376718
166.814823,-1.161459446,-0.038165331,0.019111633,0.017563842,0.035728835,1.005935311
166.815448,-1.275900364,0.015240431,0.087776184,0.018906616,0.039268874,1.007156014
166.816073,-1.001242161,-0.167865038,0.179328918,0.019883178,0.039513014,1.003615975
166.817781,-0.718954504,-0.045794725,0.019111633,0.015122436,0.040977858,1.003005624
166.818406,-0.726583898,0.030499220,0.225105286,0.016587280,0.044639967,1.001540780
166.819032,-0.512960851,-0.076312304,-0.034294128,0.014023803,0.040733717,1.004470468
166.819659,-0.474813879,-0.045794725,-0.041923523,0.018296264,0.041344069,1.002151132
166.820284,-0.596884191,0.053387403,0.103034973,0.017685913,0.039879225,1.004958749
166.820910,-0.512960851,-0.114459276,-0.148735046,0.018174194,0.040245436,1.002517343
166.821537,-0.390890539,-0.122088671,0.080146790,0.017563842,0.038902663,1.003493905
166.822163,-0.520590246,0.106793165,-0.019035339,0.015488647,0.042198561,1.006179452
166.822788,-0.306967199,-0.228900194,-0.057182312,0.018906616,0.038536452,1.008132577
166.823414,-0.497702062,0.099163771,0.080146790,0.018784545,0.039268874,1.003615975
166.824041,-0.360372961,-0.160235643,-0.034294128,0.018784545,0.039390944,1.007400155
166.824667,-0.398519933,0.007611036,-0.049552917,0.017685913,0.040611647,1.006057382
166.825293,-0.490072668,-0.022906542,0.080146790,0.019761108,0.041588210,1.005691171
166.825920,-0.436666906,-0.007647753,-0.019035339,0.018540405,0.040733717,1.010207772
166.826546,-0.352743566,0.030499220,-0.247917175,0.021714233,0.039635085,1.006911874
166.828264,-0.482443273,-0.022906542,-0.019035339,0.018784545,0.041099928,1.008132577
166.828890,-0.642660558,0.091534376,0.118293762,0.020249389,0.041221999,1.006667733
166.829517,-0.596884191,0.137310743,0.133552551,0.019761108,0.040733717,1.006423593
166.830143,-0.459555089,-0.007647753,0.087776184,0.014878295,0.042442702,1.007033944
166.844096,-0.093344152,-0.106829882,0.171699524,0.018418334,0.040489577,0.998122811
166.844819,0.249978602,-0.297564745,-0.087699890,0.018052123,0.039757155,0.996780038
166.845445,0.364419520,-0.350970507,0.049629211,0.018906616,0.041710280,0.995681405
166.846071,0.349160731,-0.129718065,0.049629211,0.018296264,0.038292311,0.993484139
166.846697,0.463601649,-0.297564745,-0.102958679,0.019028686,0.039146803,0.997878671
166.847322,0.494119227,-0.259417772,0.156440735,0.016465209,0.040855788,0.999587655
166.847947,0.372048914,-0.373858690,0.064888000,0.017563842,0.040855788,0.997756600
166.848573,0.669595301,-0.350970507,-0.064811707,0.019516967,0.042442702,0.999587655
166.849199,0.562783778,-0.190753222,0.080146790,0.017319702,0.042686842,0.998855233
166.849825,0.661965907,-0.274676561,-0.080070496,0.018296264,0.042442702,1.000686288
166.850452,0.684854090,-0.335711718,0.118293762,0.017197631,0.043907546,1.002639413
166.851078,0.539895594,-0.152606249,0.095405579,0.019639038,0.043541335,1.004836679
166.851703,0.623818934,-0.373858690,-0.064811707,0.016953491,0.041344069,1.005080819
166.852329,0.486489832,-0.328082323,0.118293762,0.019394897,0.041832350,1.009719491
166.854049,0.417825282,-0.282305956,-0.041923523,0.020249389,0.043175124,1.012160897
166.854675,0.318643153,-0.190753222,0.118293762,0.016343139,0.043785475,1.012405038
166.855300,0.425454676,-0.289935350,0.041999817,0.019272827,0.044029616,1.012405038
166.855927,0.311013758,-0.427264452,-0.034294128,0.018418334,0.042686842,1.013625741
166.856552,0.143167078,-0.312823534,-0.034294128,0.019761108,0.040123366,1.012649179
166.857179,0.097390711,-0.404376268,-0.034294128,0.019028686,0.045006178,1.011794686
166.857805,-0.062826574,-0.144976854,-0.064811707,0.019883178,0.044639967,1.012649179
166.858430,0.005837977,-0.282305956,-0.034294128,0.015488647,0.042564772,1.010573983
166.859056,0.120278895,-0.175494432,-0.240287781,0.016587280,0.041466139,1.010573983
166.859681,-0.070455968,-0.015277147,-0.072441101,0.017807983,0.041954421,1.006667733
166.860306,0.059243739,-0.244158983,0.064888000,0.018784545,0.042686842,1.007766366
166.860931,-0.146749914,-0.106829882,0.171699524,0.017930053,0.041099928,1.008010507
166.861558,0.082131922,-0.007647753,0.041999817,0.016709350,0.037926100,1.004470468
166.862184,-0.062826574,-0.305194139,-0.080070496,0.017319702,0.041099928,1.004104257
166.862809,-0.085714757,-0.122088671,-0.026664734,0.016953491,0.043785475,1.002029061
166.864537,-0.085714757,-0.244158983,0.011482239,0.017807983,0.042320631,1.001418710
166.865162,0.265237391,-0.038165331,0.041999817,0.017075561,0.042930983,0.999221444
166.865788,0.272866786,-0.236529589,0.026741028,0.018540405,0.042076491,1.002029061
166.866415,0.234719813,-0.541705370,0.003852844,0.016831420,0.041710280,0.999709725
166.867040,0.013467371,-0.244158983,0.103034973,0.013047241,0.043663405,1.002517343
166.867667,0.021096766,-0.312823534,0.148811340,0.016709350,0.044517897,0.999709725
166.868293,0.066873133,-0.320452929,0.019111633,0.016098998,0.042564772,1.001662850
166.868920,0.158425868,-0.335711718,-0.133476257,0.015610717,0.042686842,1.000930429
166.869547,0.082131922,-0.343341112,0.003852844,0.018784545,0.040001296,1.003860116
166.870172,0.181314051,-0.282305956,0.019111633,0.014756225,0.040123366,1.003127694
166.870798,0.089761317,-0.328082323,0.080146790,0.012436889,0.041710280,1.001174569
166.871424,0.349160731,-0.183123827,-0.133476257,0.015366577,0.042930983,1.002761483
166.872051,0.127908289,-0.328082323,0.003852844,0.016587280,0.042320631,1.002517343
166.872676,-0.116232336,-0.488299608,0.118293762,0.014267944,0.040977858,1.001296639
166.873301,0.097390711,-0.167865038,-0.080070496,0.016221069,0.038780592,0.999587655
166.875023,0.135537684,-0.274676561,0.171699524,0.017075561,0.039635085,1.003005624
166.875649,0.372048914,-0.556964159,-0.049552917,0.018052123,0.039879225,1.003738046
166.876274,0.417825282,-0.412005663,0.133552551,0.017319702,0.041099928,1.005813241
166.876900,0.417825282,-0.434893847,0.293769836,0.019150756,0.038536452,1.001906991
166.877526,0.372048914,-0.221270800,-0.072441101,0.020859741,0.040977858,1.003615975
166.891347,0.219461024,-0.160235643,-0.003776550,0.021836303,0.041466139,1.007522225
166.892043,0.112649500,-0.106829882,-0.057182312,0.020493530,0.041954421,1.010207772
166.892668,0.074502528,-0.152606249,-0.011405945,0.018784545,0.043541335,1.007278085
166.893293,0.249978602,-0.206012011,-0.011405945,0.017319702,0.043541335,1.008010507
166.893919,0.227090418,-0.152606249,0.041999817,0.018174194,0.043297194,1.007033944
166.894545,0.005837977,0.106793165,0.034370422,0.019394897,0.044151686,1.008132577
166.895170,0.021096766,-0.259417772,0.011482239,0.019883178,0.041832350,1.008010507
166.895795,0.051614344,-0.122088671,0.026741028,0.018540405,0.043663405,1.006789804
166.896488,0.074502528,-0.022906542,0.049629211,0.019272827,0.044273756,1.007156014
166.897360,-0.085714757,-0.099200487,0.080146790,0.020249389,0.043907546,1.011550546
166.898103,0.219461024,-0.068682909,0.011482239,0.019516967,0.042564772,1.010940194
166.898766,-0.017050207,-0.007647753,-0.057182312,0.020249389,0.043419264,1.011184335
166.899391,0.028726161,-0.091571093,-0.072441101,0.017930053,0.038902663,1.012893319
166.900018,0.135537684,-0.022906542,0.057258606,0.021225952,0.041344069,1.011306405
166.901738,0.227090418,0.076275587,-0.026664734,0.022446655,0.039757155,1.007156014
166.902365,0.181314051,0.183087111,0.225105286,0.023057006,0.046959303,1.008376718
166.902991,-0.085714757,0.076275587,0.003852844,0.018174194,0.048668288,1.008498788
166.903616,0.013467371,0.129681349,-0.049552917,0.017685913,0.050621413,1.011184335
166.904241,0.158425868,0.038128614,0.141181946,0.018784545,0.048057936,1.012893319
166.904868,-0.047567785,-0.007647753,-0.011405945,0.021592163,0.048668288,1.012649179
166.905494,0.013467371,0.129681349,0.034370422,0.023179077,0.045860671,1.013259530
166.906121,-0.360372961,0.091534376,-0.064811707,0.020981811,0.046593092,1.015700936
166.906748,-0.398519933,0.274639845,-0.225028992,0.021592163,0.046104811,1.012282968
166.907374,-0.543478429,0.228863478,0.110664368,0.021958373,0.045982741,1.011306405
166.908000,-0.680807531,0.007611036,-0.072441101,0.023057006,0.046837233,1.009353280
166.908625,-0.650289953,0.129681349,-0.133476257,0.018906616,0.043053053,1.010451913
166.909251,-0.909689367,0.099163771,-0.034294128,0.019516967,0.045982741,1.006789804
166.909876,-0.718954504,0.297528028,-0.133476257,0.017563842,0.044029616,1.007644296
166.910501,-0.902059972,0.061016798,0.072517395,0.015976928,0.043175124,1.002151132
166.912231,-0.833395422,-0.068682909,0.072517395,0.017685913,0.039268874,0.998000741
166.912856,-0.795248449,0.297528028,-0.049552917,0.016465209,0.037315749,1.002273202
166.913482,-0.635031164,0.137310743,0.164070129,0.017563842,0.039268874,1.000930429
166.914107,-0.566366613,0.083904982,-0.225028992,0.018662475,0.038658522,1.000075936
166.914732,-0.757101476,0.190716505,-0.095329285,0.014634155,0.036461256,0.997024179
166.915357,-0.543478429,-0.015277147,-0.064811707,0.016709350,0.037681960,0.993850350
166.915984,-0.398519933,-0.045794725,-0.034294128,0.015854858,0.039390944,0.995559335
166.916610,-0.245932043,0.015240431,-0.064811707,0.019272827,0.038170241,0.997146249
166.917236,-0.207785070,-0.000018358,0.080146790,0.018418334,0.041344069,0.994460702
166.917862,0.105020106,0.061016798,-0.118217468,0.020005248,0.042930983,0.998000741
166.918487,0.036355555,0.106793165,0.072517395,0.018296264,0.041954421,0.996291757
166.919114,-0.062826574,-0.099200487,0.118293762,0.019272827,0.043053053,0.999709725
166.919739,0.059243739,-0.030535936,0.049629211,0.019394897,0.045982741,1.003371835
166.920364,0.311013758,0.022869825,-0.163993835,0.020127319,0.041344069,1.002517343
166.920991,-0.070455968,-0.083941698,0.080146790,0.020249389,0.042076491,1.002639413
166.922833,0.066873133,0.022869825,-0.133476257,0.018052123,0.044273756,1.005935311
166.923459,-0.039938390,-0.053424120,-0.064811707,0.019028686,0.042076491,1.008254647
166.924085,-0.116232336,-0.068682909,0.011482239,0.020249389,0.044151686,1.007644296
166.924711,-0.291708410,-0.038165331,-0.026664734,0.020249389,0.045006178,1.005569100
166.938602,-0.680807531,0.015240431,-0.057182312,0.016709350,0.042442702,1.005813241
166.939354,-0.932577550,-0.038165331,0.003852844,0.017075561,0.042320631,1.006911874
166.939980,-0.619772375,0.129681349,0.103034973,0.020371459,0.041466139,1.004104257
166.940606,-0.833395422,0.228863478,-0.034294128,0.018052123,0.042442702,1.003493905
166.941242,-0.932577550,-0.015277147,-0.019035339,0.019761108,0.041099928,1.004470468
166.941867,-0.848654211,0.198345900,0.072517395,0.018052123,0.041466139,1.002517343
166.942492,-1.001242161,0.007611036,-0.110588074,0.018296264,0.038902663,1.000686288
166.943117,-0.749472082,0.091534376,0.026741028,0.018174194,0.040245436,0.999953866
166.943743,-0.917318761,0.137310743,-0.003776550,0.019272827,0.042930983,0.999587655
166.944368,-0.841024816,-0.007647753,0.011482239,0.018418334,0.039757155,1.001540780
166.944993,-0.589254797,-0.038165331,-0.202140808,0.020005248,0.038902663,1.000075936
166.945618,-0.825766027,0.022869825,-0.011405945,0.020493530,0.039757155,0.997878671
166.946245,-0.596884191,0.152569532,0.026741028,0.018784545,0.039757155,0.998733163
166.946871,-0.558737218,0.038128614,-0.133476257,0.014756225,0.039879225,1.000686288
166.948584,-0.612142980,0.030499220,-0.026664734,0.017441772,0.039757155,0.996413827
166.949211,-0.207785070,0.038128614,-0.019035339,0.019272827,0.041344069,0.998122811
166.949836,-0.223043859,-0.137347460,-0.087699890,0.017197631,0.037926100,0.996780038
166.950462,-0.146749914,0.106793165,0.232734680,0.019516967,0.039635085,0.999831796
166.951089,-0.070455968,-0.030535936,-0.102958679,0.015000366,0.037681960,0.999953866
166.951715,-0.070455968,-0.022906542,0.103034973,0.018784545,0.040977858,1.002517343
166.952340,-0.093344152,0.053387403,-0.064811707,0.018296264,0.042930983,0.999953866
166.952965,0.005837977,-0.114459276,0.072517395,0.016831420,0.040611647,1.000808358
166.953592,-0.017050207,-0.160235643,-0.118217468,0.016953491,0.039757155,1.003127694
166.954217,0.051614344,0.045758009,-0.019035339,0.016221069,0.041221999,1.004104257
166.954844,0.082131922,0.091534376,-0.034294128,0.015488647,0.043541335,1.005080819
166.955470,-0.108602941,-0.015277147,0.080146790,0.017319702,0.041832350,1.001784921
166.956095,0.127908289,-0.236529589,0.034370422,0.017441772,0.039024733,1.003127694
166.956722,0.249978602,-0.022906542,-0.011405945,0.017930053,0.043541335,1.002029061
166.957348,-0.024679601,-0.007647753,-0.095329285,0.015366577,0.041099928,1.003860116
166.959080,0.112649500,-0.144976854,-0.026664734,0.020249389,0.042808913,1.010818124
166.959707,0.105020106,-0.007647753,-0.026664734,0.022080444,0.040855788,1.007766366
166.960333,-0.017050207,-0.206012011,0.118293762,0.018784545,0.041466139,1.009597421
166.960960,0.021096766,-0.045794725,0.072517395,0.016465209,0.043419264,1.012038827
166.961587,0.120278895,-0.022906542,-0.110588074,0.017930053,0.040855788,1.009109139
166.962213,-0.085714757,-0.129718065,0.080146790,0.019883178,0.044762038,1.013137460
166.962839,-0.131491125,-0.091571093,0.141181946,0.019516967,0.042564772,1.009963632
166.963465,0.074502528,0.007611036,0.087776184,0.023179077,0.040245436,1.009719491
166.964092,0.234719813,-0.091571093,-0.148735046,0.018662475,0.044273756,1.011306405
166.964718,0.036355555,-0.251788378,0.026741028,0.019272827,0.041466139,1.011062264
166.965345,0.234719813,-0.076312304,0.125923157,0.017563842,0.042564772,1.013625741
166.965970,0.082131922,0.137310743,0.026741028,0.020859741,0.041344069,1.014114022
166.966595,0.028726161,0.144940138,0.057258606,0.017685913,0.041466139,1.015334725
166.967220,0.135537684,0.198345900,-0.186882019,0.018784545,0.042198561,1.011550546
166.967847,-0.207785070,0.015240431,-0.087699890,0.021348022,0.041954421,1.014968514
166.969574,-0.184896886,0.099163771,0.103034973,0.018174194,0.042320631,1.009841561
166.970200,-0.230673254,0.205975294,0.057258606,0.016343139,0.040733717,1.010451913
166.970827,-0.284079015,0.015240431,-0.087699890,0.017441772,0.042320631,1.006667733
166.971453,-0.398519933,0.221234083,-0.034294128,0.015732788,0.041099928,1.005202889
166.985607,0.379678309,-0.137347460,-0.011405945,0.017685913,0.042198561,1.005935311
166.986302,0.524636805,0.061016798,0.026741028,0.017930053,0.042686842,1.007156014
166.986928,0.173684657,-0.206012011,-0.057182312,0.018784545,0.047325514,1.007156014
166.987554,0.311013758,-0.007647753,-0.049552917,0.015244506,0.045860671,1.009475350
166.988181,0.280496180,0.045758009,-0.141105652,0.017807983,0.046104811,1.011672616
166.988806,0.120278895,0.015240431,-0.003776550,0.020249389,0.043785475,1.008742929
166.989432,0.280496180,0.129681349,0.080146790,0.020249389,0.042686842,1.009719491
166.990057,0.272866786,0.038128614,0.003852844,0.017319702,0.040489577,1.009109139
166.990682,0.082131922,-0.015277147,-0.019035339,0.018906616,0.042442702,1.005447030
166.991309,0.257607996,0.152569532,0.217475891,0.018052123,0.043541335,1.005324960
166.991936,-0.078085363,-0.137347460,-0.110588074,0.018784545,0.041099928,1.002639413
166.992562,0.021096766,-0.106829882,-0.148735046,0.017807983,0.040367506,1.004348397
166.993187,0.181314051,0.076275587,0.217475891,0.015854858,0.038780592,1.003127694
166.993813,0.204202235,0.030499220,0.118293762,0.015488647,0.035972975,1.001174569
166.995599,0.143167078,-0.061053514,-0.019035339,0.015854858,0.042564772,0.997024179
166.996274,0.341531336,-0.114459276,-0.019035339,0.017807983,0.039879225,1.000564218
166.996899,0.623818934,-0.061053514,0.034370422,0.018052123,0.038048171,1.000442147
166.997566,0.547524989,-0.091571093,0.057258606,0.017197631,0.039024733,0.999587655
166.998193,0.738259852,-0.213641405,-0.019035339,0.016953491,0.038170241,0.999587655
166.998818,0.646707118,-0.000018358,0.118293762,0.018662475,0.041099928,1.003371835
166.999444,0.608560145,0.015240431,0.064888000,0.018052123,0.040245436,1.001296639
167.000070,0.730630457,0.076275587,0.110664368,0.019516967,0.039757155,1.000564218
167.000695,0.784036219,-0.129718065,0.064888000,0.021714233,0.038536452,1.004104257
167.001321,0.745889246,-0.099200487,-0.026664734,0.016098998,0.038780592,1.004714608
167.001984,0.852700770,0.007611036,0.041999817,0.016587280,0.041832350,1.003738046
167.002609,0.784036219,-0.160235643,-0.034294128,0.017075561,0.042564772,1.002883554
167.003234,0.776406825,-0.228900194,-0.141105652,0.016465209,0.042930983,1.008498788
167.003861,0.654336512,0.114422560,0.087776184,0.015854858,0.042686842,1.008010507
167.005580,0.814553797,-0.198382616,0.125923157,0.019883178,0.043175124,1.006667733
167.006206,0.608560145,-0.129718065,-0.141105652,0.018418334,0.043541335,1.008498788
167.006833,0.906106532,0.015240431,0.049629211,0.019639038,0.043297194,1.009841561
167.007459,0.700112879,0.083904982,0.072517395,0.020371459,0.043175124,1.008254647
167.008085,0.829812586,-0.152606249,0.141181946,0.018174194,0.043053053,1.009109139
167.008711,0.692483485,-0.007647753,-0.156364441,0.020127319,0.042564772,1.009841561
167.009338,0.600930750,0.305157423,-0.102958679,0.023057006,0.041466139,1.011306405
167.009963,0.440713465,0.022869825,-0.041923523,0.022690795,0.042564772,1.006911874
167.010588,0.784036219,0.228863478,-0.011405945,0.021592163,0.042808913,1.008742929
167.011215,0.768777430,0.137310743,0.118293762,0.020493530,0.042076491,1.011306405
167.011840,0.661965907,0.175457716,0.095405579,0.021714233,0.042686842,1.010818124
167.012466,0.585671961,0.236492872,0.064888000,0.020493530,0.040611647,1.009475350
167.013093,0.555154383,0.198345900,0.209846497,0.020249389,0.040367506,1.008376718
167.013718,0.425454676,0.160198927,0.072517395,0.020127319,0.042442702,1.007888436
167.014344,0.677224696,0.053387403,0.156440735,0.018906616,0.041099928,1.007522225
167.016061,0.402566493,0.106793165,-0.019035339,0.020249389,0.041832350,1.005813241
167.016687,0.486489832,0.099163771,0.011482239,0.024155639,0.042320631,1.008376718
167.017313,0.356790125,-0.083941698,0.057258606,0.017930053,0.045372389,1.005813241
167.017939,0.356790125,0.091534376,-0.049552917,0.018906616,0.041710280,1.007400155
167.018564,0.372048914,0.289898634,0.026741028,0.019639038,0.042198561,1.006667733
167.019191,0.326272547,0.190716505,-0.163993835,0.018052123,0.041710280,1.008376718
167.050498,-0.032308996,0.053387403,0.118293762,0.018418334,0.040733717,1.000686288
167.051265,-0.100973547,0.068646193,-0.026664734,0.014390014,0.040733717,0.998733163
167.051891,0.257607996,0.007611036,0.171699524,0.018418334,0.038170241,1.003249764
167.052516,-0.184896886,0.022869825,0.003852844,0.017075561,0.041466139,1.004104257
167.053142,0.066873133,0.053387403,0.041999817,0.018784545,0.042564772,1.000808358
167.053768,0.143167078,-0.366229296,0.148811340,0.017197631,0.040977858,1.001418710
167.054395,0.059243739,0.022869825,0.011482239,0.017685913,0.043175124,1.001418710
167.055022,0.265237391,-0.045794725,-0.049552917,0.019639038,0.041099928,1.003371835
167.055647,0.143167078,-0.091571093,0.041999817,0.018906616,0.040489577,1.002761483
167.056273,0.211831629,0.007611036,-0.049552917,0.018052123,0.039879225,1.001540780
167.056898,0.249978602,0.213604689,0.041999817,0.017441772,0.040489577,1.003005624
167.057524,-0.009420812,-0.228900194,0.034370422,0.018418334,0.041832350,1.004348397
167.058151,0.120278895,-0.137347460,0.003852844,0.016587280,0.041954421,1.003982186
167.058776,0.303384364,0.122051954,-0.049552917,0.017319702,0.041588210,1.004226327
167.060506,0.112649500,0.106793165,0.148811340,0.022568725,0.042686842,1.007522225
167.061133,0.265237391,-0.106829882,0.179328918,0.018296264,0.045372389,1.009963632
167.061759,0.166055262,-0.061053514,0.019111633,0.021225952,0.045006178,1.008620858
167.062385,-0.070455968,-0.076312304,0.034370422,0.017930053,0.044762038,1.011062264
167.063017,-0.123861730,0.213604689,0.003852844,0.019516967,0.041588210,1.014968514
167.063642,0.036355555,-0.007647753,-0.049552917,0.019150756,0.045006178,1.011794686
167.064267,-0.009420812,-0.152606249,0.064888000,0.020249389,0.045494460,1.012771249
167.064893,-0.093344152,0.030499220,-0.026664734,0.020249389,0.043175124,1.009963632
167.065519,-0.291708410,0.091534376,0.110664368,0.017197631,0.046348952,1.011672616
167.066145,-0.169638097,0.038128614,0.118293762,0.014756225,0.042808913,1.010573983
167.066771,-0.207785070,0.205975294,-0.064811707,0.017930053,0.043175124,1.011184335
167.067396,-0.131491125,0.015240431,-0.034294128,0.017075561,0.043419264,1.010207772
167.068022,-0.505331457,0.167828321,-0.026664734,0.018052123,0.044273756,1.011062264
167.068648,-0.451925695,0.129681349,0.072517395,0.018784545,0.042320631,1.009841561
167.069275,-0.314596593,0.007611036,-0.125846863,0.019883178,0.044884108,1.006789804
167.070986,-0.505331457,-0.022906542,0.019111633,0.018784545,0.042930983,1.009475350
167.071611,-0.650289953,0.175457716,0.171699524,0.017197631,0.042442702,1.007278085
167.072237,-0.604513586,0.312786818,-0.255546570,0.015976928,0.041954421,1.004470468
167.072862,-0.429037511,0.274639845,0.057258606,0.017075561,0.042808913,1.001906991
167.073487,-0.787619054,0.106793165,0.110664368,0.016709350,0.041099928,1.003249764
167.074113,-0.451925695,-0.030535936,0.057258606,0.019272827,0.042320631,1.001906991
167.074739,-0.627401769,0.221234083,-0.049552917,0.017075561,0.041466139,0.998244882
167.075365,-0.612142980,-0.175494432,0.164070129,0.015976928,0.043907546,0.997756600
167.075992,-0.421408117,0.122051954,-0.125846863,0.014267944,0.040245436,1.004226327
167.076617,-0.635031164,-0.053424120,0.026741028,0.016587280,0.044762038,0.995315194
167.077244,-0.642660558,-0.000018358,-0.041923523,0.016831420,0.041954421,0.999343514
167.077869,-0.390890539,0.083904982,-0.064811707,0.015610717,0.042320631,1.000808358
167.078495,-0.268820226,0.099163771,-0.049552917,0.016709350,0.041466139,0.998611093
167.079120,-0.505331457,-0.320452929,-0.019035339,0.017319702,0.041466139,0.997268319
167.079747,-0.245932043,-0.068682909,-0.034294128,0.015488647,0.041221999,0.997268319
167.081463,-0.291708410,-0.175494432,0.125923157,0.015366577,0.037681960,0.998244882
167.082088,-0.467184484,-0.213641405,-0.049552917,0.015854858,0.041710280,0.997756600
167.082713,-0.184896886,-0.000018358,-0.118217468,0.017807983,0.040367506,0.999831796
167.083339,-0.337484777,-0.175494432,-0.102958679,0.019761108,0.040367506,1.002883554
167.083966,-0.162008703,-0.312823534,0.003852844,0.017685913,0.040733717,1.001662850
167.097869,0.043984950,-0.175494432,0.072517395,0.021103881,0.041466139,1.011550546
167.098595,0.089761317,-0.137347460,-0.019035339,0.017930053,0.043419264,1.010329843
167.099221,0.066873133,-0.106829882,-0.011405945,0.020615600,0.044517897,1.010818124
167.099847,-0.184896886,-0.228900194,-0.133476257,0.017807983,0.039024733,1.010818124
167.100474,0.028726161,-0.160235643,-0.011405945,0.020249389,0.041466139,1.007400155
167.101100,-0.230673254,-0.083941698,0.064888000,0.016831420,0.043297194,1.006667733
167.101726,-0.184896886,0.007611036,-0.095329285,0.019028686,0.043541335,1.008620858
167.102353,-0.413778722,-0.198382616,0.225105286,0.020249389,0.041221999,1.005324960
167.102978,-0.413778722,0.038128614,-0.003776550,0.016221069,0.039390944,1.001540780
167.103603,-0.284079015,-0.122088671,-0.125846863,0.017930053,0.045128249,1.002639413
167.104271,-0.123861730,-0.091571093,0.041999817,0.015366577,0.041588210,1.000930429
167.104896,-0.360372961,-0.320452929,-0.026664734,0.017441772,0.039268874,0.998122811
167.105522,-0.291708410,-0.228900194,0.041999817,0.017319702,0.045494460,0.995315194
167.106147,-0.146749914,0.007611036,0.026741028,0.019150756,0.042564772,0.999221444
167.107885,-0.078085363,0.038128614,-0.064811707,0.015732788,0.043053053,0.999831796
167.108511,-0.047567785,-0.480670214,0.110664368,0.015122436,0.043053053,0.998733163
167.109136,0.135537684,-0.419635057,-0.102958679,0.014267944,0.040367506,1.001174569
167.109761,-0.009420812,-0.038165331,-0.125846863,0.013535522,0.038536452,0.998855233
167.110386,-0.001791418,-0.305194139,0.064888000,0.018052123,0.040489577,1.001174569
167.111017,-0.131491125,-0.244158983,0.118293762,0.017807983,0.040855788,1.003249764
167.111644,0.074502528,-0.320452929,0.057258606,0.017807983,0.043053053,1.003738046
167.112271,0.074502528,-0.251788378,-0.057182312,0.018662475,0.041344069,0.999465585
167.112898,0.257607996,-0.282305956,0.041999817,0.015732788,0.042198561,1.004470468
167.113524,0.158425868,-0.167865038,-0.102958679,0.019272827,0.042686842,1.003005624
167.114151,0.173684657,-0.335711718,-0.026664734,0.019272827,0.040733717,1.004836679
167.114776,0.036355555,-0.343341112,-0.064811707,0.017685913,0.040001296,1.003982186
167.115401,-0.123861730,-0.396746874,-0.133476257,0.023301147,0.042320631,1.007888436
167.116026,-0.001791418,-0.000018358,-0.019035339,0.021103881,0.042198561,1.007400155
167.116652,0.028726161,-0.175494432,-0.041923523,0.019516967,0.041344069,1.008010507
167.118380,-0.024679601,-0.244158983,-0.026664734,0.016343139,0.040855788,1.005202889
167.119006,0.105020106,-0.030535936,0.003852844,0.016098998,0.041954421,1.006911874
167.119633,0.013467371,-0.106829882,-0.026664734,0.020005248,0.043053053,1.010207772
167.120258,0.105020106,-0.175494432,0.072517395,0.017807983,0.042930983,1.008987069
167.120884,-0.078085363,-0.198382616,0.019111633,0.024277709,0.042320631,1.006301522
167.121510,-0.009420812,-0.289935350,-0.072441101,0.020127319,0.042198561,1.009231210
167.122135,-0.123861730,-0.167865038,-0.095329285,0.020127319,0.041221999,1.007766366
167.122760,-0.085714757,-0.091571093,0.087776184,0.019883178,0.040489577,1.006301522
167.123386,0.089761317,-0.099200487,-0.148735046,0.019639038,0.039879225,1.007278085
167.124016,-0.009420812,-0.175494432,0.080146790,0.018662475,0.041710280,1.010207772
167.124641,-0.123861730,-0.206012011,-0.156364441,0.018784545,0.042076491,1.007522225
167.125267,0.051614344,-0.160235643,0.209846497,0.017563842,0.041099928,1.008376718
167.125893,0.028726161,-0.053424120,0.186958313,0.018296264,0.039513014,1.009597421
167.126520,0.043984950,-0.030535936,-0.011405945,0.018784545,0.042076491,1.011672616
167.127145,0.059243739,-0.305194139,-0.011405945,0.018174194,0.042686842,1.009109139
167.128866,-0.108602941,-0.099200487,-0.072441101,0.019761108,0.042686842,1.010329843
167.129491,0.211831629,-0.076312304,-0.080070496,0.020859741,0.040123366,1.008376718
167.130116,-0.154379308,-0.030535936,-0.110588074,0.021470092,0.040123366,1.009109139
167.130742,0.089761317,-0.144976854,0.110664368,0.019272827,0.039390944,1.009109139
167.144628,0.150796473,-0.015277147,-0.118217468,0.018052123,0.042198561,1.005202889
167.145361,0.303384364,-0.213641405,0.011482239,0.015244506,0.039757155,1.003860116
167.145987,0.051614344,0.015240431,0.148811340,0.019761108,0.043663405,1.004104257
167.146613,0.295754969,-0.045794725,0.095405579,0.018784545,0.043907546,1.006057382
167.147239,0.021096766,0.038128614,0.026741028,0.021103881,0.041221999,1.002761483
167.147864,0.219461024,0.015240431,-0.011405945,0.019394897,0.042076491,1.002517343
167.148489,-0.001791418,0.053387403,-0.171623230,0.019639038,0.043785475,1.005569100
167.149114,0.249978602,0.015240431,0.118293762,0.018540405,0.040367506,1.003005624
167.149741,0.288125575,0.015240431,-0.019035339,0.018296264,0.041221999,1.005080819
167.150366,0.257607996,-0.183123827,-0.080070496,0.020981811,0.043053053,1.001418710
167.150991,0.295754969,-0.061053514,-0.049552917,0.017685913,0.041710280,1.002151132
167.151616,0.303384364,0.061016798,0.133552551,0.019639038,0.045006178,1.004348397
167.152242,0.173684657,0.045758009,0.064888000,0.018906616,0.041954421,1.007644296
167.152868,0.425454676,-0.114459276,0.080146790,0.016953491,0.043053053,1.006179452
167.154583,0.303384364,-0.068682909,-0.064811707,0.018174194,0.042320631,1.010451913
167.155210,0.089761317,-0.045794725,-0.179252625,0.018906616,0.039757155,1.011794686
167.155836,0.143167078,0.083904982,0.080146790,0.018540405,0.043419264,1.012160897
167.156462,0.043984950,-0.137347460,0.019111633,0.020005248,0.041588210,1.008987069
167.157087,0.066873133,-0.015277147,0.049629211,0.018662475,0.040977858,1.008742929
167.157713,-0.009420812,0.099163771,0.125923157,0.019761108,0.043907546,1.008498788
167.158339,-0.123861730,0.114422560,-0.026664734,0.017319702,0.043297194,1.012405038
167.158966,0.066873133,0.282269239,-0.118217468,0.020249389,0.040977858,1.009719491
167.159593,-0.116232336,0.175457716,0.003852844,0.020371459,0.041710280,1.012527108
167.160218,-0.200155675,0.228863478,0.034370422,0.019516967,0.042442702,1.010207772
167.160843,-0.215414464,0.122051954,0.118293762,0.016831420,0.045128249,1.009475350
167.161468,-0.139120519,0.190716505,-0.057182312,0.017563842,0.041344069,1.009109139
167.162095,-0.024679601,0.152569532,-0.041923523,0.020493530,0.043907546,1.008620858
167.162721,-0.253561437,0.053387403,0.156440735,0.019028686,0.042808913,1.007156014
167.163347,-0.093344152,0.221234083,-0.057182312,0.016221069,0.042198561,1.010207772
167.165070,-0.009420812,0.183087111,-0.156364441,0.018418334,0.042686842,1.004104257
167.165696,-0.184896886,0.312786818,0.019111633,0.018296264,0.041466139,1.003249764
167.166321,-0.131491125,0.297528028,-0.049552917,0.016953491,0.039879225,1.003615975
167.166947,-0.093344152,0.267010450,0.080146790,0.017441772,0.041466139,1.001906991
167.167573,-0.162008703,-0.076312304,0.049629211,0.015244506,0.040245436,1.002273202
167.168198,-0.299337804,0.259381056,0.247993469,0.015854858,0.040001296,1.003127694
167.168823,-0.345114172,0.038128614,0.057258606,0.017807983,0.038780592,1.000808358
167.169449,-0.108602941,0.022869825,0.110664368,0.018052123,0.039757155,1.000808358
167.170075,-0.146749914,0.213604689,-0.072441101,0.016953491,0.038170241,0.996657968
167.170701,-0.085714757,-0.030535936,-0.087699890,0.018418334,0.040489577,0.999343514
167.171328,-0.116232336,-0.114459276,0.118293762,0.019150756,0.043175124,0.996657968
167.171953,-0.047567785,0.144940138,0.041999817,0.017197631,0.042930983,0.997390389
167.172578,0.066873133,-0.137347460,-0.186882019,0.016587280,0.042808913,0.997756600
167.173203,0.043984950,-0.061053514,-0.064811707,0.015244506,0.041466139,0.997390389
167.173829,0.127908289,-0.114459276,0.049629211,0.016221069,0.040489577,0.995803475
167.175530,0.074502528,0.030499220,0.072517395,0.016221069,0.041466139,1.000930429
167.176155,0.074502528,-0.083941698,-0.186882019,0.017441772,0.044762038,1.001418710
167.176781,0.127908289,-0.190753222,0.110664368,0.018784545,0.043785475,1.001296639
167.177408,0.158425868,-0.129718065,0.003852844,0.015366577,0.044151686,0.999465585
167.191165,0.005837977,-0.099200487,-0.270805359,0.018540405,0.044273756,1.010696054
167.191861,-0.368002355,-0.198382616,-0.034294128,0.018784545,0.043419264,1.008742929
167.192487,-0.284079015,-0.175494432,0.156440735,0.018906616,0.041832350,1.008132577
167.193114,-0.436666906,-0.122088671,0.003852844,0.020981811,0.042686842,1.009597421
167.193741,-0.474813879,-0.114459276,-0.156364441,0.018418334,0.042076491,1.009231210
167.194366,-0.413778722,-0.114459276,0.080146790,0.018052123,0.043175124,1.008620858
167.194991,-0.459555089,-0.144976854,-0.125846863,0.021470092,0.043785475,1.006911874
167.195618,-0.322225988,-0.175494432,-0.163993835,0.016953491,0.046593092,1.006179452
167.196243,-0.398519933,0.022869825,0.072517395,0.017441772,0.042442702,1.008254647
167.196869,-0.543478429,0.022869825,0.034370422,0.018296264,0.042808913,1.006545663
167.197495,-0.413778722,-0.129718065,-0.034294128,0.021103881,0.046593092,1.008376718
167.198120,-0.520590246,-0.152606249,0.011482239,0.015000366,0.044395827,1.005080819
167.198745,-0.566366613,-0.053424120,0.148811340,0.017685913,0.046104811,1.005935311
167.199370,-0.482443273,-0.022906542,0.148811340,0.015122436,0.045494460,1.005569100
167.201141,-0.596884191,-0.030535936,0.141181946,0.016465209,0.042076491,1.006789804
167.201767,-0.703695714,0.137310743,-0.171623230,0.019516967,0.043297194,1.003738046
167.202393,-0.612142980,-0.076312304,0.064888000,0.015610717,0.041466139,1.004470468
167.203019,-0.551107824,-0.122088671,0.125923157,0.016587280,0.041344069,1.000686288
167.203646,-0.680807531,-0.099200487,-0.209770203,0.019883178,0.038658522,1.004958749
167.204271,-0.657919347,-0.236529589,0.011482239,0.016465209,0.043175124,1.003127694
167.204897,-0.688436925,0.038128614,-0.095329285,0.017319702,0.041710280,1.003982186
167.205524,-0.726583898,0.007611036,0.003852844,0.021348022,0.043663405,1.004592538
167.206151,-0.444296300,-0.228900194,-0.034294128,0.020371459,0.041221999,1.000075936
167.206824,-0.604513586,-0.038165331,-0.064811707,0.020859741,0.044517897,1.003127694
167.207451,-0.223043859,-0.152606249,0.049629211,0.017075561,0.042198561,1.001540780
167.208076,-0.497702062,0.068646193,0.072517395,0.019639038,0.041344069,1.002273202
167.208701,-0.200155675,-0.320452929,-0.163993835,0.018784545,0.041588210,1.007033944
167.209327,-0.451925695,-0.038165331,0.125923157,0.019150756,0.040123366,1.007278085
167.209954,-0.352743566,-0.167865038,-0.049552917,0.015854858,0.039268874,1.006545663
167.211670,-0.390890539,0.015240431,0.019111633,0.015122436,0.043419264,1.007278085
167.212295,-0.177267492,-0.000018358,0.202217102,0.016587280,0.041099928,1.008132577
167.212920,-0.268820226,-0.137347460,-0.011405945,0.015732788,0.041221999,1.008742929
167.213545,-0.413778722,-0.167865038,-0.019035339,0.016098998,0.040245436,1.009597421
167.214170,-0.368002355,0.099163771,0.003852844,0.019150756,0.042930983,1.008987069
167.214796,-0.276449621,-0.144976854,0.095405579,0.016709350,0.044029616,1.008132577
167.215423,-0.497702062,0.053387403,0.003852844,0.020615600,0.040733717,1.006545663
167.216049,-0.589254797,0.114422560,0.179328918,0.017563842,0.040977858,1.003615975
167.216676,-0.421408117,0.015240431,-0.003776550,0.017319702,0.038536452,1.002029061
167.217301,-0.383261144,0.022869825,0.133552551,0.017441772,0.042198561,1.002639413
167.217926,-0.551107824,-0.053424120,0.095405579,0.016343139,0.041466139,1.005447030
167.218551,-0.245932043,-0.068682909,-0.011405945,0.015366577,0.042320631,1.003249764
167.219176,-0.451925695,-0.099200487,0.217475891,0.015610717,0.039390944,0.999831796
167.219802,-0.200155675,-0.061053514,-0.072441101,0.016465209,0.037071608,1.002029061
167.220428,-0.100973547,0.122051954,0.041999817,0.016343139,0.036217116,0.998366952
167.222130,-0.268820226,-0.068682909,-0.064811707,0.019761108,0.039757155,0.998366952
167.222757,-0.169638097,0.022869825,-0.057182312,0.018662475,0.040611647,0.998122811
167.223383,0.005837977,0.083904982,0.179328918,0.016709350,0.039513014,0.998855233
167.224008,-0.100973547,-0.091571093,0.087776184,0.016465209,0.041832350,0.997390389
167.237832,0.379678309,-0.167865038,-0.110588074,0.018418334,0.042564772,1.008742929
167.238544,0.547524989,-0.175494432,0.110664368,0.018784545,0.043297194,1.009475350
167.239170,0.600930750,-0.114459276,0.026741028,0.019883178,0.038536452,1.008498788
167.239796,0.539895594,-0.236529589,0.019111633,0.020493530,0.041344069,1.010085702
167.240422,0.555154383,-0.259417772,-0.072441101,0.021592163,0.040855788,1.007400155
167.241047,0.578042567,-0.129718065,0.080146790,0.018540405,0.042686842,1.005935311
167.241674,0.478860438,-0.259417772,-0.034294128,0.020493530,0.044639967,1.005691171
167.242301,0.448342860,-0.213641405,0.087776184,0.021225952,0.042808913,1.008498788
167.242927,0.600930750,0.045758009,-0.163993835,0.021225952,0.042320631,1.007278085
167.243552,0.379678309,-0.320452929,0.141181946,0.020249389,0.044029616,1.009231210
167.244178,0.387307703,-0.007647753,-0.034294128,0.017197631,0.042808913,1.006911874
167.244805,0.501748621,0.129681349,0.049629211,0.019516967,0.044517897,1.006545663
167.245431,0.478860438,0.038128614,0.133552551,0.018662475,0.044151686,1.009353280
167.246056,0.478860438,-0.091571093,0.019111633,0.018906616,0.045250319,1.008498788
167.247788,0.555154383,-0.213641405,0.026741028,0.019516967,0.043297194,1.003860116
167.248413,0.501748621,0.015240431,-0.095329285,0.021225952,0.042564772,1.003249764
167.249039,0.600930750,-0.076312304,0.164070129,0.020493530,0.039757155,1.004348397
167.249664,0.448342860,-0.053424120,-0.034294128,0.020859741,0.043053053,1.006667733
167.250290,0.623818934,0.083904982,-0.225028992,0.014878295,0.040855788,1.007156014
167.250915,0.745889246,-0.053424120,0.080146790,0.016709350,0.043541335,1.004348397
167.251541,0.700112879,-0.267047167,-0.080070496,0.021103881,0.041832350,1.004226327
167.252168,0.501748621,0.015240431,0.057258606,0.018540405,0.042320631,1.001174569
167.252793,0.761148036,-0.244158983,0.034370422,0.020371459,0.041710280,1.006301522
167.253418,0.524636805,-0.106829882,-0.072441101,0.017319702,0.038902663,1.002761483
167.254044,0.539895594,-0.091571093,-0.087699890,0.020859741,0.041588210,1.006179452
167.254670,0.570413172,-0.259417772,-0.156364441,0.015854858,0.040611647,1.003738046
167.255295,0.539895594,-0.068682909,0.019111633,0.017563842,0.040245436,1.003493905
167.255920,0.715371668,0.038128614,0.026741028,0.020493530,0.037804030,1.007400155
167.256545,0.600930750,-0.022906542,-0.019035339,0.020615600,0.040977858,1.005935311
167.258281,0.661965907,-0.114459276,-0.034294128,0.017319702,0.043785475,1.007522225
167.258906,0.677224696,-0.160235643,-0.072441101,0.017930053,0.042320631,1.005813241
167.259532,0.585671961,-0.198382616,0.049629211,0.018784545,0.041954421,1.005202889
167.260157,0.661965907,-0.106829882,-0.087699890,0.016221069,0.041954421,1.007033944
167.260783,0.928994715,-0.160235643,0.110664368,0.019639038,0.045738600,1.006667733
167.261410,0.593301356,-0.282305956,-0.049552917,0.018174194,0.044273756,1.006667733
167.262035,0.730630457,0.091534376,0.003852844,0.018784545,0.044762038,1.012282968
167.262660,0.692483485,0.022869825,-0.087699890,0.018662475,0.047325514,1.009597421
167.263285,0.692483485,0.022869825,-0.087699890,0.018662475,0.047325514,1.009597421
167.263911,0.341531336,-0.030535936,-0.026664734,0.021348022,0.044029616,1.010573983
167.264536,0.463601649,-0.030535936,-0.057182312,0.017807983,0.045128249,1.009963632
167.265163,0.532266200,0.068646193,0.141181946,0.018784545,0.042686842,1.006301522
167.265789,0.249978602,0.160198927,-0.049552917,0.019394897,0.042198561,1.008987069
167.266414,0.379678309,-0.404376268,0.011482239,0.019272827,0.045128249,1.011428475
167.267040,0.318643153,-0.007647753,0.141181946,0.022080444,0.044273756,1.009475350
167.268748,0.372048914,-0.045794725,-0.095329285,0.016953491,0.044517897,1.011062264
167.269374,-0.009420812,-0.022906542,0.072517395,0.018540405,0.045494460,1.015578866
167.270000,0.105020106,-0.022906542,-0.034294128,0.020249389,0.045738600,1.014358163
167.270625,-0.093344152,0.030499220,0.026741028,0.020737670,0.043785475,1.014358163
167.271251,-0.047567785,-0.053424120,-0.110588074,0.017930053,0.041466139,1.014358163
167.302457,0.532266200,-0.259417772,-0.057182312,0.018174194,0.037804030,0.997390389
167.303177,0.539895594,-0.038165331,-0.026664734,0.016098998,0.038780592,0.993606210
167.303803,0.585671961,-0.167865038,-0.049552917,0.015244506,0.038536452,0.994460702
167.304430,0.898477137,-0.236529589,-0.041923523,0.018052123,0.039146803,0.995559335
167.305055,0.890847743,-0.267047167,-0.003776550,0.017441772,0.039268874,0.996413827
167.305680,0.661965907,-0.343341112,0.171699524,0.015854858,0.038658522,0.998366952
167.306306,0.936624110,-0.350970507,-0.102958679,0.017685913,0.039024733,0.996780038
167.306932,1.028176785,-0.381488085,-0.095329285,0.019516967,0.040733717,1.000686288
167.307558,1.012917995,-0.221270800,0.034370422,0.018418334,0.036583327,1.003249764
167.308183,1.020547390,-0.244158983,-0.003776550,0.017197631,0.039757155,1.001662850
167.308831,1.119729519,-0.434893847,-0.034294128,0.019639038,0.041344069,1.005935311
167.309456,1.173135281,-0.167865038,0.080146790,0.020493530,0.043663405,1.006667733
167.310081,1.020547390,-0.228900194,0.026741028,0.017441772,0.041710280,1.008010507
167.310708,1.241799831,-0.244158983,0.103034973,0.021714233,0.044273756,1.011184335
167.312424,1.035806179,-0.152606249,-0.095329285,0.020371459,0.050377272,1.014968514
167.313051,1.112100124,-0.320452929,-0.102958679,0.018784545,0.045006178,1.010573983
167.313676,0.723001063,-0.106829882,0.057258606,0.021836303,0.043419264,1.010940194
167.314303,0.951882899,-0.152606249,-0.156364441,0.021958373,0.045738600,1.013991952
167.314928,0.799295008,-0.015277147,-0.118217468,0.018784545,0.040855788,1.010696054
167.315554,0.951882899,-0.144976854,0.118293762,0.022324584,0.043663405,1.010085702
167.316180,0.921365321,-0.083941698,-0.110588074,0.021225952,0.042930983,1.013747811
167.316807,1.157876492,0.144940138,0.041999817,0.022446655,0.041221999,1.016799569
167.317432,0.928994715,0.228863478,0.011482239,0.021592163,0.040855788,1.017409921
167.318057,1.028176785,0.099163771,-0.026664734,0.019150756,0.040855788,1.015945077
167.318682,1.089211941,0.091534376,0.087776184,0.022812866,0.042686842,1.014480233
167.319308,0.806924403,0.076275587,-0.057182312,0.018418334,0.048668288,1.017776132
167.319935,0.578042567,0.244122267,0.225105286,0.020371459,0.046104811,1.014724374
167.320561,0.509378016,0.221234083,0.133552551,0.020493530,0.047813796,1.013625741
167.321187,0.234719813,0.259381056,0.156440735,0.016831420,0.047325514,1.013259530
167.322885,-0.238302648,0.099163771,-0.087699890,0.016587280,0.043663405,1.000564218
167.323511,0.051614344,0.205975294,-0.034294128,0.014145873,0.042320631,0.996902108
167.324137,-0.139120519,-0.068682909,-0.156364441,0.014512084,0.043907546,0.992141366
167.324763,-0.078085363,-0.045794725,-0.019035339,0.012070678,0.043419264,0.994704843
167.325388,0.135537684,-0.061053514,-0.041923523,0.018662475,0.039635085,0.991897225
167.326018,0.143167078,-0.213641405,0.148811340,0.014634155,0.039268874,0.990310311
167.326643,0.272866786,-0.320452929,0.148811340,0.016465209,0.040733717,0.989211679
167.327270,0.402566493,-0.350970507,-0.019035339,0.014023803,0.041099928,0.991408944
167.327896,0.532266200,-0.404376268,0.103034973,0.018418334,0.038780592,0.989944100
167.328522,0.730630457,-0.358599901,0.202217102,0.018784545,0.040001296,0.992019296
167.329147,0.898477137,-0.206012011,0.019111633,0.018296264,0.039024733,0.996047616
167.329772,0.822183192,-0.373858690,-0.057182312,0.020127319,0.041099928,0.998244882
167.330397,1.211282253,-0.328082323,-0.064811707,0.021714233,0.041221999,1.002883554
167.331024,1.310464382,-0.312823534,0.011482239,0.017319702,0.037559889,1.002273202
167.331649,1.264688015,-0.061053514,0.026741028,0.019639038,0.039635085,1.006179452
167.333385,1.302834988,-0.183123827,-0.026664734,0.021103881,0.045250319,1.013381600
167.334018,1.264688015,-0.137347460,-0.156364441,0.019639038,0.044517897,1.017898202
167.334645,1.157876492,-0.358599901,-0.003776550,0.020981811,0.048057936,1.020583749
167.335271,0.936624110,-0.000018358,0.019111633,0.018784545,0.048668288,1.020583749
167.335897,0.921365321,-0.190753222,0.003852844,0.019394897,0.050987624,1.023879647
167.349805,0.333901942,-0.061053514,0.095405579,0.020005248,0.039757155,0.998244882
167.350546,0.425454676,-0.038165331,-0.163993835,0.018418334,0.042930983,0.996169686
167.351172,0.532266200,-0.007647753,-0.034294128,0.015366577,0.041710280,0.998000741
167.351798,0.463601649,-0.206012011,-0.087699890,0.016098998,0.042198561,0.997512460
167.352423,0.471231043,-0.007647753,-0.019035339,0.021225952,0.041832350,1.000930429
167.353050,0.646707118,-0.030535936,0.011482239,0.018052123,0.040611647,0.997390389
167.353675,0.547524989,-0.160235643,-0.057182312,0.016221069,0.041954421,1.003371835
167.354301,0.433084071,-0.068682909,0.080146790,0.014390014,0.042198561,1.002395272
167.354927,0.440713465,-0.305194139,-0.141105652,0.017197631,0.040855788,1.007278085
167.355552,0.700112879,-0.160235643,-0.026664734,0.018540405,0.042564772,1.007156014
167.356179,0.455972254,-0.144976854,0.110664368,0.017197631,0.042930983,1.009719491
167.356804,0.379678309,-0.122088671,-0.057182312,0.019028686,0.044151686,1.008132577
167.357430,0.341531336,-0.328082323,-0.011405945,0.016587280,0.041832350,1.007766366
167.358057,0.249978602,-0.160235643,-0.148735046,0.018296264,0.045372389,1.009231210
167.359757,0.295754969,-0.129718065,-0.026664734,0.018662475,0.045738600,1.006423593
167.360382,0.036355555,-0.144976854,0.080146790,0.017930053,0.046471022,1.007522225
167.361008,0.013467371,-0.144976854,-0.057182312,0.018052123,0.044151686,1.007400155
167.361634,0.066873133,-0.183123827,-0.171623230,0.018174194,0.041832350,1.008254647
167.362259,0.059243739,-0.053424120,0.026741028,0.018662475,0.042808913,1.007156014
167.362884,-0.055197179,-0.091571093,-0.026664734,0.018784545,0.044151686,1.005447030
167.363509,0.127908289,-0.152606249,-0.049552917,0.017807983,0.041099928,1.006423593
167.364135,0.158425868,0.030499220,0.057258606,0.017441772,0.041466139,1.008498788
167.364761,-0.093344152,-0.228900194,-0.087699890,0.019272827,0.041954421,1.006301522
167.365387,-0.062826574,-0.106829882,-0.026664734,0.018540405,0.044273756,1.006057382
167.366017,-0.009420812,-0.175494432,0.003852844,0.018296264,0.043663405,1.003493905
167.366644,-0.078085363,0.114422560,0.019111633,0.020615600,0.047081374,1.005935311
167.367270,-0.177267492,-0.175494432,-0.141105652,0.022080444,0.045860671,1.004836679
167.367896,-0.368002355,-0.122088671,-0.026664734,0.021348022,0.042808913,1.006179452
167.368523,-0.139120519,-0.076312304,0.026741028,0.016587280,0.041221999,1.005324960
167.370258,-0.230673254,-0.061053514,-0.202140808,0.019028686,0.043785475,1.003493905
167.370885,-0.154379308,-0.099200487,-0.087699890,0.019883178,0.041221999,1.003249764
167.371510,-0.100973547,-0.175494432,0.019111633,0.017319702,0.045860671,1.003615975
167.372135,-0.253561437,-0.122088671,0.118293762,0.018906616,0.044517897,1.003493905
167.372760,-0.154379308,0.099163771,-0.041923523,0.016465209,0.045128249,1.006423593
167.373385,-0.261190832,-0.030535936,0.103034973,0.020005248,0.042442702,1.002883554
167.374018,-0.215414464,-0.175494432,-0.041923523,0.017441772,0.045616530,1.002395272
167.374645,-0.337484777,-0.274676561,-0.034294128,0.017441772,0.043541335,1.002395272
167.375272,-0.329855382,-0.083941698,-0.057182312,0.018296264,0.043053053,1.003738046
167.375897,-0.245932043,-0.160235643,-0.064811707,0.016221069,0.042320631,1.002273202
167.376522,-0.154379308,-0.289935350,0.156440735,0.017319702,0.042930983,1.002883554
167.377148,-0.291708410,-0.228900194,-0.034294128,0.018296264,0.042198561,1.000808358
167.377775,-0.131491125,-0.091571093,0.232734680,0.017319702,0.039879225,1.000442147
167.378400,-0.093344152,-0.328082323,-0.110588074,0.017075561,0.042076491,1.000686288
167.379025,-0.055197179,-0.320452929,-0.011405945,0.017685913,0.039268874,1.002395272
167.380747,0.051614344,-0.175494432,-0.019035339,0.018906616,0.038658522,1.001174569
167.381372,-0.062826574,-0.198382616,-0.148735046,0.022446655,0.041099928,1.002517343
167.381997,-0.055197179,-0.137347460,-0.019035339,0.020005248,0.038536452,1.005080819
167.382622,0.272866786,-0.534075975,-0.072441101,0.020249389,0.042076491,1.006423593
167.396408,-0.001791418,-0.129718065,0.041999817,0.018418334,0.043419264,1.008498788
167.397119,0.333901942,-0.144976854,-0.003776550,0.020127319,0.044639967,1.012282968
167.397744,0.181314051,-0.061053514,0.103034973,0.020127319,0.045128249,1.011794686
167.398370,-0.100973547,-0.114459276,0.049629211,0.018662475,0.044517897,1.011550546
167.398996,-0.039938390,0.122051954,0.064888000,0.017563842,0.043053053,1.012282968
167.399622,0.188943446,-0.236529589,-0.110588074,0.018784545,0.045494460,1.012527108
167.400248,-0.032308996,-0.061053514,0.125923157,0.019761108,0.044029616,1.012771249
167.400875,-0.009420812,0.007611036,0.003852844,0.019394897,0.044639967,1.009353280
167.401501,-0.154379308,0.083904982,0.011482239,0.015854858,0.044639967,1.013137460
167.402128,-0.055197179,0.106793165,-0.118217468,0.017807983,0.045860671,1.011672616
167.402753,-0.131491125,0.213604689,0.034370422,0.018296264,0.046104811,1.009475350
167.403378,-0.253561437,0.007611036,0.186958313,0.017197631,0.044762038,1.008498788
167.404005,-0.139120519,-0.152606249,-0.095329285,0.017807983,0.043419264,1.005202889
167.404631,-0.413778722,0.022869825,0.034370422,0.020005248,0.043541335,1.005080819
167.406389,-0.291708410,-0.091571093,0.148811340,0.017930053,0.041588210,1.005569100
167.407018,-0.337484777,-0.076312304,0.110664368,0.018296264,0.041710280,1.005569100
167.407645,-0.337484777,0.099163771,-0.041923523,0.017441772,0.042076491,1.005447030
167.408271,-0.039938390,0.038128614,0.041999817,0.017075561,0.040977858,1.003127694
167.408897,0.066873133,-0.000018358,0.103034973,0.017930053,0.041344069,1.003982186
167.409523,-0.070455968,0.099163771,0.095405579,0.017441772,0.041710280,0.999343514
167.410150,-0.154379308,0.038128614,0.247993469,0.016221069,0.042198561,1.005813241
167.410775,0.089761317,0.076275587,0.049629211,0.018662475,0.042198561,1.002639413
167.411420,0.219461024,-0.053424120,-0.026664734,0.018174194,0.042686842,1.000808358
167.412047,0.097390711,-0.144976854,-0.003776550,0.017930053,0.043175124,1.002395272
167.412672,0.188943446,0.015240431,0.148811340,0.015854858,0.043907546,1.003005624
167.413298,0.204202235,0.251751661,-0.003776550,0.017441772,0.045860671,1.003005624
167.413924,0.372048914,0.007611036,0.034370422,0.016221069,0.044273756,1.003493905
167.414549,0.257607996,0.053387403,-0.049552917,0.018662475,0.043541335,1.003005624
167.415174,0.028726161,0.068646193,0.148811340,0.018174194,0.045860671,1.004836679
167.416893,0.158425868,-0.030535936,0.064888000,0.018418334,0.044151686,1.003738046
167.417518,0.158425868,-0.007647753,0.087776184,0.018906616,0.042076491,1.005080819
167.418144,0.204202235,-0.106829882,0.217475891,0.017807983,0.044395827,1.006667733
167.418769,0.089761317,-0.038165331,-0.049552917,0.020249389,0.043907546,1.004714608
167.419395,0.005837977,0.015240431,0.133552551,0.017563842,0.043541335,1.006179452
167.420020,-0.131491125,-0.030535936,-0.019035339,0.016343139,0.045494460,1.007400155
167.420646,0.021096766,-0.106829882,0.095405579,0.018052123,0.043541335,1.005447030
167.421271,-0.062826574,-0.015277147,0.019111633,0.018784545,0.045860671,1.004104257
167.421897,0.097390711,0.183087111,0.118293762,0.015854858,0.045616530,1.007033944
167.422523,-0.154379308,-0.206012011,0.095405579,0.022202514,0.044517897,1.006545663
167.423149,-0.322225988,0.022869825,0.072517395,0.021592163,0.048546217,1.007888436
167.423774,-0.360372961,-0.114459276,-0.034294128,0.019028686,0.046226881,1.006179452
167.424399,-0.146749914,0.007611036,0.041999817,0.018296264,0.046226881,1.003371835
167.425024,-0.390890539,-0.068682909,0.118293762,0.018784545,0.044517897,1.004470468
167.425651,-0.467184484,-0.022906542,-0.087699890,0.018906616,0.045738600,1.004226327
167.427382,-0.474813879,0.022869825,-0.072441101,0.018418334,0.043297194,1.001418710
167.428007,-0.406149328,-0.175494432,-0.072441101,0.018906616,0.043785475,1.003982186
167.428633,-0.261190832,-0.076312304,0.057258606,0.014878295,0.044517897,1.001906991
167.429260,-0.169638097,-0.030535936,-0.194511414,0.018296264,0.044517897,1.000564218
167.443109,0.158425868,-0.114459276,0.095405579,0.017685913,0.043785475,1.002395272
167.443828,0.249978602,-0.541705370,-0.156364441,0.020005248,0.041099928,1.002517343
167.444454,0.036355555,-0.282305956,-0.019035339,0.017807983,0.041099928,1.001174569
167.445080,0.150796473,-0.488299608,-0.049552917,0.017930053,0.043541335,1.004958749
167.445707,0.173684657,-0.259417772,-0.026664734,0.019761108,0.044884108,1.005447030
167.446332,0.166055262,-0.412005663,-0.072441101,0.021348022,0.041344069,1.008742929
167.446958,0.082131922,-0.396746874,0.064888000,0.020371459,0.043785475,1.009475350
167.447583,0.158425868,-0.312823534,0.026741028,0.021470092,0.046226881,1.011672616
167.448208,0.158425868,-0.236529589,-0.110588074,0.018296264,0.044762038,1.009597421
167.448833,-0.291708410,-0.259417772,-0.019035339,0.020859741,0.045738600,1.012282968
167.449460,-0.200155675,-0.350970507,-0.034294128,0.019150756,0.041221999,1.012160897
167.450085,-0.375631750,-0.221270800,0.019111633,0.016953491,0.043785475,1.012160897
167.450710,-0.482443273,-0.206012011,0.141181946,0.017197631,0.043419264,1.012893319
167.451337,-0.154379308,-0.198382616,-0.125846863,0.018662475,0.042442702,1.010207772
167.453061,-0.589254797,-0.083941698,0.003852844,0.018540405,0.043907546,1.009475350
167.453687,-0.856283605,-0.358599901,0.064888000,0.020005248,0.042808913,1.008864999
167.454312,-0.497702062,-0.038165331,-0.049552917,0.018540405,0.042686842,1.006911874
167.454937,-0.558737218,0.144940138,0.194587708,0.019272827,0.043175124,1.006667733
167.455563,-0.459555089,-0.358599901,-0.179252625,0.021225952,0.044151686,1.003738046
167.456189,-0.627401769,-0.068682909,-0.049552917,0.017075561,0.042564772,1.005447030
167.456816,-0.711325109,-0.160235643,0.072517395,0.015976928,0.045250319,1.002639413
167.457442,-0.665548742,-0.160235643,-0.141105652,0.014878295,0.042564772,1.002395272
167.458068,-0.436666906,-0.045794725,0.057258606,0.018052123,0.041710280,0.999831796
167.458694,-0.192526281,0.144940138,-0.156364441,0.016587280,0.041588210,1.002395272
167.459319,-0.268820226,-0.007647753,0.003852844,0.016098998,0.039635085,1.002395272
167.459946,-0.368002355,-0.213641405,-0.041923523,0.019639038,0.040733717,1.002273202
167.460571,-0.337484777,-0.167865038,-0.003776550,0.018662475,0.040489577,1.002395272
167.461198,-0.032308996,-0.083941698,-0.049552917,0.016587280,0.043907546,1.001906991
167.461824,-0.146749914,-0.198382616,-0.034294128,0.015610717,0.040733717,1.003371835
167.463541,-0.467184484,-0.015277147,-0.186882019,0.019272827,0.039757155,1.002395272
167.464168,-0.154379308,-0.160235643,-0.057182312,0.019394897,0.041710280,1.002761483
167.464795,-0.268820226,-0.305194139,-0.102958679,0.016221069,0.043053053,1.003860116
167.465422,-0.108602941,-0.183123827,-0.049552917,0.018784545,0.045006178,1.004958749
167.466048,-0.055197179,-0.175494432,0.064888000,0.018418334,0.043297194,1.004592538
167.466673,0.013467371,-0.068682909,0.057258606,0.018784545,0.042686842,1.008376718
167.467299,-0.055197179,-0.206012011,0.263252258,0.016465209,0.044395827,1.009963632
167.467924,-0.169638097,-0.160235643,0.171699524,0.018784545,0.042930983,1.006667733
167.468551,-0.261190832,-0.381488085,0.019111633,0.015854858,0.045128249,1.006423593
167.469176,-0.184896886,-0.137347460,0.034370422,0.022690795,0.042686842,1.010085702
167.469802,-0.230673254,-0.076312304,0.057258606,0.019150756,0.043785475,1.008620858
167.470428,-0.268820226,-0.099200487,-0.019035339,0.019028686,0.043053053,1.006789804
167.471055,0.043984950,-0.114459276,0.209846497,0.018296264,0.041954421,1.010085702
167.471681,-0.139120519,-0.053424120,-0.049552917,0.019150756,0.041099928,1.009597421
167.472307,-0.421408117,-0.244158983,0.041999817,0.019150756,0.041466139,1.011550546
167.474026,-0.154379308,-0.007647753,0.057258606,0.017075561,0.043541335,1.010207772
167.474652,-0.100973547,-0.076312304,0.041999817,0.019883178,0.043541335,1.011916757
167.475279,-0.612142980,0.030499220,0.110664368,0.020615600,0.044517897,1.015334725
167.475906,-0.398519933,-0.129718065,-0.163993835,0.018418334,0.043175124,1.016799569
167.489681,-0.673178136,0.244122267,-0.019035339,0.015854858,0.041588210,1.000930429
167.490379,-0.566366613,0.289898634,0.041999817,0.019883178,0.043053053,1.001662850
167.491004,-0.848654211,0.297528028,-0.019035339,0.018784545,0.039879225,1.006423593
167.491629,-0.612142980,0.213604689,-0.156364441,0.017563842,0.042076491,1.003738046
167.492255,-0.635031164,0.183087111,0.011482239,0.020737670,0.042320631,1.003738046
167.492882,-0.558737218,0.411968946,0.049629211,0.017563842,0.042198561,1.002273202
167.493509,-0.642660558,0.213604689,-0.072441101,0.016831420,0.041099928,1.003493905
167.494134,-0.383261144,0.076275587,-0.102958679,0.019639038,0.042198561,1.001540780
167.494760,-0.505331457,0.259381056,-0.034294128,0.018296264,0.039146803,1.000564218
167.495386,-0.474813879,0.328045607,0.240364075,0.017319702,0.037926100,1.003615975
167.496017,-0.520590246,0.068646193,-0.156364441,0.019761108,0.041954421,1.004226327
167.496644,-0.429037511,0.274639845,0.110664368,0.020615600,0.043907546,1.002639413
167.497269,-0.512960851,0.450115919,-0.003776550,0.017807983,0.038658522,1.001296639
