time,gyro x,gyro y,gyro z,accel x,accel y,accel z
20.547486,-21.126396179,23.974601746,-11.628379822,-0.011873778,-0.138644412,1.202789307
20.548316,-20.554191589,24.577323914,-11.162986755,-0.008577880,-0.135104373,1.199005127
20.548941,-19.791252136,25.271598816,-10.850181580,-0.012606200,-0.138400272,1.196685791
20.549566,-19.356376648,25.477592468,-10.545005798,-0.009920653,-0.140719607,1.192291260
20.550191,-18.936759949,26.095573425,-10.209312439,-0.012972411,-0.140841678,1.186431885
20.550818,-18.356925964,26.339714050,-9.957542419,-0.011873778,-0.143893436,1.184600830
20.551444,-17.723686218,26.911918640,-9.659996033,-0.014315184,-0.142306522,1.182769775
20.552069,-16.792900085,27.529899597,-9.492149353,-0.013826903,-0.142062381,1.173370361
20.552694,-16.258842468,27.720634460,-9.003868103,-0.014925536,-0.139254764,1.169830322
20.553321,-15.488273621,28.117362976,-8.698692322,-0.014681395,-0.141696170,1.164703369
20.553946,-14.839775085,28.857414246,-8.385887146,-0.014925536,-0.138156131,1.162506104
20.554571,-14.122612000,29.177848816,-8.088340759,-0.019930419,-0.137545779,1.155426025
20.555197,-13.718254089,29.658500671,-7.828941345,-0.015291747,-0.133761600,1.147369385
20.555822,-12.734062195,29.956047058,-7.462730408,-0.017122801,-0.131076053,1.144195557
20.556447,-12.085563660,30.306999207,-7.264366150,-0.019197997,-0.129367068,1.135650635
20.557074,-11.467582703,30.902091980,-6.829490662,-0.020906981,-0.126559451,1.131134033
20.557701,-10.643608093,31.062309265,-6.592979431,-0.018831786,-0.124484256,1.127593994
20.558328,-10.147697449,31.436149597,-6.226768494,-0.023958739,-0.124484256,1.117340088
20.558955,-9.476310730,32.077018738,-5.707969666,-0.027987059,-0.121798709,1.112091064
20.559581,-8.957511902,32.221977234,-5.585899353,-0.028231200,-0.117770389,1.106597900
20.560208,-8.377677917,32.489006042,-5.318870544,-0.030428465,-0.114840701,1.100006104
20.560834,-7.897026062,33.045951843,-5.181541443,-0.030550536,-0.110812381,1.094757080
20.561460,-7.149345398,32.962028503,-4.845848083,-0.033602294,-0.105807498,1.089385986
20.562086,-6.676322937,33.244316101,-4.716148376,-0.034212645,-0.105319217,1.080841064
20.562713,-5.997306824,33.885185242,-4.204978943,-0.035189208,-0.101046756,1.072418213
20.563338,-5.547172546,33.915702820,-3.785362244,-0.038851317,-0.098971561,1.066680908
20.563964,-5.089408875,34.266654968,-3.724327087,-0.038118895,-0.090548709,1.060821533
20.564589,-4.524833679,34.503166199,-3.480186462,-0.041170653,-0.090060428,1.056671143
20.565215,-4.212028503,34.640495300,-3.136863708,-0.042269286,-0.087374881,1.048370361
20.565935,-3.525382996,34.861747742,-3.167381287,-0.045443114,-0.083224490,1.037994385
20.567778,-2.365715027,35.556022644,-2.312889099,-0.050203856,-0.075167850,1.019683838
20.568404,-1.564628601,35.708610535,-1.977195740,-0.052523192,-0.067843631,1.016265869
20.569146,-1.030570984,35.807792664,-1.824607849,-0.054598387,-0.063571170,1.000640869
20.569773,-0.679618835,36.044303894,-1.702537537,-0.058626708,-0.064669803,0.994049072
20.570398,0.045173645,36.013786316,-1.572837830,-0.061190184,-0.060641479,0.986358643
20.571025,0.289314270,35.952751160,-1.137962341,-0.062410887,-0.060031127,0.981109619
20.571650,0.777595520,36.021415710,-1.015892029,-0.060091551,-0.060153197,0.975250244
20.572275,1.220100403,35.891716003,-0.756492615,-0.063631594,-0.060397338,0.968536377
20.572900,1.716011047,36.067192078,-0.581016541,-0.068026125,-0.058688354,0.958282471
20.573525,2.173774719,36.318962097,-0.512351990,-0.068148196,-0.056613158,0.946563721
20.574151,2.852790833,35.769645691,-0.123252869,-0.072054446,-0.058078002,0.940948486
20.574777,3.333442688,36.105339050,-0.230064392,-0.073153079,-0.058078002,0.935577393
20.575402,3.882759094,36.082450867,-0.046958923,-0.074739993,-0.056613158,0.928741455
20.576027,4.271858215,35.777275085,0.273475647,-0.079989016,-0.057467651,0.918609619
20.576652,4.836433411,35.868827820,0.288734436,-0.081698000,-0.055148315,0.912139893
20.577278,5.622261047,35.716239929,0.525245667,-0.081331789,-0.058810424,0.908721924
20.577904,6.392829895,35.418693542,0.784645081,-0.088900149,-0.057711791,0.900665283
20.591833,26.442878723,27.583305359,3.630409241,-0.148592532,-0.070773318,0.761871338
20.592592,27.518623352,26.782218933,3.920326233,-0.150545657,-0.071627811,0.758819580
20.593218,28.159492493,26.454154968,3.973731995,-0.152987063,-0.070162967,0.752349854
20.593844,29.090278625,26.004020691,4.072914124,-0.157869875,-0.072238162,0.749176025
20.594469,30.089729309,25.416557312,4.278907776,-0.157747805,-0.075534061,0.745513916
20.595095,31.058662415,24.699394226,4.400978088,-0.157015383,-0.077609256,0.743316650
20.595720,31.775825500,24.302665710,4.553565979,-0.163851321,-0.073703006,0.739166260
20.596346,32.637947083,23.867790222,4.751930237,-0.170443118,-0.072848514,0.732086182
20.596973,33.316963196,22.990409851,5.125770569,-0.172396243,-0.074801639,0.728179932
20.597599,33.721321106,22.433464050,5.141029358,-0.178499758,-0.072970584,0.725128174
20.598224,34.530036926,21.891777039,5.232582092,-0.176424563,-0.072116092,0.721954346
20.598850,35.453193665,21.159355164,5.743751526,-0.182650149,-0.074435428,0.718536377
20.599476,36.094062805,20.426933289,5.881080627,-0.187288821,-0.072238162,0.711822510
20.600101,36.696784973,19.610588074,6.026039124,-0.192781985,-0.070773318,0.704986572
20.600726,37.490242004,18.969718933,6.064186096,-0.196810305,-0.074435428,0.700225830
20.601352,37.810676575,18.450920105,6.239662170,-0.197054446,-0.074313357,0.698883057
20.601979,38.565986633,17.642204285,6.346473694,-0.201815188,-0.077365115,0.696563721
20.602605,39.229743958,16.925041199,6.560096741,-0.204744875,-0.077609256,0.695709229
20.603232,39.534919739,16.108695984,6.788978577,-0.207674563,-0.077731326,0.692169189
20.603857,40.015571594,15.246574402,7.223854065,-0.209627688,-0.074801639,0.689361572
20.604482,40.465705872,14.559928894,7.101783752,-0.215120852,-0.073580936,0.687652588
20.605108,41.144721985,13.728324890,7.475624084,-0.216951907,-0.075167850,0.684844971
20.605735,41.396492004,13.095085144,7.597694397,-0.222567141,-0.074557498,0.683380127
20.606360,41.472785950,12.210075378,7.628211975,-0.224154055,-0.076144412,0.683746338
20.606985,42.205207825,11.614982605,7.956275940,-0.220736086,-0.075045779,0.682037354
20.607611,42.304389954,10.882560730,8.154640198,-0.221590579,-0.070895389,0.679107666
20.608237,42.540901184,10.050956726,8.291969299,-0.222323000,-0.069796756,0.678375244
20.608863,42.930000305,9.371940613,8.749732971,-0.226107180,-0.069064334,0.684112549
20.609488,43.044441223,8.753959656,8.719215393,-0.227083743,-0.066867068,0.680938721
20.610113,43.258064270,7.876579285,8.932838440,-0.227572024,-0.066012576,0.681549072
20.611906,42.891853333,6.167594910,9.558448792,-0.225740969,-0.056002807,0.685943604
20.612532,42.891853333,5.557243347,9.794960022,-0.228304446,-0.054537963,0.690704346
20.613157,42.678230286,5.053703308,9.787330627,-0.228548586,-0.049899291,0.688995361
20.613783,42.533271790,4.481498718,10.214576721,-0.226473391,-0.048800658,0.695953369
20.614410,42.067878723,3.764335632,10.428199768,-0.232698977,-0.047335815,0.696563721
20.615035,41.648262024,3.260795593,10.542640686,-0.227938235,-0.042697143,0.695465088
20.615660,41.228645325,2.825920105,10.794410706,-0.230379641,-0.036593627,0.699859619
20.616285,40.740364075,2.261344910,11.091957092,-0.227816164,-0.034152221,0.703887939
20.616911,40.030830383,1.750175476,11.236915588,-0.232088625,-0.027682494,0.705596924
20.617536,39.679878235,1.452629089,11.717567444,-0.232576907,-0.026339721,0.702667236
20.618162,38.863533020,0.910942078,11.595497131,-0.230989993,-0.021945190,0.708160400
20.618787,38.131111145,0.346366882,11.816749573,-0.231112063,-0.016574096,0.709381104
20.619414,37.177436829,-0.042732239,11.877784729,-0.232576907,-0.012301636,0.711578369
20.620039,36.147468567,-0.088508606,12.350807190,-0.234407961,-0.004000855,0.713897705
20.620664,35.270088196,-0.737007141,12.549171448,-0.236483157,-0.002169800,0.711456299
20.621289,34.407966614,-1.049812317,12.694129944,-0.237948000,0.004666138,0.715484619
20.621916,33.400886536,-1.446540833,12.686500549,-0.233431399,0.010647583,0.715362549
20.622542,32.393806458,-1.873786926,13.029823303,-0.234407961,0.015896607,0.714630127
20.636541,-3.494865417,-6.878669739,16.463050842,-0.212679446,0.116360471,0.749664307
20.637309,-4.669792175,-7.351692200,16.272315979,-0.215487063,0.116482541,0.749053955
20.637934,-6.203300476,-7.305915833,16.562232971,-0.213778079,0.118191525,0.751861572
20.638561,-7.301933289,-7.618721008,16.623268127,-0.212801516,0.119900510,0.750274658
20.639187,-8.598930359,-7.817085266,16.531715393,-0.215731204,0.117703244,0.750762939
20.639813,-9.483940125,-8.168037415,16.707191467,-0.217806399,0.118069455,0.752227783
20.640439,-10.704643250,-8.290107727,16.875038147,-0.216097414,0.116970822,0.751617432
20.641064,-11.810905457,-8.526618958,16.768226624,-0.216707766,0.115872189,0.753570557
20.641690,-12.772209167,-8.595283508,16.836891174,-0.215609133,0.113430783,0.752593994
20.642316,-13.367301941,-9.083564758,16.829261780,-0.218416750,0.115628049,0.753936768
20.642943,-13.924247742,-9.083564758,16.905555725,-0.220614016,0.117581174,0.753204346
20.643568,-14.542228699,-9.472663879,17.042884827,-0.219881594,0.116238400,0.754180908
20.644193,-15.022880554,-9.609992981,16.882667542,-0.221712649,0.115017697,0.753204346
20.644818,-15.480644226,-10.205085754,17.019996643,-0.222689211,0.117214963,0.752960205
20.645443,-15.808708191,-10.212715149,16.958961487,-0.224031985,0.115261838,0.754547119
20.646068,-16.129142761,-10.601814270,16.875038147,-0.226229250,0.114651486,0.755889893
20.646694,-15.770561218,-10.868843079,17.027626038,-0.227083743,0.112210080,0.758941650
20.647319,-16.167289734,-11.120613098,16.798744202,-0.225252688,0.113064572,0.760528564
20.647945,-15.961296082,-11.532600403,16.844520569,-0.230989993,0.112576291,0.760406494
20.648570,-15.663749695,-12.051399231,16.997108459,-0.233919680,0.113186643,0.763824463
20.649195,-15.587455750,-12.165840149,16.958961487,-0.231478274,0.115628049,0.762725830
20.649821,-15.541679382,-12.356575012,16.722450256,-0.230745852,0.116116330,0.766265869
20.650447,-15.099174500,-12.631233215,16.638526917,-0.228304446,0.115994260,0.765899658
20.651072,-14.610893250,-13.050849915,16.524085999,-0.232943118,0.118191525,0.769317627
20.651699,-14.099723816,-13.607795715,16.600379944,-0.233431399,0.118069455,0.774200439
20.652324,-13.542778015,-13.684089661,16.432533264,-0.230501711,0.122219846,0.773834229
20.652949,-13.313896179,-14.111335754,16.394386292,-0.235018313,0.122708127,0.773712158
20.653574,-12.856132507,-14.462287903,16.340980530,-0.234285891,0.125027463,0.777496338
20.654199,-12.283927917,-14.744575500,16.218910217,-0.234652102,0.128079221,0.777130127
20.654826,-11.620170593,-15.080268860,16.081581116,-0.230989993,0.136624143,0.781158447
20.656615,-9.865409851,-16.209419250,15.745887756,-0.234163821,0.143460080,0.783599854
20.657242,-9.232170105,-16.499336243,15.608558655,-0.233187258,0.143704221,0.790802002
20.657868,-8.598930359,-16.682441711,15.341529846,-0.230745852,0.146878049,0.789337158
20.658494,-7.897026062,-17.185981750,15.349159241,-0.229403079,0.151638791,0.793609619
20.659121,-7.332450867,-17.239387512,15.082130432,-0.230501711,0.155911252,0.795806885
20.659747,-6.645805359,-17.529304504,15.028724670,-0.227572024,0.160549924,0.796905518
20.660372,-6.058341980,-17.773445129,14.891395569,-0.228548586,0.159451291,0.799835205
20.661004,-5.501396179,-18.055732727,14.754066467,-0.226595461,0.168606564,0.805328369
20.661630,-4.944450378,-18.109138489,14.639625549,-0.224276125,0.172024533,0.806793213
20.662255,-4.250175476,-18.345649719,14.456520081,-0.223177493,0.174099728,0.810821533
20.662880,-3.754264832,-18.551643372,14.166603088,-0.220125735,0.175930783,0.816314697
20.663506,-3.319389343,-18.467720032,14.113197327,-0.221590579,0.182278439,0.819366455
20.664131,-2.876884460,-18.559272766,13.998756409,-0.221102297,0.183621213,0.822662354
20.664756,-2.327568054,-18.696601868,13.685951233,-0.218294680,0.190090939,0.829376221
20.665383,-1.694328308,-18.772895813,13.373146057,-0.215487063,0.194607541,0.834381104
20.666009,-1.274711609,-18.780525208,13.235816956,-0.215487063,0.195828244,0.841094971
20.666635,-1.129753113,-18.864448547,13.090858459,-0.216219485,0.199124143,0.842926025
20.681519,8.094184875,-16.590888977,7.712135315,-0.223909914,0.222073361,0.860260010
20.682225,8.643501282,-16.667182922,7.200965881,-0.223055422,0.222195432,0.859283447
20.682850,9.086006165,-16.453559875,7.056007385,-0.222567141,0.223294064,0.858428955
20.683477,9.284370422,-16.453559875,6.972084045,-0.221590579,0.225125119,0.860748291
20.684103,9.536140442,-16.766365051,6.674537659,-0.224398196,0.226467893,0.857452393
20.684729,9.688728333,-16.590888977,6.262550354,-0.226717532,0.224392697,0.858551025
20.685354,9.971015930,-16.613777161,6.087074280,-0.226961672,0.224514768,0.855987549
20.685980,10.192268372,-16.712959290,5.903968811,-0.227327883,0.225735471,0.854888916
20.686606,10.474555969,-16.651924133,5.720863342,-0.230257571,0.224148557,0.857818604
20.687231,10.619514465,-16.804512024,5.408058167,-0.228914797,0.226345822,0.855987549
20.687856,10.917060852,-16.697700500,5.209693909,-0.233431399,0.227810666,0.858184814
20.688481,10.863655090,-16.636665344,4.996070862,-0.237093508,0.229519650,0.853179932
20.689107,11.054389954,-16.972358704,4.889259338,-0.238436282,0.229397580,0.853912354
20.689733,10.962837219,-16.987617493,4.500160217,-0.237825930,0.228787228,0.855377197
20.690360,11.039131165,-17.010505676,4.378089905,-0.241121829,0.226956174,0.856842041
20.690985,11.222236633,-17.231758118,4.004249573,-0.241121829,0.229031369,0.855499268
20.691612,11.046760559,-17.430122375,4.072914124,-0.241976321,0.226101682,0.854522705
20.692238,11.351936340,-17.414863586,3.447303772,-0.239901125,0.224758908,0.854400635
20.692863,11.474006653,-17.605598450,3.538856506,-0.245394289,0.226101682,0.855621338
20.693488,11.412971497,-17.880256653,3.248939514,-0.244661868,0.223294064,0.853546143
20.694113,11.161201477,-18.009956360,2.951393127,-0.245760500,0.220486447,0.854888916
20.694740,10.909431458,-18.040473938,2.753028870,-0.245394289,0.219021603,0.851226807
20.695365,10.680549622,-18.093879700,2.753028870,-0.246492922,0.219754025,0.851715088
20.695991,10.703437805,-18.551643372,2.646217346,-0.248690188,0.220486447,0.847564697
20.696616,10.657661438,-18.711860657,2.348670959,-0.248812258,0.220486447,0.848663330
20.697241,10.520332336,-18.620307922,2.089271545,-0.253328860,0.218045041,0.848052979
20.697867,10.764472961,-18.940742493,2.096900940,-0.255526125,0.211819455,0.849761963
20.698492,10.741584778,-19.047554016,1.799354553,-0.257845461,0.211331174,0.849761963
20.699119,10.665290833,-19.367988586,1.509437561,-0.259554446,0.210720822,0.851348877
20.699745,10.512702942,-19.268806458,1.463661194,-0.255159914,0.211697385,0.854034424
20.701519,10.039680481,-20.054634094,1.272926331,-0.247957766,0.213162228,0.857452393
20.702145,9.665840149,-20.100410461,0.990638733,-0.248079836,0.219021603,0.853302002
20.702771,9.383552551,-20.199592590,1.311073303,-0.248690188,0.218289182,0.852447510
20.703397,9.116523743,-20.405586243,1.097450256,-0.250032961,0.221585080,0.854034424
20.704024,8.818977356,-20.520027161,0.769386292,-0.249178469,0.221463010,0.851593018
20.704650,8.384101868,-20.802314758,0.754127502,-0.247957766,0.222195432,0.857452393
20.705275,8.185737610,-20.787055969,0.471839905,-0.248568118,0.224148557,0.859161377
20.705901,7.834785461,-21.076972961,0.235328674,-0.243197024,0.223538205,0.860870361
20.706527,7.331245422,-21.290596008,0.113258362,-0.242586672,0.221585080,0.863800049
20.707153,6.926887512,-21.466072083,-0.001182556,-0.239901125,0.225003049,0.868316650
20.707779,6.553047180,-21.366889954,0.097999573,-0.239656985,0.231106564,0.871124268
20.708405,5.843513489,-21.405036926,-0.291099548,-0.239534914,0.231228635,0.875274658
20.709030,5.225532532,-21.298225403,-0.291099548,-0.237337649,0.231350705,0.883941650
20.709655,4.668586731,-21.313484192,-0.176658630,-0.235750735,0.231961057,0.886138916
20.710281,4.027717590,-21.443183899,-0.703086853,-0.240633547,0.231350705,0.889556885
20.710906,3.409736633,-21.397407532,-0.519981384,-0.236727297,0.235256955,0.891998291
20.711533,2.601020813,-21.420295715,-0.497093201,-0.239290774,0.239773557,0.894927979
20.725610,-16.884452820,-19.375617981,-5.532493591,-0.198519289,0.312161267,0.936065674
20.726372,-18.364555359,-19.200141907,-5.791893005,-0.197420657,0.315457165,0.942291260
20.727006,-19.402153015,-18.750007629,-5.906333923,-0.197542727,0.318264782,0.943511963
20.727631,-20.699150085,-18.910224915,-6.348838806,-0.197542727,0.321072400,0.944122314
20.728257,-22.102958679,-18.505867004,-6.539573669,-0.196199954,0.321804821,0.946929932
20.728882,-23.155815125,-18.597419739,-6.737937927,-0.196932375,0.322659314,0.951568604
20.729508,-24.399406433,-18.185432434,-6.982078552,-0.198763430,0.323635876,0.954010010
20.730134,-25.635368347,-17.971809387,-7.249107361,-0.199129641,0.325833142,0.954010010
20.730759,-27.001029968,-17.834480286,-7.752647400,-0.199251711,0.323513806,0.955108643
20.731384,-28.282768250,-17.742927551,-7.867088318,-0.201082766,0.324734509,0.953765869
20.732011,-29.411918640,-17.475898743,-8.073081970,-0.203524172,0.321560681,0.959136963
20.732638,-30.693656921,-17.376716614,-8.485069275,-0.205355227,0.319485486,0.958160400
20.733263,-31.777030945,-17.231758118,-8.858909607,-0.212069094,0.315701306,0.954620361
20.733889,-32.936698914,-17.071540833,-9.072532654,-0.207674563,0.312161267,0.961822510
20.734514,-33.997184753,-16.896064758,-9.385337830,-0.211336672,0.304592907,0.960479736
20.735140,-35.011894226,-16.705329895,-9.476890564,-0.214266360,0.306423962,0.959381104
20.735766,-35.759574890,-16.804512024,-10.026206970,-0.215975344,0.297512829,0.957427979
20.736392,-36.415702820,-16.499336243,-10.087242126,-0.216707766,0.292141736,0.955963135
20.737017,-37.377006531,-16.232307434,-10.361900330,-0.219271243,0.289089978,0.955108643
20.737643,-38.101799011,-16.011054993,-10.651817322,-0.222567141,0.281765759,0.956329346
20.738268,-38.475639343,-16.026313782,-11.033287048,-0.222811282,0.275051892,0.954010010
20.738894,-39.093620300,-15.866096497,-11.262168884,-0.224642336,0.270047009,0.955841064
20.739519,-39.482719421,-15.805061340,-11.605491638,-0.225863039,0.261135876,0.954132080
20.740144,-40.001518250,-15.675361633,-11.811485291,-0.224642336,0.260891736,0.957183838
20.740769,-40.276176453,-15.919502258,-11.979331970,-0.228426516,0.251980603,0.956939697
20.741396,-40.344841003,-15.370185852,-12.154808044,-0.228426516,0.247219846,0.957061768
20.742022,-40.390617371,-15.606697083,-12.437095642,-0.229158938,0.241238400,0.958160400
20.742648,-40.444023132,-15.209968567,-12.673606873,-0.230989993,0.234036252,0.954986572
20.743273,-40.268547058,-14.904792786,-12.688865662,-0.229647219,0.226223752,0.957550049
20.743900,-40.413505554,-15.019233704,-13.001670837,-0.232332766,0.223171994,0.954620361
20.745694,-39.536125183,-14.653022766,-13.421287537,-0.233553469,0.209011838,0.957916260
20.746319,-39.528495789,-14.866645813,-13.726463318,-0.235018313,0.203640744,0.957061768
20.746944,-38.986808777,-14.637763977,-13.772239685,-0.230501711,0.204251096,0.956695557
20.747569,-38.605339050,-14.706428528,-13.848533630,-0.229036868,0.197781369,0.958770752
20.748194,-38.399345398,-14.302070618,-14.107933044,-0.234774172,0.193753049,0.958282471
20.748820,-37.743217468,-14.378364563,-14.092674255,-0.231600344,0.191189572,0.958526611
20.749445,-37.567741394,-14.607246399,-14.367332458,-0.233187258,0.184963986,0.957550049
20.750070,-36.987907410,-14.584358215,-14.451255798,-0.230013430,0.183377072,0.958160400
20.750697,-36.430961609,-14.401252747,-14.397850037,-0.231356204,0.177273557,0.955230713
20.751323,-35.919792175,-14.553840637,-14.710655212,-0.230379641,0.173611447,0.955841064
20.751948,-35.286552429,-14.622505188,-14.809837341,-0.227816164,0.167630002,0.955108643
20.752575,-34.615165710,-14.500434875,-14.794578552,-0.228304446,0.166409299,0.958038330
20.753200,-33.981925964,-14.454658508,-14.687767029,-0.229281008,0.158230588,0.955108643
20.753827,-33.150321960,-14.645393372,-14.847984314,-0.228060305,0.157009885,0.952423096
20.754452,-32.425529480,-14.782722473,-15.122642517,-0.227816164,0.149807736,0.954376221
20.755078,-31.807548523,-14.775093079,-15.076866150,-0.229403079,0.147000119,0.954742432
20.755705,-30.998832703,-14.950569153,-15.015830994,-0.227694094,0.143460080,0.955108643
20.769581,-0.870353699,-18.223579407,-15.488853455,-0.209139407,0.049710084,0.999542236
20.770324,0.815742493,-18.154914856,-15.496482849,-0.210360110,0.046414185,1.002960205
20.770950,2.250068665,-18.032844543,-15.420188904,-0.206575930,0.045315553,1.004547119
20.771577,3.753059387,-18.246467590,-15.450706482,-0.204866946,0.043484498,1.011383057
20.772204,5.217903137,-18.177803040,-15.588035583,-0.203768313,0.046170045,1.016143799
20.772831,6.652229309,-18.162544250,-15.412559509,-0.200350344,0.047879029,1.020538330
20.773457,8.277290344,-18.193061829,-15.313377380,-0.200350344,0.047879029,1.027008057
20.774082,9.253852844,-17.987068176,-15.237083435,-0.197786868,0.046414185,1.031402588
20.774785,10.588996887,-17.796333313,-15.305747986,-0.191805422,0.051785279,1.036407471
20.775412,11.870735168,-17.895515442,-15.359153748,-0.191561282,0.054837037,1.040679932
20.776037,12.793891907,-17.758186340,-15.343894958,-0.187288821,0.058132935,1.050933838
20.776678,13.915412903,-17.468269348,-15.191307068,-0.188509524,0.060208131,1.051666260
20.777304,14.640205383,-17.521675110,-15.267601013,-0.186556399,0.062649533,1.056304932
20.777930,15.632026672,-17.292793274,-15.153160095,-0.183748782,0.064846799,1.061065674
20.778557,16.036384583,-17.094429016,-15.244712830,-0.180330813,0.068264768,1.069366455
20.779182,16.745918274,-16.720588684,-15.076866150,-0.175814211,0.074612424,1.070587158
20.779808,17.302864075,-16.445930481,-15.137901306,-0.175936282,0.075955197,1.075958252
20.780434,17.508857727,-16.186531067,-15.244712830,-0.174349368,0.082058713,1.081451416
20.781061,17.829292297,-15.675361633,-14.962425232,-0.172396243,0.082791135,1.085601807
20.781688,18.203132629,-15.591438293,-15.046348572,-0.169954836,0.087185666,1.092437744
20.782314,18.065803528,-14.813240051,-15.191307068,-0.167879641,0.090237424,1.098297119
20.782940,18.210762024,-14.584358215,-15.008201599,-0.165072024,0.094998166,1.103057861
20.783565,18.103950500,-14.218147278,-15.061607361,-0.164583743,0.093167111,1.106353760
20.784190,18.058174133,-13.592536926,-15.000572205,-0.162142336,0.093167111,1.108917236
20.784816,17.867439270,-13.088996887,-14.909019470,-0.159334719,0.100247189,1.115875244
20.785441,17.585151672,-12.524421692,-15.046348572,-0.158968508,0.099880978,1.117584229
20.786067,17.325752258,-12.028511047,-14.664878845,-0.155428469,0.102810666,1.122344971
20.786692,16.959541321,-11.769111633,-14.786949158,-0.153597414,0.106228635,1.122222900
20.787317,16.318672180,-10.800178528,-14.825096130,-0.154451907,0.105252072,1.126617432
20.787943,16.105049133,-10.456855774,-14.741172791,-0.151522219,0.106228635,1.130279541
20.789766,14.449470520,-8.457954407,-14.771690369,-0.152620852,0.109158322,1.138702393
20.797027,5.950325012,-0.866706848,-14.344444275,-0.152620852,0.096951291,1.144561768
20.797653,5.217903137,-0.332649231,-14.176597595,-0.150423586,0.097927853,1.141876221
20.798280,4.340522766,0.254814148,-14.260520935,-0.150545657,0.095852658,1.140411377
20.798906,3.440254211,0.750724792,-14.252891541,-0.152376711,0.096707150,1.140533447
20.799533,2.936714172,1.284782410,-14.046897888,-0.155062258,0.094876096,1.138580322
20.800159,2.150886536,1.940910339,-13.848533630,-0.154329836,0.089993283,1.136871338
20.800784,1.616828918,2.383415222,-14.252891541,-0.153963625,0.090847775,1.134918213
20.801409,0.914924622,2.886955261,-14.100303650,-0.153963625,0.084744260,1.134796143
20.802035,0.075691223,3.520195007,-13.886680603,-0.154451907,0.082180783,1.131134033
20.802662,-0.534660339,4.046623230,-13.665428162,-0.156160891,0.081814572,1.134918213
20.803289,-0.977165222,4.237358093,-13.825645447,-0.156282961,0.080838010,1.126861572
20.803914,-1.663810730,4.801933289,-13.688316345,-0.152376711,0.077908322,1.126495361
20.804540,-2.297050476,5.076591492,-13.589134216,-0.154451907,0.073269650,1.125640869
20.805165,-2.869255066,5.625907898,-13.650169373,-0.153353274,0.069241330,1.122711182
20.805792,-3.441459656,6.007377625,-13.421287537,-0.155184329,0.068630978,1.122833252
20.806418,-3.838188171,6.472770691,-13.268699646,-0.157381594,0.062893674,1.121002197
20.820498,-13.054496765,15.467826843,-10.071983337,-0.207430422,-0.006808472,1.102691650
20.821337,-13.222343445,15.895072937,-9.751548767,-0.211092532,-0.004122925,1.099395752
20.821962,-13.229972839,16.307060242,-9.339561462,-0.211458743,-0.010470581,1.100494385
20.822589,-13.535148621,16.612236023,-9.240379333,-0.212435305,-0.010836792,1.099395752
20.823215,-13.497001648,17.016593933,-9.225120544,-0.212801516,-0.017550658,1.094390869
20.823841,-13.458854675,17.611686707,-8.828392029,-0.213045657,-0.019992065,1.091705322
20.824466,-13.374931335,17.855827332,-8.500328064,-0.216585696,-0.022433471,1.088531494
20.825091,-13.405448914,18.321220398,-8.462181091,-0.219149172,-0.022677612,1.090240479
20.825717,-13.519889832,18.435661316,-8.256187439,-0.223055422,-0.026461791,1.084991455
20.826343,-13.573295593,18.885795593,-8.027305603,-0.221224368,-0.032199096,1.082183838
20.826970,-13.359672546,19.320671082,-7.737388611,-0.224031985,-0.030123901,1.080963135
20.827595,-13.115531921,19.335929871,-7.432212830,-0.221712649,-0.034396362,1.078155518
20.828221,-12.802726746,19.625846863,-7.279624939,-0.223055422,-0.037570190,1.076446533
20.828846,-12.962944031,20.045463562,-7.165184021,-0.223055422,-0.037448119,1.073272705
20.829473,-12.604362488,20.327751160,-6.768455505,-0.220980227,-0.040621947,1.072296143
20.830100,-12.482292175,20.549003601,-6.715049744,-0.220614016,-0.042086791,1.066436768
20.830726,-12.322074890,21.105949402,-6.325950623,-0.222811282,-0.041720580,1.066314697
20.831351,-12.276298523,21.144096375,-6.158103943,-0.222567141,-0.045870971,1.065460205
20.831976,-11.871940613,21.548454285,-6.005516052,-0.223055422,-0.051242065,1.057891846
20.832602,-11.688835144,21.662895203,-5.723228455,-0.221590579,-0.050997924,1.055084229
20.833228,-11.795646667,22.097770691,-5.410423279,-0.220858157,-0.051364135,1.051544189
20.833853,-11.223442078,22.303764343,-5.341758728,-0.219515383,-0.051486205,1.049224854
20.834478,-10.758049011,22.334281921,-4.906883240,-0.221590579,-0.058078002,1.049224854
20.835104,-10.597831726,22.799674988,-4.632225037,-0.221956789,-0.061984252,1.050323486
20.835729,-10.193473816,22.975151062,-4.220237732,-0.218782961,-0.062716678,1.045806885
20.836354,-10.109550476,23.211662292,-4.182090759,-0.220247805,-0.062716678,1.045074463
20.836980,-9.812004089,23.440544128,-3.808250427,-0.224154055,-0.067233279,1.043365479
20.837607,-9.270317078,23.471061707,-3.640403748,-0.220003664,-0.069918826,1.038604736
20.838232,-9.102470398,23.890678406,-3.236045837,-0.221834719,-0.070529178,1.034576416
20.838859,-8.682853699,24.043266296,-2.862205505,-0.224031985,-0.072970584,1.031402588
20.840695,-7.721549988,24.447624207,-2.145042419,-0.229647219,-0.082369998,1.021392822
20.841321,-7.248527527,24.691764832,-1.702537537,-0.229647219,-0.084078982,1.020782471
20.841947,-6.958610535,24.722282410,-1.397361755,-0.230013430,-0.085299686,1.017242432
20.842573,-6.371147156,24.920646667,-1.275291443,-0.233431399,-0.087130740,1.015411377
20.843200,-5.921012878,24.935905457,-0.733604431,-0.236483157,-0.090914920,1.014923096
20.843825,-5.615837097,24.966423035,-0.634422302,-0.235262454,-0.095431522,1.013092041
20.844450,-4.883415222,25.325004578,-0.184288025,-0.234163821,-0.097994998,1.006744385
20.845077,-4.448539734,25.469963074,0.395545959,-0.239046633,-0.098117068,1.002105713
20.845703,-3.876335144,25.500480652,0.494728088,-0.237825930,-0.104830936,1.000030518
20.846328,-3.487236023,25.798027039,0.914344788,-0.241854250,-0.102999881,0.999908447
20.846955,-2.724296570,25.630180359,1.356849670,-0.244417727,-0.107394412,0.993682861
20.847581,-2.220756531,25.698844910,1.616249084,-0.243929446,-0.107394412,0.992095947
20.848206,-1.427299500,26.019279480,1.852760315,-0.244173586,-0.108493045,0.993072510
20.848831,-0.855094910,25.851432800,2.096900940,-0.247347414,-0.109835818,0.987823486
20.849457,-0.221855164,26.026908875,2.486000061,-0.248079836,-0.111788943,0.986236572
20.850083,0.502937317,26.438896179,2.989540100,-0.249178469,-0.108126834,0.983306885
20.850709,1.151435852,26.225273132,3.317604065,-0.248934329,-0.112033084,0.985626221
20.864570,14.808052063,27.156059265,9.878883362,-0.273958743,-0.081271365,0.941680908
20.865309,15.212409973,27.301017761,10.145912170,-0.274935305,-0.074801639,0.939239502
20.865934,15.647285461,27.453605652,10.550270081,-0.272493899,-0.071139529,0.936676025
20.866559,15.731208801,27.354423523,10.596046448,-0.270174563,-0.065402225,0.938507080
20.867184,16.402595520,27.262870789,11.053810120,-0.268709719,-0.063082889,0.933380127
20.867809,16.768806458,27.499382019,11.107215881,-0.272249758,-0.058566283,0.936187744
20.868435,17.165534973,27.362052917,11.343727112,-0.266512454,-0.050631713,0.933258057
20.869061,17.348640442,27.606193542,11.702308655,-0.264437258,-0.046603393,0.933013916
20.869688,17.882698059,27.606193542,12.160072327,-0.263826907,-0.031466674,0.931304932
20.870314,17.920845032,27.682487488,12.236366272,-0.264071047,-0.028659057,0.930206299
20.870940,17.806404114,27.621452332,12.350807190,-0.264925539,-0.019747924,0.926177979
20.871566,17.867439270,27.888481140,12.579689026,-0.261873782,-0.015597534,0.924713135
20.872191,18.103950500,27.918998718,12.694129944,-0.262239993,-0.007907105,0.923614502
20.872818,17.684333801,27.957145691,13.106117249,-0.260653079,-0.002169800,0.920074463
20.873443,17.562263489,27.941886902,12.961158752,-0.263094485,0.008206177,0.917022705
20.874068,17.241828918,28.063957214,13.312110901,-0.263338625,0.011990356,0.916656494
20.874693,16.906135559,28.201286316,13.533363342,-0.261263430,0.019314576,0.916290283
20.875320,16.738288879,28.254692078,13.533363342,-0.263948977,0.025662232,0.912872314
20.875945,16.234748840,28.521720886,13.792762756,-0.262239993,0.031643678,0.908966064
20.876593,15.838020325,28.323356628,14.067420959,-0.263216555,0.038601685,0.910308838
20.877219,15.220039368,28.247062683,14.075050354,-0.261507571,0.044094849,0.908477783
20.877844,14.823310852,28.582756042,14.075050354,-0.261751711,0.051663209,0.906036377
20.878469,14.129035950,28.369132996,14.059791565,-0.259066164,0.056301881,0.905181885
20.879096,13.511054993,28.224174500,14.418373108,-0.252962649,0.061062623,0.903106689
20.879722,12.885444641,28.575126648,14.410743713,-0.256258547,0.065701291,0.902008057
20.880347,11.992805481,28.735343933,14.578590393,-0.253695071,0.073025510,0.897613525
20.880973,11.718147278,28.674308777,14.647254944,-0.256746829,0.076565549,0.894195557
20.881598,10.650032043,28.590385437,14.624366760,-0.252596438,0.083157346,0.891387939
20.882225,9.963386536,28.598014832,14.631996155,-0.252596438,0.085720822,0.888092041
20.882852,9.337776184,28.384391785,14.792213440,-0.250765383,0.090969846,0.886505127
20.884653,7.247322083,28.460685730,14.845619202,-0.245760500,0.103543088,0.879669189
20.885278,7.247322083,28.460685730,14.845619202,-0.245760500,0.103543088,0.879669189
20.885904,5.866401672,28.369132996,15.097389221,-0.243441164,0.106594846,0.869903564
20.886530,4.950874329,28.498832703,15.043983459,-0.244173586,0.109768674,0.868682861
20.887157,4.569404602,28.453056335,15.135536194,-0.242586672,0.115017697,0.865631104
20.887782,3.791206360,28.079216003,15.005836487,-0.245516360,0.117092893,0.864288330
20.888408,3.104560852,28.292839050,15.051612854,-0.242464602,0.119778439,0.861846924
20.889034,2.463691711,28.048698425,14.998207092,-0.238070071,0.122463986,0.856353760
20.889659,1.838081360,27.903739929,15.173683167,-0.239779055,0.125271603,0.853179932
20.890284,1.334541321,27.857963562,14.990577698,-0.240999758,0.126980588,0.853302002
20.890910,0.876777649,27.781669617,15.074501038,-0.242708743,0.128323361,0.846954346
20.891536,0.403755188,27.308647156,15.150794983,-0.242586672,0.128323361,0.845733643
20.892162,-0.366813660,27.415458679,14.891395569,-0.240267336,0.130276486,0.842193604
20.892787,-0.664360046,27.178947449,14.990577698,-0.237948000,0.131497189,0.838165283
20.893414,-0.931388855,26.683036804,15.028724670,-0.236727297,0.132717893,0.835113525
20.894041,-1.343376160,26.629631042,14.876136780,-0.236971438,0.136380002,0.831695557
20.894667,-1.610404968,26.217643738,14.784584045,-0.234530032,0.136135861,0.829864502
20.908612,-4.501945496,16.535942078,13.495216370,-0.212069094,0.164700314,0.788726807
20.909370,-4.608757019,15.826408386,13.319740295,-0.211092532,0.163235471,0.791290283
20.910004,-4.494316101,15.490715027,13.388404846,-0.209261477,0.167630002,0.788848877
20.910629,-4.387504578,14.979545593,13.281593323,-0.209627688,0.164212033,0.793975830
20.911254,-4.448539734,14.521781921,13.121376038,-0.210970461,0.165310666,0.794952393
20.911880,-4.662162781,14.239494324,12.732276917,-0.208895266,0.167385861,0.798004150
20.912507,-4.517204285,13.697807312,13.289222717,-0.206209719,0.167507932,0.797271729
20.913132,-4.326469421,13.224784851,12.839088440,-0.206209719,0.163723752,0.798858643
20.913757,-4.479057312,13.034049988,12.800941467,-0.202669680,0.165798947,0.802398682
20.914383,-4.372245789,12.431327820,13.029823303,-0.203157961,0.164456174,0.807403564
20.915008,-4.089958191,11.935417175,12.747535706,-0.202181399,0.161770627,0.807769775
20.915633,-4.196769714,11.767570496,12.648353577,-0.199862063,0.159329221,0.811431885
20.916260,-4.196769714,11.126701355,12.549171448,-0.198519289,0.158108518,0.811798096
20.916885,-4.021293640,10.859672546,12.434730530,-0.199984133,0.155178830,0.813262939
20.917512,-3.746635437,10.562126160,12.442359924,-0.199739993,0.150540158,0.815460205
20.918138,-3.372795105,10.043327332,12.419471741,-0.195467532,0.151272580,0.818023682
20.918765,-3.327018738,9.928886414,12.213478088,-0.196199954,0.146755978,0.816558838
20.919390,-2.770072937,9.120170593,12.045631409,-0.196688235,0.143460080,0.822174072
20.920015,-2.403862000,8.944694519,12.175331116,-0.193270266,0.139065549,0.822418213
20.920642,-1.862174988,8.387748718,12.297401428,-0.193270266,0.135281369,0.825469971
20.921268,-1.381523132,8.105461121,12.137184143,-0.193270266,0.129910275,0.828643799
20.921893,-0.649101257,7.586662292,11.778602600,-0.187166750,0.127713010,0.827789307
20.922518,0.022285461,7.243339539,11.931190491,-0.188021243,0.123318478,0.831329346
20.923144,0.823371887,6.900016785,11.763343811,-0.187655032,0.116238400,0.833038330
20.923769,1.387947083,6.488029480,11.809120178,-0.183748782,0.116116330,0.834991455
20.924394,2.333992004,6.304924011,11.832008362,-0.185823977,0.108914182,0.836822510
20.925019,3.219001770,5.778495789,11.755714417,-0.184481204,0.107205197,0.838043213
20.925645,4.241340637,5.297843933,11.503944397,-0.179110110,0.102688596,0.838653564
20.926271,5.484931946,4.916374207,11.656532288,-0.177034914,0.098049924,0.841827393
20.926897,6.186836243,4.595939636,11.511573792,-0.174471438,0.095852658,0.846588135
20.928693,9.795539856,3.390495300,11.481056213,-0.170931399,0.086697385,0.850982666
20.929319,11.176460266,2.879325867,11.442909241,-0.168489993,0.081204221,0.855743408
20.929944,12.404792786,2.696220398,11.442909241,-0.168245852,0.079495236,0.857330322
20.930570,13.694160461,2.490226746,11.404762268,-0.168123782,0.079251096,0.862091064
20.931195,15.151374817,1.933280945,11.099586487,-0.165194094,0.078884885,0.864898682
20.931821,16.417854309,1.536552429,11.214027405,-0.164339602,0.078518674,0.865631104
20.932446,17.768257141,1.116935730,11.137733459,-0.164095461,0.075711057,0.866119385
20.933072,19.019477844,0.758354187,11.191139221,-0.163729250,0.073757932,0.870880127
20.933699,20.125740051,0.430290222,11.061439514,-0.160799563,0.072537228,0.878082275
20.934326,21.331184387,0.086967468,10.863075256,-0.158358157,0.071316525,0.877471924
20.934952,22.513740540,-0.080879211,11.229286194,-0.154573977,0.072781369,0.879669189
20.935579,23.948066711,-0.569160461,10.893592834,-0.153719485,0.072903439,0.884552002
20.936204,24.978034973,-0.775154114,10.916481018,-0.154207766,0.071194455,0.886871338
20.936830,26.175849915,-1.110847473,10.992774963,-0.154573977,0.072537228,0.887969971
20.937456,27.160041809,-1.248176575,10.863075256,-0.152498782,0.074856564,0.895538330
20.938082,28.151863098,-1.324470520,10.763893127,-0.150789797,0.073880002,0.898956299
20.938707,29.372566223,-1.644905090,11.000404358,-0.151766360,0.073391721,0.902130127
20.939334,30.394905090,-1.942451477,10.885963440,-0.151033938,0.077053830,0.909332275
20.953239,37.223213196,-4.315193176,9.970436096,-0.165438235,0.121487424,0.964019775
20.953974,36.826484680,-4.299934387,9.909400940,-0.168367922,0.129910275,0.961822510
20.954600,36.376350403,-4.315193176,10.000953674,-0.167147219,0.133084103,0.963653564
20.955225,35.819404602,-4.612739563,9.970436096,-0.169466555,0.139309689,0.962921143
20.955852,35.086982727,-4.681404114,9.886512756,-0.165804446,0.146633908,0.961700439
20.956477,34.469001770,-4.788215637,9.779701233,-0.168734133,0.153958127,0.966461182
20.957104,33.606880188,-4.833992004,9.764442444,-0.162264407,0.162014768,0.963409424
20.957730,32.760017395,-5.101020813,9.718666077,-0.159700930,0.169461057,0.968658447
20.958356,31.813972473,-5.162055969,9.596595764,-0.159700930,0.176541135,0.969512939
20.958982,30.608528137,-5.444343567,9.543190002,-0.155306399,0.183255002,0.972442627
20.959608,29.189460754,-5.307014465,9.482154846,-0.152254641,0.194363400,0.974761963
20.960234,27.869575500,-5.444343567,9.398231506,-0.146761477,0.201809689,0.976959229
20.960860,26.542060852,-5.543525696,9.367713928,-0.140291750,0.210964963,0.981597900
20.961485,24.756782532,-5.612190247,9.360084534,-0.141146243,0.219509885,0.982208252
20.962112,23.040168762,-5.535896301,9.215126038,-0.137117922,0.227688596,0.990753174
20.962739,21.148078918,-5.566413879,9.138832092,-0.131014407,0.233914182,0.994415283
20.963364,19.286506653,-5.551155090,9.238014221,-0.128450930,0.241116330,0.999053955
20.963989,17.279975891,-5.596931458,8.917579651,-0.124300539,0.247708127,1.003326416
20.964616,15.006416321,-5.604560852,8.841285706,-0.119051516,0.254910290,1.011138916
20.965242,12.931221008,-5.352790833,8.574256897,-0.119661868,0.260159314,1.015533447
20.965867,10.566108704,-5.131538391,8.879432678,-0.113924563,0.265408337,1.016754150
20.966493,8.345954895,-5.253608704,8.528480530,-0.111849368,0.268826306,1.026519775
20.967118,5.996101379,-5.123908997,8.368263245,-0.111116946,0.275051892,1.025787354
20.967744,3.508918762,-4.711921692,8.452186584,-0.104403079,0.278103650,1.033111572
20.968369,0.960700989,-4.742439270,8.475074768,-0.106844485,0.283963025,1.037506104
20.968994,-1.534111023,-4.475410461,8.124122620,-0.101595461,0.285672009,1.038482666
20.969620,-3.914482117,-4.124458313,8.009681702,-0.104525149,0.285672009,1.042266846
20.970247,-6.317741394,-3.994758606,7.986793518,-0.101351321,0.289334118,1.043975830
20.970872,-8.827812195,-3.834541321,7.742652893,-0.099764407,0.286282361,1.047515869
20.971499,-11.223442078,-3.529365540,7.582435608,-0.101229250,0.290066540,1.045928955
20.973326,-17.975456238,-2.682502747,7.162818909,-0.100863039,0.283352673,1.057281494
20.973952,-20.165092468,-2.285774231,7.101783752,-0.104891360,0.282009900,1.056304932
20.974577,-22.263175964,-2.156074524,7.017860413,-0.106356204,0.276638806,1.056793213
20.975202,-24.277336121,-1.736457825,6.880531311,-0.105379641,0.272854626,1.058746338
20.975829,-25.864250183,-1.683052063,6.888160706,-0.106112063,0.271755993,1.058990479
20.976455,-27.580863953,-1.408393860,6.491432190,-0.111483157,0.269558728,1.058624268
20.977081,-29.060966492,-1.072700500,6.666908264,-0.106478274,0.258816540,1.057525635
20.977706,-30.785209656,-0.927742004,6.308326721,-0.110994875,0.256985486,1.057525635
20.978331,-31.838066101,-0.775154114,5.995521545,-0.115511477,0.252224743,1.059356689
20.979113,-32.951957703,-0.622566223,5.896339417,-0.113924563,0.244046018,1.057769775
20.979738,-33.989555359,-0.347908020,5.797157288,-0.115023196,0.241116330,1.056427002
20.980363,-35.149223328,-0.248725891,5.476722717,-0.113192141,0.233303830,1.055328369
20.980989,-35.851127625,-0.004585266,5.491981506,-0.111116946,0.227200314,1.054962158
20.981615,-36.438591003,0.094596863,5.102882385,-0.114290774,0.220364377,1.054473877
20.982240,-37.109977722,0.025932312,5.057106018,-0.113192141,0.214138791,1.051666260
20.982866,-37.628776550,-0.073249817,4.957923889,-0.112825930,0.206692502,1.052154541
20.983491,-37.720329285,0.193778992,4.927406311,-0.109407961,0.202420041,1.053619385
20.984118,-37.758476257,0.331108093,4.469642639,-0.109530032,0.193386838,1.051055908
20.998077,-19.943840027,-2.804573059,1.738319397,-0.074495852,0.133206174,1.038970947
20.998870,-17.853385925,-3.109748840,1.456031799,-0.073763430,0.134915158,1.035308838
20.999495,-16.724235535,-3.323371887,1.440773010,-0.073153079,0.136380002,1.035186768
21.000120,-15.541679382,-3.605659485,1.234779358,-0.071810305,0.137844846,1.038970947
21.000747,-14.633781433,-3.643806458,1.509437561,-0.072908938,0.136013791,1.037139893
21.001373,-13.611442566,-3.842170715,1.158485413,-0.071566164,0.138333127,1.037139893
21.002005,-12.566215515,-4.231269836,0.891456604,-0.068514407,0.138699338,1.039459229
21.002645,-11.788017273,-4.437263489,0.914344788,-0.070711672,0.139187619,1.039459229
21.003433,-11.040336609,-4.452522278,0.845680237,-0.068636477,0.142361447,1.037384033
21.004059,-10.017997742,-4.605110168,0.883827209,-0.068270266,0.144436643,1.038848877
21.004684,-9.270317078,-4.658515930,0.555763245,-0.067537844,0.142239377,1.039337158
21.005310,-8.682853699,-5.062873840,0.647315979,-0.069857180,0.146878049,1.039093018
21.005937,-7.950431824,-5.055244446,0.410804749,-0.067659914,0.146633908,1.044464111
21.006563,-7.248527527,-5.284126282,0.273475647,-0.068270266,0.146633908,1.039703369
21.007190,-6.607658386,-5.375679016,0.334510803,-0.067781985,0.146389768,1.043487549
21.007815,-6.157524109,-5.551155090,0.227699280,-0.065706789,0.146145627,1.044586182
21.008440,-5.524284363,-5.726631165,0.097999573,-0.068514407,0.146023557,1.044952393
21.009066,-5.051261902,-5.680854797,0.067481995,-0.063997805,0.145535275,1.049957275
21.009692,-4.585868835,-5.642707825,0.067481995,-0.064608157,0.143826291,1.053131104
21.010318,-3.937370300,-6.085212708,0.006446838,-0.061312255,0.142605588,1.052886963
21.010943,-3.510124207,-5.871589661,0.021705627,-0.062655032,0.142483518,1.057525635
21.011569,-3.159172058,-6.161506653,-0.008811951,-0.063875735,0.142483518,1.052764893
21.012196,-2.709037781,-6.428535461,-0.016441345,-0.064730227,0.138088986,1.054351807
21.012821,-2.258903503,-6.314094543,-0.344505310,-0.063631594,0.138699338,1.060333252
21.013446,-1.686698914,-6.359870911,-0.451316833,-0.060701903,0.139431760,1.064483643
21.014073,-1.206047058,-6.459053040,-0.252952576,-0.061800536,0.136380002,1.060943604
21.014700,-0.763542175,-6.390388489,-0.481834412,-0.061068114,0.129421994,1.064849854
21.015325,-0.542289734,-6.634529114,-0.497093201,-0.061434325,0.133694455,1.066192627
21.015952,0.045173645,-6.581123352,-0.390281677,-0.059725340,0.133938596,1.063995361
21.016577,0.426643372,-6.520088196,-0.672569275,-0.058504637,0.130520627,1.065826416
21.018403,1.769416809,-6.596382141,-0.573387146,-0.060457762,0.127102658,1.069122314
21.019029,2.173774719,-6.741340637,-0.725975037,-0.060213622,0.126736447,1.070709229
21.019655,2.753608704,-6.703193665,-0.672569275,-0.057406005,0.128323361,1.079132080
21.020282,3.074043274,-6.550605774,-0.748863220,-0.056063231,0.126126096,1.074493408
21.020908,3.508918762,-6.634529114,-0.970115662,-0.053988036,0.123806760,1.075225830
21.021535,4.279487610,-6.817634583,-0.809898376,-0.053621825,0.122463986,1.077178955
21.022160,4.554145813,-6.558235168,-1.191368103,-0.054110106,0.122830197,1.076080322
21.022786,4.920356750,-6.459053040,-1.176109314,-0.054720458,0.123928830,1.081207275
21.023412,5.492561340,-6.718452454,-1.054039001,-0.054720458,0.121121213,1.079620361
21.024038,5.767219543,-6.497200012,-1.107444763,-0.056185301,0.120266721,1.082305908
21.024663,5.874031067,-6.527717590,-1.031150818,-0.054842528,0.121609494,1.089385986
21.025290,6.438606262,-6.336982727,-1.176109314,-0.054720458,0.122341916,1.086578369
21.025915,6.942146301,-6.398017883,-1.374473572,-0.053255614,0.119290158,1.089263916
21.026542,6.972663879,-6.336982727,-1.321067810,-0.055697020,0.119290158,1.095001221
21.027168,7.399909973,-6.192024231,-1.435508728,-0.053988036,0.120388791,1.097198486
21.027795,7.949226379,-6.382759094,-1.603355408,-0.055574950,0.120022580,1.095855713
21.028421,7.911079407,-6.184394836,-1.336326599,-0.051058348,0.119412228,1.097442627
21.029047,8.254402161,-5.947883606,-1.496543884,-0.055208739,0.118313596,1.101104736
21.049673,-3.395683289,1.673881531,-2.312889099,-0.049593505,0.161648557,1.089385986
21.050435,-4.326469421,2.101127625,-2.251853943,-0.053988036,0.162503049,1.084869385
21.051062,-5.028373718,2.375785828,-2.167930603,-0.056917723,0.165432736,1.083160400
21.051688,-5.768424988,2.398674011,-2.282371521,-0.059847411,0.163357541,1.080718994
21.052313,-6.615287781,2.474967957,-2.366294861,-0.064608157,0.165188596,1.077423096
21.052938,-7.507926941,2.864067078,-2.335777283,-0.066195071,0.163601682,1.076202393
21.053564,-8.309013367,2.810661316,-2.320518494,-0.073153079,0.163235471,1.074127197
21.054190,-8.782035828,3.230278015,-2.595176697,-0.075472414,0.159939572,1.068878174
21.054816,-9.377128601,3.413383484,-2.618064880,-0.075716555,0.162869260,1.068756104
21.055442,-10.010368347,3.398124695,-2.656211853,-0.077913821,0.162991330,1.066070557
21.056068,-10.651237488,3.657524109,-2.709617615,-0.079989016,0.160427853,1.065704346
21.056693,-11.078483582,3.627006531,-2.885093689,-0.081331789,0.161892697,1.060455322
21.057319,-11.475212097,3.649894714,-2.839317322,-0.081575930,0.160794064,1.057281494
21.057945,-11.749870300,3.825370789,-3.007164001,-0.084871829,0.158230588,1.057159424
21.058570,-12.245780945,4.100028992,-3.045310974,-0.086580813,0.157498166,1.056549072
21.059195,-12.749320984,3.947441101,-3.243675232,-0.088533938,0.156399533,1.052276611
21.059821,-12.947685242,4.077140808,-3.243675232,-0.088045657,0.155789182,1.047149658
21.060446,-13.062126160,4.222099304,-3.335227966,-0.089754641,0.154446408,1.047637939
21.061071,-13.229972839,4.374687195,-3.564109802,-0.091585696,0.153347775,1.046539307
21.061697,-13.413078308,4.191581726,-3.556480408,-0.093782961,0.152859494,1.043121338
21.062323,-13.550407410,4.374687195,-3.678550720,-0.090853274,0.153103635,1.039215088
21.062949,-13.702995300,4.435722351,-3.937950134,-0.094881594,0.147610471,1.037750244
21.063575,-13.359672546,4.466239929,-4.060020447,-0.095980227,0.145413205,1.034942627
21.064202,-13.519889832,4.588310242,-3.976097107,-0.096468508,0.147244260,1.033599854
21.064827,-13.321525574,4.595939636,-4.212608337,-0.097445071,0.144558713,1.027618408
21.065453,-13.123161316,4.580680847,-4.319419861,-0.102816164,0.143338010,1.028228760
21.066080,-12.962944031,4.679862976,-4.479637146,-0.100740969,0.142483518,1.025054932
21.066705,-12.924797058,4.634086609,-4.746665955,-0.100618899,0.142361447,1.021636963
21.067332,-12.779838562,4.367057800,-4.876365662,-0.103548586,0.144924924,1.018585205
21.067958,-12.283927917,4.527275085,-4.899253845,-0.103060305,0.138088986,1.014556885
21.069767,-11.398918152,4.153434753,-5.311241150,-0.106112063,0.138821408,1.006011963
21.070393,-11.147148132,4.313652039,-5.578269958,-0.109407961,0.135403439,0.998931885
21.071020,-10.742790222,4.161064148,-5.761375427,-0.115511477,0.138943478,0.999176025
21.071646,-10.605461121,3.993217468,-5.822410583,-0.112825930,0.137478635,0.992095947
21.072273,-10.086662292,3.878776550,-5.898704529,-0.117464602,0.136135861,0.989044189
21.072898,-9.697563171,3.787223816,-6.318321228,-0.116243899,0.135891721,0.987213135
21.073524,-9.575492859,3.375236511,-6.272544861,-0.120272219,0.137966916,0.982940674
21.074149,-9.163505554,3.695671082,-6.440391541,-0.125155032,0.137478635,0.977691650
21.074775,-9.079582214,3.329460144,-6.577720642,-0.123812258,0.137234494,0.975494385
21.075400,-8.530265808,3.169242859,-6.814231873,-0.123446047,0.137600705,0.967926025
21.076027,-8.331901550,3.192131042,-6.928672791,-0.126131594,0.140164182,0.969390869
21.076652,-7.988578796,2.879325867,-7.027854919,-0.129305422,0.141140744,0.963409424
21.077279,-7.736808777,2.787773132,-7.195701599,-0.130159914,0.142117307,0.957550049
21.077904,-7.813102722,2.703849792,-7.439842224,-0.130770266,0.142361447,0.960357666
21.078529,-7.362968445,2.780143738,-7.767906189,-0.133089602,0.143093869,0.956817627
21.079156,-7.042533875,2.337638855,-7.775535583,-0.135164797,0.146023557,0.955230713
21.079782,-7.027275085,1.940910339,-7.981529236,-0.138094485,0.145046994,0.955108643
21.080408,-6.775505066,1.971427917,-8.263816833,-0.139071047,0.146389768,0.952667236
21.094401,-5.539543152,-2.133186340,-11.834373474,-0.160433352,0.065090939,0.924835205
21.095182,-5.272514343,-2.194221497,-11.819114685,-0.155550539,0.058255006,0.925323486
21.095807,-5.043632507,-2.102668762,-11.964073181,-0.158480227,0.051296998,0.922393799
21.096434,-4.509574890,-2.362068176,-12.124290466,-0.160677493,0.046780396,0.919708252
21.097059,-4.158622742,-2.590950012,-12.009849548,-0.158602297,0.039334107,0.920928955
21.097685,-3.609306335,-3.041084290,-12.215843201,-0.158968508,0.035061646,0.919219971
21.098311,-3.182060242,-3.002937317,-12.261619568,-0.159456789,0.028591920,0.916412354
21.098937,-2.663261414,-3.285224915,-12.284507751,-0.155916750,0.021389771,0.915924072
21.099563,-1.953727722,-3.704841614,-12.154808044,-0.159334719,0.014797973,0.916534424
21.100189,-1.465446472,-3.826911926,-12.185325623,-0.160433352,0.012478638,0.916778564
21.100816,-0.954277039,-4.071052551,-12.215843201,-0.162020266,0.005398559,0.911773682
21.101441,-0.404960632,-4.231269836,-12.101402283,-0.160433352,0.000027466,0.912994385
21.102066,0.319831848,-4.704292297,-12.154808044,-0.160189211,-0.002902222,0.910064697
21.102691,1.006477356,-4.948432922,-12.192955017,-0.156893313,-0.009249878,0.908355713
21.103317,1.471870422,-4.933174133,-12.047996521,-0.160189211,-0.013522339,0.909332275
21.103943,1.998298645,-5.299385071,-12.078514099,-0.162508547,-0.017916869,0.908599854
21.104570,2.646797180,-5.780036926,-11.964073181,-0.156038821,-0.022433471,0.908966064
21.105195,3.280036926,-5.955513000,-12.124290466,-0.159334719,-0.025119018,0.911651611
21.105822,3.760688782,-6.291206360,-11.994590759,-0.164217532,-0.025241088,0.908477783
21.106447,4.515998840,-6.542976379,-11.910667419,-0.160799563,-0.029269408,0.911041260
21.107072,4.874580383,-6.832893372,-11.842002869,-0.163118899,-0.033786010,0.910797119
21.107697,5.545967102,-6.970222473,-11.704673767,-0.160189211,-0.035739135,0.907623291
21.108324,5.782478333,-7.313545227,-11.552085876,-0.162264407,-0.038790893,0.907989502
21.108949,6.369941711,-7.725532532,-11.452903748,-0.165682375,-0.041232299,0.909210205
21.109576,6.598823547,-8.084114075,-11.277427673,-0.163607180,-0.041964721,0.910186768
21.110202,6.926887512,-8.328254700,-11.239280701,-0.165804446,-0.041964721,0.913970947
21.110828,7.315986633,-8.770759583,-11.063804626,-0.161776125,-0.044528197,0.912750244
21.111455,7.583015442,-8.946235657,-11.033287048,-0.162386477,-0.047579955,0.916168213
21.112081,8.109443665,-9.175117493,-11.018028259,-0.162142336,-0.044650268,0.913116455
21.112706,8.025520325,-9.571846008,-10.613670349,-0.160799563,-0.048556518,0.914337158
21.114509,8.414619446,-10.250862122,-10.110130310,-0.155916750,-0.049533080,0.917144775
21.115135,8.582466125,-10.792549133,-10.026206970,-0.152498782,-0.050509643,0.919830322
21.115760,8.689277649,-10.784919739,-9.713401794,-0.153841555,-0.050265502,0.926910400
21.116387,8.681648254,-10.899360657,-9.904136658,-0.149935305,-0.051974487,0.929718018
21.117012,8.704536438,-11.387641907,-9.476890564,-0.143953860,-0.055758666,0.929595947
21.117639,8.574836731,-11.486824036,-9.362449646,-0.141390383,-0.054904174,0.932403564
21.118266,8.719795227,-11.486824036,-9.217491150,-0.141268313,-0.053439330,0.937408447
21.118893,8.422248840,-11.349494934,-9.179344177,-0.130648196,-0.056857299,0.943511963
21.119518,8.193367004,-11.784370422,-8.774986267,-0.128328860,-0.057955932,0.950103760
21.120143,7.842414856,-11.860664368,-8.759727478,-0.126253664,-0.056735229,0.951934814
21.120769,7.651679993,-11.975105286,-8.271446228,-0.123812258,-0.055514526,0.957550049
21.121395,7.659309387,-11.997993469,-8.164634705,-0.115755618,-0.056613158,0.956329346
21.122022,7.041328430,-11.914070129,-7.821311951,-0.111727297,-0.057101440,0.964141846
21.122648,6.492012024,-11.830146790,-7.630577087,-0.111605227,-0.057223510,0.968658447
21.123274,6.263130188,-11.822517395,-7.378807068,-0.103304446,-0.056735229,0.973907471
21.123899,6.003730774,-11.372383118,-7.127037048,-0.097567141,-0.060519408,0.981231689
21.124524,5.591743469,-11.524971008,-6.898155212,-0.096102297,-0.057711791,0.982452393
21.138418,1.517646790,-5.871589661,-1.481285095,-0.028475340,-0.066989139,1.019439697
21.139154,1.761787415,-5.268867493,-1.061668396,-0.020052489,-0.058322143,1.017608643
21.139780,1.944892883,-4.971321106,-0.993003845,-0.019320067,-0.059542846,1.020172119
21.140405,2.196662903,-4.956062317,-0.619163513,-0.019686278,-0.059909057,1.016754150
21.141030,2.555244446,-4.605110168,-0.413169861,-0.017366942,-0.055636596,1.014923096
21.141656,2.921455383,-4.437263489,-0.382652283,-0.013704833,-0.052951049,1.015655518
21.142283,2.982490540,-4.299934387,-0.092735291,-0.014803465,-0.049044799,1.016998291
21.142908,3.348701477,-3.804023743,0.067481995,-0.013216551,-0.048312377,1.017120361
21.143533,3.714912415,-3.765876770,0.113258362,-0.011507567,-0.043795776,1.014923096
21.144159,3.753059387,-3.300483704,0.303993225,-0.008211669,-0.038302612,1.012969971
21.144784,4.332893372,-3.247077942,0.303993225,-0.007113036,-0.037326049,1.013092041
21.145410,4.447334290,-3.224189758,0.700721741,-0.006502684,-0.031710815,1.012603760
21.146035,4.653327942,-2.995307922,0.578651428,-0.008455809,-0.030490112,1.009674072
21.146660,5.156867981,-2.651985168,0.624427795,-0.005770262,-0.028292846,1.008331299
21.147285,5.286567688,-2.644355774,0.822792053,-0.006502684,-0.025363158,1.008819580
21.147910,5.698554993,-2.384956360,1.021156311,-0.002840575,-0.020968627,1.009307861
21.148536,5.782478333,-2.270515442,1.036415100,-0.004305419,-0.019137572,1.007354736
21.149161,5.973213196,-2.041633606,1.250038147,-0.003939208,-0.016329955,1.009429932
21.149786,6.232612610,-1.919563293,1.219520569,-0.005404051,-0.013888550,1.003326416
21.150411,6.583564758,-1.980598450,1.227149963,-0.006990965,-0.010592652,1.004180908
21.151037,6.987922668,-1.667793274,1.204261780,-0.005770262,-0.009982300,1.001617432
21.151663,7.201545715,-1.759346008,1.379737854,-0.002718505,-0.007174683,1.000640869
21.152288,7.506721497,-1.568611145,1.288185120,-0.007357176,-0.007907105,1.000762939
21.152914,7.552497864,-1.492317200,1.288185120,-0.000887450,-0.002780152,1.000396729
21.153539,8.101814270,-1.385505676,1.463661194,-0.003572997,0.000759888,0.996734619
21.154164,8.284919739,-1.194770813,1.456031799,-0.004793700,0.000027466,0.993072510
21.154789,8.788459778,-0.935371399,1.379737854,-0.005892333,0.003079223,0.996734619
21.155414,9.238594055,-0.935371399,1.562843323,-0.004915770,0.003323364,0.995269775
21.156041,9.208076477,-0.805671692,1.616249084,-0.005037840,0.004910278,0.995269775
21.156666,9.757392883,-0.523384094,1.471290588,-0.006746825,0.005886841,0.992218018
21.158455,10.588996887,-0.119026184,1.402626038,-0.013704833,0.011257934,0.985137939
21.159082,11.222236633,-0.393684387,1.532325745,-0.013094481,0.011868286,0.984283447
21.159709,11.474006653,-0.027473450,1.456031799,-0.016390380,0.009793091,0.983917236
21.160335,11.870735168,0.125114441,1.562843323,-0.017489012,0.009426880,0.980621338
21.160960,12.053840637,0.193778992,1.349220276,-0.016756590,0.011502075,0.980621338
21.161585,12.580268860,0.239555359,1.471290588,-0.021151122,0.012356567,0.979034424
21.162210,12.999885559,0.430290222,1.333961487,-0.022249755,0.012722778,0.974884033
21.162835,13.251655579,0.514213562,1.311073303,-0.020418700,0.014431763,0.971832275
21.163462,13.663642883,0.491325378,1.387367249,-0.021639403,0.013088989,0.972198486
21.164087,14.159553528,0.804130554,1.089820862,-0.022982176,0.012722778,0.969390869
21.164713,14.716499329,0.750724792,1.379737854,-0.023958739,0.015286255,0.967193604
21.165339,14.960639954,0.483695984,1.349220276,-0.027132567,0.014187622,0.964263916
21.165965,15.303962708,0.750724792,1.379737854,-0.030916747,0.015530395,0.958038330
21.166590,15.685432434,0.910942078,1.127967834,-0.034212645,0.019436646,0.954742432
21.167217,15.967720032,0.788871765,0.746498108,-0.033358153,0.021267701,0.952301025
21.167842,16.417854309,0.842277527,1.265296936,-0.035921630,0.020779420,0.949005127
21.168468,17.012947083,1.025382996,1.120338440,-0.038851317,0.023220826,0.942901611
21.169093,17.112129211,0.735466003,0.845680237,-0.042513426,0.021511842,0.939483643
21.169720,17.463081360,0.758354187,1.120338440,-0.044222411,0.024929810,0.938140869
21.183768,19.049995422,-4.238899231,-0.207176208,-0.083284914,0.040676881,0.876983643
21.184531,18.988960266,-4.544075012,-0.245323181,-0.088167727,0.038357545,0.874908447
21.185158,18.775337219,-4.818733215,-0.245323181,-0.087435305,0.036892701,0.877960205
21.185784,18.721931458,-5.017097473,-0.298728943,-0.089388430,0.039822388,0.875640869
21.186411,18.424385071,-5.390937805,-0.260581970,-0.090120852,0.041531373,0.874053955
21.187037,18.233650208,-5.657966614,-0.252952576,-0.090364993,0.039944459,0.877960205
21.187663,17.821662903,-5.871589661,-0.428428650,-0.090120852,0.036282349,0.876373291
21.188289,17.859809875,-6.199653625,-0.436058044,-0.090975344,0.037747193,0.876495361
21.188916,17.524116516,-6.344612122,-0.146141052,-0.093660891,0.036404420,0.876251221
21.189541,17.218940735,-6.680305481,-0.436058044,-0.093294680,0.037625123,0.879058838
21.190166,17.173164368,-6.985481262,-0.306358337,-0.095247805,0.036770631,0.876495361
21.190793,16.669624329,-7.244880676,-0.100364685,-0.094271243,0.033840943,0.879547119
21.191418,16.578071594,-7.389839172,-0.413169861,-0.094759524,0.036282349,0.879791260
21.192043,16.158454895,-7.618721008,-0.298728943,-0.095491946,0.035305787,0.878814697
21.192669,16.082160950,-7.992561340,-0.275840759,-0.095980227,0.035305787,0.877105713
21.193295,15.502326965,-7.969673157,-0.458946228,-0.097445071,0.032620240,0.877716064
21.193921,15.410774231,-8.419807434,-0.413169861,-0.098909914,0.030667115,0.877227783
21.194548,15.204780579,-8.839424133,-0.687828064,-0.100985110,0.029568482,0.878692627
21.195174,14.975898743,-8.824165344,-0.375022888,-0.098909914,0.030056763,0.879180908
21.195799,14.632575989,-8.953865051,-0.344505310,-0.098787844,0.028469849,0.879425049
21.196424,14.426582336,-9.182746887,-0.230064392,-0.099398196,0.028713990,0.878936768
21.197049,14.136665344,-9.381111145,-0.176658630,-0.099398196,0.029446412,0.879425049
21.197675,13.839118958,-9.625251770,-0.436058044,-0.102694094,0.030422974,0.878326416
21.198301,13.488166809,-9.899909973,-0.199546814,-0.102572024,0.030300904,0.877105713
21.198926,13.335578918,-10.174568176,-0.146141052,-0.102938235,0.032376099,0.876983643
21.199553,12.984626770,-10.342414856,-0.336875916,-0.106844485,0.028836060,0.879058838
21.200179,12.687080383,-10.548408508,-0.283470154,-0.104769289,0.030911256,0.876739502
21.200805,12.427680969,-10.777290344,-0.199546814,-0.103670657,0.032009888,0.877960205
21.201430,12.046211243,-10.968025208,-0.046958923,-0.100130618,0.032009888,0.879547119
21.202056,11.992805481,-10.975654602,-0.024070740,-0.102938235,0.032986451,0.876007080
21.215960,1.441352844,-13.317878723,0.204811096,-0.106112063,0.073880002,0.912261963
21.216688,0.983589172,-13.127143860,0.342140198,-0.107454836,0.075711057,0.910919189
21.217313,0.396125793,-13.020332336,0.197181702,-0.109774172,0.075955197,0.911773682
21.217938,0.266426086,-13.104255676,0.319252014,-0.111971438,0.074978635,0.914459229
21.218564,0.113838196,-13.188179016,0.128517151,-0.115633547,0.072537228,0.915924072
21.219190,-0.183708191,-13.043220520,-0.176658630,-0.116243899,0.070584103,0.918853760
21.219816,-0.267631531,-13.088996887,-0.146141052,-0.118929446,0.072293088,0.917755127
21.220442,-0.534660339,-13.104255676,-0.031700134,-0.118563235,0.073025510,0.917633057
21.221068,-0.450737000,-13.211067200,-0.390281677,-0.121981204,0.070095822,0.915191650
21.221693,-0.519401550,-13.073738098,-0.230064392,-0.121614993,0.069607541,0.918731689
21.222318,-0.610954285,-13.127143860,-0.375022888,-0.124666750,0.068142697,0.919830322
21.224142,0.007026672,-13.088996887,-0.474205017,-0.127108157,0.061795045,0.916778564
21.224768,-0.023490906,-12.860115051,-0.649681091,-0.127718508,0.063137814,0.916778564
21.225393,0.327461243,-12.974555969,-0.909080505,-0.132479250,0.058499146,0.917022705
21.226019,0.762336731,-13.104255676,-0.809898376,-0.133211672,0.058255006,0.919097900
21.226644,1.349800110,-13.142402649,-0.886192322,-0.133455813,0.059963990,0.921295166
21.227270,1.616828918,-12.997444153,-0.947227478,-0.134554446,0.058621217,0.919586182
21.239903,10.901802063,-12.524421692,-2.885093689,-0.142000735,0.049832154,0.917144775
21.240628,11.138313293,-12.600715637,-2.808799744,-0.146151125,0.050686646,0.917755127
21.241253,11.580818176,-12.600715637,-2.732505798,-0.147738039,0.047756959,0.917144775
21.241880,11.748664856,-12.593086243,-3.014793396,-0.149935305,0.045315553,0.914337158
21.242505,12.221687317,-12.730415344,-2.839317322,-0.150057375,0.047634888,0.916290283
21.244331,13.015144348,-12.615974426,-3.068199158,-0.154451907,0.047268678,0.912750244
21.244957,13.266914368,-12.608345032,-3.236045837,-0.160921633,0.044216920,0.912994385
21.245582,13.228767395,-12.661750793,-3.022422791,-0.164827883,0.044094849,0.910919189
21.246209,13.556831360,-12.379463196,-3.152122498,-0.168489993,0.044338990,0.907257080
21.246834,13.572090149,-12.463386536,-3.335227966,-0.169832766,0.046047974,0.908233643
21.247459,13.686531067,-12.440498352,-3.228416443,-0.174105227,0.041287232,0.906036377
21.248084,14.068000793,-12.623603821,-3.243675232,-0.180330813,0.041775513,0.904937744
21.248709,13.785713196,-12.532051086,-3.220787048,-0.180819094,0.039334107,0.905181885
21.249334,14.083259583,-12.486274719,-3.365745544,-0.184359133,0.039212037,0.903717041
21.249959,13.892524719,-12.738044739,-3.304710388,-0.186068118,0.040554810,0.902130127
21.250584,13.991706848,-12.654121399,-3.518333435,-0.187288821,0.041775513,0.900543213
21.251209,13.953559875,-12.913520813,-3.396263123,-0.188997805,0.039089967,0.902252197
21.251836,13.785713196,-12.692268372,-3.449668884,-0.191805422,0.037503053,0.902130127
21.252461,13.869636536,-12.913520813,-3.480186462,-0.192659914,0.034817506,0.897247314
21.253087,13.907783508,-12.944038391,-3.388633728,-0.198031008,0.030300904,0.895538330
21.253713,13.793342590,-13.165290833,-3.464927673,-0.199007571,0.028347779,0.897369385
21.254339,13.663642883,-13.058479309,-3.381004333,-0.204378664,0.026882935,0.895782471
21.254965,13.610237122,-13.272102356,-3.327598572,-0.202181399,0.024563599,0.895660400
21.255590,13.495796204,-13.363655090,-3.129234314,-0.203402102,0.020657349,0.893585205
21.256216,13.480537415,-13.455207825,-3.228416443,-0.204134524,0.021389771,0.895782471
21.256842,13.503425598,-13.455207825,-3.274192810,-0.203402102,0.017605592,0.894927979
21.257468,13.419502258,-13.752754211,-3.136863708,-0.203524172,0.015286255,0.895172119
21.258093,13.457649231,-13.729866028,-3.182640076,-0.204012454,0.011746216,0.895050049
21.258720,13.358467102,-13.821418762,-3.030052185,-0.205721438,0.008816528,0.894805908
21.259347,13.175361633,-14.057929993,-2.961387634,-0.206453860,0.006497192,0.895538330
21.259973,13.160102844,-14.187629700,-3.007164001,-0.206698000,0.001736450,0.894073486
21.260598,13.327949524,-14.256294250,-2.930870056,-0.204500735,0.001980591,0.893463135
21.261223,13.160102844,-14.347846985,-3.014793396,-0.205599368,-0.001925659,0.895538330
21.261849,13.022773743,-14.538581848,-2.824058533,-0.205111086,-0.003024292,0.900177002
21.262474,13.213508606,-14.553840637,-2.663841248,-0.206209719,-0.004122925,0.902130127
21.264309,13.022773743,-14.843757629,-2.396812439,-0.204622805,-0.011080933,0.900787354
21.264936,13.106697083,-15.072639465,-2.167930603,-0.204744875,-0.015841674,0.906158447
21.265562,13.091438293,-15.209968567,-2.137413025,-0.201082766,-0.014865112,0.906768799
21.266189,13.083808899,-15.286262512,-2.038230896,-0.202547610,-0.017306518,0.907012939
21.266816,13.129585266,-15.118415833,-1.931419373,-0.205111086,-0.015841674,0.911529541
21.267442,13.297431946,-15.187080383,-1.954307556,-0.201937258,-0.020724487,0.910186768
21.268067,13.022773743,-15.248115540,-1.496543884,-0.206209719,-0.021823119,0.910186768
21.268694,13.289802551,-15.400703430,-1.603355408,-0.204622805,-0.024386596,0.913238525
21.269321,13.205879211,-15.339668274,-1.572837830,-0.202303469,-0.021456908,0.913970947
21.269947,13.167732239,-15.415962219,-1.092185974,-0.203524172,-0.023043822,0.915435791
21.270572,13.221138000,-15.461738586,-1.214256287,-0.204500735,-0.024508666,0.919097900
21.271197,13.373725891,-15.415962219,-1.176109314,-0.203402102,-0.023287963,0.918243408
21.285180,10.299079895,-15.042121887,1.189002991,-0.186922610,0.012356567,0.956817627
21.286056,9.841316223,-15.072639465,1.372108459,-0.187410891,0.014797973,0.956207275
21.286682,9.505622864,-14.569099426,1.364479065,-0.186312258,0.019070435,0.961334229
21.287308,9.063117981,-14.996345520,1.288185120,-0.184847414,0.024807740,0.963531494
21.287933,8.628242493,-14.691169739,1.394996643,-0.181307375,0.026760865,0.964385986
21.288559,8.445137024,-14.477546692,1.417884827,-0.179964602,0.027493287,0.969268799
21.289185,7.819526672,-14.378364563,1.723060608,-0.177401125,0.035427857,0.969879150
21.289811,7.064216614,-14.378364563,1.471290588,-0.176912844,0.041165162,0.970123291
21.290438,6.644599915,-14.164741516,1.372108459,-0.173616946,0.041043092,0.975738525
21.291063,6.087654114,-14.141853333,1.410255432,-0.170076907,0.046902467,0.976959229
21.291688,5.751960754,-14.157112122,1.456031799,-0.168978274,0.050808717,0.975738525
21.298891,-2.953178406,-10.830696106,1.158485413,-0.136873782,0.088406369,1.009185791
21.299516,-3.815299988,-10.540779114,0.960121155,-0.131990969,0.089505002,1.009674072
21.300143,-4.677421570,-10.258491516,0.868568420,-0.131136477,0.091458127,1.011627197
21.300768,-5.303031921,-9.945686340,0.754127502,-0.130648196,0.093899533,1.011383057
21.301394,-6.233818054,-9.541328430,0.700721741,-0.135042727,0.094387814,1.015045166
21.302019,-6.798393250,-9.320075989,0.548133850,-0.130526125,0.096218869,1.015411377
21.302646,-7.675773621,-8.831794739,0.571022034,-0.128084719,0.095730588,1.017974854
21.303271,-8.400566101,-8.358772278,0.494728088,-0.130648196,0.092434689,1.015777588
21.305160,-10.155326843,-7.565315247,0.296363831,-0.131990969,0.088162228,1.014923096
21.305785,-10.903007507,-7.328804016,0.143775940,-0.134432375,0.089138791,1.017242432
21.306411,-11.231071472,-7.092292786,0.014076233,-0.132845461,0.083889768,1.011993408
21.307036,-11.688835144,-6.787117004,0.090370178,-0.137362063,0.084744260,1.008575439
21.307662,-11.932975769,-6.359870911,-0.077476501,-0.135408938,0.081936643,1.009552002
21.308287,-12.207633972,-6.222541809,-0.184288025,-0.135775149,0.082791135,1.004913330
21.308914,-12.726432800,-6.039436340,-0.428428650,-0.138948977,0.076931760,1.003692627
21.309539,-12.886650085,-5.955513000,-0.382652283,-0.139803469,0.078640744,1.003692627
21.310164,-13.161308289,-5.497749329,-0.596275330,-0.136507571,0.073513791,1.000518799
21.310791,-13.405448914,-5.451972961,-0.504722595,-0.140902102,0.070462033,0.999542236
21.311416,-13.344413757,-5.383308411,-0.558128357,-0.141146243,0.069363400,0.994781494
21.312043,-13.382560730,-5.078132629,-0.466575623,-0.147005618,0.066311643,0.993438721
21.312668,-13.237602234,-4.895027161,-0.703086853,-0.143465579,0.064114377,0.992828369
21.313293,-13.374931335,-4.818733215,-0.733604431,-0.147493899,0.066189572,0.990631104
21.313918,-13.359672546,-4.765327454,-1.061668396,-0.145784914,0.063626096,0.987579346
21.314544,-13.107902527,-4.559333801,-0.741233826,-0.144075930,0.062527463,0.986480713
21.315170,-13.001091003,-4.521186829,-1.023521423,-0.146517336,0.064236447,0.985748291
21.315796,-12.840873718,-4.551704407,-0.931968689,-0.147615969,0.061184693,0.981842041
21.316422,-12.802726746,-4.399116516,-1.137962341,-0.147005618,0.060208131,0.984405518
21.317048,-12.550956726,-4.032905579,-1.229515076,-0.148348391,0.061917115,0.983551025
21.317673,-12.566215515,-4.299934387,-1.252403259,-0.148958743,0.060696412,0.981719971
21.318299,-12.207633972,-4.208381653,-1.374473572,-0.148958743,0.060330201,0.978302002
21.318924,-11.856681824,-3.918464661,-1.458396912,-0.148592532,0.058255006,0.978546143
21.319549,-11.795646667,-3.979499817,-1.511802673,-0.146761477,0.065090939,0.977325439
21.320174,-11.856681824,-4.093940735,-1.290550232,-0.148470461,0.059475709,0.978912354
21.320799,-11.307365417,-3.903205872,-1.458396912,-0.148714602,0.060818482,0.976715088
21.321424,-11.330253601,-3.926094055,-1.481285095,-0.142122805,0.062771603,0.976959229
21.322051,-11.032707214,-3.742988586,-1.427879333,-0.143953860,0.064114377,0.978668213
21.322678,-11.147148132,-3.987129211,-1.710166931,-0.145784914,0.060818482,0.979766846
21.336699,-5.127555847,-3.704841614,-2.450218201,-0.151522219,0.027127076,0.967803955
21.337437,-4.746086121,-3.666694641,-2.190818787,-0.150667727,0.027981568,0.967681885
21.338064,-4.204399109,-3.674324036,-2.450218201,-0.149813235,0.024807740,0.969390869
21.338689,-3.876335144,-3.536994934,-2.488365173,-0.150667727,0.021023560,0.967926025
21.339314,-3.311759949,-3.628547668,-2.297630310,-0.150667727,0.017239381,0.971466064
21.339940,-2.052909851,-3.491218567,-2.427330017,-0.146151125,0.015408325,0.969512939
21.340565,-1.671440125,-3.575141907,-2.457847595,-0.147615969,0.010525513,0.971832275
21.341190,-1.076347351,-3.437812805,-2.297630310,-0.151278079,0.009548950,0.974639893
21.341816,-0.465995789,-3.376777649,-2.381553650,-0.149202883,0.010891723,0.972808838
21.342442,0.205390930,-3.170783997,-2.251853943,-0.147615969,0.010037231,0.974151611
21.343067,0.655525208,-3.338630676,-2.251853943,-0.146761477,0.006741333,0.973297119
21.343693,1.212471008,-3.338630676,-2.228965759,-0.148226321,0.006497192,0.977081299
21.344319,1.494758606,-3.292854309,-2.213706970,-0.147982180,0.006497192,0.978302002
21.344945,2.082221985,-3.254707336,-2.465476990,-0.145906985,0.004666138,0.981231689
21.345570,2.715461731,-3.193672180,-2.267112732,-0.147249758,0.003689575,0.980621338
21.346196,3.280036926,-2.949531555,-2.099266052,-0.145540774,0.002468872,0.980377197
21.346821,3.730171204,-3.010566711,-2.267112732,-0.146029055,0.002713013,0.985382080
21.347447,4.279487610,-2.835090637,-2.297630310,-0.144198000,0.003201294,0.984771729
21.348072,4.714363098,-2.865608215,-2.221336365,-0.147860110,0.002590942,0.984893799
21.348699,5.019538879,-2.568061829,-2.213706970,-0.148470461,-0.000216675,0.987701416
21.349324,5.431526184,-2.445991516,-2.022972107,-0.146517336,0.001492309,0.986968994
21.349949,5.782478333,-2.461250305,-2.091636658,-0.146029055,-0.000582886,0.988067627
21.350576,6.179206848,-2.560432434,-1.923789978,-0.145784914,0.002590942,0.988922119
21.351203,6.781929016,-2.293403625,-1.961936951,-0.145784914,-0.003390503,0.988555908
21.351829,6.865852356,-2.064521790,-1.885643005,-0.145906985,-0.001437378,0.991119385
21.352455,7.384651184,-2.003486633,-1.824607849,-0.144930422,0.000393677,0.991973877
21.353082,7.521980286,-1.713569641,-1.961936951,-0.146395266,-0.001681519,0.992462158
21.353709,7.636421204,-1.705940247,-1.977195740,-0.146761477,0.001614380,0.993804932
21.354335,8.132331848,-1.637275696,-1.672019958,-0.147005618,0.001614380,0.994171143
21.354961,8.292549133,-1.454170227,-1.801719666,-0.146151125,0.001614380,0.996002197
21.356750,8.818977356,-1.217658997,-1.816978455,-0.144320071,0.004666138,0.996368408
21.357375,8.704536438,-1.148994446,-1.633872986,-0.145906985,0.006497192,0.996124268
21.358004,9.154670715,-1.019294739,-1.588096619,-0.140047610,0.005886841,0.997222900
21.358629,9.200447083,-0.775154114,-1.359214783,-0.144198000,0.005032348,0.995269775
21.359254,9.154670715,-0.531013489,-1.420249939,-0.147005618,0.004177856,0.997589111
21.359879,9.383552551,-0.370796204,-1.282920837,-0.143587649,0.006497192,1.000640869
21.360505,9.414070129,-0.355537415,-1.504173279,-0.141634524,0.006741333,0.999908447
21.361131,9.093635559,-0.073249817,-1.076927185,-0.138948977,0.007107544,1.000396729
21.361756,9.368293762,0.071708679,-1.237144470,-0.141146243,0.005398559,1.003082275
21.362382,9.391181946,0.323478699,-1.298179626,-0.137362063,0.004666138,0.999908447
21.363007,9.345405579,0.621025085,-1.099815369,-0.136629641,0.007107544,1.002716064
21.363634,9.276741028,0.880424500,-1.145591736,-0.140657961,0.006497192,1.000762939
21.364259,9.238594055,1.040641785,-1.122703552,-0.137606204,0.009793091,1.005035400
21.364884,9.032600403,1.132194519,-0.993003845,-0.135164797,0.009548950,1.003936768
21.365510,8.902900696,1.742546082,-0.931968689,-0.134554446,0.013821411,1.001129150
21.366136,8.574836731,1.940910339,-0.771751404,-0.134066164,0.014431763,1.005279541
21.366761,8.460395813,2.391044617,-0.642051697,-0.134798586,0.019802857,1.003204346
21.367387,8.017890930,2.398674011,-0.550498962,-0.136507571,0.024807740,1.003814697
21.381395,0.075691223,6.343070984,0.693092346,-0.138338625,0.048977662,0.995269775
21.382142,-0.290519714,6.732170105,0.677833557,-0.139193118,0.052151490,0.994171143
21.382767,-0.641471863,6.884757996,0.891456604,-0.136019289,0.050442506,0.994049072
21.383393,-1.053459167,6.968681335,0.754127502,-0.135286868,0.052761842,0.994293213
21.384019,-1.457817078,7.060234070,0.792274475,-0.134676516,0.054470826,0.996978760
21.384644,-1.694328308,7.357780457,0.830421448,-0.137239993,0.055569459,0.994659424
21.385269,-2.174980164,7.388298035,0.929603577,-0.128695071,0.054348756,0.994537354
21.385894,-2.487785339,7.670585632,0.838050842,-0.130037844,0.054592896,0.998443604
21.386519,-2.915031433,7.945243835,0.952491760,-0.129305422,0.058499146,0.997467041
21.387145,-3.059989929,8.181755066,0.799903870,-0.131502688,0.057766724,0.998931885
21.387770,-3.510124207,8.486930847,1.074562073,-0.125643313,0.061550904,0.999053955
21.388395,-3.868705750,8.921806335,1.089820862,-0.130281985,0.060818482,0.999542236
21.389020,-4.067070007,8.982841492,1.112709045,-0.133455813,0.061306763,0.997833252
21.389690,-4.532463074,9.242240906,1.051673889,-0.134188235,0.063015744,1.002349854
21.390317,-4.532463074,9.471122742,0.906715393,-0.134066164,0.059841920,1.000152588
21.390943,-4.883415222,9.547416687,1.028785706,-0.136385500,0.060940553,0.996856689
21.391568,-5.119926453,9.524528503,0.960121155,-0.139071047,0.058743287,0.998443604
21.392195,-5.577690125,10.020439148,1.105079651,-0.140169680,0.060208131,0.994537354
21.392820,-5.577690125,9.883110046,0.990638733,-0.140291750,0.061795045,0.997833252
21.393447,-5.608207703,10.142509460,1.105079651,-0.139071047,0.060208131,0.993194580
21.394072,-5.898124695,10.630790710,0.998268127,-0.140657961,0.060574342,0.991851807
21.394698,-6.241447449,10.684196472,1.280555725,-0.144320071,0.061550904,0.986480713
21.395324,-5.905754089,10.729972839,1.112709045,-0.147738039,0.062649533,0.984893799
21.395950,-6.264335632,10.905448914,0.914344788,-0.147127688,0.061550904,0.983062744
21.396575,-5.905754089,11.225883484,0.990638733,-0.150179446,0.061550904,0.979400635
21.397201,-5.989677429,11.225883484,0.975379944,-0.147249758,0.058377076,0.980621338
21.397826,-6.050712585,11.172477722,0.891456604,-0.152620852,0.060696412,0.977569580
21.398452,-5.837089539,11.264030457,0.990638733,-0.152620852,0.059231568,0.971343994
21.399077,-5.730278015,11.401359558,0.830421448,-0.150057375,0.062527463,0.972930908
21.399704,-5.425102234,11.531059265,0.914344788,-0.147249758,0.059231568,0.973297119
21.401482,-5.066520691,11.668388367,0.845680237,-0.150667727,0.055325318,0.970367432
21.402109,-4.692680359,11.782829285,0.891456604,-0.149202883,0.059353638,0.971099854
21.402734,-4.532463074,12.042228699,0.815162659,-0.144808352,0.060208131,0.966949463
21.403361,-4.135734558,12.004081726,0.693092346,-0.144686282,0.063626096,0.966339111
21.403987,-3.883964539,12.034599304,0.860939026,-0.147371829,0.062405396,0.964752197
21.404614,-3.815299988,12.309257507,0.738868713,-0.145174563,0.063626096,0.964874268
21.405239,-3.761894226,12.309257507,0.693092346,-0.143587649,0.060940553,0.961578369
21.405864,-3.388053894,12.332145691,0.647315979,-0.142244875,0.065213010,0.962677002
21.406489,-3.182060242,12.499992371,0.761756897,-0.141268313,0.064358518,0.960723877
21.407115,-3.098136902,12.629692078,0.746498108,-0.139925539,0.068142697,0.964263916
21.407741,-2.785331726,12.751762390,0.708351135,-0.142366946,0.069119260,0.957916260
21.408366,-2.480155945,12.744132996,0.517616272,-0.141512454,0.063992307,0.958282471
21.408991,-2.487785339,12.767021179,0.540504456,-0.139315188,0.063748166,0.958160400
21.409617,-2.121574402,12.980644226,0.700721741,-0.142244875,0.061550904,0.958526611
21.410242,-2.167350769,13.156120300,0.670204163,-0.142489016,0.063626096,0.955108643
21.410868,-2.030021667,13.354484558,0.502357483,-0.141878664,0.066189572,0.950103760
21.411493,-1.579887390,13.209526062,0.479469299,-0.144564211,0.065213010,0.949981689
21.412119,-1.412040710,13.423149109,0.433692932,-0.146151125,0.060818482,0.950958252
21.426051,11.313789368,10.752861023,0.624427795,-0.174593508,-0.029757690,0.918243408
21.426792,12.618415833,10.516349792,0.303993225,-0.172640383,-0.031466674,0.921173096
21.427417,13.457649231,10.478202820,0.540504456,-0.173494875,-0.035006713,0.922882080
21.428043,14.327400208,10.066215515,0.448951721,-0.178865969,-0.039523315,0.920562744
21.428669,15.410774231,9.982292175,0.433692932,-0.174227297,-0.040377807,0.923736572
21.429294,16.463630676,9.898368835,0.868568420,-0.176668704,-0.043307494,0.927398682
21.429920,17.531745911,9.829704285,0.777015686,-0.175081789,-0.045260619,0.927886963
21.430545,18.576972961,9.463493347,0.616798401,-0.173494875,-0.047946166,0.928619385
21.431170,19.568794250,9.928886414,1.013526917,-0.176424563,-0.048678588,0.930816650
21.431795,20.522468567,9.387199402,1.028785706,-0.174959719,-0.050631713,0.932281494
21.432421,21.315925598,9.211723328,1.272926331,-0.173006594,-0.050265502,0.935699463
21.433047,22.223823547,9.387199402,1.219520569,-0.173861086,-0.048678588,0.935943604
21.433674,22.994392395,9.417716980,1.448402405,-0.174471438,-0.049044799,0.938018799
21.434301,23.993843079,9.211723328,1.570472717,-0.176058352,-0.048678588,0.937286377
21.434926,24.916999817,9.127799988,1.555213928,-0.177279055,-0.049166869,0.940826416
21.435553,25.451057434,9.333793640,1.868019104,-0.178255618,-0.045870971,0.937408447
21.436371,25.969856262,9.120170593,1.791725159,-0.177034914,-0.046115112,0.939483643
21.437006,26.412361145,9.089653015,1.913795471,-0.176668704,-0.042330932,0.945098877
21.437632,26.984565735,9.082023621,2.104530334,-0.175448000,-0.041110229,0.944122314
21.438258,27.442329407,9.104911804,2.508888245,-0.174593508,-0.041110229,0.943023682
21.438883,27.747505188,8.937065125,2.447853088,-0.177156985,-0.038912963,0.944244385
21.439510,28.052680969,8.914176941,2.592811584,-0.176790774,-0.033419799,0.945831299
21.440135,28.388374329,9.135429382,2.859840393,-0.174959719,-0.031588744,0.942901611
21.440761,28.525703430,9.036247253,2.737770081,-0.177401125,-0.026583862,0.947906494
21.441387,28.426521301,8.944694519,2.928504944,-0.173739016,-0.021334838,0.941558838
21.442013,28.396003723,8.898918152,3.058204651,-0.173739016,-0.013766480,0.944488525
21.442639,28.281562805,8.837882996,3.248939514,-0.176546633,-0.010592652,0.944366455
21.443265,28.190010071,8.654777527,3.409156799,-0.173983157,-0.004733277,0.944122314
21.443892,27.869575500,9.059135437,3.615150452,-0.173494875,0.000759888,0.946807861
21.444517,27.587287903,8.876029968,3.561744690,-0.172152102,0.006741333,0.949005127
21.446313,25.840156555,8.860771179,4.217872620,-0.166048586,0.018704224,0.947784424
21.446940,25.580757141,8.868400574,4.019508362,-0.161165774,0.022976685,0.949371338
21.447565,24.436347961,8.776847839,4.446754456,-0.161165774,0.028225709,0.951690674
21.448190,23.612373352,9.150688171,4.431495667,-0.158724368,0.036770631,0.953521729
21.448815,22.719734192,9.181205750,4.484901428,-0.156893313,0.040921021,0.957550049
21.449441,21.849983215,9.288017273,4.629859924,-0.152742922,0.046780396,0.959136963
21.450066,20.888679504,9.425346375,4.942665100,-0.154573977,0.051052857,0.958160400
21.450693,19.812934875,9.555046082,5.003700256,-0.149447024,0.056057740,0.960235596
21.451320,18.607490540,9.577934265,5.095252991,-0.148714602,0.060208131,0.964630127
21.451945,17.226570129,9.684745789,5.209693909,-0.148104250,0.062893674,0.966094971
21.452570,16.555183411,9.654228210,5.347023010,-0.147127688,0.066311643,0.969146729
21.453197,15.128486633,9.959403992,5.636940002,-0.146029055,0.068264768,0.969024658
21.453822,13.884895325,10.241691589,5.659828186,-0.143099368,0.071926877,0.972808838
21.454448,12.397163391,10.379020691,5.820045471,-0.145662844,0.075344846,0.972686768
21.455074,11.199348450,10.592643738,6.003150940,-0.142122805,0.078274533,0.977569580
21.455699,9.940498352,10.775749207,6.094703674,-0.142244875,0.080105588,0.980010986
21.456324,8.567207336,10.859672546,6.170997620,-0.142122805,0.082913205,0.976837158
21.456950,7.598274231,11.309806824,6.201515198,-0.144320071,0.081814572,0.977691650
21.470904,-7.271415710,11.950675964,8.246192932,-0.142122805,0.094998166,0.958648682
21.471673,-7.462150574,11.920158386,8.002052307,-0.141024172,0.096340939,0.958770752
21.472299,-7.202751160,11.973564148,7.895240784,-0.142611086,0.101956174,0.955841064
21.472925,-7.240898132,11.729423523,8.169898987,-0.139315188,0.106350705,0.958648682
21.473552,-7.065422058,11.553947449,8.116493225,-0.137484133,0.108181760,0.957305908
21.474178,-7.050163269,11.492912292,8.208045959,-0.141024172,0.108792111,0.959381104
21.474804,-6.867057800,11.256401062,8.253822327,-0.135653079,0.112698361,0.958038330
21.475430,-7.027275085,11.210624695,7.956275940,-0.134920657,0.119290158,0.957305908
21.476056,-6.661064148,11.088554382,8.192787170,-0.134310305,0.123074338,0.956939697
21.476683,-6.668693542,11.149589539,7.941017151,-0.132845461,0.126492307,0.959381104
21.477309,-6.432182312,10.852043152,8.093605042,-0.133944094,0.129788205,0.958282471
21.477936,-6.241447449,10.546867371,8.047828674,-0.132601321,0.133694455,0.957550049
21.478562,-6.348258972,10.478202820,8.063087463,-0.130648196,0.135769650,0.956939697
21.479187,-5.982048035,10.295097351,7.925758362,-0.133944094,0.140286252,0.954620361
21.479814,-6.012565613,10.157768250,7.742652893,-0.129305422,0.143460080,0.955718994
21.480440,-5.592948914,10.012809753,7.612953186,-0.128450930,0.144192502,0.951934814
21.481066,-5.722648621,9.677116394,7.666358948,-0.131380618,0.146755978,0.950714111
21.481691,-5.219108582,9.509269714,7.521400452,-0.126864016,0.156277463,0.950592041
21.482316,-5.043632507,9.280387878,7.513771057,-0.125277102,0.154446408,0.948028564
21.482942,-4.822380066,9.082023621,7.353553772,-0.122225344,0.159085080,0.949615479
21.483567,-4.730827332,8.746330261,7.254371643,-0.120516360,0.161892697,0.945343018
21.484192,-4.379875183,8.731071472,7.117042542,-0.118685305,0.165310666,0.947418213
21.484818,-4.395133972,8.555595398,7.040748596,-0.115877688,0.169583127,0.946319580
21.485445,-3.929740906,8.280937195,6.941566467,-0.114534914,0.172390744,0.946075439
21.486072,-3.761894226,8.174125671,6.834754944,-0.110872805,0.176419064,0.943511963
21.486697,-3.517753601,8.013908386,6.674537659,-0.109163821,0.178005978,0.945709229
21.487324,-3.464347839,7.983390808,6.422767639,-0.108919680,0.179348752,0.946075439
21.487949,-3.403312683,7.617179871,6.346473694,-0.107454836,0.189236447,0.945098877
21.488575,-3.159172058,7.182304382,6.201515198,-0.108065188,0.189480588,0.944732666
21.489201,-2.991325378,7.266227722,6.140480042,-0.101717532,0.194973752,0.946197510
21.490965,-2.609855652,6.846611023,5.659828186,-0.103548586,0.202297971,0.943878174
21.491590,-2.487785339,6.877128601,5.629310608,-0.106234133,0.205960080,0.947418213
21.492215,-2.426750183,6.533805847,5.301246643,-0.106844485,0.207669064,0.950592041
21.492842,-2.602226257,6.289665222,4.889259338,-0.102449954,0.207424924,0.949005127
21.493468,-2.525932312,6.274406433,4.874000549,-0.105257571,0.208035275,0.947174072
21.494093,-2.388603210,6.060783386,4.858741760,-0.102938235,0.211575314,0.950958252
21.494719,-2.289421082,5.953971863,4.309425354,-0.103304446,0.214627072,0.950469971
21.495344,-2.121574402,5.709831238,4.294166565,-0.101839602,0.215359494,0.950225830
21.495969,-2.159721375,5.648796082,4.042396545,-0.102572024,0.215847775,0.951812744
21.496594,-2.068168640,5.343620300,3.828773499,-0.102572024,0.216458127,0.955352783
21.497221,-2.022392273,5.458061218,3.683815002,-0.105501711,0.217678830,0.952789307
21.497846,-1.892692566,5.152885437,3.584632874,-0.106600344,0.214016721,0.952423096
21.498471,-1.839286804,4.969779968,3.409156799,-0.104647219,0.217312619,0.954376221
21.499097,-1.900321960,4.969779968,2.959022522,-0.103792727,0.213772580,0.953277588
21.499722,-1.701957703,4.634086609,2.798805237,-0.105135500,0.212307736,0.955108643
21.500349,-1.465446472,4.450981140,2.562294006,-0.106844485,0.211697385,0.955841064
21.500975,-1.190788269,4.397575378,2.486000061,-0.102449954,0.210720822,0.953155518
21.501600,-1.099235535,4.252616882,2.173194885,-0.104036868,0.206082150,0.954498291
21.502227,-0.809318542,3.886405945,2.127418518,-0.104891360,0.207302853,0.952911377
21.516121,11.947029114,-3.498847961,-2.244224548,-0.129671633,0.136502072,0.947906494
21.516841,12.282722473,-3.590400696,-2.328147888,-0.129549563,0.133328244,0.947540283
21.517466,13.228767395,-4.177864075,-2.572288513,-0.131136477,0.131497189,0.951202393
21.518092,13.488166809,-4.330451965,-2.717247009,-0.134310305,0.130398557,0.953033447
21.518719,14.258735657,-4.948432922,-2.778282166,-0.133577883,0.131008908,0.957427979
21.519345,14.716499329,-5.131538391,-2.969017029,-0.137606204,0.129177853,0.960723877
21.519972,15.044563293,-5.749519348,-2.969017029,-0.136263430,0.127224728,0.961700439
21.520598,15.685432434,-5.963142395,-3.098716736,-0.141634524,0.126370236,0.963897705
21.521225,15.807502747,-6.199653625,-3.144493103,-0.141756594,0.127102658,0.968414307
21.521850,16.250007629,-6.542976379,-3.388633728,-0.142489016,0.126736447,0.971832275
21.522476,16.486518860,-7.000740051,-3.419151306,-0.146761477,0.125881955,0.977203369
21.523102,16.631477356,-7.122810364,-3.213157654,-0.143831789,0.124417111,0.981475830
21.523729,17.028205872,-7.489021301,-3.449668884,-0.148348391,0.126248166,0.982208252
21.524355,17.081611633,-7.748420715,-3.602256775,-0.149691164,0.121731564,0.987457275
21.524980,17.150276184,-7.832344055,-3.617515564,-0.152864993,0.118801877,0.993072510
21.525606,17.356269836,-8.129890442,-3.663291931,-0.152498782,0.118313596,0.997589111
21.526233,17.333381653,-8.244331360,-3.854026794,-0.157991946,0.117703244,0.997222900
21.526859,17.165534973,-8.610542297,-3.739585876,-0.159334719,0.113186643,1.004791260
21.527485,17.295234680,-8.808906555,-3.709068298,-0.159090579,0.111111447,1.002471924
21.528110,17.257087708,-9.007270813,-3.808250427,-0.162996829,0.109890744,1.006866455
21.528735,16.913764954,-8.930976868,-3.800621033,-0.165560305,0.105007932,1.009674072
21.529362,17.005317688,-9.396369934,-3.838768005,-0.170931399,0.106350705,1.015533447
21.529987,16.852729797,-9.762580872,-3.861656189,-0.168856204,0.101223752,1.013946533
21.530614,16.654365540,-9.907539368,-3.800621033,-0.172274172,0.101712033,1.020660400
21.531239,16.364448547,-10.151679993,-3.663291931,-0.175325930,0.098416135,1.021636963
21.531866,16.227119446,-10.296638489,-3.739585876,-0.173128664,0.101223752,1.020660400
21.532492,16.089790344,-10.525520325,-3.716697693,-0.169588625,0.100369260,1.023468018
21.533119,15.776985168,-10.807807922,-3.670921326,-0.172762454,0.098904416,1.025787354
21.533746,15.487068176,-10.945137024,-3.686180115,-0.173616946,0.096340939,1.024078369
21.534371,15.227668762,-11.265571594,-3.457298279,-0.170931399,0.096340939,1.028106689
21.536191,14.449470520,-11.929328918,-3.411521912,-0.166048586,0.096829221,1.032379150
21.536817,13.877265930,-11.997993469,-3.266563416,-0.164095461,0.102322385,1.033355713
21.537444,13.427131653,-12.211616516,-3.205528259,-0.159456789,0.104519650,1.032745361
21.538071,12.793891907,-12.486274719,-3.113975525,-0.156282961,0.102932736,1.037872314
21.538696,12.420051575,-12.677009583,-3.068199158,-0.152620852,0.106106564,1.044342041
21.539321,11.680000305,-12.844856262,-2.877464294,-0.146639407,0.108547971,1.046295166
21.539948,11.016242981,-13.066108704,-2.778282166,-0.145052493,0.110989377,1.050811768
21.540574,10.306709290,-13.111885071,-2.740135193,-0.136751711,0.116360471,1.058868408
21.541199,9.482734680,-13.249214172,-2.671470642,-0.131258547,0.119778439,1.061676025
21.541825,8.651130676,-13.249214172,-2.404441833,-0.125887454,0.124905393,1.065704346
21.549049,-6.226188660,-11.914070129,-1.191368103,-0.057894286,0.182156369,1.141998291
21.549675,-7.576591492,-11.601264954,-1.061668396,-0.055697020,0.184231564,1.147857666
21.550302,-9.102470398,-11.425788879,-0.985374451,-0.053499755,0.187039182,1.150665283
21.550928,-10.422355652,-10.937507629,-1.084556580,-0.050203856,0.195339963,1.154327393
21.551553,-11.917716980,-10.670478821,-1.000633240,-0.048983153,0.199612424,1.156890869
21.552179,-13.069755554,-10.319526672,-1.023521423,-0.043489989,0.199002072,1.160919189
21.552804,-14.565116882,-10.151679993,-0.741233826,-0.041536864,0.199856564,1.163238525
21.566862,-24.254447937,-3.880317688,-2.358665466,-0.050203856,0.195339963,1.176422119
21.567657,-23.430473328,-3.338630676,-3.007164001,-0.056185301,0.194973752,1.172882080
21.568283,-22.827751160,-3.094490051,-2.862205505,-0.057406005,0.192410275,1.173004150
21.568909,-22.453910828,-2.980049133,-3.075828552,-0.059114989,0.194241330,1.172760010
21.569534,-21.774894714,-2.842720032,-3.464927673,-0.059114989,0.193997189,1.171295166
21.570159,-21.050102234,-2.705390930,-3.785362244,-0.062044676,0.195706174,1.169708252
21.570785,-20.638114929,-2.644355774,-3.846397400,-0.063387454,0.192776486,1.170684814
21.571410,-19.768363953,-2.507026672,-3.983726501,-0.067781985,0.196072385,1.170196533
21.572035,-19.104606628,-2.430732727,-4.502525330,-0.070345461,0.196682736,1.171905518
21.572661,-18.662101746,-2.178962708,-4.472007751,-0.072542727,0.197048947,1.169952393
21.573287,-17.746574402,-2.270515442,-4.723777771,-0.075106204,0.198147580,1.172515869
21.573914,-16.960746765,-1.942451477,-4.845848083,-0.074007571,0.196804807,1.169219971
21.574540,-15.862113953,-1.988227844,-5.219688416,-0.077059329,0.198391721,1.171661377
21.575165,-15.556938171,-1.995857239,-5.433311462,-0.079989016,0.198635861,1.169342041
21.575791,-14.679557800,-1.759346008,-5.753746033,-0.082674563,0.202053830,1.169342041
21.576417,-13.786918640,-1.858528137,-5.982627869,-0.085115969,0.201443478,1.168731689
21.577043,-13.275749207,-1.705940247,-6.196250916,-0.085726321,0.199856564,1.167266846
21.577669,-12.489921570,-1.545722961,-6.562461853,-0.088900149,0.199856564,1.167388916
21.578294,-11.734611511,-1.309211731,-6.798973083,-0.089144289,0.200222775,1.164581299
21.578919,-11.093742371,-1.339729309,-6.791343689,-0.092440188,0.198025510,1.160919189
21.579544,-10.384208679,-1.225288391,-7.119407654,-0.094759524,0.198635861,1.167266846
21.580169,-9.735710144,-1.484687805,-7.447471619,-0.100008547,0.201321408,1.165679932
21.580795,-8.888847351,-1.324470520,-7.714500427,-0.098909914,0.194607541,1.159698486
21.581420,-8.087760925,-1.156623840,-7.935752869,-0.098177493,0.196438596,1.159576416
21.582046,-7.401115417,-1.004035950,-8.240928650,-0.104647219,0.195339963,1.156280518
21.582673,-6.661064148,-0.965888977,-8.256187439,-0.106478274,0.192532346,1.155670166
21.583298,-5.814201355,-0.943000793,-8.599510193,-0.108553469,0.188137814,1.153472900
21.583924,-5.074150085,-1.019294739,-9.026756287,-0.112581789,0.187771603,1.151763916
21.584550,-4.379875183,-0.881965637,-9.011497498,-0.114290774,0.185330197,1.152130127
21.585177,-3.494865417,-0.996406555,-9.156455994,-0.115023196,0.183010861,1.149566650
21.586971,-1.236564636,-0.744636536,-9.804954529,-0.124666750,0.173367307,1.143218994
21.587596,-0.244743347,-0.828559875,-10.094871521,-0.126131594,0.169949338,1.138214111
21.588221,0.457160950,-0.675971985,-10.384788513,-0.130770266,0.164212033,1.136871338
21.588846,1.494758606,-0.973518372,-10.567893982,-0.133211672,0.162136838,1.133087158
21.589471,2.127998352,-0.904853821,-10.827293396,-0.136263430,0.165310666,1.132720947
21.590097,2.913825989,-0.744636536,-10.911216736,-0.142855227,0.158963010,1.131256104
21.590723,3.630989075,-0.973518372,-10.964622498,-0.141756594,0.153713986,1.125518799
21.591350,4.699104309,-1.332099915,-11.109580994,-0.147615969,0.150662228,1.122344971
21.591976,5.423896790,-1.316841125,-11.346092224,-0.151156008,0.147976682,1.121612549
21.592602,6.347053528,-1.431282043,-11.216392517,-0.154451907,0.147244260,1.118804932
21.593341,7.117622375,-1.522834778,-11.735191345,-0.160067141,0.142361447,1.115875244
21.593967,7.750862122,-1.690681458,-11.895408630,-0.165316164,0.138821408,1.114166260
21.594594,8.674018860,-2.072151184,-11.819114685,-0.166658938,0.136257932,1.112945557
21.595221,9.230964661,-2.209480286,-12.055625916,-0.173006594,0.135403439,1.108795166
21.595847,10.123603821,-2.262886047,-12.032737732,-0.178988039,0.131863400,1.101226807
21.596472,10.787361145,-2.613838196,-12.223472595,-0.182039797,0.131497189,1.099517822
21.597098,11.382453918,-2.949531555,-12.383689880,-0.182406008,0.130276486,1.096954346
21.597724,12.030952454,-3.109748840,-12.490501404,-0.186312258,0.127468869,1.095977783
21.611649,11.870735168,-10.174568176,-12.917747498,-0.187655032,0.119778439,1.104400635
21.612418,11.092536926,-10.304267883,-12.917747498,-0.184969485,0.114041135,1.109039307
21.613043,10.352485657,-10.487373352,-12.788047791,-0.181795657,0.116238400,1.113311768
21.613670,9.681098938,-10.647590637,-12.765159607,-0.174227297,0.114529416,1.114898682
21.614296,9.070747375,-10.815437317,-12.803306580,-0.168856204,0.115017697,1.115020752
21.614921,8.468025208,-11.074836731,-12.521018982,-0.165682375,0.115017697,1.121002197
21.615547,7.560127258,-11.349494934,-12.475242615,-0.159090579,0.112576291,1.123199463
21.616172,6.919258118,-11.257942200,-12.490501404,-0.154940188,0.115628049,1.124786377
21.616798,6.049507141,-11.257942200,-12.330284119,-0.152620852,0.110745236,1.131256104
21.617423,5.286567688,-11.463935852,-12.147178650,-0.147127688,0.113308713,1.132720947
21.618048,4.332893372,-11.372383118,-12.322654724,-0.142122805,0.114651486,1.138092041
21.618674,3.684394836,-11.204536438,-12.192955017,-0.135897219,0.112576291,1.141876221
21.619299,2.791755676,-11.326606750,-12.162437439,-0.131990969,0.110256955,1.143951416
21.619926,1.853340149,-11.196907043,-11.994590759,-0.124788821,0.109280393,1.148590088
21.620553,1.006477356,-11.364753723,-11.712303162,-0.122591555,0.111233518,1.150909424
21.621178,0.266426086,-11.196907043,-11.742820740,-0.116854250,0.109402463,1.155426025
21.621803,-0.420219421,-11.112983704,-11.666526794,-0.110262454,0.109036252,1.160064697
21.622429,-1.152641296,-10.968025208,-11.452903748,-0.104036868,0.110501096,1.161285400
21.623055,-1.839286804,-10.861213684,-11.445274353,-0.104403079,0.107449338,1.168609619
21.623681,-2.907402039,-10.861213684,-11.193504333,-0.101595461,0.107815549,1.168731689
21.624306,-3.693229675,-10.723884583,-11.262168884,-0.097689211,0.109524533,1.172393799
21.624933,-4.242546082,-10.578926086,-11.246910095,-0.096590579,0.106472775,1.177764893
21.625560,-5.028373718,-10.304267883,-11.193504333,-0.094027102,0.107205197,1.178375244
21.626187,-5.852348328,-10.227973938,-10.804405212,-0.093172610,0.108303830,1.180450439
21.626813,-6.378776550,-9.983833313,-10.911216736,-0.090731204,0.107327268,1.183502197
21.627439,-7.050163269,-10.044868469,-10.865440369,-0.089510500,0.103543088,1.185943604
21.628065,-7.736808777,-9.831245422,-10.651817322,-0.088289797,0.102566525,1.184967041
21.628690,-8.286125183,-9.815986633,-10.728111267,-0.085115969,0.101712033,1.188873291
21.629315,-8.736259460,-9.594734192,-10.567893982,-0.084139407,0.102932736,1.191680908
21.629940,-9.194023132,-9.434516907,-10.483970642,-0.083773196,0.096951291,1.195587158
21.631765,-10.338432312,-8.930976868,-10.400047302,-0.079012454,0.098049924,1.198516846
21.632391,-10.498649597,-8.976753235,-10.339012146,-0.079866946,0.094509885,1.200714111
21.633017,-10.933525085,-8.511360168,-10.430564880,-0.075472414,0.092068478,1.204864502
21.633643,-11.040336609,-8.618171692,-10.110130310,-0.073519289,0.091213986,1.206817627
21.634269,-11.353141785,-8.419807434,-10.102500916,-0.068148196,0.087551877,1.209625244
21.634894,-11.269218445,-8.045967102,-10.415306091,-0.070955813,0.089382932,1.213531494
21.635520,-11.505729675,-8.038337708,-10.247459412,-0.063753664,0.087429807,1.215118408
21.636147,-11.345512390,-7.870491028,-10.201683044,-0.060946044,0.084744260,1.216461182
21.636773,-11.215812683,-7.489021301,-10.308494568,-0.057894286,0.083279416,1.220489502
21.637400,-11.162406921,-7.275398254,-10.155906677,-0.060579833,0.082424924,1.223052979
21.638026,-11.292106628,-7.221992493,-10.308494568,-0.056307372,0.084378049,1.225738525
21.638651,-11.421806335,-6.741340637,-10.232200623,-0.052401122,0.081082150,1.227813721
21.639276,-11.017448425,-6.550605774,-10.201683044,-0.048983153,0.081204221,1.229888916
21.639901,-10.582572937,-6.268318176,-10.117759705,-0.045321044,0.080593869,1.232574463
21.640527,-10.613090515,-6.077583313,-10.247459412,-0.039339598,0.079739377,1.234771729
21.641152,-10.399467468,-5.680854797,-10.285606384,-0.034822997,0.078274533,1.236602783
21.655170,-3.777153015,1.856987000,-9.804954529,0.056241456,0.085476682,1.236236572
21.655947,-3.693229675,2.062980652,-9.560813904,0.059903566,0.083767697,1.235748291
21.656572,-3.441459656,2.543632507,-9.766807556,0.061124269,0.083523557,1.233917236
21.657198,-3.105766296,2.551261902,-9.652366638,0.063809812,0.083889768,1.233062744
21.657824,-2.930290222,3.009025574,-9.484519958,0.065640867,0.087185666,1.228302002
21.658449,-2.686149597,3.222648621,-9.675254822,0.070157468,0.083401486,1.228790283
21.659075,-2.586967468,3.527824402,-9.339561462,0.070401609,0.085598752,1.222930908
21.659702,-2.472526550,3.909294128,-9.492149353,0.071256101,0.082669064,1.218658447
21.660327,-2.136833191,4.199211121,-9.530296326,0.070279539,0.087429807,1.219146729
21.660953,-1.953727722,4.191581726,-9.286155701,0.071988523,0.085354611,1.213287354
21.661579,-1.862174988,4.603569031,-9.324302673,0.070523679,0.083767697,1.210479736
21.662204,-2.045280457,4.725639343,-9.515037537,0.071500242,0.089871213,1.207794189
21.662831,-1.862174988,4.924003601,-9.263267517,0.073453367,0.088406369,1.206085205
21.663457,-1.686698914,5.244438171,-9.301414490,0.073331296,0.088650510,1.203643799
21.664082,-1.633293152,5.404655457,-9.545555115,0.076749265,0.090725705,1.201202393
21.664708,-1.694328308,5.335990906,-9.034385681,0.077847898,0.094876096,1.197052002
21.665333,-1.831657410,5.564872742,-9.080162048,0.073941648,0.091091916,1.193145752
21.665959,-1.694328308,5.671684265,-9.278526306,0.075284421,0.091580197,1.191436768
21.666585,-1.717216492,5.976860046,-9.103050232,0.074674070,0.092068478,1.190460205
21.667210,-2.152091980,6.060783386,-8.912315369,0.071378171,0.093655393,1.182769775
21.667836,-1.930839539,6.365959167,-9.057273865,0.072110593,0.094265744,1.178985596
21.668462,-2.220756531,6.335441589,-8.980979919,0.068448484,0.097683713,1.180084229
21.669087,-2.525932312,6.503288269,-8.927574158,0.070035398,0.097073361,1.174957275
21.669712,-2.495414734,6.663505554,-8.744468689,0.074674070,0.096463010,1.170440674
21.670339,-2.648002625,6.823722839,-8.713951111,0.069791257,0.095730588,1.169586182
21.670965,-2.945549011,6.709281921,-8.820762634,0.067593992,0.095608518,1.165435791
21.671591,-2.815849304,6.694023132,-8.774986267,0.065640867,0.097317502,1.165802002
21.672217,-3.212577820,6.785575867,-8.698692322,0.068082273,0.097195432,1.160797119
21.672842,-3.265983582,6.777946472,-8.774986267,0.064908445,0.095852658,1.159210205
21.673468,-3.372795105,6.869499207,-8.485069275,0.064908445,0.094876096,1.154693604
21.675279,-4.143363953,6.961051941,-8.691062927,0.061734620,0.094754025,1.146270752
21.675906,-4.570610046,6.816093445,-8.553733826,0.058560792,0.095242307,1.144561768
21.676533,-4.555351257,6.938163757,-8.301963806,0.057828370,0.093655393,1.139556885
21.677158,-4.852897644,6.724540710,-8.378257751,0.058316652,0.090359494,1.138946533
21.677784,-5.058891296,6.938163757,-8.385887146,0.055631105,0.089627072,1.137115479
21.678409,-5.386955261,6.877128601,-8.385887146,0.054654542,0.089871213,1.135894775
21.679035,-5.470878601,6.762687683,-8.393516541,0.052091066,0.087429807,1.131378174
21.679661,-5.684501648,6.495658875,-8.256187439,0.053311769,0.087185666,1.128326416
21.680287,-5.470878601,6.671134949,-8.362998962,0.048184816,0.085476682,1.126373291
21.680912,-5.646354675,6.617729187,-8.164634705,0.047818605,0.084866330,1.123809814
21.681538,-5.821830750,6.488029480,-8.042564392,0.047330324,0.085720822,1.124053955
21.682163,-6.020195007,6.243888855,-8.164634705,0.043790285,0.084500119,1.117462158
21.682790,-6.218559265,6.289665222,-7.996788025,0.038785402,0.084378049,1.115142822
21.683417,-5.989677429,6.259147644,-8.111228943,0.040738527,0.081936643,1.111724854
21.684043,-5.921012878,6.159965515,-8.149375916,0.039517824,0.076443478,1.113067627
21.684668,-5.821830750,5.953971863,-8.172264099,0.040860597,0.074490353,1.108917236
21.685294,-6.058341980,5.824272156,-7.996788025,0.034146730,0.076443478,1.105499268
21.685920,-5.745536804,5.770866394,-7.836570740,0.029996339,0.070095822,1.104766846
21.686547,-5.615837097,5.694572449,-7.897605896,0.027188722,0.066677853,1.099639893
21.700466,-3.296501160,3.680412292,-7.539024353,-0.037142333,0.057278443,1.071685791
21.701218,-3.182060242,4.107658386,-7.325401306,-0.042757567,0.058499146,1.069976807
21.701844,-3.281242371,3.848258972,-7.424583435,-0.042879637,0.059719849,1.067901611
21.702469,-3.319389343,3.726188660,-7.333030701,-0.045443114,0.061917115,1.065948486
21.703095,-3.586418152,3.565971375,-7.355918884,-0.049349364,0.063259885,1.063507080
21.703722,-4.021293640,3.443901062,-7.294883728,-0.052523192,0.062771603,1.064239502
21.704349,-4.135734558,3.375236511,-7.279624939,-0.052645262,0.064480588,1.061187744
21.704974,-4.288322449,3.176872253,-7.218589783,-0.057650145,0.061917115,1.059600830
21.705600,-4.418022156,3.337089539,-7.195701599,-0.062044676,0.063870236,1.057891846
21.706226,-4.738456726,2.993766785,-7.233848572,-0.065096438,0.064358518,1.055572510
21.706852,-5.333549500,3.138725281,-7.066001892,-0.070223391,0.065213010,1.052886963
21.707478,-5.585319519,2.947990417,-7.096519470,-0.067537844,0.063626096,1.053253174
21.708103,-6.004936218,2.665702820,-7.058372498,-0.073397219,0.066921994,1.050811768
21.708730,-6.363517761,2.604667664,-7.035484314,-0.076937258,0.064480588,1.050079346
21.709355,-6.828910828,2.589408875,-7.058372498,-0.079989016,0.061428834,1.051910400
21.709981,-7.034904480,2.436820984,-6.821861267,-0.084261477,0.061550904,1.050323486
21.710606,-7.507926941,2.421562195,-6.776084900,-0.084871829,0.060208131,1.047027588
21.711232,-7.858879089,2.299491882,-6.959190369,-0.089022219,0.057034303,1.045196533
21.711857,-8.164054871,2.185050964,-6.776084900,-0.091829836,0.054714967,1.043365479
21.712482,-8.194572449,1.910392761,-6.837120056,-0.092073977,0.054470826,1.044830322
21.713107,-8.637077332,1.979057312,-6.638755798,-0.092196047,0.054714967,1.042999268
21.713734,-9.071952820,1.681510925,-6.547203064,-0.099764407,0.052151490,1.041168213
21.714360,-9.155876160,1.895133972,-6.585350037,-0.100863039,0.049099732,1.039215088
21.714985,-9.728080750,1.803581238,-6.478538513,-0.100985110,0.048245240,1.040069580
21.715610,-9.812004089,1.712028503,-6.470909119,-0.103304446,0.046902467,1.041534424
21.716236,-10.170585632,1.284782410,-6.325950623,-0.105135500,0.042263795,1.039581299
21.716862,-10.292655945,1.681510925,-6.402244568,-0.106234133,0.042996217,1.036895752
21.717487,-10.315544128,1.437370300,-6.173362732,-0.110994875,0.040310670,1.039825439
21.718113,-10.689384460,1.406852722,-6.303062439,-0.110994875,0.037014771,1.039337158
21.718738,-10.925895691,1.361076355,-6.310691833,-0.112215579,0.033230592,1.039459229
21.720580,-11.368400574,1.132194519,-5.936851501,-0.119051516,0.027371217,1.036041260
21.721206,-11.208183289,1.216117859,-5.608787537,-0.121492922,0.025540162,1.036895752
21.721832,-11.566764832,1.147453308,-5.540122986,-0.123934329,0.025784303,1.039947510
21.722457,-11.650688171,1.109306335,-5.463829041,-0.125643313,0.021267701,1.034698486
21.723082,-11.528617859,1.261894226,-5.570640564,-0.126253664,0.021389771,1.035186768
21.723708,-11.658317566,1.071159363,-5.448570251,-0.126986086,0.015286255,1.034210205
21.724333,-11.559135437,1.094047546,-5.234947205,-0.127718508,0.016873170,1.032135010
21.724958,-11.681205750,1.017753601,-5.059471130,-0.128573000,0.012478638,1.032379150
21.725585,-11.726982117,1.048271179,-4.922142029,-0.132967532,0.009426880,1.031158447
21.726210,-11.742240906,1.017753601,-4.754295349,-0.132601321,0.008206177,1.029327393
21.726835,-11.757499695,0.849906921,-4.555931091,-0.137117922,0.002957153,1.028350830
21.727460,-11.757499695,0.842277527,-4.639854431,-0.134676516,-0.001315308,1.029449463
21.728086,-11.543876648,0.895683289,-4.288902283,-0.137850344,0.001614380,1.029205322
21.728712,-11.726982117,0.827018738,-4.250755310,-0.141878664,-0.004977417,1.025543213
21.729339,-11.452323914,0.582878113,-4.113426208,-0.141146243,-0.007540894,1.026275635
21.729966,-11.360771179,0.598136902,-3.968467712,-0.142489016,-0.006198120,1.026519775
21.730593,-11.330253601,0.842277527,-3.869285583,-0.146029055,-0.009371948,1.024932861
21.731218,-11.353141785,0.704948425,-3.815879822,-0.146761477,-0.014376831,1.024932861
21.745225,-5.295402527,1.872245789,1.105079651,-0.189241946,-0.046359252,1.014923096
21.746004,-4.456169128,1.864616394,1.639137268,-0.191195071,-0.044772338,1.013580322
21.746630,-4.028923035,1.895133972,1.616249084,-0.195101321,-0.042453002,1.013214111
21.747255,-3.479606628,2.032463074,1.845130920,-0.196810305,-0.046725463,1.015045166
21.747881,-3.243095398,2.406303406,2.119789124,-0.198275149,-0.045870971,1.014434814
21.748508,-2.609855652,2.429191589,2.325782776,-0.199129641,-0.046847533,1.012115479
21.749134,-2.152091980,2.322380066,2.585182190,-0.198641360,-0.043307494,1.011749268
21.749759,-1.946098328,2.680961609,2.890357971,-0.200960696,-0.042941283,1.013458252
21.750386,-1.221305847,2.726737976,3.004798889,-0.202913821,-0.045382690,1.011505127
21.751013,-0.908500671,2.505485535,3.065834045,-0.200838625,-0.044650268,1.009918213
21.751639,-0.313407898,2.825920105,3.653297424,-0.199495852,-0.043307494,1.006500244
21.752265,0.022285461,2.932731628,3.691444397,-0.204622805,-0.039889526,1.007965088
21.752891,0.464790344,3.070060730,3.844032288,-0.206331789,-0.040866088,1.008453369
21.753517,0.876777649,3.001396179,4.164466858,-0.206087649,-0.039279174,1.010528564
21.754142,1.342170715,3.314201355,4.294166565,-0.206820071,-0.037570190,1.005767822
21.754767,1.632087708,3.314201355,4.614601135,-0.208406985,-0.037203979,1.006744385
21.755393,2.005928040,3.543083191,4.805335999,-0.209383547,-0.034274291,1.006134033
21.756019,2.433174133,3.581230164,5.072364807,-0.209139407,-0.035128783,1.005401611
21.756644,2.883308411,3.611747742,5.247840881,-0.208284914,-0.032321166,1.004302979
21.757270,3.219001770,3.833000183,5.377540588,-0.209505618,-0.030368041,1.002471924
21.757896,3.569953918,4.054252625,5.896339417,-0.209627688,-0.028292846,1.004669189
21.758522,3.707283020,4.321281433,5.713233948,-0.211824954,-0.022189330,1.003448486
21.759148,4.073493958,4.389945984,6.102333069,-0.214876711,-0.021334838,1.001617432
21.759773,4.172676086,4.489128113,6.468544006,-0.212313235,-0.021456908,1.000640869
21.760399,4.523628235,4.481498718,6.659278870,-0.216585696,-0.023165893,0.998931885
21.761024,4.805915833,4.862968445,6.781349182,-0.215364993,-0.017428588,0.996978760
21.761650,5.095832825,4.710380554,6.842384338,-0.218660891,-0.015841674,0.998687744
21.762276,5.217903137,5.046073914,7.254371643,-0.217806399,-0.015353394,0.996978760
21.762901,5.233161926,5.129997253,7.475624084,-0.218538821,-0.011080933,0.998931885
21.763526,5.721443176,5.351249695,7.529029846,-0.220491946,-0.011935425,0.999176025
21.765304,5.919807434,5.931083679,8.085975647,-0.222445071,-0.005953980,0.995880127
21.765930,6.232612610,6.251518250,8.185157776,-0.221468508,-0.004367066,0.994049072
21.766556,6.217353821,6.404106140,8.482704163,-0.223299563,-0.001071167,0.994415283
21.767183,6.423347473,6.518547058,8.803138733,-0.225618899,0.000271606,0.994293213
21.767809,6.614082336,6.907646179,9.016761780,-0.226961672,0.001126098,0.992706299
21.768434,6.636970520,6.976310730,9.146461487,-0.225130618,0.003201294,0.994781494
21.769060,6.827705383,7.380668640,9.291419983,-0.228914797,0.003201294,0.993438721
21.769686,6.865852356,7.495109558,9.650001526,-0.229647219,0.006497192,0.993316650
21.770311,6.842964172,7.838432312,9.619483948,-0.226595461,0.009060669,0.995147705
21.770936,7.369392395,8.090202332,9.672889709,-0.230257571,0.010647583,0.994537354
21.771563,7.239692688,8.479301453,10.100135803,-0.230623782,0.012844848,0.995391846
21.772189,7.209175110,8.731071472,10.039100647,-0.228182375,0.013821411,0.996490479
21.772815,7.453315735,8.776847839,10.313758850,-0.232088625,0.014309692,0.992340088
21.773441,7.514350891,9.288017273,10.374794006,-0.232088625,0.015896607,0.993438721
21.774067,7.926338196,9.494010925,10.428199768,-0.233797610,0.017239381,0.992462158
21.774694,7.720344543,9.722892761,10.802040100,-0.235140383,0.020901490,0.995269775
21.775319,8.078926086,10.104362488,10.748634338,-0.238192141,0.019070435,0.988922119
21.775945,8.200996399,10.424797058,10.962257385,-0.233553469,0.023831178,0.992462158
21.776572,8.574836731,10.920707703,11.015663147,-0.232943118,0.024319459,0.990142822
21.790492,12.427680969,17.176811218,12.770423889,-0.248934329,0.084255978,0.918365479
21.791261,12.488716125,17.733757019,12.648353577,-0.249178469,0.087185666,0.915313721
21.791886,12.374275208,17.695610046,12.663612366,-0.252962649,0.093533322,0.910919189
21.799139,8.765571594,18.801872253,12.778053284,-0.267855227,0.132717893,0.854400635
21.799765,8.139961243,18.939201355,12.701759338,-0.269564211,0.138088986,0.851348877
21.800390,7.705085754,19.084159851,12.625465393,-0.268343508,0.141018674,0.845123291
21.801015,6.888740540,18.870536804,12.717018127,-0.270906985,0.144924924,0.845855713
21.801642,6.461494446,19.000236511,12.785682678,-0.272860110,0.147610471,0.835601807
21.802268,5.660408020,18.901054382,12.800941467,-0.274813235,0.150418088,0.832183838
21.802893,5.141609192,19.030754089,12.610206604,-0.274202883,0.151150510,0.825347900
21.803519,4.515998840,18.840019226,12.953529358,-0.276766360,0.153713986,0.824127197
21.804146,3.569953918,18.687431335,12.648353577,-0.277376711,0.154934689,0.820220947
21.804771,3.142707825,18.634025574,12.808570862,-0.278597414,0.159939572,0.811065674
21.805397,2.425544739,18.504325867,12.694129944,-0.279818118,0.160549924,0.805206299
21.806022,1.662605286,18.382255554,12.686500549,-0.276156008,0.163357541,0.798492432
21.806647,0.968330383,18.199150085,12.587318420,-0.284212649,0.164578244,0.796417236
21.807273,0.380867004,18.061820984,12.892494202,-0.284212649,0.165432736,0.788970947
21.807899,-0.275260925,17.771903992,12.785682678,-0.282747805,0.166897580,0.789215088
21.808525,-0.893241882,17.405693054,12.655982971,-0.283846438,0.168118283,0.781036377
21.809150,-1.762992859,17.604057312,12.846717834,-0.285433352,0.171292111,0.778106689
21.810943,-3.182060242,16.551200867,12.541542053,-0.284823000,0.175076291,0.766387939
21.811568,-3.655082703,16.314689636,12.480506897,-0.284212649,0.176174924,0.764068604
21.812193,-4.105216980,15.940849304,12.671241760,-0.287142336,0.175076291,0.759796143
21.812819,-4.624015808,15.658561707,12.488136292,-0.286776125,0.177273557,0.758697510
21.813445,-5.089408875,15.330497742,12.449989319,-0.287874758,0.174954221,0.758697510
21.814071,-5.371696472,14.880363464,12.251625061,-0.286776125,0.177029416,0.755035400
21.814696,-5.623466492,14.514152527,12.343177795,-0.284578860,0.174099728,0.752349854
21.815321,-5.715019226,13.957206726,12.343177795,-0.284212649,0.181179807,0.748687744
21.815946,-6.172782898,13.705436707,12.465248108,-0.282747805,0.180081174,0.750030518
21.816573,-6.279594421,13.507072449,12.449989319,-0.284334719,0.176419064,0.750396729
21.817200,-6.157524109,12.698356628,12.243995667,-0.284700930,0.177029416,0.749420166
21.817825,-6.394035339,12.355033875,12.060890198,-0.281160891,0.177273557,0.747955322
21.818451,-6.210929871,12.149040222,11.832008362,-0.278231204,0.179714963,0.749542236
21.819076,-6.310112000,11.599723816,11.954078674,-0.277376711,0.178372189,0.750762939
21.819701,-6.134635925,11.355583191,11.725196838,-0.275301516,0.177029416,0.751739502
21.820327,-5.989677429,10.859672546,11.824378967,-0.274813235,0.175686643,0.753692627
21.820952,-5.798942566,10.417167664,11.793861389,-0.271883547,0.176174924,0.756378174
21.821579,-5.386955261,10.150138855,11.702308655,-0.272738039,0.170803830,0.758941650
21.822206,-4.868156433,9.768669128,11.572608948,-0.265169680,0.171780393,0.758575439
21.822831,-4.509574890,9.509269714,11.404762268,-0.266390383,0.172879025,0.758941650
21.823457,-4.006034851,9.059135437,11.183509827,-0.261507571,0.168728635,0.762969971
21.824084,-3.487236023,8.837882996,11.267433167,-0.258455813,0.169216916,0.767364502
21.824709,-2.991325378,8.410636902,11.084327698,-0.258089602,0.170437619,0.770172119
21.825334,-2.106315613,8.166496277,11.107215881,-0.257845461,0.168972775,0.774566650
21.825960,-1.473075867,7.929985046,10.863075256,-0.252962649,0.163967893,0.775299072
21.826585,-0.549919128,7.777397156,10.786781311,-0.251131594,0.170681760,0.777252197
21.827210,0.098579407,7.563774109,10.725746155,-0.248323977,0.167996213,0.779327393
21.827837,0.670783997,7.388298035,10.535011292,-0.242708743,0.168240353,0.782135010
21.841816,21.338813782,5.976860046,6.277809143,-0.200594485,0.196804807,0.813507080
21.842583,21.895759583,5.900566101,6.163368225,-0.197298586,0.198880002,0.814239502
21.843208,22.727363586,5.885307312,5.888710022,-0.197298586,0.201077268,0.816436768
21.843834,22.948616028,6.007377625,5.553016663,-0.196444094,0.200466916,0.814483643
21.844459,23.635261536,5.908195496,5.553016663,-0.192659914,0.205715939,0.812530518
21.845085,24.154060364,6.144706726,5.118141174,-0.192781985,0.203884885,0.813995361
21.845710,24.634712219,6.091300964,4.896888733,-0.192171633,0.204861447,0.817413330
21.846337,24.978034973,6.198112488,4.668006897,-0.191073000,0.210964963,0.813995361
21.846962,25.367134094,6.327812195,4.462013245,-0.191805422,0.209866330,0.814971924
21.847588,25.512092590,6.327812195,4.141578674,-0.187899172,0.211941525,0.812164307
21.848214,25.908821106,6.282035828,3.897438049,-0.188143313,0.213650510,0.817169189
21.848840,26.076667786,6.213371277,3.813514709,-0.190462649,0.214382932,0.811676025
21.849466,26.061408997,6.503288269,3.538856506,-0.190584719,0.214382932,0.810699463
21.850092,26.313179016,6.571952820,3.226051331,-0.186800539,0.221829221,0.814483643
21.850717,26.313179016,6.327812195,2.928504944,-0.187410891,0.220974728,0.812530518
21.851342,26.168220520,6.579582214,2.783546448,-0.189241946,0.220486447,0.809600830
21.851967,26.313179016,6.510917664,2.547035217,-0.187044680,0.222683713,0.805816650
21.852594,26.145332336,6.587211609,2.302894592,-0.184114993,0.221218869,0.809356689
21.853220,26.023262024,6.640617371,2.180824280,-0.185335696,0.221585080,0.808380127
21.853846,25.748603821,6.587211609,1.929054260,-0.183504641,0.224636838,0.805328369
21.854472,25.588386536,6.549064636,1.715431213,-0.178011477,0.223660275,0.802764893
21.855099,24.970405579,6.617729187,1.372108459,-0.175692141,0.223049924,0.799346924
21.855724,24.581306458,6.777946472,1.196632385,-0.178255618,0.224026486,0.798004150
21.856349,24.039619446,6.793205261,0.784645081,-0.179232180,0.224636838,0.799224854
21.856974,23.711555481,6.823722839,0.677833557,-0.174227297,0.223782346,0.796539307
21.857600,23.360603333,6.831352234,0.342140198,-0.177279055,0.224514768,0.794464111
21.858227,22.994392395,6.831352234,0.181922913,-0.175325930,0.227444455,0.794952393
21.858854,22.399299622,6.976310730,0.113258362,-0.173861086,0.225735471,0.793121338
21.859481,21.712654114,6.953422546,-0.077476501,-0.175448000,0.224026486,0.790191650
21.860107,21.285408020,6.816093445,-0.275840759,-0.177034914,0.226101682,0.790435791
21.861874,19.866340637,6.793205261,-0.626792908,-0.173006594,0.227078244,0.785308838
21.862500,18.988960266,6.915275574,-0.931968689,-0.172152102,0.227810666,0.783966064
21.863125,18.325202942,6.892387390,-0.977745056,-0.171663821,0.227932736,0.785064697
21.863750,17.592781067,7.044975281,-1.130332947,-0.172396243,0.226101682,0.779693604
21.864376,16.700141907,6.976310730,-1.313438416,-0.171053469,0.228054807,0.781768799
21.865006,15.952461243,7.090751648,-1.610984802,-0.172762454,0.231961057,0.778472900
21.865647,14.953010559,7.281486511,-1.694908142,-0.172762454,0.232449338,0.778106689
21.866273,13.991706848,7.067863464,-1.748313904,-0.172884524,0.229031369,0.777008057
21.866899,13.228767395,7.136528015,-2.198448181,-0.172396243,0.229275510,0.774322510
21.867526,12.153022766,7.250968933,-2.206077576,-0.173494875,0.231838986,0.773956299
21.868151,11.367195129,7.228080750,-2.526512146,-0.173128664,0.228298947,0.772003174
21.868847,9.086006165,7.029716492,-2.801170349,-0.175325930,0.228543088,0.769195557
21.869592,8.223884583,6.915275574,-2.885093689,-0.174105227,0.231961057,0.765899658
21.870331,7.163398743,6.846611023,-3.030052185,-0.176302493,0.229519650,0.765777588
21.871097,6.263130188,7.090751648,-3.159751892,-0.181673586,0.231106564,0.758087158
21.871827,5.217903137,6.854240417,-3.350486755,-0.178499758,0.232937619,0.758453369
21.872560,2.875679016,6.793205261,-3.899803162,-0.181795657,0.229763791,0.752471924
21.873277,1.815193176,6.594841003,-3.808250427,-0.184359133,0.228298947,0.745391846
21.887488,-14.847404480,-3.002937317,-7.317771912,-0.216707766,0.178982541,0.681793213
21.888213,-15.129692078,-3.758247375,-7.523765564,-0.217562258,0.174954221,0.677398682
21.888838,-15.213615417,-4.330451965,-7.554283142,-0.216951907,0.174832150,0.677398682
21.889465,-15.717155457,-5.131538391,-7.752647400,-0.219393313,0.174221799,0.676300049
21.890092,-15.938407898,-5.856330872,-7.851829529,-0.217440188,0.173977658,0.679840088
21.890717,-16.235954285,-6.344612122,-8.126487732,-0.220980227,0.171902463,0.679473877
21.891343,-16.358024597,-7.267768860,-8.149375916,-0.222567141,0.169583127,0.683624268
21.891969,-16.754753113,-7.992561340,-8.210411072,-0.224642336,0.169094846,0.681915283
21.892594,-16.647941589,-8.694465637,-8.340110779,-0.221102297,0.167996213,0.686431885
21.893219,-16.853935242,-9.266670227,-8.401145935,-0.223665774,0.168484494,0.687652588
21.893845,-16.876823425,-10.243232727,-8.393516541,-0.221590579,0.168362424,0.689971924
21.894470,-17.113334656,-11.006172180,-8.805503845,-0.220247805,0.165188596,0.692779541
21.895095,-17.105705261,-11.616523743,-8.576622009,-0.219637454,0.166775510,0.701568604
