time,gyro x,gyro y,gyro z,accel x,accel y,accel z
16.497099,7.426864624,-6.265747070,3.491966248,-0.079097167,0.101810426,1.010380983
16.506954,6.435043335,-7.051574707,2.736656189,-0.075557128,0.107669801,1.000371218
16.507579,6.412155151,-7.097351074,2.774803162,-0.073848143,0.109989136,0.998051882
16.508204,6.297714233,-7.005798340,2.973167419,-0.075312987,0.111453980,1.001469851
16.508829,6.488449097,-7.257568359,2.744285583,-0.073726073,0.111576051,0.997929811
16.509454,6.488449097,-7.219421387,2.400962830,-0.073604003,0.109012574,0.996831179
16.510080,6.534225464,-7.074462891,2.561180115,-0.075068846,0.111453980,0.998784304
16.510705,6.534225464,-7.272827148,2.408592224,-0.073359862,0.110599488,0.996098757
16.511331,6.709701538,-7.318603516,2.439109802,-0.074336424,0.111453980,0.995854616
16.511958,6.641036987,-7.257568359,2.423851013,-0.073359862,0.106937379,0.995244265
16.512584,6.587631226,-7.326232910,2.172080994,-0.077144042,0.109378785,0.995976686
16.513209,6.816513062,-7.333862305,2.042381287,-0.074824706,0.110355347,0.995244265
16.513836,6.785995483,-7.448303223,2.309410095,-0.076655760,0.111576051,0.994511843
16.514461,6.984359741,-7.402526855,2.141563416,-0.074702635,0.111576051,0.995732546
16.515086,6.938583374,-7.372009277,1.958457947,-0.075312987,0.114261597,0.996831179
16.515712,7.259017944,-7.234680176,1.927940369,-0.074092284,0.111576051,1.000005007
16.516337,7.129318237,-7.555114746,1.920310974,-0.077144042,0.111087769,0.999150515
16.516962,7.060653687,-7.440673828,1.874534607,-0.073726073,0.107913941,0.998418093
16.517587,7.205612183,-7.341491699,1.760093689,-0.075435057,0.110965699,0.997441530
16.518212,7.243759155,-7.036315918,1.844017029,-0.075312987,0.110355347,0.996220827
16.518837,7.335311890,-7.410156250,1.615135193,-0.076533690,0.108402222,0.997441530
16.519464,7.472640991,-7.211791992,1.470176697,-0.073970214,0.110233277,0.997685671
16.520091,7.510787964,-7.410156250,1.607505798,-0.075190917,0.109744996,1.002934694
16.520717,7.617599487,-7.364379883,1.500694275,-0.074458495,0.106204957,1.002080202
16.521344,7.823593140,-7.402526855,1.493064880,-0.071040526,0.106449097,1.003056765
16.521970,7.671005249,-7.280456543,1.439659119,-0.072017089,0.104495972,1.005742311
16.522597,7.526046753,-7.188903809,1.424400330,-0.073848143,0.102176636,1.007085085
16.523222,7.716781616,-7.066833496,1.462547302,-0.075312987,0.103641480,1.008671999
16.523847,7.907516479,-7.112609863,1.401512146,-0.075923339,0.099246949,1.013310671
16.524473,7.732040405,-6.975280762,1.638023376,-0.075923339,0.102054566,1.011357546
16.525099,7.777816772,-6.715881348,1.409141541,-0.078486815,0.103519410,1.012212038
16.526917,8.082992554,-6.837951660,1.416770935,-0.079463378,0.099246949,1.028325319
16.527544,7.907516479,-6.548034668,1.485435486,-0.080684081,0.098270386,1.041020632
16.528171,7.999069214,-6.631958008,1.271812439,-0.075312987,0.099369019,1.051274538
16.528797,7.930404663,-6.563293457,1.393882751,-0.079707518,0.087284058,1.082768679
16.529423,8.052474976,-5.861389160,1.531211853,-0.058589354,0.091800660,1.103520632
16.530049,7.976181030,-5.807983398,1.294700623,-0.072383299,0.086917847,1.081792116
16.530676,8.212692261,-5.144226074,1.523582458,-0.062007323,0.084598511,1.066167116
16.531301,8.113510132,-4.968750000,1.607505798,-0.076167479,0.087039918,1.031621218
16.531927,8.243209839,-5.190002441,1.515953064,-0.078120604,0.098148316,1.028813601
16.532553,8.044845581,-5.022155762,1.500694275,-0.081294432,0.105228394,1.028935671
16.533179,7.472640991,-5.045043945,1.744834900,-0.081660643,0.109134644,1.027592897
16.533805,7.152206421,-5.350219727,1.775352478,-0.077388182,0.108402222,1.030400515
16.534431,6.755477905,-5.113708496,1.493064880,-0.073726073,0.101078004,1.020879030
16.535058,6.610519409,-5.006896973,1.668540955,-0.073848143,0.099613160,1.022099733
16.535683,6.465560913,-4.694091797,1.882164001,-0.077632323,0.097537965,1.022954226
16.536309,6.419784546,-4.915344238,1.920310974,-0.075312987,0.095828980,1.023564577
16.536936,6.091720581,-4.671203613,1.844017029,-0.078608885,0.099491090,1.029301882
16.537562,6.068832397,-4.694091797,1.988975525,-0.080073729,0.098758668,1.033574343
16.551974,8.304244995,-0.932800293,2.103416443,-0.067500487,0.070316285,1.103520632
16.552724,8.693344116,-0.948059082,2.233116150,-0.053462401,0.086795777,1.110356569
16.553349,8.739120483,-0.337707520,2.301780701,-0.060176268,0.079349488,1.093510866
16.553976,9.265548706,-0.108825684,2.431480408,-0.060298339,0.080448121,1.085820436
16.554601,9.112960815,0.005615234,2.210227966,-0.064814940,0.088016480,1.078496218
16.555228,9.799606323,0.013244629,2.256004333,-0.069697753,0.091922730,1.083745241
16.555854,9.524948120,0.471008301,2.233116150,-0.064570799,0.096927613,1.053471804
16.556480,9.700424194,0.348937988,2.256004333,-0.072993651,0.099002808,1.031132936
16.557106,9.700424194,0.310791016,2.530662537,-0.071162596,0.097293824,1.026250124
16.557732,9.776718140,0.104797363,2.187339783,-0.076411620,0.103519410,1.021855593
16.558357,9.326583862,0.265014648,2.172080994,-0.076045409,0.104740113,1.018559694
16.558984,9.395248413,0.280273438,2.225486755,-0.072017089,0.102786988,1.016728640
16.559783,9.105331421,0.463378906,2.370445251,-0.076777831,0.101200074,1.001713991
16.560409,9.036666870,0.341308594,2.408592224,-0.080684081,0.099979371,0.995854616
16.561034,8.884078979,0.112426758,2.500144958,-0.081782714,0.101688355,0.992070436
16.561661,9.151107788,-0.085937500,2.500144958,-0.083491698,0.103397340,0.987065554
16.562286,9.235031128,0.013244629,2.294151306,-0.083979979,0.103519410,0.988042116
16.562911,9.204513550,0.005615234,2.263633728,-0.081782714,0.103153199,0.993046999
16.563538,9.135848999,-0.223266602,2.194969177,-0.077021971,0.099735230,0.995122194
16.564163,9.265548706,-0.208007812,2.439109802,-0.084224120,0.095828980,0.994633913
16.564789,9.181625366,-0.215637207,2.339927673,-0.082515135,0.094486207,0.991338015
16.565415,9.387619019,-0.223266602,2.286521912,-0.084468260,0.094730347,0.995610476
16.566042,9.280807495,-0.459777832,2.202598572,-0.084102049,0.094242066,0.993657351
16.566668,9.257919312,-0.398742676,2.362815857,-0.083979979,0.092655152,0.993901491
16.567294,9.502059937,-0.574218750,2.164451599,-0.084224120,0.090213746,0.993169069
16.567919,9.479171753,-0.383483887,2.294151306,-0.081782714,0.090091676,0.992924929
16.568544,9.730941772,-0.505554199,2.095787048,-0.083003417,0.087161988,0.991215944
16.569169,9.692794800,-0.513183594,2.286521912,-0.082637206,0.089359254,0.988408327
16.569796,9.799606323,-0.482666016,2.263633728,-0.081294432,0.089237183,0.985966921
16.570422,9.715682983,-0.574218750,2.416221619,-0.082637206,0.084720582,0.983891726
16.572203,9.868270874,-0.543701172,2.217857361,-0.079707518,0.086673707,0.981694460
16.572828,9.929306030,-0.627624512,2.492515564,-0.084102049,0.081058472,0.984990358
16.573453,9.952194214,-0.864135742,2.317039490,-0.082393065,0.083499879,0.983525515
16.574080,9.906417847,-0.780212402,2.248374939,-0.082026854,0.081424683,0.981816530
16.574707,10.028488159,-0.940429688,2.339927673,-0.078975096,0.082523316,0.983281374
16.575332,10.051376343,-0.856506348,2.126304626,-0.085688964,0.075443238,0.971806765
16.575958,10.051376343,-0.856506348,2.126304626,-0.085688964,0.075443238,0.971806765
16.576585,10.295516968,-1.115905762,2.362815857,-0.085933104,0.073734254,0.969487429
16.577211,10.295516968,-1.115905762,2.362815857,-0.085933104,0.073734254,0.969487429
16.577836,10.203964233,-0.787841797,2.423851013,-0.082026854,0.072513551,0.966801882
16.578463,10.242111206,-1.207458496,2.263633728,-0.086665526,0.075199097,0.964970827
16.579088,10.242111206,-1.230346680,2.461997986,-0.089106932,0.075199097,0.964848757
16.579715,10.470993042,-1.405822754,2.431480408,-0.084590331,0.072269410,0.963505983
16.580340,10.028488159,-1.199829102,2.393333435,-0.086909667,0.071170777,0.960698366
16.580965,9.952194214,-1.520263672,2.553550720,-0.089106932,0.071170777,0.956303835
16.581591,10.028488159,-1.695739746,2.492515564,-0.089473143,0.070072144,0.955571413
16.582218,9.654647827,-1.611816406,2.454368591,-0.089229003,0.069217652,0.955571413
16.582843,9.364730835,-1.901733398,2.690879822,-0.091670409,0.073001832,0.950078249
16.583469,9.601242065,-1.947509766,2.828208923,-0.092158690,0.073612183,0.946904421
16.599424,5.855209351,-5.754577637,3.446189880,-0.090693846,0.088138551,0.942876101
16.600175,6.145126343,-5.792724609,3.537742615,-0.090083495,0.090091676,0.944463015
16.600802,5.672103882,-6.311523438,3.697959900,-0.088496581,0.090702027,0.943242311
16.601429,5.656845093,-6.433593750,3.446189880,-0.088618651,0.093021363,0.950932741
16.602054,5.786544800,-6.410705566,3.385154724,-0.088618651,0.092166871,0.951176882
16.602679,5.809432983,-6.517517090,3.446189880,-0.087764159,0.090702027,0.954594851
16.603304,5.908615112,-6.647216797,3.652183533,-0.088008299,0.090824097,0.954594851
16.603930,5.900985718,-6.784545898,3.583518982,-0.088130370,0.089725465,0.955937624
16.604555,5.923873901,-6.876098633,3.507225037,-0.088130370,0.092044801,0.957524538
16.605180,6.122238159,-6.670104980,3.537742615,-0.088374510,0.091434449,0.959721804
16.605805,6.007797241,-7.043945312,3.583518982,-0.087275878,0.089603394,0.963017702
16.606431,5.984909058,-7.135498047,3.308860779,-0.086909667,0.088993043,0.964238405
16.607058,6.122238159,-7.021057129,3.537742615,-0.085933104,0.093143433,0.966313601
16.607684,6.244308472,-7.166015625,3.491966248,-0.084468260,0.091190308,0.973515749
16.608309,6.580001831,-7.272827148,3.247825623,-0.085078612,0.093509644,0.971074343
16.608934,6.847030640,-7.280456543,3.568260193,-0.086421385,0.092411011,0.976201296
16.609559,6.564743042,-7.417785645,3.293601990,-0.085444823,0.092655152,0.980962038
16.610185,6.686813354,-7.272827148,3.385154724,-0.085322753,0.093021363,0.985356569
16.610811,6.839401245,-7.188903809,3.385154724,-0.086787596,0.093753785,0.985234499
16.611437,7.037765503,-7.372009277,3.377525330,-0.086787596,0.094852418,0.988652468
16.612062,7.312423706,-7.188903809,3.408042908,-0.084956542,0.095828980,0.991338015
16.612687,7.175094604,-7.372009277,3.476707458,-0.082270995,0.090824097,0.992436647
16.613313,7.129318237,-7.288085938,3.217308044,-0.082637206,0.095096558,0.996098757
16.613938,7.510787964,-7.356750488,3.392784119,-0.080562010,0.098514527,0.997319460
16.614565,7.724411011,-7.158386230,3.423301697,-0.083369628,0.095828980,1.001713991
16.615191,7.770187378,-7.104980469,3.446189880,-0.083247557,0.095828980,1.004033327
16.615817,7.739669800,-7.181274414,3.446189880,-0.085688964,0.096805543,1.010869265
16.616443,7.785446167,-7.097351074,3.293601990,-0.081172362,0.095584840,1.009404421
16.617068,7.953292847,-6.937133789,3.430931091,-0.081904784,0.100955933,1.014043093
16.617695,7.976181030,-7.005798340,3.446189880,-0.081172362,0.102420777,1.012456179
16.619515,8.044845581,-6.944763184,3.263084412,-0.081904784,0.108646363,1.017338991
16.620140,7.960922241,-6.807434082,3.308860779,-0.080806151,0.112308472,1.015630007
16.620765,7.754928589,-6.532775879,3.385154724,-0.083735839,0.109622926,1.017949343
16.621391,7.625228882,-6.761657715,3.362266541,-0.080684081,0.113773316,1.015507936
16.622017,7.686264038,-6.464111328,3.408042908,-0.083369628,0.113895386,1.016728640
16.622643,7.770187378,-6.441223145,3.377525330,-0.081172362,0.114017457,1.017216921
16.623270,7.510787964,-6.441223145,3.110496521,-0.081050292,0.117435426,1.019902468
16.623896,7.236129761,-6.441223145,3.621665955,-0.084102049,0.115970582,1.020390749
16.624521,7.053024292,-6.097900391,3.316490173,-0.082759276,0.116092652,1.022343874
16.625147,6.801254272,-6.174194336,3.377525330,-0.079463378,0.121097535,1.022710085
16.625772,6.381637573,-6.212341309,3.179161072,-0.080439940,0.120120972,1.019414186
16.626398,6.435043335,-6.258117676,3.308860779,-0.080317870,0.123416871,1.021123171
16.627029,6.343490601,-6.067382812,3.377525330,-0.080317870,0.125614136,1.020756960
16.627654,6.007797241,-6.021606445,3.141014099,-0.080317870,0.127078980,1.019292116
16.628281,5.962020874,-5.815612793,3.423301697,-0.079585448,0.126224488,1.020634890
16.628906,5.740768433,-6.067382812,3.102867126,-0.077632323,0.126102418,1.019780397
16.629531,5.504257202,-5.884277344,3.247825623,-0.079219237,0.127445191,1.020024538
16.630156,5.389816284,-5.960571289,3.110496521,-0.077510253,0.126224488,1.022465944
16.630783,5.199081421,-5.876647949,3.278343201,-0.077754393,0.129398316,1.022221804
16.645090,6.114608765,-4.167663574,2.240745544,-0.073848143,0.124149293,1.017216921
16.645831,6.557113647,-4.152404785,2.133934021,-0.075923339,0.123905152,1.011357546
16.646458,6.633407593,-3.984558105,2.347557068,-0.074946776,0.126712769,1.014165163
16.647084,6.465560913,-3.793823242,2.156822205,-0.074702635,0.124027222,1.011967897
16.647711,6.679183960,-3.778564453,1.981346130,-0.070430174,0.124271363,1.014043093
16.648336,6.885177612,-3.816711426,2.156822205,-0.073726073,0.122928590,1.014287233
16.648963,6.953842163,-3.748046875,2.065269470,-0.070796385,0.122440308,1.006718874
16.649590,7.037765503,-3.496276855,2.164451599,-0.072261229,0.124149293,1.006840944
16.650215,7.144577026,-3.435241699,2.019493103,-0.073726073,0.121463746,1.003911257
16.650841,7.434494019,-3.358947754,1.966087341,-0.071162596,0.121707886,1.005620241
16.651468,7.388717651,-3.511535645,2.088157654,-0.073604003,0.118534058,1.003667116
16.652094,7.503158569,-3.381835938,2.065269470,-0.073726073,0.119144410,1.006596804
16.652719,7.793075562,-3.511535645,1.851646423,-0.071895018,0.117069215,1.005620241
16.653344,7.724411011,-3.313171387,1.889793396,-0.075557128,0.115848511,1.002324343
16.653969,8.182174683,-3.412353516,1.996604919,-0.074336424,0.115848511,1.000493288
16.654595,8.243209839,-3.366577148,1.851646423,-0.075557128,0.114627808,1.000981569
16.655220,8.227951050,-3.290283203,1.866905212,-0.074336424,0.110721558,0.996587038
16.655847,8.296615601,-3.069030762,1.973716736,-0.072383299,0.111209840,0.997929811
16.656472,8.449203491,-3.030883789,1.737205505,-0.061641112,0.109378785,1.005742311
16.657098,8.533126831,-2.878295898,1.660911560,-0.057979003,0.114017457,1.015630007
16.657724,8.838302612,-2.550231934,1.828758240,-0.066279784,0.110477418,1.007451296
16.658350,8.762008667,-2.534973145,1.752464294,-0.074946776,0.104007691,1.000127077
16.658976,8.891708374,-2.870666504,1.691429138,-0.084712401,0.103153199,0.996220827
16.659602,9.082443237,-2.939331055,1.485435486,-0.076777831,0.100467652,0.992802858
16.660227,9.372360229,-3.252136230,1.447288513,-0.071162596,0.097293824,0.996587038
16.660852,9.730941772,-3.107177734,1.828758240,-0.066645995,0.096683472,1.001713991
16.661478,9.975082397,-2.870666504,1.546470642,-0.065181151,0.096927613,1.004033327
16.662104,10.028488159,-3.015625000,1.477806091,-0.065913573,0.099246949,1.005864382
16.662729,9.982711792,-2.695190430,1.706687927,-0.073726073,0.096927613,1.005376101
16.663354,10.142929077,-2.824890137,1.538841248,-0.076045409,0.097782105,1.001591921
16.665173,10.318405151,-3.305541992,1.729576111,-0.078730956,0.094852418,0.993901491
16.665799,10.379440308,-3.465759277,1.645652771,-0.077876464,0.089969605,0.999028444
16.666425,10.371810913,-3.091918945,1.500694275,-0.073970214,0.093509644,1.003422976
16.667050,10.440475464,-3.069030762,1.493064880,-0.077021971,0.092166871,1.003300905
16.667676,10.310775757,-3.305541992,1.592247009,-0.080928221,0.091312379,1.005254030
16.668302,10.379440308,-3.168212891,1.439659119,-0.081904784,0.088504761,0.998662233
16.668929,10.104782104,-3.427612305,1.332847595,-0.082759276,0.089115113,0.999760866
16.669554,10.211593628,-3.458129883,1.401512146,-0.084102049,0.085575074,0.998784304
16.670179,10.028488159,-3.526794434,1.729576111,-0.081416503,0.084476441,1.000249147
16.670806,9.944564819,-3.656494141,1.607505798,-0.079585448,0.079593629,1.003422976
16.671431,9.929306030,-3.542053223,1.576988220,-0.079097167,0.079105347,1.003178835
16.672056,9.936935425,-3.374206543,1.760093689,-0.080195799,0.078983277,1.002446413
16.672682,9.944564819,-3.702270508,1.775352478,-0.081904784,0.078494996,1.003667116
16.673309,9.883529663,-3.580200195,1.721946716,-0.083003417,0.074954957,1.004155397
16.673934,9.608871460,-3.641235352,1.905052185,-0.083125487,0.073734254,1.003056765
16.674561,9.540206909,-3.793823242,1.775352478,-0.078975096,0.072147340,1.001469851
16.675187,9.585983276,-3.801452637,1.950828552,-0.078120604,0.073123902,1.002812624
16.675814,9.486801147,-3.809082031,1.943199158,-0.080195799,0.067142457,1.004033327
16.689800,7.701522827,-5.014526367,3.232566833,-0.079707518,0.073856324,0.982304811
16.690570,7.785446167,-4.762756348,3.148643494,-0.079951659,0.075199097,0.980839968
16.691195,7.495529175,-4.930603027,2.996055603,-0.078364745,0.072391480,0.982304811
16.691821,7.304794312,-5.136596680,3.079978943,-0.079463378,0.079105347,0.979863405
16.692448,7.403976440,-4.953491211,3.217308044,-0.078242674,0.078372926,0.979497194
16.693073,7.388717651,-5.006896973,3.209678650,-0.077998534,0.080692261,0.977910280
16.693699,7.136947632,-5.312072754,3.217308044,-0.076777831,0.078983277,0.978642702
16.694325,7.281906128,-5.251037598,3.285972595,-0.080073729,0.081424683,0.980962038
16.694950,7.121688843,-5.342590332,3.354637146,-0.077754393,0.081424683,0.980473757
16.695575,7.083541870,-5.449401855,3.072349548,-0.079341307,0.081668824,0.979985476
16.696201,7.167465210,-5.395996094,3.232566833,-0.077876464,0.085819215,0.981572390
16.696827,6.915695190,-5.350219727,3.423301697,-0.075435057,0.083133668,0.981084108
16.697452,6.885177612,-5.479919434,3.079978943,-0.073848143,0.083255738,0.979497194
16.698077,6.885177612,-5.869018555,3.118125916,-0.075190917,0.087650269,0.981694460
16.698702,6.656295776,-5.617248535,3.110496521,-0.074580565,0.087039918,0.984746218
16.699329,6.625778198,-5.823242188,3.110496521,-0.076533690,0.087161988,0.979375124
16.699955,6.404525757,-5.731689453,2.996055603,-0.076289549,0.089237183,0.983281374
16.700581,6.557113647,-5.685913086,2.896873474,-0.076777831,0.089603394,0.981694460
16.701207,6.496078491,-5.807983398,3.072349548,-0.074336424,0.089359254,0.983037233
16.701834,6.129867554,-5.968200684,2.965538025,-0.073726073,0.091556519,0.982915163
16.702459,6.152755737,-5.724060059,2.873985291,-0.075312987,0.093875855,0.982426882
16.703086,5.962020874,-6.189453125,2.973167419,-0.074824706,0.094364136,0.983159304
16.703711,5.885726929,-5.792724609,2.957908630,-0.074458495,0.095706910,0.982304811
16.704337,5.923873901,-5.998718262,2.942649841,-0.075190917,0.095828980,0.981694460
16.704962,5.702621460,-5.891906738,3.102867126,-0.076167479,0.093753785,0.983891726
16.705588,5.748397827,-6.158935547,2.927391052,-0.074580565,0.095828980,0.985844851
16.706213,5.672103882,-6.052124023,2.912132263,-0.078364745,0.093021363,0.984990358
16.706840,5.664474487,-6.227600098,2.919761658,-0.077021971,0.094974488,0.983403444
16.707465,5.557662964,-6.143676758,2.736656189,-0.077021971,0.094852418,0.985844851
16.708091,5.389816284,-6.105529785,2.805320740,-0.075068846,0.093143433,0.986943483
16.709868,5.206710815,-6.281005859,2.873985291,-0.076411620,0.091556519,0.991582155
16.710494,5.107528687,-6.113159180,2.965538025,-0.076045409,0.091800660,0.992314577
16.711120,5.077011108,-6.319152832,2.744285583,-0.073604003,0.089603394,0.993291140
16.711745,5.160934448,-6.197082520,2.774803162,-0.074336424,0.093265504,0.994389772
16.712370,4.916793823,-6.288635254,2.706138611,-0.078730956,0.088016480,0.998906374
16.712996,4.932052612,-6.212341309,2.889244080,-0.076655760,0.090946168,0.998418093
16.713622,5.115158081,-6.082641602,2.797691345,-0.078975096,0.088993043,0.999882936
16.714248,5.008346558,-6.158935547,2.919761658,-0.077388182,0.088626832,0.999394655
16.714873,5.061752319,-6.067382812,2.645103455,-0.073237792,0.090702027,0.998906374
16.715498,5.206710815,-5.792724609,2.729026794,-0.076289549,0.089847535,1.001836061
16.716125,5.107528687,-6.151306152,2.721397400,-0.075557128,0.088748902,1.004033327
16.716752,5.130416870,-5.952941895,2.851097107,-0.077510253,0.088504761,1.008183718
16.717377,5.092269897,-5.838500977,2.782432556,-0.077876464,0.091068238,1.007817507
16.718004,5.283004761,-5.739318848,2.797691345,-0.075312987,0.091312379,1.009404421
16.718629,5.412704468,-5.624877930,2.828208923,-0.075068846,0.091800660,1.009770632
16.719255,5.458480835,-5.769836426,2.912132263,-0.073848143,0.091556519,1.015019655
16.719880,5.527145386,-5.746948242,2.622215271,-0.077754393,0.091922730,1.018315554
16.720505,5.824691772,-5.556213379,2.858726501,-0.079097167,0.090824097,1.016118288
16.721131,5.656845093,-5.418884277,2.797691345,-0.076655760,0.095951051,1.020756960
16.735075,6.190902710,-3.069030762,2.751914978,-0.080684081,0.111331910,1.046635866
16.735814,5.977279663,-3.046142578,2.721397400,-0.079341307,0.114749879,1.044316530
16.736439,5.962020874,-2.985107422,2.667991638,-0.075679198,0.114139527,1.047124147
16.737065,6.076461792,-2.687561035,2.492515564,-0.061030760,0.120120972,1.050297976
16.737691,5.656845093,-2.283203125,2.477256775,-0.073848143,0.121707886,1.062016726
16.738316,5.443222046,-2.252685547,2.568809509,-0.067744628,0.120365113,1.050786257
16.738943,5.534774780,-2.184020996,2.545921326,-0.080317870,0.120975465,1.049931765
16.739570,5.542404175,-2.306091309,2.629844666,-0.080073729,0.112674683,1.045293093
16.740195,5.855209351,-2.122985840,2.507774353,-0.071895018,0.114383668,1.043462038
16.740820,5.694992065,-2.107727051,2.439109802,-0.071284667,0.111453980,1.045903444
16.741447,5.809432983,-1.978027344,2.454368591,-0.067744628,0.112308472,1.046635866
16.742073,5.954391479,-1.878845215,2.461997986,-0.070186034,0.109378785,1.051396608
16.742699,5.962020874,-1.558410645,2.225486755,-0.074458495,0.107547730,1.051640749
16.743324,5.771286011,-1.642333984,2.408592224,-0.077998534,0.108768433,1.048711061
16.743951,6.053573608,-1.619445801,2.347557068,-0.076777831,0.106449097,1.042119265
16.744577,6.053573608,-1.283752441,2.378074646,-0.078730956,0.109744996,1.037968874
16.745203,6.183273315,-1.474487305,2.469627380,-0.080195799,0.103519410,1.035649538
16.745829,6.381637573,-1.390563965,2.431480408,-0.080073729,0.105106324,1.038090944
16.746454,6.541854858,-1.161682129,2.088157654,-0.076777831,0.102909058,1.040044069
16.747081,6.526596069,-1.321899414,2.400962830,-0.076899901,0.103153199,1.039433718
16.747707,6.747848511,-1.093017578,2.332298279,-0.078364745,0.105594605,1.031377077
16.748334,6.961471558,-1.031982422,2.217857361,-0.081172362,0.104495972,1.033086061
16.756847,7.793075562,-1.016723633,2.225486755,-0.079707518,0.097171754,1.000981569
16.757472,7.785446167,-0.780212402,2.217857361,-0.080317870,0.098758668,0.999394655
16.758098,7.815963745,-0.993835449,2.301780701,-0.076777831,0.096927613,0.997807741
16.758724,8.021957397,-1.215087891,2.141563416,-0.075557128,0.095462769,0.995610476
16.759351,7.831222534,-1.161682129,2.217857361,-0.077266112,0.093753785,0.992924929
16.759977,7.861740112,-0.856506348,2.256004333,-0.077144042,0.094364136,0.992558718
16.760603,7.922775269,-1.321899414,2.332298279,-0.080806151,0.096561402,0.993291140
16.761228,7.976181030,-1.260864258,2.210227966,-0.077144042,0.095584840,0.992436647
16.761853,7.831222534,-1.306640625,2.332298279,-0.078242674,0.095584840,0.984868288
16.762480,7.686264038,-1.123535156,2.324668884,-0.078853026,0.095584840,0.982426882
16.763106,7.869369507,-1.062500000,2.370445251,-0.077876464,0.097293824,0.981450319
16.763733,7.915145874,-1.268493652,2.156822205,-0.077876464,0.094730347,0.983037233
16.764360,8.014328003,-1.382934570,2.271263123,-0.077754393,0.095096558,0.977910280
16.764986,7.732040405,-1.283752441,2.347557068,-0.077876464,0.095340699,0.977544069
16.765612,7.732040405,-1.237976074,2.523033142,-0.079463378,0.100223511,0.974736452
16.766237,7.823593140,-1.421081543,2.339927673,-0.079829589,0.099857301,0.975957155
16.766862,7.754928589,-1.443969727,2.263633728,-0.077632323,0.097171754,0.972783327
16.767487,7.793075562,-1.329528809,2.362815857,-0.077510253,0.097415894,0.974492311
16.768112,7.762557983,-1.611816406,2.355186462,-0.078242674,0.096683472,0.972539186
16.768738,7.671005249,-1.787292480,2.317039490,-0.079097167,0.098758668,0.967412233
16.769364,7.693893433,-1.573669434,2.492515564,-0.079829589,0.098758668,0.968022585
16.769989,7.625228882,-1.772033691,2.286521912,-0.080928221,0.098880738,0.968755007
16.770614,7.571823120,-1.726257324,2.378074646,-0.081416503,0.098758668,0.966435671
16.771239,7.777816772,-1.718627930,2.439109802,-0.080684081,0.098392457,0.968877077
16.771864,7.777816772,-1.924621582,2.339927673,-0.082515135,0.097537965,0.967412233
16.772489,7.594711304,-2.016174316,2.301780701,-0.080562010,0.094608277,0.966191530
16.773114,7.831222534,-2.054321289,2.477256775,-0.077632323,0.096317261,0.965581179
16.787098,7.579452515,-4.289733887,1.851646423,-0.079707518,0.105594605,0.946049929
16.787855,7.571823120,-4.648315430,1.782981873,-0.083491698,0.106815308,0.948979616
16.788481,7.381088257,-4.686462402,1.729576111,-0.082026854,0.106204957,0.948613405
16.789108,7.289535522,-4.755126953,1.683799744,-0.083613768,0.106449097,0.950322390
16.789735,7.205612183,-4.709350586,1.721946716,-0.079097167,0.105594605,0.949589968
16.790362,6.999618530,-4.984008789,1.805870056,-0.084834471,0.104373902,0.948003054
16.790987,6.885177612,-4.869567871,1.599876404,-0.085078612,0.105716676,0.948491335
16.791614,6.663925171,-5.136596680,1.645652771,-0.084712401,0.101078004,0.945805788
16.792241,6.480819702,-5.281555176,1.660911560,-0.082148924,0.099246949,0.947758913
16.792867,6.404525757,-5.411254883,1.554100037,-0.082881346,0.099246949,0.947758913
16.793493,6.183273315,-5.441772461,1.576988220,-0.083613768,0.096683472,0.947636843
16.794119,6.145126343,-5.701171875,1.393882751,-0.084224120,0.097171754,0.949101686
16.794745,5.931503296,-5.540954590,1.569358826,-0.082881346,0.093021363,0.948613405
16.795370,5.862838745,-5.876647949,1.721946716,-0.081172362,0.090702027,0.948491335
16.795995,5.832321167,-6.151306152,1.416770935,-0.077632323,0.092166871,0.948491335
16.796621,5.824691772,-6.029235840,1.409141541,-0.080195799,0.083621949,0.949956179
16.797247,5.893356323,-6.166564941,1.523582458,-0.080684081,0.083744019,0.948979616
16.797873,5.824691772,-6.303894043,1.500694275,-0.084346190,0.085086793,0.949345827
16.798500,5.565292358,-6.204711914,1.432029724,-0.081294432,0.086429566,0.946904421
16.799125,5.687362671,-6.662475586,1.576988220,-0.083613768,0.083377808,0.948979616
16.799751,5.298263550,-7.005798340,1.683799744,-0.082759276,0.078250855,0.950322390
16.800377,5.435592651,-6.792175293,1.638023376,-0.084712401,0.076175660,0.947758913
16.801003,5.237228394,-6.738769531,1.729576111,-0.083979979,0.075565308,0.949467897
16.801629,5.359298706,-7.074462891,1.813499451,-0.084224120,0.074588746,0.951176882
16.802255,5.313522339,-7.074462891,1.546470642,-0.086299315,0.072391480,0.948857546
16.802880,5.359298706,-7.082092285,1.851646423,-0.089106932,0.068973511,0.946294069
16.803505,5.252487183,-7.310974121,1.760093689,-0.087397948,0.067508668,0.946660280
16.804130,5.229598999,-7.333862305,1.676170349,-0.087153807,0.067264527,0.943120241
16.804756,5.305892944,-7.227050781,2.019493103,-0.086787596,0.066410035,0.947636843
16.805381,5.321151733,-7.501708984,2.027122498,-0.085688964,0.067996949,0.946416140
16.807168,5.504257202,-7.921325684,2.027122498,-0.083735839,0.064456910,0.947270632
16.807793,5.794174194,-8.005249023,2.294151306,-0.084102049,0.062625855,0.943608522
16.808418,5.572921753,-7.913696289,2.111045837,-0.084224120,0.066043824,0.947758913
16.809043,5.626327515,-8.043395996,2.355186462,-0.085078612,0.062869996,0.949834108
16.809669,5.763656616,-8.310424805,2.423851013,-0.083125487,0.063968629,0.948491335
16.810295,5.748397827,-8.371459961,2.492515564,-0.084712401,0.062137574,0.951543093
16.810920,5.977279663,-8.333312988,2.484886169,-0.082759276,0.057987183,0.954716921
16.811545,5.862838745,-8.394348145,2.515403748,-0.083735839,0.059085816,0.954594851
16.812170,5.916244507,-8.562194824,2.484886169,-0.079463378,0.061161011,0.957402468
16.812795,5.618698120,-8.447753906,2.683250427,-0.079829589,0.060794801,0.959111452
16.813420,5.900985718,-8.691894531,2.606956482,-0.080928221,0.062137574,0.961186647
16.814047,6.023056030,-8.745300293,2.873985291,-0.078486815,0.059207886,0.965459108
16.814672,5.855209351,-8.379089355,2.912132263,-0.075679198,0.061038941,0.967900515
16.815298,5.908615112,-8.783447266,2.980796814,-0.078730956,0.060428590,0.968510866
16.815925,5.969650269,-8.699523926,2.935020447,-0.079829589,0.058963746,0.969975710
16.816550,6.045944214,-8.600341797,3.186790466,-0.079097167,0.060672730,0.973881960
16.817175,6.053573608,-8.623229980,3.316490173,-0.078853026,0.061649293,0.977788210
16.817802,6.198532104,-8.684265137,3.293601990,-0.078853026,0.062137574,0.982304811
16.818427,6.244308472,-8.684265137,3.377525330,-0.078486815,0.065311402,0.981450319
16.832310,6.679183960,-6.647216797,4.384605408,-0.073726073,0.093631715,1.029668093
16.833037,6.938583374,-6.525146484,4.506675720,-0.073970214,0.094486207,1.031377077
16.833663,6.946212769,-6.288635254,4.537193298,-0.073970214,0.097782105,1.032719851
16.834288,7.312423706,-6.532775879,4.674522400,-0.071772948,0.101810426,1.036504030
16.834914,6.969100952,-6.281005859,4.430381775,-0.072993651,0.100589722,1.035771608
16.835539,7.205612183,-5.945312500,4.842369080,-0.073970214,0.101688355,1.034795046
16.836164,7.388717651,-6.075012207,4.552452087,-0.074458495,0.107303590,1.036626101
16.836789,7.426864624,-5.952941895,4.415122986,-0.074580565,0.107669801,1.036015749
16.837414,7.533676147,-5.861389160,4.628746033,-0.073726073,0.109622926,1.038457155
16.838039,7.587081909,-5.846130371,4.743186951,-0.077388182,0.109012574,1.036626101
16.838665,7.609970093,-5.655395508,4.537193298,-0.077998534,0.113162965,1.037968874
16.839291,7.686264038,-5.632507324,4.697410583,-0.075312987,0.115482301,1.037114382
16.839918,7.838851929,-5.579101562,4.682151794,-0.076533690,0.114871949,1.036015749
16.840565,8.021957397,-5.296813965,4.636375427,-0.077144042,0.115848511,1.039555788
16.841190,7.938034058,-5.304443359,4.743186951,-0.077021971,0.119754761,1.038945436
16.841816,7.960922241,-5.327331543,4.445640564,-0.078242674,0.120975465,1.037724733
16.842443,8.037216187,-5.182373047,4.781333923,-0.082026854,0.118778199,1.038701296
16.843068,7.983810425,-5.113708496,4.636375427,-0.079341307,0.122074097,1.038213015
16.843695,8.105880737,-5.136596680,4.529563904,-0.081782714,0.122440308,1.039067507
16.844321,8.288986206,-5.113708496,4.529563904,-0.081172362,0.125369996,1.039067507
16.844946,8.197433472,-4.778015137,4.506675720,-0.079829589,0.125736207,1.038823366
16.845572,8.128768921,-4.724609375,4.766075134,-0.076655760,0.127445191,1.036626101
16.846199,8.235580444,-4.427062988,4.430381775,-0.066645995,0.132205933,1.039433718
16.846825,8.227951050,-4.381286621,4.384605408,-0.073848143,0.135501832,1.041386843
16.847451,8.288986206,-4.396545410,4.697410583,-0.071772948,0.133426636,1.034795046
16.848077,8.052474976,-4.205810547,4.399864197,-0.078730956,0.132938355,1.033696413
16.848704,8.227951050,-4.289733887,4.575340271,-0.078242674,0.132450074,1.028935671
16.849330,8.235580444,-4.404174805,4.392234802,-0.078242674,0.133060426,1.031010866
16.849955,8.395797729,-4.282104492,4.605857849,-0.072505370,0.132083863,1.035283327
16.850581,8.433944702,-4.228698730,4.209129333,-0.069819823,0.131351441,1.036015749
16.852403,8.754379272,-4.098999023,4.163352966,-0.077388182,0.134281129,1.034672976
16.853030,8.868820190,-3.954040527,4.224388123,-0.074458495,0.133914918,1.033696413
16.853657,8.914596558,-4.121887207,4.338829041,-0.076899901,0.133060426,1.030278444
16.854284,9.044296265,-4.030334473,4.079429626,-0.078364745,0.134159058,1.032475710
16.854910,9.364730835,-4.007446289,4.140464783,-0.073848143,0.135868043,1.034795046
16.855536,9.418136597,-3.732788086,4.155723572,-0.073970214,0.133914918,1.033086061
16.856162,9.509689331,-3.923522949,4.010765076,-0.073481932,0.130741090,1.036626101
16.856787,9.822494507,-3.564941406,4.064170837,-0.077144042,0.130985230,1.033452272
16.857412,10.150558472,-3.542053223,4.026023865,-0.080317870,0.130496949,1.029790163
16.858039,10.333663940,-3.526794434,3.934471130,-0.079341307,0.130374879,1.025883913
16.858664,10.402328491,-3.748046875,3.591148376,-0.079707518,0.128787965,1.027226686
16.859291,10.646469116,-3.557312012,3.972618103,-0.074702635,0.127811402,1.030034304
16.859916,10.837203979,-3.412353516,3.675071716,-0.079829589,0.131107301,1.026616335
16.860541,11.256820679,-3.564941406,3.636924744,-0.079829589,0.130863160,1.025761843
16.861166,11.447555542,-3.572570801,3.881065369,-0.084346190,0.127689332,1.025029421
16.861791,11.577255249,-3.664123535,3.820030212,-0.083003417,0.128421754,1.021611452
16.862417,11.714584351,-3.252136230,3.736106873,-0.081904784,0.128665894,1.023686647
16.863044,12.134201050,-3.664123535,3.453819275,-0.081294432,0.127933472,1.023076296
16.877034,11.729843140,-3.900634766,2.240745544,-0.090571776,0.111820191,1.002080202
16.877815,11.493331909,-3.671752930,2.149192810,-0.088618651,0.112796754,1.000127077
16.878441,11.447555542,-4.060852051,2.286521912,-0.091426268,0.106327027,0.998784304
16.879068,11.447555542,-4.137145996,2.202598572,-0.091060057,0.106449097,1.000737429
16.879694,11.111862183,-3.976928711,2.217857361,-0.091426268,0.101444215,0.999028444
16.880320,11.119491577,-3.954040527,2.080528259,-0.092158690,0.102542847,0.998296022
16.880947,10.791427612,-4.053222656,2.004234314,-0.097407714,0.100467652,0.995976686
16.881573,10.547286987,-4.381286621,1.981346130,-0.095698729,0.095218629,0.995366335
16.882214,10.341293335,-4.228698730,1.821128845,-0.092646971,0.097537965,0.996098757
16.882839,10.257369995,-4.579650879,2.118675232,-0.092524901,0.092288941,0.997197390
16.883465,10.196334839,-4.587280273,2.133934021,-0.092036620,0.092899293,0.994511843
16.884090,10.089523315,-4.274475098,2.263633728,-0.094600096,0.090091676,0.996587038
16.884716,9.761459351,-4.709350586,2.156822205,-0.090327635,0.087528199,0.992924929
16.885341,9.807235718,-4.671203613,1.966087341,-0.091914549,0.087161988,0.996464968
16.885966,9.563095093,-4.831420898,2.225486755,-0.094844237,0.083621949,0.996464968
16.886593,9.433395386,-4.671203613,2.164451599,-0.088862792,0.082645386,0.995366335
16.887218,9.402877808,-4.869567871,2.019493103,-0.088496581,0.083621949,0.995976686
16.887844,9.242660522,-4.861938477,2.248374939,-0.089595214,0.082157105,0.992314577
16.888470,9.196884155,-4.785644531,2.172080994,-0.088984862,0.085208863,0.996587038
16.889097,8.891708374,-5.006896973,2.095787048,-0.090205565,0.083499879,0.994633913
16.889722,8.639938354,-5.083190918,2.423851013,-0.089839354,0.081912965,0.997929811
16.890347,8.708602905,-5.144226074,2.126304626,-0.088862792,0.079593629,0.994878054
16.890972,8.517868042,-5.273925781,1.973716736,-0.088862792,0.078739136,0.995366335
16.891599,8.479721069,-5.090820312,2.385704041,-0.087397948,0.083133668,0.998173952
16.892224,8.350021362,-5.312072754,2.271263123,-0.087886229,0.084720582,0.996587038
16.892851,8.044845581,-5.411254883,2.614585876,-0.089595214,0.084232301,0.991582155
16.893476,7.915145874,-5.144226074,2.446739197,-0.085078612,0.083499879,0.993291140
16.894103,7.922775269,-5.426513672,2.446739197,-0.088740721,0.083866090,0.995122194
16.894728,7.800704956,-5.418884277,2.576438904,-0.085444823,0.085453004,0.991826296
16.895354,7.793075562,-5.403625488,2.416221619,-0.089473143,0.086673707,0.990483522
16.897139,7.419235229,-5.663024902,2.439109802,-0.084468260,0.082523316,0.988042116
16.897765,7.289535522,-5.685913086,2.729026794,-0.091060057,0.084476441,0.991704226
16.898391,7.197982788,-5.510437012,2.660362244,-0.089839354,0.082523316,0.991582155
16.899026,7.129318237,-5.762207031,2.713768005,-0.090083495,0.082523316,0.990849733
16.899651,7.075912476,-5.632507324,2.736656189,-0.091182128,0.082035035,0.991582155
16.900277,7.030136108,-5.731689453,2.553550720,-0.089717284,0.082889527,0.990605593
16.900902,6.938583374,-5.907165527,2.790061951,-0.091304198,0.084476441,0.992436647
16.901529,7.030136108,-6.006347656,2.637474060,-0.090327635,0.084354371,0.988652468
16.902154,7.014877319,-5.907165527,2.805320740,-0.090937987,0.088504761,0.989018679
16.902780,7.091171265,-5.922424316,2.881614685,-0.090205565,0.091190308,0.984990358
16.903406,6.885177612,-6.059753418,2.797691345,-0.091060057,0.092533082,0.987920046
16.904032,6.946212769,-5.952941895,2.881614685,-0.091792479,0.091068238,0.986577272
16.904658,6.686813354,-6.258117676,2.935020447,-0.091670409,0.093997926,0.985844851
16.905283,6.892807007,-6.029235840,2.790061951,-0.092280760,0.094364136,0.988652468
16.905909,6.732589722,-6.166564941,2.736656189,-0.090083495,0.095340699,0.989140749
16.906534,6.824142456,-6.044494629,2.782432556,-0.093257323,0.098026246,0.989873171
16.907159,6.732589722,-6.235229492,2.935020447,-0.089106932,0.102176636,0.991215944
16.907784,6.564743042,-6.143676758,3.003684998,-0.086055174,0.102420777,0.987065554
16.908409,6.671554565,-6.128417969,3.011314392,-0.090571776,0.103275269,0.988408327
16.922321,6.839401245,-6.555664062,2.881614685,-0.090693846,0.125003785,1.003545046
16.923100,6.724960327,-6.502258301,2.965538025,-0.090693846,0.127445191,1.002934694
16.923727,6.862289429,-6.586181641,2.927391052,-0.090205565,0.127078980,1.004521608
16.924353,6.785995483,-6.670104980,2.835838318,-0.091548339,0.128665894,1.005131960
16.924979,6.839401245,-6.586181641,2.835838318,-0.088862792,0.130863160,1.003911257
16.925606,6.923324585,-6.692993164,2.484886169,-0.088008299,0.131473511,1.005131960
16.926232,6.869918823,-6.677734375,2.591697693,-0.088496581,0.132328004,1.004887819
16.926857,6.946212769,-6.738769531,2.851097107,-0.090327635,0.131229371,1.006230593
16.927482,7.060653687,-6.700622559,2.545921326,-0.088496581,0.133548707,1.006596804
16.928108,6.839401245,-6.868469238,2.500144958,-0.086665526,0.129520386,1.004765749
16.928733,6.984359741,-6.830322266,2.523033142,-0.088984862,0.130496949,1.007817507
16.929358,6.587631226,-6.776916504,2.355186462,-0.088496581,0.129154176,1.004887819
16.929984,6.854660034,-6.754028320,2.324668884,-0.088496581,0.126346558,1.007207155
16.930609,6.961471558,-6.837951660,2.561180115,-0.086055174,0.124515504,1.005498171
16.931234,6.831771851,-6.898986816,2.256004333,-0.086421385,0.124149293,1.007695436
16.931859,7.152206421,-6.776916504,2.461997986,-0.086177245,0.123538941,1.006596804
16.932486,7.197982788,-6.784545898,2.431480408,-0.085200682,0.121341676,1.007573366
16.933111,7.289535522,-6.906616211,2.439109802,-0.084834471,0.119632691,1.007939577
16.933736,7.442123413,-6.944763184,2.156822205,-0.087153807,0.123172730,1.011235476
16.934361,7.579452515,-6.692993164,2.263633728,-0.083369628,0.121707886,1.011113405
16.934988,7.777816772,-6.837951660,2.156822205,-0.084834471,0.122074097,1.012212038
16.935613,7.892257690,-6.891357422,2.400962830,-0.083003417,0.118045777,1.012334108
16.936240,8.067733765,-6.563293457,2.400962830,-0.083613768,0.118167847,1.012700319
16.936865,8.250839233,-6.654846191,2.149192810,-0.085200682,0.121097535,1.010869265
16.937492,8.433944702,-6.563293457,2.179710388,-0.081660643,0.119022340,1.012334108
16.938118,8.380538940,-6.387817383,2.179710388,-0.078975096,0.118411988,1.017216921
16.938745,8.578903198,-6.357299805,2.141563416,-0.079585448,0.117191285,1.018559694
16.939371,8.647567749,-6.380187988,2.194969177,-0.080439940,0.118167847,1.017583132
16.939997,8.929855347,-6.616699219,2.065269470,-0.078242674,0.118900269,1.021245241
16.940623,9.021408081,-6.258117676,2.324668884,-0.080073729,0.118656129,1.029301882
16.942449,8.990890503,-6.189453125,1.996604919,-0.077021971,0.129398316,1.032353640
16.943074,9.059555054,-5.792724609,1.851646423,-0.078242674,0.128177613,1.032597780
16.943699,9.311325073,-5.861389160,1.966087341,-0.074458495,0.130619019,1.029546022
16.944325,9.158737183,-5.655395508,1.729576111,-0.078853026,0.126224488,1.026738405
16.944951,9.334213257,-5.838500977,1.912681580,-0.078853026,0.126834840,1.023198366
16.945576,9.471542358,-5.563842773,1.920310974,-0.079341307,0.124027222,1.023808718
16.946203,9.639389038,-5.571472168,1.813499451,-0.080195799,0.119266480,1.018559694
16.946829,9.654647827,-5.754577637,1.615135193,-0.080195799,0.118900269,1.019414186
16.947455,9.837753296,-5.533325195,1.599876404,-0.084102049,0.111942261,1.020879030
16.948081,9.982711792,-5.624877930,1.699058533,-0.082026854,0.108402222,1.015752077
16.948707,10.097152710,-5.655395508,1.790611267,-0.083857909,0.107425660,1.013676882
16.949333,10.364181519,-5.289184570,1.744834900,-0.087275878,0.107669801,1.014775515
16.949960,10.249740601,-5.449401855,1.515953064,-0.086543456,0.106815308,1.010625124
16.950586,10.509140015,-5.395996094,1.500694275,-0.086055174,0.108036011,1.012212038
16.951212,10.730392456,-5.304443359,1.363365173,-0.083003417,0.107669801,1.015263796
16.951837,10.806686401,-5.281555176,1.622764587,-0.081416503,0.106082886,1.014409304
16.952463,10.951644897,-5.136596680,1.454917908,-0.081172362,0.104129761,1.013066530
16.953090,11.020309448,-5.228149414,1.561729431,-0.084590331,0.102542847,1.009282351
16.953715,10.997421265,-5.106079102,1.599876404,-0.084346190,0.103153199,1.006963015
16.967723,10.150558472,-5.479919434,2.156822205,-0.081538573,0.081546754,1.001836061
16.968508,10.226852417,-5.365478516,2.408592224,-0.080195799,0.082157105,1.001836061
16.969133,10.402328491,-5.373107910,2.561180115,-0.082026854,0.082523316,1.001836061
16.969760,10.112411499,-5.624877930,2.461997986,-0.082759276,0.082279176,1.000615358
16.970385,9.982711792,-5.640136719,2.614585876,-0.083857909,0.080203980,1.002446413
16.971010,9.883529663,-5.525695801,2.507774353,-0.083369628,0.081668824,1.003056765
16.971637,9.761459351,-5.571472168,2.660362244,-0.083491698,0.079471558,1.003056765
16.972262,9.769088745,-5.663024902,2.721397400,-0.082270995,0.080936402,1.003667116
16.972889,9.746200562,-5.708801270,2.675621033,-0.082148924,0.080081910,1.002202272
16.973514,9.715682983,-5.670654297,2.729026794,-0.084834471,0.076663941,1.001103640
16.974139,9.639389038,-5.830871582,2.912132263,-0.084590331,0.078983277,1.000981569
16.974764,9.807235718,-5.884277344,2.889244080,-0.082637206,0.077518433,1.004521608
16.975390,9.914047241,-5.777465820,2.881614685,-0.081172362,0.077030152,1.001958132
16.976015,9.532577515,-5.754577637,2.866355896,-0.083735839,0.079471558,1.004765749
16.976641,9.730941772,-5.914794922,3.247825623,-0.084590331,0.078861207,1.006840944
16.977266,9.463912964,-5.632507324,3.125755310,-0.085688964,0.076053590,1.007329226
16.977892,9.593612671,-5.724060059,3.072349548,-0.081172362,0.078128785,1.007085085
16.978518,9.555465698,-5.907165527,3.156272888,-0.082270995,0.078739136,1.007939577
16.979145,9.540206909,-5.617248535,3.339378357,-0.085200682,0.076908082,1.006474733
16.979772,9.456283569,-5.708801270,3.408042908,-0.081782714,0.077274293,1.008305788
16.980399,9.677536011,-5.655395508,3.415672302,-0.080928221,0.077274293,1.010136843
16.981029,9.616500854,-5.647766113,3.644554138,-0.081294432,0.076663941,1.008794069
16.981656,9.616500854,-5.533325195,3.430931091,-0.080806151,0.077274293,1.005376101
16.982282,9.608871460,-5.457031250,3.461448669,-0.083491698,0.076297730,1.004277468
16.982908,9.601242065,-5.594360352,3.919212341,-0.080073729,0.076175660,1.002812624
16.983534,9.570724487,-5.243408203,3.598777771,-0.079097167,0.079349488,1.003911257
16.984160,9.517318726,-5.090820312,3.659812927,-0.078120604,0.082035035,1.002202272
16.984786,9.639389038,-5.151855469,3.873435974,-0.081416503,0.081424683,1.000127077
16.985491,9.769088745,-5.266296387,3.575889587,-0.082270995,0.082767457,0.996953249
16.986117,9.654647827,-5.266296387,3.789512634,-0.083369628,0.085575074,0.994755983
16.987899,9.662277222,-5.167114258,3.850547791,-0.081172362,0.090213746,0.990483522
16.988526,9.517318726,-5.144226074,4.003135681,-0.082148924,0.090213746,0.987431765
16.989153,9.486801147,-5.067932129,4.193870544,-0.081904784,0.093509644,0.984380007
16.989779,9.463912964,-5.083190918,3.964988708,-0.081538573,0.095828980,0.982304811
16.990405,9.219772339,-5.113708496,4.048912048,-0.082026854,0.101688355,0.976079226
16.991030,9.166366577,-5.037414551,4.102317810,-0.080439940,0.100345582,0.975224733
16.991656,8.945114136,-5.182373047,3.987876892,-0.085933104,0.097415894,0.969243288
16.992282,8.823043823,-5.243408203,4.041282654,-0.085811034,0.099246949,0.968022585
16.992909,8.876449585,-5.067932129,4.193870544,-0.089473143,0.101688355,0.961919069
16.993536,8.777267456,-5.136596680,4.018394470,-0.086299315,0.098392457,0.961308718
16.994162,8.594161987,-5.411254883,4.102317810,-0.090937987,0.101444215,0.957036257
16.994789,8.533126831,-5.579101562,4.239646912,-0.092524901,0.102420777,0.954961061
16.995415,8.716232300,-5.388366699,4.079429626,-0.090693846,0.104495972,0.951176882
16.996042,8.464462280,-5.571472168,4.132835388,-0.091670409,0.104251832,0.953252077
16.996668,8.563644409,-5.510437012,4.094688416,-0.092646971,0.104373902,0.949712038
16.997295,8.563644409,-5.830871582,4.010765076,-0.089839354,0.101566285,0.949467897
16.997921,8.075363159,-5.815612793,4.087059021,-0.090937987,0.100467652,0.948247194
16.998546,8.388168335,-5.846130371,4.132835388,-0.090083495,0.099369019,0.947392702
17.019139,7.281906128,-9.424316406,3.827659607,-0.094600096,0.140994996,0.905034304
17.019874,7.396347046,-9.882080078,3.659812927,-0.090327635,0.130496949,0.904668093
17.020501,7.106430054,-10.156738281,3.659812927,-0.091060057,0.125614136,0.908086061
17.021126,6.915695190,-10.332214355,3.606407166,-0.088374510,0.126224488,0.913945436
17.021751,6.908065796,-10.576354980,3.469078064,-0.086055174,0.117435426,0.926640749
17.022377,7.045394897,-10.637390137,3.575889587,-0.085811034,0.116458863,0.934697390
17.023002,7.075912476,-10.927307129,3.545372009,-0.085688964,0.119998902,0.941533327
17.023628,7.129318237,-11.049377441,3.636924744,-0.088130370,0.119022340,0.949956179
17.024253,6.969100952,-10.988342285,3.476707458,-0.091304198,0.119876832,0.953618288
17.024879,7.129318237,-11.179077148,3.446189880,-0.091670409,0.118411988,0.953984499
17.025504,7.274276733,-11.385070801,3.530113220,-0.089229003,0.122074097,0.950444460
17.026129,7.442123413,-11.392700195,3.278343201,-0.087153807,0.123050660,0.955571413
17.026754,7.609970093,-11.331665039,3.217308044,-0.083125487,0.122684449,0.958012819
17.027380,7.724411011,-11.484252930,3.484336853,-0.085200682,0.118900269,0.961308718
17.028006,7.640487671,-11.728393555,3.270713806,-0.088862792,0.117191285,0.966557741
17.028633,7.609970093,-11.621582031,3.148643494,-0.084834471,0.110355347,0.968877077
17.029258,7.800704956,-11.865722656,3.041831970,-0.085688964,0.113895386,0.972661257
17.029884,7.770187378,-11.713134766,3.316490173,-0.078242674,0.117191285,0.974248171
17.030511,7.671005249,-11.858093262,3.232566833,-0.075190917,0.116092652,0.978886843
17.031136,7.739669800,-11.896240234,3.095237732,-0.075923339,0.112918824,0.984257936
17.031761,7.785446167,-12.025939941,3.247825623,-0.076899901,0.110843629,0.986455202
17.032388,8.189804077,-11.903869629,3.079978943,-0.074214354,0.112918824,0.984624147
17.033013,8.388168335,-12.064086914,3.247825623,-0.072017089,0.111942261,0.987431765
17.033640,8.525497437,-12.178527832,3.171531677,-0.067134276,0.113651246,0.985234499
17.034265,8.571273804,-12.064086914,3.034202576,-0.065059081,0.109867066,0.990849733
17.034890,8.510238647,-12.216674805,3.194419861,-0.066279784,0.109378785,0.989751101
17.035515,8.823043823,-12.155639648,3.156272888,-0.064204589,0.106693238,0.998296022
17.036140,8.838302612,-12.025939941,3.110496521,-0.063228026,0.106449097,1.002934694
17.036765,9.090072632,-11.911499023,3.224937439,-0.066279784,0.108402222,1.003789186
17.037390,9.235031128,-12.094604492,3.209678650,-0.060298339,0.107791871,1.007939577
17.039213,9.463912964,-11.911499023,3.339378357,-0.062739745,0.100345582,1.007817507
17.039838,9.669906616,-11.873352051,2.996055603,-0.065791503,0.099369019,1.012334108
17.040463,9.791976929,-11.636840820,3.186790466,-0.063472167,0.096927613,1.007939577
17.041088,9.853012085,-11.591064453,3.316490173,-0.062495604,0.096317261,1.006230593
17.041713,10.043746948,-11.774169922,3.171531677,-0.062007323,0.094974488,1.010991335
17.042338,10.570175171,-11.583435059,3.202049255,-0.062861815,0.093387574,1.014165163
17.042964,10.547286987,-11.400329590,3.316490173,-0.065791503,0.091556519,1.016972780
17.043589,10.562545776,-11.423217773,3.255455017,-0.064570799,0.094242066,1.021611452
17.044216,10.676986694,-11.385070801,3.400413513,-0.063228026,0.093387574,1.025517702
17.044843,10.707504272,-11.339294434,3.423301697,-0.065059081,0.092288941,1.028081179
17.045470,10.799057007,-11.011230469,3.301231384,-0.065303221,0.091678590,1.027714968
17.046096,10.913497925,-10.919677734,3.644554138,-0.064326659,0.096317261,1.034795046
17.046722,11.134750366,-10.675537109,3.553001404,-0.065059081,0.090946168,1.031010866
17.047349,10.875350952,-10.637390137,3.675071716,-0.062983885,0.092044801,1.033574343
17.047974,11.150009155,-10.477172852,3.545372009,-0.066035643,0.092655152,1.034306765
17.048599,11.249191284,-10.614501953,3.568260193,-0.066401854,0.092533082,1.036015749
17.049225,11.211044312,-10.431396484,3.781883240,-0.064204589,0.094974488,1.040166140
17.049850,11.241561890,-10.126220703,3.682701111,-0.061030760,0.092777222,1.041142702
17.063862,11.912948608,-8.028137207,4.659263611,-0.066401854,0.095218629,1.009282351
17.064654,11.638290405,-8.119689941,4.788963318,-0.065181151,0.097049683,1.016606569
17.065281,11.455184937,-8.165466309,4.613487244,-0.065547362,0.096927613,1.013921022
17.065907,11.050827026,-8.287536621,4.773704529,-0.062495604,0.093143433,1.016972780
17.066532,10.966903687,-7.982360840,4.872886658,-0.059199706,0.091556519,1.021977663
17.067157,10.882980347,-8.081542969,5.002586365,-0.057612792,0.093021363,1.021001101
17.067783,10.799057007,-7.867919922,4.941551208,-0.060542479,0.097171754,1.023076296
17.068408,10.562545776,-7.639038086,4.972068787,-0.064082518,0.099735230,1.019170046
17.069033,10.562545776,-7.799255371,4.857627869,-0.064204589,0.100955933,1.009526491
17.069660,10.272628784,-7.661926270,5.323020935,-0.065059081,0.103763551,1.009282351
17.070287,10.203964233,-7.890808105,5.078880310,-0.062007323,0.103397340,1.009038210
17.070912,10.219223022,-7.768737793,5.231468201,-0.061519042,0.101688355,1.009526491
17.071538,10.074264526,-7.501708984,5.193321228,-0.059321776,0.099246949,1.007329226
17.072165,9.883529663,-7.471191406,5.063621521,-0.056514159,0.099857301,1.008671999
17.072791,9.547836304,-7.463562012,5.231468201,-0.057856932,0.098758668,1.007939577
17.073418,9.456283569,-7.494079590,5.376426697,-0.058711424,0.095096558,1.005864382
17.074044,9.509689331,-7.410156250,5.307762146,-0.058833495,0.092899293,1.004399538
17.074669,9.418136597,-7.516967773,5.208580017,-0.056392089,0.096561402,1.001836061
17.075296,9.173995972,-7.387268066,5.323020935,-0.060786620,0.094852418,0.996098757
17.075921,8.906967163,-7.417785645,5.445091248,-0.055537596,0.096805543,0.988530397
17.076547,8.929855347,-7.326232910,5.628196716,-0.049678221,0.095340699,0.987920046
17.077174,8.716232300,-7.341491699,5.307762146,-0.046504393,0.093875855,0.983281374
17.077799,8.632308960,-7.394897461,5.681602478,-0.039180174,0.099857301,0.980351686
17.078425,8.319503784,-7.463562012,5.834190369,-0.040767089,0.112674683,0.976811647
17.079051,7.770187378,-7.524597168,5.834190369,-0.044307128,0.118778199,0.971318483
17.079678,7.411605835,-7.745849609,6.002037048,-0.047480956,0.126468629,0.969243288
17.080303,6.854660034,-7.921325684,5.918113708,-0.054805174,0.121707886,0.972417116
17.080928,6.068832397,-8.073913574,5.872337341,-0.057368651,0.117069215,0.974858522
17.081555,5.870468140,-8.058654785,5.826560974,-0.059565917,0.112674683,0.975835085
17.082182,5.496627808,-8.066284180,5.788414001,-0.060420409,0.107913941,0.981084108
17.083959,4.848129272,-7.806884766,5.895225525,-0.076411620,0.109378785,0.971928835
17.084585,4.619247437,-7.959472656,5.963890076,-0.081538573,0.111331910,0.964116335
17.085210,4.192001343,-8.150207520,5.773155212,-0.084468260,0.114017457,0.960210085
17.085836,4.115707397,-8.096801758,5.849449158,-0.088008299,0.110111207,0.957402468
17.086461,4.039413452,-8.142578125,6.063072205,-0.085200682,0.115116090,0.962529421
17.087087,3.726608276,-8.173095703,5.765525818,-0.084224120,0.116092652,0.958379030
17.087717,3.566390991,-8.493530273,5.651084900,-0.085322753,0.117923707,0.955083132
17.088344,3.322250366,-8.409606934,5.811302185,-0.085444823,0.117679566,0.951665163
17.088970,3.169662476,-8.524047852,5.689231873,-0.084590331,0.118167847,0.949712038
17.089595,2.811080933,-8.539306641,5.483238220,-0.087153807,0.120365113,0.948125124
17.090221,2.795822144,-8.722412109,5.727378845,-0.086421385,0.122928590,0.948125124
17.090847,2.658493042,-9.027587891,5.643455505,-0.081660643,0.123538941,0.948247194
17.091473,2.490646362,-9.027587891,5.727378845,-0.075679198,0.126346558,0.947026491
17.092099,2.345687866,-8.989440918,5.467979431,-0.077144042,0.126224488,0.945195436
17.092724,2.009994507,-9.073364258,5.384056091,-0.077144042,0.126956910,0.948369265
17.093350,1.628524780,-9.309875488,5.399314880,-0.076411620,0.132694215,0.948613405
17.093977,1.704818726,-9.309875488,5.284873962,-0.072993651,0.130863160,0.947880983
17.094602,1.422531128,-9.264099121,5.315391541,-0.072017089,0.131229371,0.953862429
17.095227,1.094467163,-9.401428223,5.040733337,-0.070796385,0.127933472,0.953130007
17.109082,-1.346939087,-11.194335938,4.628746033,-0.074458495,0.088870972,0.965092897
17.109902,-1.499526978,-11.659729004,4.567710876,-0.077998534,0.085819215,0.964238405
17.110528,-1.354568481,-11.697875977,4.834739685,-0.079707518,0.082889527,0.963383913
17.111153,-1.278274536,-11.957275391,4.636375427,-0.081782714,0.083133668,0.964848757
17.111778,-1.675003052,-12.086975098,4.773704529,-0.081294432,0.081302613,0.964238405
17.112404,-1.560562134,-12.155639648,4.911033630,-0.079707518,0.079471558,0.967412233
17.113029,-1.438491821,-12.277709961,4.811851501,-0.084956542,0.075565308,0.973027468
17.113654,-1.377456665,-12.285339355,4.880516052,-0.079219237,0.076541871,0.975102663
17.114279,-1.438491821,-12.346374512,5.002586365,-0.080195799,0.073123902,0.979985476
17.114905,-1.675003052,-12.445556641,4.964439392,-0.078242674,0.075199097,0.983403444
17.115531,-1.636856079,-12.598144531,4.979698181,-0.078486815,0.073978394,0.991460085
17.116158,-1.522415161,-12.712585449,5.117027283,-0.079707518,0.069705933,0.993413210
17.116783,-1.453750610,-12.704956055,5.178062439,-0.077266112,0.068973511,0.997319460
17.117409,-1.499526978,-12.712585449,5.384056091,-0.079341307,0.067874879,0.996831179
17.118034,-1.430862427,-12.888061523,5.414573669,-0.077144042,0.064456910,1.004277468
17.118661,-1.179092407,-12.621032715,5.315391541,-0.078975096,0.063114136,1.003178835
17.119288,-1.224868774,-13.033020020,5.261985779,-0.078730956,0.064090699,1.002934694
17.119913,-1.049392700,-12.720214844,5.544273376,-0.075312987,0.059329957,1.010136843
17.120538,-0.957839966,-12.575256348,5.612937927,-0.075312987,0.059696168,1.010747194
17.121163,-0.561111450,-12.765991211,5.590049744,-0.073848143,0.060062379,1.010136843
17.121788,-0.744216919,-12.613403320,5.651084900,-0.073359862,0.059452027,1.013432741
17.122413,-0.667922974,-12.468444824,5.658714294,-0.072505370,0.056766480,1.010380983
17.123039,-0.011795044,-12.689697266,5.796043396,-0.075557128,0.058231324,1.008671999
17.123664,-0.133865356,-12.430297852,5.956260681,-0.070796385,0.057498902,1.009404421
17.124290,0.415451050,-12.529479980,5.941001892,-0.073481932,0.058719605,1.013676882
17.124917,0.369674683,-12.430297852,5.818931580,-0.069575682,0.061771363,1.013188601
17.125543,0.415451050,-12.468444824,6.169883728,-0.071284667,0.060062379,1.008061647
17.126170,0.568038940,-12.163269043,5.994407654,-0.069697753,0.062747926,1.003300905
17.126797,1.155502319,-12.460815430,6.139366150,-0.069331542,0.060916871,1.000859499
17.127423,1.254684448,-12.109863281,6.208030701,-0.071040526,0.060428590,0.998540163
17.129222,1.697189331,-12.079345703,6.429283142,-0.068599120,0.058109254,0.989506960
17.129849,2.261764526,-11.980163574,6.475059509,-0.068965331,0.060306519,0.988896608
17.130474,2.566940308,-12.041198730,6.452171326,-0.067134276,0.058719605,0.985478640
17.131100,2.788192749,-12.064086914,6.536094666,-0.070796385,0.058109254,0.983403444
17.131727,2.856857300,-12.125122070,6.650535583,-0.070918456,0.057376832,0.986699343
17.132354,3.368026733,-12.064086914,6.612388611,-0.069209471,0.057987183,0.989018679
17.132981,3.596908569,-12.201416016,6.864158630,-0.067744628,0.058963746,0.987187624
17.133608,4.108078003,-11.919128418,6.780235291,-0.070796385,0.059696168,0.991582155
17.134234,4.069931030,-11.964904785,6.963340759,-0.072871581,0.062381715,0.989140749
17.134859,4.428512573,-11.812316895,6.833641052,-0.071284667,0.061527222,0.989018679
17.135484,4.871017456,-11.880981445,6.772605896,-0.072871581,0.066287965,0.990483522
17.136109,5.069381714,-12.033569336,6.955711365,-0.073726073,0.064578980,0.989140749
17.136735,5.290634155,-12.025939941,7.016746521,-0.071040526,0.065677613,0.991704226
17.137360,5.504257202,-11.896240234,6.879417419,-0.069453612,0.065067261,0.987553835
17.137987,5.771286011,-12.064086914,7.100669861,-0.072261229,0.066410035,0.989262819
17.138612,6.106979370,-11.896240234,7.237998962,-0.072017089,0.064090699,0.985966921
17.139237,6.366378784,-11.690246582,7.253257751,-0.072505370,0.069339722,0.984868288
17.139864,6.618148804,-12.018310547,7.184593201,-0.071406737,0.071659058,0.986088991
17.153810,7.724411011,-11.430847168,8.329002380,-0.060298339,0.122074097,1.026128054
17.154581,7.762557983,-11.446105957,8.176414490,-0.057246581,0.126590699,1.030888796
17.155207,7.587081909,-11.568176270,8.123008728,-0.056880370,0.129764527,1.033086061
17.155834,7.396347046,-11.438476562,8.145896912,-0.057734862,0.136112183,1.036259890
17.156489,7.220870972,-11.125671387,8.107749939,-0.055049315,0.138797730,1.042119265
17.157114,7.014877319,-11.087524414,7.993309021,-0.058345214,0.138919801,1.042973757
17.157739,6.793624878,-11.125671387,8.092491150,-0.054438964,0.145633668,1.048711061
17.158365,6.778366089,-10.721313477,7.909385681,-0.057124510,0.147098511,1.051030397
17.158990,6.473190308,-10.561096191,7.985679626,-0.054805174,0.149295777,1.054448366
17.159616,6.328231812,-10.873901367,7.901756287,-0.054683104,0.152957886,1.056645632
17.160241,6.335861206,-10.522949219,7.924644470,-0.052485839,0.158206910,1.057622194
17.160868,5.931503296,-10.492431641,7.543174744,-0.050166503,0.158939332,1.058110476
17.161494,5.626327515,-10.263549805,7.642356873,-0.053096190,0.162479371,1.057500124
17.162119,5.488998413,-10.309326172,7.566062927,-0.052119628,0.165531129,1.059453249
17.162744,5.275375366,-9.958374023,7.497398376,-0.046870604,0.167972535,1.061528444
17.163369,5.077011108,-10.049926758,7.428733826,-0.046260253,0.167972535,1.058720827
17.163996,4.993087769,-10.011779785,7.199851990,-0.046382323,0.173221558,1.059209108
17.164621,4.962570190,-9.691345215,7.024375916,-0.044307128,0.174564332,1.058842897
17.165246,4.603988647,-9.897338867,6.887046814,-0.044185057,0.177738160,1.059331179
17.165873,4.382736206,-9.508239746,7.047264099,-0.042109862,0.177860230,1.059209108
17.166499,3.924972534,-9.279357910,6.558982849,-0.041499510,0.175052613,1.058110476
17.167124,4.214889526,-9.424316406,6.604759216,-0.043086424,0.179203004,1.060429811
17.167751,3.673202515,-9.386169434,6.261436462,-0.040767089,0.184207886,1.060551882
17.168378,3.612167358,-9.065734863,6.299583435,-0.044429198,0.182620972,1.055302858
17.169003,3.192550659,-9.164916992,6.002037048,-0.043330565,0.186527222,1.056035280
17.169628,3.230697632,-9.096252441,5.864707947,-0.046260253,0.188480347,1.051396608
17.170253,3.100997925,-9.088623047,5.857078552,-0.048945799,0.187625855,1.053715944
17.170878,3.039962769,-8.936035156,5.712120056,-0.043818846,0.186649293,1.051518679
17.171504,2.833969116,-8.791076660,5.719749451,-0.050410643,0.189823121,1.055424929
17.172129,2.666122437,-8.791076660,5.445091248,-0.051265135,0.190555543,1.052861452
17.173943,1.971847534,-8.806335449,4.796592712,-0.050288573,0.190189332,1.049565554
17.174568,1.750595093,-8.638488770,4.544822693,-0.049922362,0.189945191,1.050053835
17.175193,1.903182983,-8.501159668,4.445640564,-0.051265135,0.191043824,1.050664186
17.175818,1.460678101,-8.585083008,4.109947205,-0.053462401,0.190067261,1.050786257
17.176444,1.315719604,-8.394348145,4.003135681,-0.054316893,0.187503785,1.049199343
17.177070,1.414901733,-8.241760254,3.949729919,-0.053218260,0.185794801,1.049565554
17.177696,1.315719604,-8.257019043,3.713218689,-0.053828612,0.182376832,1.048955202
17.178322,1.338607788,-8.066284180,3.614036560,-0.055049315,0.181522340,1.047246218
17.178949,1.231796265,-7.928955078,3.430931091,-0.053950682,0.182010621,1.043950319
17.179575,1.254684448,-7.806884766,3.377525330,-0.053462401,0.185306519,1.043828249
17.180202,1.010543823,-7.898437500,3.240196228,-0.053828612,0.184940308,1.044438601
17.180828,0.903732300,-7.898437500,2.988426208,-0.050410643,0.182743043,1.042607546
17.181454,0.804550171,-7.669555664,2.957908630,-0.051020995,0.183475465,1.042241335
17.182079,0.598556519,-7.814514160,2.858726501,-0.050654784,0.185184449,1.041875124
17.182706,0.674850464,-7.471191406,2.698509216,-0.051265135,0.177982301,1.041386843
17.183332,0.598556519,-7.524597168,2.408592224,-0.049922362,0.177127808,1.038823366
17.183957,0.613815308,-7.738220215,2.317039490,-0.048335448,0.181400269,1.037114382
17.184584,0.354415894,-7.387268066,2.225486755,-0.047114745,0.178714722,1.037724733
17.198491,1.788742065,-6.097900391,0.081626892,-0.052363768,0.134525269,1.009404421
17.199237,1.659042358,-6.158935547,-0.170143127,-0.053096190,0.130374879,1.007695436
17.199864,1.590377808,-5.968200684,-0.139625549,-0.057490721,0.127078980,1.005131960
17.200490,1.529342651,-6.044494629,-0.185401917,-0.058833495,0.127445191,1.001225710
17.201115,1.681930542,-5.975830078,-0.231178284,-0.058223143,0.124393433,1.001958132
17.201740,1.826889038,-5.907165527,-0.391395569,-0.060420409,0.123050660,1.001225710
17.202367,1.872665405,-5.930053711,-0.269325256,-0.056880370,0.121829957,0.999394655
17.202992,1.643783569,-6.029235840,-0.421913147,-0.060298339,0.117191285,0.998784304
17.203619,1.910812378,-5.899536133,-0.597389221,-0.060176268,0.116092652,0.999516726
17.204244,1.781112671,-5.861389160,-0.605018616,-0.061885253,0.115970582,0.994389772
17.204870,2.055770874,-5.914794922,-0.467689514,-0.062495604,0.111453980,0.992558718
17.205497,1.697189331,-5.945312500,-0.643165588,-0.063960448,0.110111207,0.994878054
17.206122,1.887924194,-5.693542480,-0.704200745,-0.061885253,0.110111207,0.992070436
17.206748,1.834518433,-5.991088867,-0.627906799,-0.063105956,0.104495972,0.990849733
17.207373,2.025253296,-5.830871582,-0.505836487,-0.061885253,0.103641480,0.989995241
17.207998,1.720077515,-6.021606445,-0.757606506,-0.063594237,0.096073121,0.989629030
17.208624,1.964218140,-5.708801270,-0.467689514,-0.063105956,0.096561402,0.988164186
17.209250,1.811630249,-5.960571289,-0.681312561,-0.064082518,0.093753785,0.990117311
17.209877,1.948959351,-5.960571289,-0.566871643,-0.063350096,0.087772340,0.986821413
17.210502,1.941329956,-6.113159180,-0.612648010,-0.061763182,0.087406129,0.986699343
17.211128,2.048141479,-6.166564941,-0.376136780,-0.061152831,0.085941285,0.984380007
17.211754,1.948959351,-6.120788574,-0.475318909,-0.064082518,0.082645386,0.983403444
17.212380,2.017623901,-6.151306152,-0.368507385,-0.062983885,0.081668824,0.982671022
17.213005,1.910812378,-6.113159180,-0.498207092,-0.064326659,0.077884644,0.987065554
17.213632,2.139694214,-6.387817383,-0.139625549,-0.065791503,0.074832886,0.983281374
17.214257,2.040512085,-6.258117676,-0.208290100,-0.063350096,0.074344605,0.984746218
17.214882,2.154953003,-6.387817383,-0.116737366,-0.063716307,0.073001832,0.983525515
17.215507,2.170211792,-6.326782227,-0.246437073,-0.063960448,0.068729371,0.980839968
17.216134,2.421981812,-6.441223145,-0.200660706,-0.063960448,0.068119019,0.982182741
17.216760,2.193099976,-6.326782227,0.135032654,-0.063105956,0.066287965,0.983891726
17.218526,2.391464233,-6.563293457,0.356285095,-0.062983885,0.064701051,0.986821413
17.219152,2.162582397,-6.692993164,0.104515076,-0.064204589,0.065067261,0.986333132
17.219777,2.376205444,-6.502258301,0.272361755,-0.063105956,0.061649293,0.988286257
17.220403,2.551681519,-6.570922852,0.562278748,-0.058711424,0.062992066,0.987553835
17.221028,2.498275757,-6.784545898,0.516502380,-0.061152831,0.060794801,0.988286257
17.221654,2.536422729,-6.532775879,0.424949646,-0.060298339,0.063480347,0.988896608
17.222281,2.383834839,-6.448852539,0.867454529,-0.064204589,0.060672730,0.988530397
17.222907,2.238876343,-6.540405273,0.768272400,-0.060786620,0.062137574,0.993169069
17.223532,2.292282104,-6.609069824,0.905601501,-0.063228026,0.064578980,0.994878054
17.224159,2.475387573,-6.631958008,0.981895447,-0.060542479,0.064578980,0.993046999
17.224784,2.139694214,-6.746398926,0.890342712,-0.061763182,0.064578980,0.993779421
17.225410,2.170211792,-6.456481934,1.226036072,-0.061519042,0.063358277,0.995244265
17.226035,2.032882690,-6.555664062,1.050559998,-0.058223143,0.063602418,0.995366335
17.226661,1.926071167,-6.670104980,1.203147888,-0.057612792,0.063358277,0.995366335
17.227286,2.040512085,-6.654846191,1.241294861,-0.058223143,0.062503785,0.994267702
17.227912,2.025253296,-6.471740723,1.264183044,-0.058955565,0.063358277,0.995244265
17.228538,1.865036011,-6.662475586,1.470176697,-0.060664549,0.061649293,0.999394655
17.229164,2.017623901,-6.517517090,1.576988220,-0.058223143,0.063114136,1.001103640
17.229791,2.177841187,-6.425964355,1.386253357,-0.058711424,0.062381715,0.999882936
17.243754,4.161483765,-5.663024902,2.606956482,-0.054438964,0.063846558,1.017827272
17.244520,4.405624390,-6.013977051,2.500144958,-0.055537596,0.063724488,1.019658327
17.245146,4.817611694,-5.800354004,2.469627380,-0.053706542,0.051883668,1.017461061
17.245772,5.237228394,-5.670654297,2.530662537,-0.054194823,0.049686402,1.017094851
17.246399,5.649215698,-5.579101562,3.072349548,-0.053584471,0.056156129,1.015752077
17.247028,5.870468140,-5.663024902,2.843467712,-0.054683104,0.054325074,1.010869265
17.247653,6.213790894,-5.342590332,2.965538025,-0.056880370,0.064090699,1.008427858
17.248279,6.404525757,-5.632507324,3.217308044,-0.056880370,0.065311402,1.011235476
17.248904,6.518966675,-5.594360352,3.163902283,-0.059321776,0.070804566,1.012334108
17.249531,6.602890015,-5.411254883,3.148643494,-0.055415526,0.072513551,1.009770632
17.250156,6.763107300,-5.754577637,3.141014099,-0.050898924,0.074710816,1.009648561
17.250783,7.075912476,-5.655395508,3.232566833,-0.048701659,0.078006715,1.010747194
17.251409,7.075912476,-5.411254883,3.141014099,-0.047114745,0.078494996,1.011235476
17.252035,7.457382202,-5.609619141,3.415672302,-0.049922362,0.077396363,1.007817507
17.252661,7.945663452,-5.693542480,3.293601990,-0.046382323,0.075687379,1.013921022
17.253286,8.014328003,-5.518066406,3.369895935,-0.048213378,0.078983277,1.015019655
17.253911,8.319503784,-5.579101562,3.415672302,-0.045405760,0.083255738,1.016362429
17.254537,8.983261108,-5.624877930,3.430931091,-0.047603026,0.084354371,1.016240358
17.255164,9.143478394,-5.312072754,3.362266541,-0.050410643,0.087650269,1.015019655
17.255791,9.532577515,-5.632507324,3.644554138,-0.050410643,0.084354371,1.014653444
17.256418,9.700424194,-5.411254883,3.347007751,-0.053462401,0.083744019,1.013798952
17.257044,10.173446655,-5.418884277,3.636924744,-0.050654784,0.084354371,1.013676882
17.257671,10.539657593,-5.441772461,3.446189880,-0.051509276,0.084110230,1.011845827
17.258296,11.096603394,-5.334960938,3.614036560,-0.051020995,0.081668824,1.012456179
17.258921,11.600143433,-5.365478516,3.636924744,-0.051387206,0.087284058,1.015141726
17.259547,11.996871948,-5.411254883,3.621665955,-0.052974120,0.091068238,1.012700319
17.260172,12.622482300,-5.380737305,3.392784119,-0.054805174,0.091678590,1.012700319
17.260797,12.904769897,-5.212890625,3.568260193,-0.056636229,0.094119996,1.009160280
17.269305,16.162521362,-4.709350586,3.156272888,-0.052485839,0.130496949,0.995122194
17.269930,16.162521362,-4.762756348,3.102867126,-0.049067870,0.135135621,0.990727663
17.270557,16.246444702,-4.587280273,3.125755310,-0.051509276,0.137821168,0.991093874
17.271184,16.345626831,-4.556762695,3.003684998,-0.051997557,0.141971558,0.989018679
17.271809,16.223556519,-4.778015137,2.965538025,-0.052607909,0.143314332,0.988164186
17.272434,16.086227417,-4.716979980,3.034202576,-0.053584471,0.148685426,0.988408327
17.273059,15.964157104,-4.778015137,2.912132263,-0.049434081,0.147464722,0.983891726
17.273685,16.009933472,-4.846679688,2.790061951,-0.052241698,0.149051636,0.984013796
17.274312,15.811569214,-4.701721191,2.469627380,-0.050776854,0.149051636,0.985600710
17.274937,15.849716187,-4.900085449,2.507774353,-0.048579589,0.149051636,0.982671022
17.275562,15.720016479,-4.800903320,2.515403748,-0.051020995,0.150638551,0.982671022
17.276187,15.575057983,-4.854309082,2.217857361,-0.051143065,0.152225465,0.978886843
17.276812,15.727645874,-4.938232422,2.309410095,-0.052852049,0.153202027,0.980351686
17.277438,15.391952515,-4.930603027,2.065269470,-0.052974120,0.157108277,0.979253054
17.278063,15.010482788,-5.029785156,2.050010681,-0.054194823,0.159183472,0.982426882
17.278689,14.987594604,-5.083190918,2.057640076,-0.054927245,0.162845582,0.983281374
17.279315,14.842636108,-4.846679688,1.706687927,-0.055171385,0.162723511,0.979253054
17.279942,14.506942749,-5.235778809,1.653282166,-0.055537596,0.165531129,0.981450319
17.280568,13.980514526,-5.159484863,1.630393982,-0.057368651,0.171024293,0.981816530
17.281193,13.919479370,-5.075561523,1.386253357,-0.056270018,0.172611207,0.982671022
17.295123,7.159835815,-6.479370117,-0.536354065,-0.064692870,0.125858277,0.979130983
17.295833,6.946212769,-6.433593750,-0.597389221,-0.064570799,0.125980347,0.984257936
17.296459,6.778366089,-6.593811035,-0.574501038,-0.062861815,0.130374879,0.982793093
17.297086,6.648666382,-7.089721680,-0.589759827,-0.062495604,0.127689332,0.984990358
17.297712,6.679183960,-6.960021973,-0.894935608,-0.062007323,0.125492066,0.988042116
17.298337,6.389266968,-7.021057129,-0.658424377,-0.061641112,0.124149293,0.988652468
17.298962,6.251937866,-6.929504395,-0.734718323,-0.061763182,0.119876832,0.989629030
17.299589,5.984909058,-6.883728027,-0.803382874,-0.060298339,0.118045777,0.990483522
17.300214,5.847579956,-7.005798340,-0.727088928,-0.057490721,0.117191285,0.992924929
17.300839,5.778915405,-6.967651367,-0.749977112,-0.058467284,0.111942261,0.993535280
17.301465,5.534774780,-7.066833496,-0.566871643,-0.057368651,0.110355347,0.995976686
17.302091,5.656845093,-6.830322266,-0.635536194,-0.057246581,0.108158082,0.994633913
17.302716,5.328781128,-6.944763184,-0.818641663,-0.055293456,0.106204957,0.995366335
17.303341,5.481369019,-7.143127441,-0.643165588,-0.056636229,0.106815308,0.994389772
17.303968,5.412704468,-6.868469238,-0.788124084,-0.057368651,0.102542847,0.990849733
17.304593,5.336410522,-6.815063477,-0.719459534,-0.056514159,0.099735230,0.987187624
17.305218,5.283004761,-6.937133789,-0.719459534,-0.058589354,0.097293824,0.985234499
17.305844,5.275375366,-6.876098633,-0.811012268,-0.059077635,0.091922730,0.983159304
17.306469,5.427963257,-7.005798340,-0.658424377,-0.059077635,0.090091676,0.985966921
17.307096,5.305892944,-7.143127441,-0.711830139,-0.056147948,0.090091676,0.987431765
17.307721,5.382186890,-7.097351074,-0.597389221,-0.058955565,0.087772340,0.993901491
17.308346,5.496627808,-6.990539551,-0.719459534,-0.053706542,0.085330933,0.994878054
17.308972,5.542404175,-7.043945312,-0.711830139,-0.055293456,0.084964722,0.998418093
17.309599,5.809432983,-6.609069824,-0.460060120,-0.055659667,0.084476441,0.998051882
17.310225,5.771286011,-6.898986816,-0.635536194,-0.052852049,0.086429566,0.998296022
17.310850,5.733139038,-6.807434082,-0.704200745,-0.052485839,0.085819215,1.003789186
17.311475,5.923873901,-6.731140137,-0.574501038,-0.055171385,0.087772340,1.000981569
17.312100,5.939132690,-6.563293457,-0.643165588,-0.057002440,0.087772340,1.002812624
17.312725,5.786544800,-6.708251953,-0.528724670,-0.055781737,0.091068238,1.001958132
17.313352,5.809432983,-6.723510742,-0.597389221,-0.055415526,0.084476441,0.998173952
17.315144,5.672103882,-6.563293457,-0.475318909,-0.054805174,0.090091676,1.002568483
17.315769,5.389816284,-6.868469238,-0.223548889,-0.054927245,0.093143433,1.003911257
17.316396,5.321151733,-6.570922852,-0.475318909,-0.054927245,0.092288941,1.003545046
17.317026,5.313522339,-6.769287109,-0.215919495,-0.055659667,0.090824097,1.001713991
17.317653,5.069381714,-6.380187988,-0.292213440,-0.054805174,0.091678590,1.001958132
17.318278,4.855758667,-6.738769531,-0.223548889,-0.054316893,0.093509644,1.001958132
17.318903,4.466659546,-6.548034668,-0.048072815,-0.054194823,0.092899293,1.001958132
17.319528,4.489547729,-6.868469238,-0.391395569,-0.055903807,0.091678590,1.002812624
17.320153,4.336959839,-6.570922852,-0.070960999,-0.055903807,0.093631715,1.002812624
17.320780,4.489547729,-6.746398926,0.012962341,-0.055659667,0.090702027,1.002324343
17.321406,4.146224976,-6.746398926,-0.109107971,-0.054438964,0.091678590,1.001469851
17.322031,3.917343140,-6.624328613,0.073997498,-0.054316893,0.092166871,1.007573366
17.322657,3.764755249,-6.784545898,-0.032814026,-0.056514159,0.091678590,1.005131960
17.323282,3.665573120,-6.616699219,-0.048072815,-0.059077635,0.092044801,1.005254030
17.323908,3.528244019,-6.815063477,-0.078590393,-0.055171385,0.091800660,1.008183718
17.324533,3.322250366,-6.815063477,0.135032654,-0.055659667,0.091678590,1.008061647
17.325160,3.154403687,-6.822692871,-0.109107971,-0.058223143,0.094852418,1.005864382
17.325785,3.207809448,-6.868469238,0.173179626,-0.057002440,0.094364136,1.005864382
17.326411,2.917892456,-6.738769531,0.073997498,-0.055537596,0.097904176,1.008183718
17.340380,0.987655640,-7.761108398,0.302879333,-0.048945799,0.087039918,1.017094851
17.341147,1.086837769,-7.768737793,0.371543884,-0.051997557,0.079349488,1.017216921
17.341773,1.102096558,-7.883178711,0.371543884,-0.054316893,0.078128785,1.017094851
17.342400,1.124984741,-7.860290527,0.279991150,-0.052729979,0.076541871,1.015752077
17.343029,1.582748413,-7.692443848,0.279991150,-0.051875487,0.074710816,1.019047976
17.343655,1.468307495,-7.822143555,0.188438416,-0.048213378,0.071048707,1.021489382
17.344281,1.956588745,-7.684814453,0.234214783,-0.051387206,0.066898316,1.022099733
17.344906,1.933700562,-7.669555664,0.249473572,-0.046870604,0.066287965,1.019658327
17.345531,2.261764526,-7.608520508,0.157920837,-0.049922362,0.067264527,1.021855593
17.346158,2.261764526,-7.684814453,0.447837830,-0.045649901,0.064212769,1.018193483
17.346785,2.627975464,-7.524597168,0.493614197,-0.048335448,0.066776246,1.021489382
17.347411,2.902633667,-7.433044434,0.379173279,-0.049800292,0.064090699,1.020879030
17.348036,3.192550659,-7.433044434,0.386802673,-0.048457518,0.063480347,1.018803835
17.348663,3.398544312,-7.318603516,0.508872986,-0.045894042,0.062015504,1.020879030
17.349289,3.604537964,-7.288085938,0.318138123,-0.043940917,0.058231324,1.020268679
17.349914,3.879196167,-7.188903809,0.554649353,-0.046016112,0.059452027,1.018437624
17.350539,4.123336792,-7.158386230,0.646202087,-0.046748534,0.061161011,1.017583132
17.351166,4.108078003,-7.143127441,0.585166931,-0.045771971,0.058231324,1.019658327
17.351792,4.199630737,-7.181274414,0.600425720,-0.044673339,0.060428590,1.019414186
17.352419,4.428512573,-7.166015625,0.562278748,-0.043696776,0.059085816,1.020634890
17.353046,4.558212280,-7.021057129,0.882713318,-0.044062987,0.058597535,1.022588015
17.353671,4.649765015,-6.647216797,0.722496033,-0.044185057,0.059818238,1.019414186
17.354296,4.665023804,-7.021057129,0.951377869,-0.043452635,0.060672730,1.019902468
17.354922,4.802352905,-6.944763184,0.959007263,-0.045405760,0.059329957,1.020634890
17.355547,4.832870483,-6.914245605,0.882713318,-0.045161620,0.058475465,1.021977663
17.356172,4.687911987,-6.799804688,0.821678162,-0.046016112,0.060672730,1.022954226
17.356799,4.840499878,-6.830322266,1.248924255,-0.045771971,0.062137574,1.019780397
17.357426,4.649765015,-6.631958008,1.111595154,-0.047725096,0.060062379,1.017705202
17.358052,4.764205933,-6.609069824,1.203147888,-0.049556151,0.061283082,1.016972780
17.358678,4.840499878,-6.830322266,1.363365173,-0.048335448,0.061405152,1.018925905
17.360512,4.611618042,-6.593811035,1.355735779,-0.051143065,0.064823121,1.015263796
17.361137,4.901535034,-6.479370117,1.485435486,-0.048457518,0.064823121,1.015752077
17.361764,4.703170776,-6.548034668,1.386253357,-0.049800292,0.063724488,1.013676882
17.362390,4.573471069,-6.486999512,1.546470642,-0.051753417,0.062259644,1.012456179
17.363015,4.397994995,-6.471740723,1.470176697,-0.053706542,0.062381715,1.006352663
17.363641,4.405624390,-6.532775879,1.676170349,-0.051997557,0.062869996,1.005254030
17.364267,4.260665894,-6.586181641,1.622764587,-0.057612792,0.063236207,1.002934694
17.364892,4.260665894,-6.509887695,1.645652771,-0.056147948,0.063724488,1.005131960
17.365518,4.207260132,-6.647216797,1.721946716,-0.055415526,0.061771363,1.007695436
17.366145,4.169113159,-6.692993164,1.744834900,-0.051143065,0.061893433,1.009526491
17.366770,4.161483765,-6.639587402,1.805870056,-0.056270018,0.058475465,1.009038210
17.367396,4.123336792,-6.486999512,1.821128845,-0.054438964,0.062015504,1.013921022
17.368028,4.298812866,-6.677734375,1.805870056,-0.052241698,0.061161011,1.019414186
17.368654,4.176742554,-6.647216797,1.920310974,-0.052485839,0.060306519,1.019780397
17.369280,4.085189819,-6.593811035,1.882164001,-0.052852049,0.062381715,1.017216921
17.369906,4.230148315,-6.578552246,2.225486755,-0.050654784,0.064456910,1.018559694
17.370531,4.199630737,-6.647216797,2.126304626,-0.048579589,0.061893433,1.018925905
17.371157,4.024154663,-6.769287109,1.950828552,-0.052852049,0.064456910,1.021245241
17.385387,5.481369019,-6.227600098,3.041831970,-0.040889159,0.077640504,1.012700319
17.386145,6.030685425,-6.151306152,2.973167419,-0.041865721,0.076908082,1.007573366
17.386770,6.511337280,-6.250488281,3.072349548,-0.039058104,0.075931519,1.005864382
17.387395,6.595260620,-6.036865234,2.843467712,-0.041865721,0.077518433,1.011357546
17.388028,7.037765503,-6.097900391,3.156272888,-0.040034667,0.079227418,1.006718874
17.388655,7.205612183,-6.128417969,2.935020447,-0.041377440,0.081302613,1.008794069
17.389281,7.770187378,-5.830871582,2.843467712,-0.040522948,0.082889527,1.008916140
17.389907,7.800704956,-6.197082520,3.034202576,-0.042109862,0.083866090,1.008916140
17.390532,8.136398315,-6.113159180,3.041831970,-0.040767089,0.085208863,1.010625124
17.391158,8.411056519,-5.937683105,2.996055603,-0.042842284,0.087406129,1.009770632
17.391784,8.449203491,-5.968200684,2.843467712,-0.042476073,0.086429566,1.011479616
17.392409,8.906967163,-6.029235840,2.896873474,-0.041011229,0.087650269,1.013554811
17.393035,9.074813843,-5.907165527,2.790061951,-0.043452635,0.089847535,1.016728640
17.393661,9.212142944,-6.067382812,3.011314392,-0.042231932,0.093875855,1.018559694
17.394291,9.387619019,-5.907165527,2.873985291,-0.042476073,0.092655152,1.017094851
17.395011,9.479171753,-5.785095215,2.812950134,-0.045771971,0.093753785,1.015385866
17.395636,9.616500854,-6.136047363,2.629844666,-0.047603026,0.098758668,1.018071413
17.396261,9.677536011,-5.861389160,2.851097107,-0.044795409,0.096683472,1.021489382
17.396886,9.616500854,-5.823242188,2.675621033,-0.043940917,0.097049683,1.021001101
17.397512,9.738571167,-6.021606445,2.759544373,-0.042964354,0.099124879,1.022465944
17.398139,9.952194214,-5.800354004,2.683250427,-0.042476073,0.096805543,1.022221804
17.398766,9.776718140,-5.830871582,2.591697693,-0.046504393,0.098270386,1.027959108
17.399393,9.982711792,-5.830871582,2.645103455,-0.043208495,0.102298707,1.024907351
17.400026,9.738571167,-5.571472168,2.782432556,-0.043818846,0.105228394,1.027470827
17.400652,10.097152710,-5.647766113,2.568809509,-0.046748534,0.107547730,1.026372194
17.401277,9.776718140,-5.815612793,2.576438904,-0.044429198,0.105960816,1.031377077
17.401903,9.502059937,-5.853759766,2.896873474,-0.047969237,0.108646363,1.030644655
17.402528,9.578353882,-5.609619141,2.690879822,-0.046870604,0.106815308,1.031132936
17.403153,9.341842651,-5.479919434,2.568809509,-0.046504393,0.106327027,1.030156374
17.403780,9.105331421,-5.624877930,2.446739197,-0.047236815,0.107181519,1.030400515
17.405612,9.067184448,-5.457031250,2.523033142,-0.048457518,0.105350465,1.033574343
17.406239,8.815414429,-5.075561523,2.484886169,-0.049312010,0.108158082,1.031499147
17.406865,8.807785034,-5.273925781,2.500144958,-0.050898924,0.107425660,1.031987429
17.407492,8.685714722,-5.144226074,2.202598572,-0.048945799,0.107181519,1.033452272
17.408118,8.479721069,-5.022155762,2.317039490,-0.050044432,0.108768433,1.034550905
17.408743,8.411056519,-5.052673340,2.400962830,-0.045283690,0.106449097,1.036748171
17.409368,8.067733765,-4.686462402,2.286521912,-0.047603026,0.105350465,1.031255007
17.409994,8.098251343,-4.892456055,2.179710388,-0.049189940,0.105838746,1.031255007
17.410620,7.999069214,-4.747497559,2.362815857,-0.047114745,0.104740113,1.029668093
17.411245,7.800704956,-4.572021484,2.294151306,-0.047236815,0.103641480,1.027959108
17.411871,7.777816772,-4.579650879,2.118675232,-0.048579589,0.100345582,1.028935671
17.412497,7.663375854,-4.518615723,2.271263123,-0.047847167,0.104373902,1.026738405
17.413123,7.564193726,-4.594909668,2.080528259,-0.049189940,0.100833863,1.028447390
17.413750,7.648117065,-4.449951172,2.111045837,-0.048823729,0.102420777,1.023442507
17.414375,7.434494019,-4.488098145,2.050010681,-0.050654784,0.093021363,1.023320436
17.415000,7.564193726,-4.510986328,2.019493103,-0.047358885,0.084598511,1.027959108
17.415626,7.968551636,-4.221069336,1.966087341,-0.048457518,0.080448121,1.028935671
17.416253,7.922775269,-4.175292969,1.996604919,-0.045894042,0.087284058,1.026372194
17.416880,8.334762573,-4.129516602,2.126304626,-0.051631346,0.088504761,1.025761843
17.430865,5.565292358,-2.885925293,2.500144958,-0.043940917,0.070804566,1.036748171
17.431658,5.389816284,-2.870666504,2.439109802,-0.041011229,0.069339722,1.036626101
17.432284,5.450851440,-2.664672852,2.385704041,-0.040522948,0.067386597,1.036015749
17.432910,5.618698120,-2.641784668,2.347557068,-0.041255370,0.066654176,1.034795046
17.433536,5.450851440,-2.412902832,2.584068298,-0.042720214,0.067264527,1.030278444
17.434161,5.450851440,-2.069580078,2.530662537,-0.047114745,0.069705933,1.025639772
17.434786,5.359298706,-2.184020996,2.492515564,-0.048457518,0.067630738,1.025883913
17.435412,5.427963257,-2.176391602,2.500144958,-0.046260253,0.072025269,1.019170046
17.436039,5.229598999,-1.924621582,2.667991638,-0.047969237,0.069461793,1.018559694
17.436666,5.077011108,-1.916992188,2.713768005,-0.046992674,0.066654176,1.016728640
17.437301,5.107528687,-1.932250977,2.545921326,-0.049434081,0.069339722,1.015996218
17.437926,5.015975952,-1.566040039,2.713768005,-0.046870604,0.067020386,1.010014772
17.438553,4.794723511,-2.039062500,2.667991638,-0.051387206,0.067996949,1.006230593
17.439180,4.855758667,-1.794921875,2.561180115,-0.047480956,0.069339722,1.007573366
17.439807,4.512435913,-1.787292480,2.950279236,-0.050166503,0.069461793,1.002934694
17.440433,4.565841675,-1.955139160,2.873985291,-0.049922362,0.066654176,1.003178835
17.441059,4.428512573,-1.840698242,3.079978943,-0.049556151,0.071292847,0.999028444
17.441685,4.268295288,-1.848327637,3.125755310,-0.048091307,0.070560426,0.994633913
17.442310,4.047042847,-1.810180664,3.224937439,-0.051020995,0.070072144,0.994633913
17.442936,3.955490112,-1.787292480,3.202049255,-0.053828612,0.073368043,0.991826296
17.443561,3.772384644,-1.756774902,3.293601990,-0.052852049,0.073612183,0.990239382
17.444187,3.512985229,-1.932250977,3.171531677,-0.049434081,0.075321168,0.986699343
17.444814,3.505355835,-1.924621582,3.255455017,-0.047847167,0.076175660,0.989018679
17.445441,3.192550659,-1.855957031,3.354637146,-0.050776854,0.077152222,0.987553835
17.446067,3.146774292,-1.955139160,3.247825623,-0.049678221,0.079471558,0.984013796
17.446692,2.933151245,-1.710998535,3.476707458,-0.048579589,0.078617066,0.981450319
17.447317,2.925521851,-2.229797363,3.446189880,-0.049556151,0.080814332,0.980229616
17.447944,2.780563354,-2.145874023,3.324119568,-0.051143065,0.080570191,0.981816530
17.448570,2.658493042,-2.023803711,3.484336853,-0.049434081,0.079471558,0.978398561
17.449197,2.559310913,-2.122985840,3.583518982,-0.049067870,0.083255738,0.975835085
17.450980,2.513534546,-2.084838867,3.545372009,-0.046748534,0.079227418,0.976567507
17.451605,2.635604858,-2.054321289,3.652183533,-0.045283690,0.081424683,0.974858522
17.452231,2.612716675,-2.122985840,3.591148376,-0.046626464,0.081180543,0.973515749
17.452858,2.772933960,-2.229797363,3.697959900,-0.046504393,0.080936402,0.973393679
17.453484,2.681381226,-2.283203125,3.972618103,-0.046748534,0.082157105,0.967168093
17.454110,3.039962769,-2.336608887,3.575889587,-0.045161620,0.082889527,0.967656374
17.454736,3.398544312,-2.405273438,3.553001404,-0.046748534,0.083133668,0.970341921
17.455362,3.566390991,-2.565490723,3.705589294,-0.040034667,0.085208863,0.959965944
17.455989,3.566390991,-2.565490723,3.705589294,-0.040034667,0.085208863,0.959965944
17.456616,3.726608276,-2.527343750,3.690330505,-0.045283690,0.084842652,0.960820436
17.457241,3.947860718,-2.428161621,3.804771423,-0.044062987,0.082889527,0.958867311
17.457866,4.268295288,-2.550231934,3.713218689,-0.044185057,0.087284058,0.959111452
17.458493,4.619247437,-2.611267090,3.713218689,-0.043696776,0.086307496,0.957280397
17.459119,4.764205933,-2.786743164,3.659812927,-0.044185057,0.087528199,0.958134890
17.459745,4.817611694,-2.626525879,3.606407166,-0.045527831,0.087528199,0.958501101
17.460370,5.290634155,-2.565490723,3.743736267,-0.046382323,0.087772340,0.956181765
17.460996,5.611068726,-3.076660156,3.736106873,-0.042842284,0.088504761,0.955449343
17.461621,5.550033569,-3.007995605,3.743736267,-0.046382323,0.092655152,0.955571413
17.462248,5.984909058,-3.000366211,3.781883240,-0.048945799,0.093021363,0.957036257
17.476128,8.136398315,-4.205810547,3.156272888,-0.050654784,0.129154176,0.975713015
17.476841,8.067733765,-4.343139648,3.118125916,-0.051875487,0.134891480,0.975835085
17.477466,8.128768921,-4.625427246,3.171531677,-0.053706542,0.134159058,0.974614382
17.478091,7.854110718,-4.488098145,3.118125916,-0.052729979,0.135990113,0.978276491
17.478717,7.739669800,-4.442321777,2.873985291,-0.052363768,0.138797730,0.980595827
17.479342,7.922775269,-4.663574219,2.889244080,-0.054316893,0.137577027,0.980962038
17.479968,8.144027710,-4.778015137,2.805320740,-0.054194823,0.139652222,0.981328249
17.480593,7.983810425,-4.861938477,2.774803162,-0.052363768,0.139163941,0.982060671
17.481218,7.838851929,-4.854309082,2.683250427,-0.054927245,0.144290894,0.983281374
17.481843,7.754928589,-4.976379395,2.538291931,-0.056392089,0.142459840,0.982671022
17.482469,7.678634644,-4.938232422,2.317039490,-0.056392089,0.143314332,0.985722780
17.483094,7.686264038,-5.014526367,2.416221619,-0.054194823,0.145877808,0.985600710
17.483719,7.678634644,-5.090820312,2.461997986,-0.051509276,0.143314332,0.985966921
17.484344,7.762557983,-4.953491211,2.141563416,-0.054927245,0.142093629,0.987187624
17.484970,7.838851929,-5.228149414,2.172080994,-0.053340331,0.139408082,0.987187624
17.485596,7.724411011,-5.632507324,2.202598572,-0.053218260,0.141483277,0.992192507
17.486221,7.686264038,-5.472290039,2.126304626,-0.054805174,0.139896363,0.995000124
17.486846,7.838851929,-5.693542480,1.927940369,-0.055537596,0.140262574,0.993901491
17.487473,7.732040405,-5.571472168,1.851646423,-0.052363768,0.141361207,0.995122194
17.488098,7.487899780,-5.609619141,1.660911560,-0.055049315,0.140628785,0.997929811
17.488723,7.579452515,-5.838500977,1.676170349,-0.053950682,0.139896363,0.996342897
17.489348,7.609970093,-5.716430664,1.714317322,-0.050410643,0.138431519,0.995976686
17.489973,7.579452515,-5.693542480,1.538841248,-0.051509276,0.142093629,0.998662233
17.490598,7.381088257,-5.914794922,1.554100037,-0.051265135,0.139530152,0.998051882
17.491223,7.419235229,-5.998718262,1.401512146,-0.053828612,0.139041871,0.997685671
17.491849,7.487899780,-5.937683105,1.386253357,-0.052363768,0.138797730,1.002202272
17.492474,7.411605835,-6.075012207,1.340476990,-0.050898924,0.137210816,1.001591921
17.493099,7.228500366,-6.090270996,1.226036072,-0.052852049,0.134281129,1.003422976
17.493724,7.228500366,-6.273376465,1.248924255,-0.052607909,0.136600465,1.003300905
17.494350,7.190353394,-6.075012207,0.859825134,-0.052241698,0.136722535,1.004033327
17.496160,6.709701538,-6.464111328,0.867454529,-0.050166503,0.133182496,1.005620241
17.496797,6.724960327,-6.334411621,0.844566345,-0.053828612,0.129642457,1.005864382
17.497422,6.656295776,-6.479370117,0.890342712,-0.052974120,0.132938355,1.005620241
17.498047,6.587631226,-6.647216797,0.638572693,-0.052852049,0.128665894,1.008305788
17.498673,6.366378784,-6.494628906,0.768272400,-0.055903807,0.125247926,1.008794069
17.499300,6.465560913,-6.822692871,0.585166931,-0.054561034,0.124149293,1.011723757
17.499925,6.511337280,-6.265747070,0.676719666,-0.053462401,0.121341676,1.009404421
17.500550,6.145126343,-6.647216797,0.676719666,-0.051875487,0.119754761,1.008671999
17.501177,6.206161499,-6.723510742,0.516502380,-0.054805174,0.118045777,1.013554811
17.501804,6.229049683,-6.502258301,0.630943298,-0.051387206,0.115238160,1.011845827
17.502430,6.114608765,-6.525146484,0.478355408,-0.052729979,0.113651246,1.011357546
17.503056,6.053573608,-6.471740723,0.379173279,-0.050288573,0.107791871,1.010991335
17.503682,6.236679077,-6.586181641,0.272361755,-0.051509276,0.105350465,1.010747194
17.504308,6.198532104,-6.517517090,0.470726013,-0.051265135,0.103519410,1.007817507
17.504935,6.129867554,-6.387817383,0.447837830,-0.050410643,0.100589722,1.007207155
17.505561,6.198532104,-6.189453125,0.447837830,-0.051387206,0.097293824,1.007207155
17.506186,6.435043335,-6.342041016,0.501243591,-0.049922362,0.097293824,1.008549929
17.506812,6.236679077,-6.258117676,0.493614197,-0.049800292,0.094974488,1.007939577
17.507438,6.244308472,-6.349670410,0.554649353,-0.050410643,0.093875855,1.008183718
17.528123,5.595809937,-6.433593750,1.935569763,-0.051753417,0.051273316,1.001836061
17.528906,5.458480835,-6.357299805,2.088157654,-0.048579589,0.055301636,0.999272585
17.529532,5.519515991,-6.425964355,2.248374939,-0.047847167,0.054203004,1.001591921
17.530157,5.717880249,-6.555664062,2.248374939,-0.049678221,0.055545777,1.003789186
17.530791,5.801803589,-6.540405273,2.317039490,-0.045405760,0.051761597,1.003056765
17.531416,5.832321167,-6.364929199,2.507774353,-0.044551268,0.054203004,1.005009890
17.532042,5.832321167,-6.441223145,2.591697693,-0.047603026,0.053226441,1.004887819
17.532669,5.984909058,-6.250488281,2.317039490,-0.042964354,0.054813355,1.005498171
17.533294,6.030685425,-6.448852539,2.698509216,-0.044185057,0.053470582,1.004277468
17.533920,6.251937866,-6.403076172,2.614585876,-0.043696776,0.054447144,1.006352663
17.534546,6.457931519,-6.433593750,2.698509216,-0.046626464,0.054447144,1.007695436
17.535171,6.312973022,-6.334411621,2.759544373,-0.043452635,0.049564332,1.009038210
17.535796,6.663925171,-6.319152832,2.835838318,-0.042964354,0.056888551,1.005009890
17.536423,6.854660034,-6.479370117,2.835838318,-0.048701659,0.053958863,1.006718874
17.537048,6.755477905,-6.418334961,2.957908630,-0.044551268,0.055789918,1.007817507
17.537673,6.984359741,-6.357299805,3.041831970,-0.045771971,0.055911988,1.010014772
17.538298,7.121688843,-6.273376465,3.125755310,-0.046260253,0.056400269,1.009770632
17.538924,7.251388550,-6.433593750,3.057090759,-0.045894042,0.059329957,1.014531374
17.539549,7.106430054,-6.303894043,3.049461365,-0.048457518,0.058597535,1.013310671
17.540174,7.350570679,-6.212341309,3.034202576,-0.048701659,0.060306519,1.013066530
17.540801,7.548934937,-6.319152832,3.156272888,-0.046748534,0.060794801,1.014775515
17.541427,7.365829468,-6.235229492,3.553001404,-0.044795409,0.064090699,1.016972780
17.542052,7.434494019,-5.876647949,3.423301697,-0.046016112,0.064456910,1.014653444
17.542679,7.533676147,-6.067382812,3.362266541,-0.049312010,0.064090699,1.019292116
17.543306,7.587081909,-6.090270996,3.339378357,-0.045894042,0.064945191,1.018315554
17.543932,7.770187378,-5.853759766,3.377525330,-0.047480956,0.066532105,1.020879030
17.544557,7.701522827,-5.884277344,3.606407166,-0.044062987,0.067142457,1.021245241
17.545182,7.861740112,-5.838500977,3.514854431,-0.044917479,0.068241090,1.020390749
17.545807,7.930404663,-5.815612793,3.629295349,-0.048945799,0.068729371,1.024174929
17.546432,7.770187378,-5.777465820,4.056541443,-0.050288573,0.070804566,1.023076296
17.548244,8.098251343,-5.518066406,3.995506287,-0.048823729,0.071292847,1.024785280
17.548869,7.960922241,-5.342590332,4.163352966,-0.050044432,0.072879761,1.021855593
17.549495,8.227951050,-5.540954590,4.232017517,-0.050044432,0.072025269,1.019780397
17.550122,8.159286499,-5.266296387,4.094688416,-0.052241698,0.073612183,1.026005983
17.550748,8.250839233,-5.251037598,4.178611755,-0.052363768,0.077884644,1.022832155
17.551374,8.250839233,-5.106079102,4.483787537,-0.052974120,0.079959840,1.026494265
17.551999,8.258468628,-5.159484863,4.537193298,-0.053950682,0.082035035,1.021977663
17.552624,8.243209839,-5.067932129,4.338829041,-0.054438964,0.084842652,1.022710085
17.553251,8.350021362,-5.067932129,4.499046326,-0.051265135,0.088016480,1.021245241
17.553878,8.288986206,-4.999267578,4.582969666,-0.056270018,0.090457886,1.022343874
17.554503,8.418685913,-4.938232422,4.628746033,-0.054072753,0.094364136,1.021367311
17.555128,8.380538940,-4.816162109,4.666893005,-0.055903807,0.093265504,1.021123171
17.555754,8.350021362,-4.778015137,4.804222107,-0.055537596,0.094364136,1.016972780
17.556380,8.365280151,-4.839050293,4.514305115,-0.054927245,0.099857301,1.020390749
17.557005,8.388168335,-4.732238770,4.705039978,-0.053584471,0.101444215,1.020634890
17.557630,8.342391968,-4.625427246,4.651634216,-0.051387206,0.104618043,1.020268679
17.558257,8.235580444,-4.556762695,4.697410583,-0.053462401,0.106571168,1.018437624
17.558883,8.441574097,-4.404174805,4.705039978,-0.050288573,0.109134644,1.020268679
17.572788,7.083541870,-4.236328125,3.400413513,-0.053706542,0.144412965,0.995976686
17.573536,7.106430054,-4.343139648,3.507225037,-0.050532714,0.143192261,0.992314577
17.574162,7.259017944,-4.358398438,3.263084412,-0.050898924,0.142703980,0.993291140
17.574789,7.205612183,-4.388916016,3.278343201,-0.050166503,0.141971558,0.993046999
17.575414,7.373458862,-4.457580566,3.270713806,-0.050898924,0.139896363,0.992680788
17.576040,7.327682495,-4.472839355,2.851097107,-0.049434081,0.140750855,0.990239382
17.576666,7.411605835,-4.442321777,3.057090759,-0.050654784,0.139286011,0.992558718
17.577292,7.754928589,-4.564392090,2.927391052,-0.048335448,0.138065308,0.987675905
17.577918,7.449752808,-4.716979980,2.950279236,-0.049556151,0.136356324,0.991948366
17.578545,7.846481323,-4.785644531,2.530662537,-0.048457518,0.136844605,0.986699343
17.579171,7.701522827,-4.701721191,2.584068298,-0.045039549,0.134525269,0.985234499
17.579797,7.976181030,-4.793273926,2.584068298,-0.048823729,0.137332886,0.986455202
17.580422,8.006698608,-4.938232422,2.378074646,-0.050654784,0.135379761,0.984746218
17.581049,8.174545288,-4.915344238,2.530662537,-0.049189940,0.133060426,0.982182741
17.581676,8.098251343,-4.984008789,2.194969177,-0.048457518,0.130496949,0.981572390
17.582303,8.075363159,-5.159484863,2.263633728,-0.054683104,0.131595582,0.981328249
17.582930,8.189804077,-5.029785156,2.248374939,-0.051265135,0.131961793,0.983769655
17.583555,8.014328003,-5.251037598,2.385704041,-0.050288573,0.130130738,0.980595827
17.584180,8.388168335,-5.350219727,2.057640076,-0.051387206,0.130252808,0.983769655
17.584806,8.281356812,-5.388366699,1.927940369,-0.055049315,0.131595582,0.983647585
17.585432,8.197433472,-5.380737305,1.950828552,-0.053828612,0.129032105,0.987797976
17.586057,8.464462280,-5.380737305,1.973716736,-0.056270018,0.127811402,0.989751101
17.586682,8.319503784,-5.731689453,1.897422791,-0.054561034,0.126224488,0.988774538
17.587309,8.281356812,-5.441772461,1.882164001,-0.053096190,0.123294801,0.991704226
17.587936,8.227951050,-5.731689453,1.874534607,-0.057368651,0.122562379,0.989384890
17.588561,8.281356812,-5.762207031,1.737205505,-0.053828612,0.122684449,0.993901491
17.589188,7.930404663,-5.472290039,1.691429138,-0.055903807,0.124271363,0.993901491
17.589813,8.159286499,-5.769836426,1.615135193,-0.054805174,0.120609254,0.997563601
17.590440,8.021957397,-5.815612793,1.302330017,-0.055415526,0.119876832,0.994755983
17.591065,7.953292847,-5.800354004,1.615135193,-0.052852049,0.122318238,0.994267702
17.592841,7.640487671,-5.655395508,1.424400330,-0.057124510,0.116092652,0.997197390
17.593466,7.640487671,-5.891906738,1.416770935,-0.056636229,0.111942261,1.000371218
17.594091,7.548934937,-6.113159180,1.271812439,-0.052974120,0.114749879,0.999150515
17.594717,7.526046753,-5.746948242,1.355735779,-0.054683104,0.113162965,1.001591921
17.595344,7.320053101,-5.998718262,1.477806091,-0.052974120,0.112674683,0.999150515
17.595969,7.266647339,-5.769836426,1.149742126,-0.054072753,0.111942261,1.001591921
17.596594,7.053024292,-5.937683105,1.332847595,-0.056025878,0.110233277,1.001469851
17.597220,7.091171265,-5.937683105,1.256553650,-0.055415526,0.105716676,0.999516726
17.597847,6.999618530,-5.884277344,1.302330017,-0.056758299,0.108402222,1.004521608
17.598473,6.915695190,-5.731689453,1.317588806,-0.055903807,0.106571168,1.003178835
17.599140,6.946212769,-5.830871582,1.218406677,-0.052852049,0.108646363,1.003545046
17.599765,6.824142456,-5.708801270,1.393882751,-0.053462401,0.105228394,1.002202272
17.600390,6.686813354,-5.807983398,1.142112732,-0.048945799,0.102176636,1.003178835
17.601016,6.724960327,-5.640136719,1.256553650,-0.052974120,0.103031129,1.000859499
17.601643,6.686813354,-5.830871582,1.302330017,-0.053096190,0.102054566,1.003056765
17.602268,6.602890015,-5.640136719,1.058189392,-0.047480956,0.097171754,1.004887819
17.602893,6.618148804,-5.601989746,1.210777283,-0.051020995,0.097904176,1.004399538
17.603518,6.564743042,-5.685913086,1.012413025,-0.051143065,0.096195191,1.004033327
17.604143,6.396896362,-5.861389160,1.142112732,-0.048945799,0.093753785,1.003789186
17.619160,5.954391479,-5.098449707,1.813499451,-0.047358885,0.075443238,1.003300905
17.619935,5.771286011,-5.098449707,1.683799744,-0.045894042,0.077030152,1.007329226
17.620560,5.733139038,-5.243408203,1.821128845,-0.045894042,0.077152222,1.006840944
17.621185,5.733139038,-5.205261230,1.691429138,-0.045405760,0.076297730,1.006840944
17.621812,5.908615112,-5.029785156,1.912681580,-0.045405760,0.072757691,1.005009890
17.622438,5.839950562,-5.045043945,1.821128845,-0.044917479,0.072879761,1.002568483
17.623063,5.870468140,-4.976379395,1.950828552,-0.040889159,0.069828004,1.006596804
17.623688,5.778915405,-4.831420898,2.095787048,-0.042720214,0.073856324,1.008671999
17.624314,6.099349976,-4.892456055,2.149192810,-0.045283690,0.072879761,1.008427858
17.624939,6.122238159,-4.694091797,2.271263123,-0.040522948,0.072635621,1.011357546
17.625564,6.206161499,-4.739868164,2.240745544,-0.040889159,0.072147340,1.009282351
17.626189,6.190902710,-4.854309082,2.111045837,-0.041255370,0.070560426,1.011967897
17.626814,6.465560913,-4.739868164,2.118675232,-0.041133299,0.067508668,1.011357546
17.627440,6.404525757,-4.594909668,2.530662537,-0.042354003,0.068485230,1.012944460
17.628065,6.648666382,-4.778015137,2.378074646,-0.046260253,0.067996949,1.012089968
17.628691,6.679183960,-4.472839355,2.271263123,-0.042598143,0.069705933,1.014409304
17.629317,6.709701538,-4.282104492,2.568809509,-0.045771971,0.069461793,1.014287233
17.629942,7.045394897,-4.236328125,2.637474060,-0.046504393,0.069828004,1.018193483
17.630569,7.197982788,-4.335510254,2.568809509,-0.045894042,0.069339722,1.017705202
17.631194,7.197982788,-4.213439941,2.652732849,-0.049067870,0.069461793,1.020024538
17.631820,7.365829468,-4.221069336,2.729026794,-0.045894042,0.071781129,1.022710085
17.632445,7.442123413,-4.221069336,2.690879822,-0.047358885,0.073368043,1.025761843
17.633071,7.823593140,-4.327880859,2.675621033,-0.042842284,0.070560426,1.024785280
17.633696,7.716781616,-4.190551758,2.873985291,-0.048457518,0.072635621,1.024907351
17.634322,7.686264038,-3.999816895,2.774803162,-0.046016112,0.072147340,1.026494265
17.634947,7.785446167,-4.053222656,2.950279236,-0.047358885,0.076663941,1.024785280
17.635573,8.029586792,-4.182922363,2.980796814,-0.046870604,0.075687379,1.029668093
17.636198,8.273727417,-3.900634766,2.858726501,-0.045649901,0.077518433,1.032475710
17.636823,8.182174683,-3.908264160,2.851097107,-0.041743651,0.077762574,1.041753054
17.637450,8.235580444,-3.534423828,3.186790466,-0.042109862,0.080936402,1.043950319
17.639277,8.479721069,-3.526794434,2.988426208,-0.042842284,0.085819215,1.027959108
17.639904,8.746749878,-3.557312012,3.354637146,-0.043696776,0.088993043,1.024663210
17.640529,8.502609253,-3.397094727,3.057090759,-0.045771971,0.089847535,1.018559694
17.641155,8.525497437,-3.465759277,3.171531677,-0.041377440,0.088993043,1.013676882
17.641782,8.708602905,-3.572570801,3.247825623,-0.043818846,0.091312379,1.013188601
17.642408,8.792526245,-3.595458984,3.446189880,-0.045161620,0.086063355,1.007573366
17.643033,8.716232300,-3.564941406,3.369895935,-0.044551268,0.089603394,1.008305788
17.643658,8.807785034,-3.679382324,3.285972595,-0.046504393,0.091190308,1.007817507
17.644283,8.754379272,-3.671752930,3.270713806,-0.047969237,0.093753785,1.006230593
17.644909,8.983261108,-3.816711426,3.438560486,-0.044917479,0.092899293,1.006474733
17.645535,8.838302612,-3.671752930,3.453819275,-0.045649901,0.096927613,1.005498171
17.646160,8.891708374,-3.923522949,3.537742615,-0.045405760,0.094852418,1.004887819
17.646786,9.128219604,-4.106628418,3.270713806,-0.050288573,0.096439332,1.008794069
17.647411,9.196884155,-3.885375977,3.614036560,-0.048945799,0.097049683,1.004887819
17.648038,9.242660522,-4.053222656,3.423301697,-0.047725096,0.098270386,1.002568483
17.648663,9.318954468,-4.007446289,3.423301697,-0.048945799,0.098758668,1.007329226
17.649288,9.372360229,-4.068481445,3.232566833,-0.049800292,0.097660035,1.004643679
17.649915,9.219772339,-4.221069336,3.499595642,-0.051020995,0.097782105,1.005131960
17.650541,9.311325073,-4.152404785,3.530113220,-0.051387206,0.102420777,1.005376101
17.664385,11.798507690,-4.465209961,3.041831970,-0.049312010,0.114505738,1.005864382
17.665139,11.592514038,-4.472839355,3.041831970,-0.049922362,0.113529176,1.001591921
17.665764,11.798507690,-4.488098145,3.003684998,-0.052363768,0.116214722,0.998662233
17.666390,11.775619507,-4.419433594,2.912132263,-0.052852049,0.117069215,1.001225710
17.667016,12.195236206,-4.503356934,2.996055603,-0.056147948,0.118167847,0.999882936
17.667641,12.019760132,-4.442321777,2.927391052,-0.053828612,0.122074097,0.999760866
17.668267,11.767990112,-4.640686035,2.881614685,-0.054316893,0.119022340,0.996709108
17.668894,11.966354370,-4.961120605,2.805320740,-0.054683104,0.122318238,0.993169069
17.669519,11.844284058,-4.610168457,2.889244080,-0.056025878,0.120365113,0.993779421
17.670144,11.943466187,-4.701721191,2.904502869,-0.054805174,0.122684449,0.992070436
17.670769,11.867172241,-4.892456055,2.812950134,-0.054561034,0.121463746,0.989995241
17.671394,11.973983765,-4.922973633,2.782432556,-0.055415526,0.122074097,0.992314577
17.672027,12.057907104,-5.075561523,2.706138611,-0.051631346,0.120975465,0.992314577
17.672654,11.783248901,-5.045043945,2.713768005,-0.052852049,0.123416871,0.993169069
17.673280,11.783248901,-5.029785156,2.568809509,-0.051387206,0.124515504,0.990971804
17.673905,11.638290405,-5.121337891,2.744285583,-0.056270018,0.125614136,0.990361452
17.674531,11.432296753,-5.128967285,2.461997986,-0.053462401,0.125369996,0.991093874
17.675157,11.340744019,-5.251037598,2.530662537,-0.053706542,0.127078980,0.989995241
17.675784,11.348373413,-5.365478516,2.568809509,-0.053340331,0.128177613,0.987797976
17.676410,11.409408569,-5.403625488,2.393333435,-0.053340331,0.124149293,0.989140749
17.677035,11.218673706,-5.563842773,2.507774353,-0.047847167,0.130496949,0.989384890
17.677662,11.233932495,-5.701171875,2.362815857,-0.048457518,0.132083863,0.985966921
17.678287,10.783798218,-5.777465820,2.431480408,-0.049922362,0.132938355,0.987675905
17.678913,10.898239136,-5.907165527,2.431480408,-0.048823729,0.130374879,0.990971804
17.679540,10.554916382,-5.945312500,2.210227966,-0.048823729,0.131717652,0.985966921
17.680165,10.547286987,-5.937683105,2.248374939,-0.050166503,0.132083863,0.987309694
17.680790,10.264999390,-6.166564941,2.133934021,-0.051753417,0.130496949,0.987309694
17.681416,10.005599976,-6.281005859,2.225486755,-0.048945799,0.132205933,0.986577272
17.682042,9.730941772,-6.113159180,2.050010681,-0.049312010,0.132450074,0.986455202
17.682668,9.730941772,-6.410705566,1.966087341,-0.046016112,0.131351441,0.986699343
17.684457,9.441024780,-6.548034668,1.752464294,-0.045771971,0.128421754,0.984990358
17.685083,9.212142944,-6.586181641,1.744834900,-0.047358885,0.126956910,0.988896608
17.685709,9.021408081,-6.624328613,1.737205505,-0.047358885,0.124881715,0.987920046
17.686334,9.029037476,-6.776916504,1.493064880,-0.045527831,0.124759644,0.989384890
17.686960,8.861190796,-6.738769531,1.729576111,-0.044551268,0.125492066,0.988408327
17.687586,8.792526245,-6.898986816,1.470176697,-0.043818846,0.122074097,0.989262819
17.688213,8.563644409,-6.914245605,1.355735779,-0.045283690,0.118656129,0.984135866
17.688838,8.586532593,-7.059204102,1.241294861,-0.048823729,0.119632691,0.985966921
17.689464,8.693344116,-7.005798340,1.287071228,-0.043940917,0.117679566,0.985844851
17.690091,8.479721069,-7.188903809,1.165000916,-0.042476073,0.114749879,0.984990358
17.690716,8.441574097,-6.929504395,1.302330017,-0.042842284,0.114505738,0.986943483
17.691342,8.525497437,-7.074462891,1.248924255,-0.043330565,0.108890504,0.984990358
17.691967,8.426315308,-7.043945312,1.119224548,-0.043696776,0.109500855,0.983769655
17.692592,8.090621948,-7.341491699,1.416770935,-0.043574706,0.108402222,0.982426882
17.693218,8.304244995,-7.349121094,1.203147888,-0.041011229,0.108280152,0.983037233
17.693843,8.365280151,-7.425415039,0.943748474,-0.042842284,0.104373902,0.983159304
17.694468,8.418685913,-7.341491699,1.180259705,-0.042354003,0.106693238,0.984868288
17.695093,8.159286499,-7.425415039,1.157371521,-0.040522948,0.104495972,0.981206179
17.708972,8.426315308,-8.012878418,1.561729431,-0.042231932,0.091312379,0.965459108
17.709724,8.258468628,-7.951843262,1.432029724,-0.044185057,0.091068238,0.959355593
17.710349,8.128768921,-8.104431152,1.493064880,-0.044062987,0.094119996,0.961919069
17.710975,8.044845581,-8.195983887,1.638023376,-0.042720214,0.091556519,0.963872194
17.711601,8.159286499,-7.997619629,1.462547302,-0.042231932,0.093509644,0.965337038
17.712228,8.136398315,-8.089172363,1.576988220,-0.041011229,0.094608277,0.968144655
17.712854,8.197433472,-8.119689941,1.714317322,-0.041499510,0.092166871,0.969975710
17.713479,8.075363159,-8.333312988,1.538841248,-0.041621581,0.095096558,0.970586061
17.714104,8.029586792,-8.051025391,1.721946716,-0.043696776,0.097049683,0.973637819
17.714731,7.960922241,-8.073913574,1.744834900,-0.041987792,0.096317261,0.976445436
17.715357,7.632858276,-8.134948730,1.584617615,-0.043452635,0.100223511,0.977421999
17.715982,7.747299194,-8.386718750,1.782981873,-0.042476073,0.098026246,0.982671022
17.716607,7.579452515,-8.081542969,1.477806091,-0.039546385,0.099613160,0.980717897
17.717234,7.457382202,-7.967102051,1.805870056,-0.041499510,0.103153199,0.977910280
17.717859,7.136947632,-8.241760254,1.844017029,-0.041133299,0.100711793,0.978520632
17.718486,7.022506714,-7.890808105,1.615135193,-0.041987792,0.102664918,0.982915163
17.719111,7.182723999,-7.951843262,1.752464294,-0.042720214,0.105350465,0.980717897
17.719737,7.106430054,-8.180725098,1.805870056,-0.041011229,0.106082886,0.981450319
17.720363,6.747848511,-8.211242676,1.653282166,-0.042720214,0.110599488,0.985356569
17.720990,6.488449097,-7.837402344,1.821128845,-0.042598143,0.111209840,0.984135866
17.721615,6.251937866,-8.089172363,1.622764587,-0.042476073,0.110599488,0.985600710
17.722240,6.190902710,-8.028137207,1.515953064,-0.037959471,0.112430543,0.984013796
17.722865,5.977279663,-8.012878418,1.844017029,-0.038813964,0.111331910,0.984502077
17.723492,5.824691772,-7.867919922,1.668540955,-0.036006346,0.113285035,0.986699343
17.724117,5.733139038,-7.860290527,1.432029724,-0.039424315,0.113529176,0.984990358
17.724742,5.389816284,-7.898437500,1.767723083,-0.040156737,0.108280152,0.989506960
17.725368,5.397445679,-7.928955078,1.432029724,-0.039058104,0.109134644,0.987553835
17.725993,5.374557495,-7.776367188,1.493064880,-0.040156737,0.110355347,0.989506960
17.726619,5.138046265,-7.745849609,1.889793396,-0.038936034,0.114383668,0.989018679
17.727246,4.993087769,-7.761108398,1.546470642,-0.040522948,0.113773316,0.987065554
17.729033,4.619247437,-7.692443848,1.584617615,-0.044673339,0.113162965,0.989873171
17.729658,4.703170776,-7.669555664,1.493064880,-0.041255370,0.111942261,0.985844851
17.730285,4.787094116,-7.669555664,1.355735779,-0.040522948,0.113162965,0.983403444
17.730910,4.855758667,-7.730590820,1.477806091,-0.041011229,0.112308472,0.985844851
17.731536,4.550582886,-7.753479004,1.531211853,-0.039424315,0.110721558,0.986088991
17.732161,4.603988647,-7.593261719,1.294700623,-0.039302245,0.109989136,0.986455202
17.732786,4.626876831,-7.799255371,1.424400330,-0.041499510,0.109867066,0.988042116
17.733411,4.581100464,-7.967102051,1.340476990,-0.041499510,0.108646363,0.983281374
17.734036,4.581100464,-7.669555664,1.355735779,-0.041377440,0.108402222,0.983891726
17.734661,4.375106812,-7.814514160,1.264183044,-0.042109862,0.108036011,0.982915163
17.735287,4.581100464,-7.967102051,1.210777283,-0.042109862,0.107913941,0.980717897
17.735912,4.420883179,-7.890808105,1.248924255,-0.042476073,0.107059449,0.982182741
17.736538,4.596359253,-7.906066895,1.279441833,-0.043940917,0.110111207,0.978032351
17.737164,4.726058960,-7.944213867,1.195518494,-0.045894042,0.110355347,0.977421999
17.737790,4.779464722,-8.066284180,1.218406677,-0.041499510,0.106693238,0.978032351
17.738415,4.588729858,-8.165466309,0.936119080,-0.045405760,0.106571168,0.980351686
17.739041,4.771835327,-8.188354492,1.165000916,-0.043940917,0.107547730,0.977910280
17.739666,4.779464722,-8.234130859,1.134483337,-0.040278807,0.105838746,0.976323366
17.740292,4.954940796,-8.241760254,1.065818787,-0.043086424,0.106082886,0.979130983
17.754123,7.770187378,-9.821044922,1.332847595,-0.044185057,0.102664918,0.962651491
17.754836,7.526046753,-10.133850098,1.119224548,-0.048213378,0.102176636,0.965459108
17.755462,7.556564331,-10.179626465,1.103965759,-0.049312010,0.101688355,0.966069460
17.756088,7.266647339,-10.255920410,1.340476990,-0.048823729,0.098636597,0.967778444
17.756715,7.556564331,-10.576354980,1.134483337,-0.045039549,0.095096558,0.973149538
17.757341,7.587081909,-10.576354980,1.195518494,-0.046382323,0.097660035,0.977910280
17.757967,7.785446167,-10.561096191,1.203147888,-0.047236815,0.096195191,0.982182741
17.758594,7.953292847,-10.652648926,1.332847595,-0.053218260,0.098270386,0.984013796
17.759220,8.052474976,-10.728942871,1.279441833,-0.051143065,0.102176636,0.985600710
17.759846,8.205062866,-10.469543457,1.355735779,-0.052852049,0.100223511,0.984502077
17.760471,8.327133179,-10.713684082,1.248924255,-0.052607909,0.096073121,0.989018679
17.761096,8.639938354,-10.934936523,1.126853943,-0.049556151,0.099491090,0.994267702
17.761723,8.700973511,-10.835754395,1.294700623,-0.045649901,0.097293824,0.996953249
17.762349,8.876449585,-10.774719238,1.149742126,-0.043940917,0.093875855,1.002812624
17.762975,9.173995972,-10.767089844,1.355735779,-0.042964354,0.091312379,1.005498171
17.763600,9.128219604,-10.522949219,1.302330017,-0.037593260,0.089603394,1.004765749
17.764227,9.524948120,-10.667907715,1.409141541,-0.035029784,0.089603394,1.008916140
17.764852,9.738571167,-10.652648926,1.363365173,-0.037715331,0.087161988,1.011357546
17.765479,9.982711792,-10.576354980,1.416770935,-0.035395995,0.087406129,1.011723757
17.766104,10.127670288,-10.446655273,1.538841248,-0.035029784,0.087772340,1.015019655
17.766730,10.280258179,-10.500061035,1.401512146,-0.030879395,0.087528199,1.015996218
17.767357,10.524398804,-10.400878906,1.370994568,-0.028926270,0.087650269,1.015385866
17.767982,10.577804565,-10.255920410,1.538841248,-0.030757325,0.087406129,1.016972780
17.768607,10.623580933,-10.362731934,1.332847595,-0.031978026,0.092411011,1.022221804
17.769233,11.012680054,-10.202514648,1.576988220,-0.026118653,0.091556519,1.019780397
17.769860,10.799057007,-10.164367676,1.569358826,-0.028804200,0.091678590,1.018681765
17.778385,12.767440796,-9.332763672,1.790611267,-0.033687010,0.118900269,1.023564577
17.779012,12.813217163,-9.515869141,1.744834900,-0.028926270,0.122562379,1.027714968
17.779637,12.691146851,-9.332763672,1.760093689,-0.030391114,0.124759644,1.030156374
17.780262,12.538558960,-9.477722168,1.630393982,-0.027705567,0.127445191,1.029912233
17.780887,12.370712280,-9.424316406,1.622764587,-0.027461426,0.126956910,1.037846804
17.781512,11.775619507,-9.203063965,1.592247009,-0.027583497,0.129276246,1.040166140
17.782139,11.699325562,-9.210693359,1.615135193,-0.028071778,0.127689332,1.041753054
17.782765,11.356002808,-9.142028809,1.828758240,-0.026484864,0.128665894,1.043706179
17.783391,11.317855835,-9.035217285,1.576988220,-0.024653809,0.124027222,1.047002077
17.784018,10.898239136,-8.813964844,1.317588806,-0.023188965,0.123661011,1.048588991
17.784644,10.867721558,-8.913146973,1.615135193,-0.025508301,0.122074097,1.051274538
17.785270,10.760910034,-8.623229980,1.493064880,-0.024531739,0.122562379,1.047368288
17.785896,10.654098511,-8.630859375,1.447288513,-0.025752442,0.115482301,1.048711061
17.786522,10.676986694,-8.791076660,1.607505798,-0.026851075,0.113895386,1.049199343
17.787147,10.814315796,-8.600341797,1.187889099,-0.029048340,0.114017457,1.050175905
17.787773,10.753280640,-8.295166016,1.325218201,-0.031367674,0.111209840,1.051884890
17.788398,11.119491577,-8.440124512,1.409141541,-0.026606934,0.104984254,1.051518679
17.789026,11.073715210,-8.401977539,1.111595154,-0.023799317,0.107791871,1.055424929
17.789651,11.142379761,-8.188354492,1.172630310,-0.029170411,0.106815308,1.056157351
17.790278,11.493331909,-7.959472656,1.195518494,-0.024409669,0.108768433,1.054692507
17.790903,11.264450073,-7.997619629,1.317588806,-0.024165528,0.106571168,1.053715944
17.791528,11.455184937,-7.799255371,1.103965759,-0.025630372,0.106571168,1.050786257
17.805509,9.791976929,-4.961120605,1.226036072,-0.033442870,0.105594605,1.042973757
17.806349,9.372360229,-5.212890625,1.309959412,-0.029658692,0.102542847,1.042851686
17.806976,9.708053589,-5.022155762,1.393882751,-0.032954589,0.103519410,1.043462038
17.807601,9.395248413,-4.808532715,1.515953064,-0.031855956,0.100955933,1.043095827
17.808226,9.318954468,-4.839050293,1.370994568,-0.031978026,0.096927613,1.041142702
17.808851,9.212142944,-4.510986328,1.332847595,-0.034541503,0.097782105,1.036504030
17.809476,9.158737183,-4.457580566,1.500694275,-0.036494628,0.097171754,1.034184694
17.810101,9.051925659,-4.449951172,1.554100037,-0.034663573,0.098880738,1.031010866
17.810727,9.029037476,-4.343139648,1.447288513,-0.036494628,0.101810426,1.031132936
17.811352,8.914596558,-4.083740234,1.638023376,-0.033076659,0.101078004,1.026372194
17.811978,8.716232300,-4.182922363,1.668540955,-0.035029784,0.100467652,1.027592897
17.812604,8.578903198,-4.037963867,1.454917908,-0.036006346,0.097415894,1.021611452
17.813230,8.746749878,-3.893005371,1.493064880,-0.035884276,0.099979371,1.023808718
17.813855,8.212692261,-3.976928711,1.584617615,-0.034907714,0.101200074,1.019292116
17.814481,8.266098022,-3.847229004,1.592247009,-0.036128417,0.098758668,1.018193483
17.815108,8.105880737,-3.732788086,1.599876404,-0.037227049,0.098148316,1.019047976
17.815733,7.930404663,-3.656494141,1.676170349,-0.031855956,0.098026246,1.015507936
17.816358,7.869369507,-3.671752930,1.782981873,-0.036738768,0.098758668,1.012822390
17.816983,7.602340698,-3.595458984,1.721946716,-0.032466307,0.096805543,1.018437624
17.817608,7.602340698,-3.374206543,1.950828552,-0.032832518,0.099979371,1.012456179
17.818234,7.487899780,-3.305541992,1.950828552,-0.034785643,0.100467652,1.002934694
17.818860,7.281906128,-3.435241699,2.057640076,-0.030269044,0.096073121,0.997319460
17.819486,7.197982788,-3.183471680,1.859275818,-0.032954589,0.101688355,0.993901491
17.820111,6.793624878,-3.419982910,1.851646423,-0.031001465,0.099369019,0.987675905
17.820736,6.839401245,-3.351318359,2.065269470,-0.033198729,0.095828980,0.980595827
17.821362,6.564743042,-3.442871094,1.943199158,-0.031733885,0.097904176,0.975835085
17.821988,6.381637573,-3.656494141,1.866905212,-0.032466307,0.096561402,0.973393679
17.822613,6.419784546,-3.496276855,2.126304626,-0.033320799,0.094119996,0.966557741
17.823238,6.061203003,-3.801452637,1.927940369,-0.036006346,0.094730347,0.963628054
17.823863,6.129867554,-3.900634766,2.233116150,-0.039058104,0.091922730,0.954594851
17.825648,5.992538452,-4.274475098,2.095787048,-0.040278807,0.088993043,0.947392702
17.826273,6.023056030,-4.625427246,2.057640076,-0.042598143,0.085208863,0.945805788
17.826898,5.839950562,-4.610168457,2.271263123,-0.043574706,0.083011597,0.944340944
17.827524,5.969650269,-4.709350586,2.294151306,-0.045405760,0.080936402,0.942143679
17.828150,5.946762085,-5.060302734,2.256004333,-0.044795409,0.078494996,0.941167116
17.828777,6.000167847,-5.144226074,2.446739197,-0.044551268,0.079593629,0.941899538
17.829403,6.076461792,-5.380737305,2.355186462,-0.041743651,0.080570191,0.939702272
17.830028,6.160385132,-5.357849121,2.492515564,-0.043696776,0.076297730,0.940190554
17.830653,6.198532104,-5.563842773,2.439109802,-0.042598143,0.073368043,0.939091921
17.831279,6.351119995,-5.647766113,2.469627380,-0.042964354,0.073734254,0.940800905
17.831905,6.488449097,-5.724060059,2.500144958,-0.041621581,0.075321168,0.936406374
17.832531,6.580001831,-5.769836426,2.690879822,-0.039546385,0.075565308,0.939458132
17.833156,6.801254272,-6.021606445,2.751914978,-0.036128417,0.072757691,0.936528444
17.833781,6.854660034,-6.082641602,2.881614685,-0.038691893,0.069095582,0.933354616
17.834408,7.182723999,-6.281005859,2.820579529,-0.034175292,0.068973511,0.935796022
17.835033,7.190353394,-6.364929199,2.744285583,-0.038081542,0.070072144,0.934575319
17.835659,7.571823120,-6.509887695,2.713768005,-0.031245606,0.069828004,0.933598757
17.836286,7.655746460,-6.532775879,2.843467712,-0.029414551,0.071048707,0.932744265
17.836911,7.732040405,-6.784545898,3.118125916,-0.030269044,0.077030152,0.935551882
17.850710,9.280807495,-9.386169434,3.522483826,-0.031245606,0.074344605,0.982304811
17.851424,9.532577515,-9.080993652,3.400413513,-0.031978026,0.065311402,0.985966921
17.852050,9.921676636,-9.241210938,3.667442322,-0.032954589,0.062381715,0.986577272
17.852676,10.150558472,-9.080993652,3.606407166,-0.034907714,0.067020386,0.991215944
17.853303,10.379440308,-9.126770020,3.545372009,-0.032100096,0.071048707,0.993779421
17.853929,10.303146362,-8.859741211,3.560630798,-0.029658692,0.079105347,0.993901491
17.854554,10.280258179,-8.890258789,3.751365662,-0.029902833,0.086307496,0.992924929
17.855180,9.997970581,-9.195434570,3.720848083,-0.031611815,0.087161988,0.992192507
17.855806,9.891159058,-9.042846680,3.797142029,-0.029658692,0.091068238,0.994145632
17.856432,9.624130249,-9.019958496,3.911582947,-0.026240723,0.093143433,0.994145632
17.857058,9.753829956,-9.050476074,3.743736267,-0.024531739,0.091922730,0.995854616
17.857683,9.639389038,-9.058105469,3.835289001,-0.026118653,0.088748902,0.998051882
17.858308,9.448654175,-9.012329102,3.942100525,-0.024409669,0.086429566,0.999760866
