time,gyro x,gyro y,gyro z,accel x,accel y,accel z
18.859677,-2.895294189,2.587421417,4.774753571,0.025265075,0.012975097,1.065994740
18.898198,0.629486084,13.878925323,-2.015407562,0.008297302,-0.034754395,0.936356068
18.912472,-1.872955322,11.376483917,-1.038845062,0.016231872,-0.025477052,0.953445911
18.927831,-1.384674072,4.799945831,-1.069362640,0.022823669,0.011998534,1.039261341
18.966108,0.888885498,-0.899211884,-2.213771820,-0.013675354,-0.024866700,0.961380482
19.004429,1.667083740,-4.637615204,-1.099880219,-0.019534729,0.015172362,1.036697865
19.018692,1.186431885,-5.682842255,-1.023586273,0.000606872,-0.022547364,1.028763294
19.034036,1.834930420,-6.720439911,-0.397975922,-0.003909729,0.020543456,1.056229115
19.072307,6.877960205,-12.671367645,-0.054653168,-0.002689026,-0.005091310,1.056229115
19.110617,6.504119873,-8.322612762,-0.840480804,0.004757263,-0.014856935,0.935257435
19.124886,5.161346436,-7.719890594,-0.909145355,0.005733825,-0.015467286,0.916580677
19.140219,1.216949463,-9.314434052,-0.787075043,0.020260192,-0.026697755,0.904739857
19.178472,-8.655487061,-8.185283661,-1.397426605,-0.007938050,-0.008631349,0.950760365
19.216738,-2.368865967,-8.788005829,1.562778473,-0.023563050,0.040807128,1.065262318
19.231016,0.743927002,-8.528606415,1.928989410,-0.018191956,0.030919433,1.080399036
19.246340,3.933013916,-6.491558075,2.432529449,-0.006595276,-0.008265138,1.082474232
19.284619,7.061065674,0.840290070,1.806919098,0.042232849,0.008458495,1.011673450
19.322897,1.247467041,8.446796417,-2.831752777,0.031490661,0.014562011,0.914139271
19.337183,-2.071319580,6.905658722,-2.938564301,-0.005252503,-0.035120606,0.914627552
19.352513,-4.550872803,5.547626495,-1.298244476,-0.008182190,-0.023279786,0.933670521
19.390818,-3.505645752,-3.096477509,1.829807281,0.004391052,0.001500487,1.055130482
19.429106,3.337921143,1.656635284,0.456516266,0.036129333,0.020421386,1.068069935
19.443391,4.535736084,3.411396027,0.113193512,0.038570739,0.011876464,1.048660755
19.458707,5.413116455,4.235370636,-1.084621429,0.039669372,0.000035644,0.994461536
19.496981,-0.148712158,-0.525371552,-0.764186859,0.004757263,-0.005823731,0.927933216
19.535233,-4.848419189,-2.989665985,0.899021149,-0.005130433,0.001866698,0.983963490
19.549477,-4.550872803,-2.745525360,0.876132965,-0.005496643,0.006505370,1.007767200
19.564807,-2.925811768,-0.510112762,1.227085114,0.005245544,0.018712401,1.048538685
19.603081,1.865447998,3.975971222,0.418369293,0.022701599,0.010167480,1.056839466
19.641366,3.566802979,3.426654816,-0.481899261,0.023678161,-0.005335450,0.981155872
19.655630,1.888336182,0.855548859,-0.138576508,0.020870544,-0.002771974,0.954666615
19.670959,0.873626709,-0.578777313,-0.062282562,0.019405700,-0.007410645,0.948074818
19.709200,-3.314910889,-1.143352509,-0.253017426,0.005489685,-0.010706544,0.989212513
19.747456,-1.224456787,0.588520050,-0.024135590,-0.004398011,0.010533690,1.041214466
19.761725,0.011505127,0.901325226,0.296298981,-0.001712464,0.017369628,1.042313099
19.777056,2.117218018,1.381977081,0.471775055,0.003536560,0.010411620,1.029007435
19.830781,1.445831299,1.336200714,0.296298981,0.022457458,-0.008509278,0.961990833
19.869183,-2.689300537,-0.456707001,-0.237758636,0.016598083,-0.010218263,0.978348255
19.883450,-3.063140869,-1.265422821,-0.153835297,0.011349060,0.003941894,1.007767200
19.898757,-2.651153564,-1.814739227,-0.100429535,0.008541442,0.005528808,1.021317005
19.937050,0.751556396,-2.829448700,0.456516266,0.006832458,0.012364745,1.037796497
19.975345,2.719940186,0.207050323,-0.100429535,0.008663513,-0.007532716,0.992508411
19.989614,2.315582275,0.802143097,-0.161464691,0.008663513,-0.010340333,0.980667591
20.004936,0.675262451,0.321491241,0.014011383,0.008053161,-0.005945802,0.965408802
20.043176,-2.056060791,-0.265972137,0.357334137,0.012203552,-0.006922364,0.983719349
20.081453,-1.796661377,4.227741241,-0.481899261,0.011715271,0.002599120,1.023880482
20.095719,-1.232086182,4.075153351,-0.085170746,0.015377380,0.009312987,1.028641224
20.111034,0.522674561,1.908405304,-0.123317719,0.010982849,0.014073730,1.021072865
20.149295,1.308502197,0.992877960,-0.573451996,0.025020935,-0.002771974,0.991165638
20.203297,-0.392852783,13.436420441,-3.983791351,0.042476989,-0.012781739,0.961014271
20.217642,-2.330718994,15.305622101,-6.425197601,0.043087341,-0.019739747,0.956497669
20.233012,-5.519805908,11.269672394,-5.540187836,-0.026370667,-0.003992677,0.998001575
20.271315,-0.385223389,-9.688274384,3.477756500,-0.047488831,0.001744628,1.066605091
20.309641,3.803314209,-12.572185516,4.820529938,0.009884216,0.017857909,1.045242786
20.323948,5.237640381,-7.971660614,2.897922516,0.026119567,-0.006922364,1.006546497
20.339279,4.634918213,-4.774944305,1.761142731,0.033321716,-0.009852052,0.982986927
20.377549,-0.728546143,7.195575714,-2.747829437,0.016720153,-0.008143067,0.943192005
20.415850,-4.337249756,6.974323273,-2.457912445,-0.026492737,0.009801269,0.996658802
20.430139,-0.781951904,4.174335480,0.006381989,-0.020633362,0.017979980,1.025101185
20.445475,0.103057861,3.396137238,0.235263824,-0.010623597,-0.001795411,1.026810169
20.483752,0.194610596,7.737262726,-1.435573578,0.018429138,0.001012206,1.016678333
20.522049,-0.232635498,7.302387238,-2.114589691,-0.020023011,0.000523925,0.977493763
20.536337,-0.560699463,5.410297394,-1.084621429,-0.027713440,0.005162597,0.966507435
20.551666,0.225128174,3.052814484,-0.352199554,-0.016116761,-0.006189942,0.930130482
20.589933,-6.168304443,-8.871929169,1.768772125,-0.039188050,0.022862792,1.314407825
20.628237,3.185333252,-17.241374969,2.913181305,-0.014285706,-0.083704591,0.910233021
20.642531,-4.222808838,-16.554729462,3.676120758,0.024898864,-0.091272950,1.102371693
20.657874,-2.277313232,-11.649028778,-1.015956879,0.030880310,0.058263183,1.011185169
20.696158,0.721038818,-9.131328583,2.180759430,0.009762146,-0.043299317,1.011917591
20.734450,1.911224365,0.825031281,-2.038295746,-0.018191956,-0.016810060,0.998001575
20.765858,-0.095306396,0.939472198,-0.443752289,0.008663513,0.002354980,0.994095325
20.780176,0.347198486,3.510578156,-0.253017426,0.010006286,-0.002649903,1.025467396
20.818299,0.751556396,9.492023468,-2.709682465,-0.003543518,-0.009485841,0.989090443
20.856606,0.919403076,8.225543976,0.128452301,-0.007083558,-0.000086427,1.004593372
20.870871,1.483978271,11.948688507,-1.756008148,-0.001346253,0.017491698,0.992630482
20.886185,0.545562744,10.659320831,-3.548915863,-0.003055237,0.018224120,0.977371693
20.924472,-0.171600342,-12.350933075,0.899021149,0.023800232,-0.017420411,0.990433216
20.962761,0.186981201,-30.791179657,13.739292145,0.032589294,-0.042200685,1.002151966
20.977063,-3.261505127,-11.328594208,8.345310211,0.191158623,0.014806151,0.980667591
20.992388,-4.390655518,4.311664581,-0.802333832,0.179928154,0.028355956,1.001541615
21.030674,-2.017913818,50.210102081,-21.249111176,0.062618591,0.050938964,1.012039661
21.068975,3.719390869,31.640155792,-11.857326508,-0.132083565,-0.109705567,0.979324818
21.083265,-2.857147217,19.532306671,-8.187587738,-0.189334542,-0.027552247,0.871048450
21.098605,-7.205902100,-12.183086395,3.508274078,-0.174075752,0.071690917,0.974564075
21.136902,-5.283294678,-22.726909637,3.195468903,0.057247497,0.075230956,0.988358021
21.175207,-1.224456787,-17.676250458,0.845615387,-0.026492737,-0.100550294,0.943192005
21.189501,-5.069671631,-21.071331024,2.730075836,-0.034549378,-0.020594239,0.897903919
21.204824,-6.526885986,-26.793376923,4.492465973,0.008785583,-0.010340333,1.038284779
21.243130,-0.965057373,-20.628826141,-0.291164398,0.013912536,0.000401855,1.014847279
21.281441,-1.468597412,-10.985271454,0.860874176,0.003536560,-0.015101075,0.990677357
21.295735,-3.238616943,-3.439800262,0.487033844,0.030514099,-0.001307130,1.009232044
21.311066,-2.773223877,1.137836456,-0.657375336,0.038814880,-0.005701661,1.022415638
21.349356,-1.682220459,6.020648956,-0.779445648,-0.007327698,-0.023035645,0.966629505
21.387652,-7.472930908,6.722553253,-1.038845062,0.086300232,0.002110839,1.058548450
21.401944,-5.130706787,6.821735382,-4.288967133,0.032467224,0.015904784,1.055862904
21.417256,0.957550049,-2.318279266,0.807468414,-0.029666565,-0.011194825,1.014358997
21.455529,-1.316009521,-3.104106903,-1.992519379,0.052120544,-0.032679200,0.917435169
21.509966,2.849639893,-5.904094696,0.685398102,0.051754333,-0.008265138,1.036331654
21.524303,1.133026123,-3.508464813,0.601474762,0.006222107,-0.052332520,0.931839466
21.539636,-1.628814697,-3.050701141,1.356784821,0.013424255,-0.057947755,0.947342396
21.577918,-2.719818115,-1.768962860,0.349704742,0.016353942,-0.000818849,1.031204700
21.616236,-4.238067627,-2.333538055,2.371494293,0.026729919,-0.060022950,0.956253529
21.630534,-6.626068115,-2.356426239,1.837436676,0.030880310,-0.031580567,0.974442005
21.645878,-5.153594971,-3.065959930,1.486484528,0.050777771,0.013463378,1.053665638
21.684167,-2.284942627,-5.041973114,1.692478180,0.015255310,-0.058191895,0.940750599
21.733898,-5.290924072,-2.547161102,1.707736969,0.025753357,-0.010340333,1.048416615
21.748226,-3.803192139,-2.005474091,1.455966949,0.010006286,-0.017054200,1.049393177
21.763590,-2.750335693,-3.897563934,3.653232574,-0.018924378,-0.029505372,0.950027943
21.801879,-9.326873779,-8.177654266,10.161106110,0.009273864,0.024937987,1.033401966
21.840188,-2.056060791,0.962360382,9.154026031,0.031490661,-0.014002442,1.009964466
21.854468,-5.496917725,9.369953156,5.888645172,0.051998474,-0.021692872,0.975296497
21.869808,-7.381378174,11.429889679,4.805271149,0.033565857,-0.009363770,0.940506458
21.908107,-15.186248779,10.888202667,4.896823883,0.053097107,0.067662597,1.121780872
21.946428,3.238739014,-4.866497040,7.406894684,0.020504333,0.087437987,1.199905872
21.960719,7.511199951,-8.185283661,8.391086578,0.054073669,0.066808105,1.165726185
21.976066,8.792938232,-6.667034149,6.430332184,0.082760192,0.038121581,1.155228138
22.014338,-1.552520752,-4.446880341,1.738254547,0.056637146,0.032994628,1.194412708
22.052642,18.451751709,-8.131877899,1.204196930,0.045894958,-0.001551270,1.164749622
22.066944,15.392364502,-7.620708466,1.028720856,0.046871521,-0.101893067,1.118973255
22.082284,8.335174561,-3.676311493,1.509372711,0.041622497,-0.017908692,1.131424427
22.120591,15.430511475,6.669147491,-5.212123871,0.021358825,0.008946776,1.081985950
22.158893,10.219635010,4.281147003,-3.442104340,-0.047977112,-0.008265138,1.043777943
22.173206,8.144439697,-0.410930634,0.876132965,-0.047855042,-0.013270020,1.045608997
22.188539,7.671417236,-1.135723114,2.669040680,-0.038211487,0.011266112,1.054275990
22.226840,5.474151611,9.408100128,-1.641567230,0.002926208,-0.031092286,1.031937122
22.265113,9.388031006,6.661518097,4.080478668,-0.039798401,-0.005213380,1.003372669
22.279419,7.839263916,12.124164581,5.133335114,0.032345153,-0.088465333,0.939529896
22.294776,2.666534424,17.083271027,1.776401520,0.056759216,-0.088831544,0.947830677
22.333074,5.474151611,25.681598663,-4.937465668,0.008419372,0.031651855,1.007523060
22.371383,-1.048980713,16.152484894,-3.205593109,0.016353942,-0.077112794,0.958450794
22.385681,-2.361236572,13.772113800,-4.342372894,0.021480896,-0.073328614,0.982376575
22.401038,0.202239990,7.805927277,-4.426296234,-0.001102112,-0.040003419,1.010086536
22.439327,0.286163330,-1.646892548,-3.915126801,0.011349060,-0.066248536,0.965775013
22.477643,1.140655518,-17.119304657,0.990573883,-0.088382386,-0.065027833,0.949905872
22.491945,1.125396729,-17.950908661,6.910984039,-0.033450745,-0.083094239,0.981400013
22.507279,3.871978760,-15.684978485,-4.571254730,-0.017703675,-0.066004395,0.955399036
22.545585,-0.019012451,-6.674663544,1.173679352,-0.057620667,0.017125487,0.918777943
22.583872,-9.365020752,11.643512726,-5.669887543,0.007686950,0.059239745,1.028763294
22.598166,3.772796631,10.583026886,-11.254604340,-0.091067933,0.090855956,1.002518177
22.613530,10.349334717,5.730731964,-5.830104828,-0.122440003,0.054601073,0.935989857
22.663544,-4.131256104,-26.892559052,9.985630035,-0.147098213,-0.077967286,0.944290638
22.701943,-4.962860107,-20.705120087,13.571445465,-0.098148011,-0.120325685,1.018753529
22.716245,-0.667510986,-6.201641083,19.262973785,-0.016605042,-0.043665528,1.086258411
22.731600,3.948272705,3.968341827,14.921848297,0.041134216,-0.021814942,1.063675404
22.769899,-0.766693115,18.563373566,10.893527985,-0.054324768,-0.109461427,0.994583607
22.820146,7.465423584,18.616779327,11.091892242,-0.026614808,-0.031458497,1.002151966
22.834488,7.503570557,17.274005890,13.220493317,-0.033450745,-0.075892091,0.970657825
22.849859,-1.201568604,15.030963898,17.073337555,-0.025516175,-0.070643067,0.999344349
22.888173,11.623443604,14.535053253,9.115879059,-0.038821839,-0.020105958,1.040970325
22.926487,-0.553070068,-2.623455048,21.238986969,-0.041385315,-0.082117677,1.000809193
22.940823,0.309051514,-4.492656708,20.285312653,-0.027835511,-0.040125489,1.056717396
22.956190,11.936248779,-10.405437469,20.003025055,-0.047977112,-0.024866700,1.076126575
22.994484,6.206573486,-15.524761200,21.704380035,-0.045291565,-0.105066895,0.952225208
23.032795,12.767852783,-7.475749969,21.704380035,-0.010989808,0.020421386,1.054886341
23.047110,22.861541748,1.664264679,15.379611969,-0.041995667,-0.000330567,0.959793568
23.062475,22.800506592,6.600482941,15.997592926,-0.051761292,-0.011561036,0.879959583
23.100789,9.876312256,33.425434113,12.098972321,-0.036990784,0.065099120,0.810501575
23.139113,-7.076202393,35.012348175,14.883701324,-0.100589417,0.003331542,0.854935169
23.153432,-4.726348877,28.679950714,18.957798004,-0.078616761,0.045323730,0.942825794
23.168815,-0.644622803,26.047809601,18.477146149,-0.060916565,0.041661620,0.946609974
23.207131,-2.643524170,2.465351105,23.909275055,-0.148807198,0.024571776,0.972122669
23.245460,5.977691650,1.450641632,26.198093414,-0.047977112,0.001012206,0.927078724
23.259765,2.193511963,6.562335968,21.414463043,-0.054690979,-0.013147950,0.901932240
23.275145,-4.802642822,14.626605988,20.704929352,-0.110965393,0.002232909,0.926346302
23.313459,0.392974854,26.780231476,24.695102692,-0.078738831,0.062291503,0.925491810
23.351771,-14.369903564,26.887042999,21.391574860,-0.115115784,-0.028650880,0.875687122
23.366087,-14.011322021,18.242938995,28.265659332,-0.119266175,0.087193847,0.977371693
23.381468,-7.846771240,13.802631378,30.691806793,-0.097171448,0.092076659,0.993240833
23.419769,-10.700164795,7.149799347,28.135959625,-0.087649964,-0.041102052,0.866531849
23.458083,-6.038604736,-9.154216766,32.545749664,-0.127444893,0.075719237,1.034500599
23.472411,3.749908447,-12.106792450,37.672702789,-0.095340393,-0.016565919,0.926468372
23.487797,-3.910003662,-9.261028290,37.275974274,-0.077518128,-0.086756349,0.885086536
23.526126,-9.525238037,1.824481964,27.960483551,-0.089481018,0.077062011,1.061722279
23.564461,-9.220062256,5.936725616,31.386081696,-0.076907776,-0.086756349,0.876907825
23.592164,-13.141571045,13.703449249,26.182834625,-0.078006409,0.070592284,1.048904896
23.606501,-5.336700439,11.612995148,27.479831696,-0.099979065,0.059361815,1.047806263
23.644690,-18.649993896,6.981952667,33.278171539,-0.067874573,-0.089808106,0.937820911
23.683043,-7.945953369,4.311664581,26.785556793,-0.076175354,-0.064051270,1.035355091
23.697337,-8.418975830,-0.059978485,28.586093903,-0.093021058,-0.083094239,1.001541615
23.712681,-13.851104736,-7.811443329,32.820407867,-0.071902893,-0.087244630,0.986649036
23.751023,-7.274566650,-12.968914032,29.059116364,-0.045901917,-0.044397950,1.093216419
23.789338,-4.733978271,-14.342205048,28.441135406,-0.083255433,-0.060755372,1.028885365
23.803649,-9.540496826,-10.992900848,30.165378571,-0.070804261,-0.059534669,1.051468372
23.819013,-9.021697998,-7.468120575,29.570285797,-0.054202698,-0.037317872,1.090286732
23.857331,5.291046143,2.129657745,21.032993317,-0.069339417,-0.025110841,1.013260365
23.895662,-10.623870850,9.507282257,21.589939117,-0.053226136,0.025060058,1.121780872
23.909969,4.528106689,9.904010773,16.279880524,-0.051761292,0.020299315,1.112381458
23.925324,8.441986084,7.554157257,16.462985992,-0.092410706,0.004186034,1.055984974
23.963660,-7.465301514,4.311664581,23.153964996,-0.060428284,0.005040526,1.025101185
24.001956,-5.908905029,17.304523468,13.342563629,-0.098880433,-0.071009278,0.958450794
24.016258,-9.975372314,16.984088898,16.035739899,-0.115237854,-0.031092286,0.967483997
24.031620,-9.059844971,13.344867706,22.459690094,-0.098270081,0.074132323,1.049881458
24.069941,-0.995574951,13.405902863,18.980686188,-0.057986878,0.025426269,0.966141224
24.121733,-5.451141357,-6.491558075,28.227512360,-0.095828675,0.024693847,1.005325794
24.136078,-3.421722412,-6.476299286,28.975193024,-0.083011292,0.037145019,1.007400990
24.151428,-5.023895264,-0.403301239,25.786106110,-0.045047425,-0.057215333,0.973709583
24.189736,-4.321990967,-3.386394501,24.565402985,-0.101688050,-0.001429200,1.060501575
24.228068,-1.125274658,-1.555339813,26.449863434,-0.075931214,-0.017420411,1.016800404
24.242378,-2.399383545,2.511127472,24.901096344,-0.058963440,-0.028650880,1.025101185
24.257723,-1.270233154,6.127460480,20.445529938,-0.086307190,0.021520019,1.029129505
24.296053,4.146636963,0.016315460,28.303806305,-0.098025940,0.016637206,0.986038685
24.334356,0.316680908,12.429340363,23.947422028,-0.056644104,0.006139159,0.949417591
24.348665,3.635467529,14.939411163,21.925632477,-0.074588440,0.059361815,0.969070911
24.364044,7.358612061,13.962848663,22.169773102,-0.083621643,0.067662597,0.933670521
24.402360,-11.478363037,7.355792999,24.435703278,-0.076053284,0.022618651,0.916458607
24.440673,-2.483306885,-9.596721649,25.267307281,-0.124759339,-0.020350099,0.892166615
24.454987,-5.466400146,-13.762371063,28.319065094,-0.120486878,-0.014734864,0.880692005
24.470342,-11.798797607,-17.783061981,30.813877106,-0.094730042,-0.030481935,0.896805286
24.508650,-9.082733154,-24.618999481,26.739780426,-0.108035706,-0.039759278,0.949661732
24.560687,-11.455474854,-24.588481903,32.843296051,-0.038943909,-0.079798341,0.928421497
24.575037,-15.209136963,-18.599407196,28.586093903,-0.026858948,-0.059290528,0.962112904
24.590412,-8.609710693,-13.419048309,23.939792633,-0.054690979,0.024937987,1.022659779
24.628718,-9.799896240,-8.772747040,28.372470856,-0.072757386,-0.113611817,0.871292591
24.667054,-3.223358154,7.958515167,19.575778961,-0.021487854,0.049229980,1.053299427
24.681357,3.757537842,8.896930695,18.789951324,-0.041385315,0.005040526,0.991165638
24.696721,-9.853302002,7.126911163,21.658603668,-0.051517151,-0.166468263,0.878250599
24.735064,-3.917633057,5.562885284,17.607395172,-0.008548401,0.061803222,1.141067982
24.773377,-2.178131104,1.595600128,19.819919586,-0.055667542,-0.153528810,0.904373646
24.787673,-28.163848877,1.076801300,22.474948883,-0.044192933,-0.117640138,1.002151966
24.803045,-26.470123291,2.175434113,21.948520660,-0.009647034,0.022862792,1.127640247
24.841359,4.421295166,-4.813091278,16.989414215,-0.072147034,-0.098719239,1.004593372
24.879656,-15.727935791,-0.235454559,19.293491364,-0.007571839,-0.004969239,1.111282825
24.893962,-0.049530029,8.996112823,10.405246735,0.009151794,-0.040613770,1.109940052
24.909326,2.758087158,12.887104034,7.567111969,-0.030887268,-0.081995606,1.068924427
24.947659,-14.415679932,23.270709991,15.433017731,-0.040530823,-0.056727052,1.056839466
24.985963,6.801666260,28.443439484,2.333347321,-0.068606995,-0.105555177,0.933304310
25.000252,-2.910552979,24.277790070,5.919162750,-0.078738831,-0.194300294,0.890091419
25.015615,-18.955169678,15.351398468,10.122959137,-0.066165589,-0.073816895,1.038406849
25.053936,5.481781006,5.181415558,6.300632477,-0.035159729,-0.096644044,1.003860950
25.092241,-13.065277100,-4.897014618,10.901157379,-0.038089417,-0.038660645,1.042679310
25.106532,-5.001007080,-5.431072235,10.183994293,-0.013553284,0.034093261,1.085281849
25.121895,4.345001221,-5.179302216,7.742588043,0.009518005,0.023717284,1.077347279
25.160219,-2.910552979,-11.061565399,3.676120758,-0.045901917,-0.115198731,0.912308216
25.198511,2.506317139,-15.952007294,-0.123317719,0.018062927,0.005284667,1.036697865
25.212827,2.368988037,-13.060466766,-5.173976898,-0.004886292,-0.060145020,0.952347279
25.228183,-4.627166748,-11.816875458,-7.508571625,-0.017337464,-0.127405763,0.922928333
25.266483,-1.430450439,-15.776531219,-10.056789398,-0.007938050,0.005284667,1.106155872
25.304818,-6.809173584,-14.014141083,-15.710170746,-0.053714417,-0.125574708,0.996292591
25.319131,-10.028778076,-13.548748016,-14.451320648,-0.055301331,-0.055384278,1.076736927
25.334499,5.313934326,-11.885540009,-16.770656586,-0.012576722,-0.004114747,1.131180286
25.386776,-2.658782959,-6.171123505,-21.081264496,-0.042728089,-0.198572755,1.062698841
25.425176,13.011993408,0.008686066,-30.015285492,-0.030398987,-0.150354981,1.125442982
25.439482,15.148223877,3.556354523,-30.442531586,-0.047855042,-0.147547364,1.050491810
25.454830,2.376617432,12.650592804,-30.679042816,-0.046146058,-0.293909669,0.953079700
25.493156,8.426727295,16.434772491,-31.815822601,-0.083743714,-0.127649903,1.045608997
25.578351,6.916107178,-12.701885223,-22.248561859,-0.043094300,-0.220545411,1.063309193
25.592697,-3.978668213,-22.200481415,-14.756496429,-0.051883362,-0.334192872,0.940140247
25.608084,-12.996612549,-22.833721161,-11.422451019,-0.039432190,-0.264124513,0.994949818
25.646431,1.689971924,-13.106243134,-20.898159027,-0.000980042,-0.218226075,1.075150013
25.684730,3.253997803,-5.759136200,-12.116725922,-0.007693909,-0.218958497,0.982742786
25.699042,1.201690674,3.739459991,-15.000637054,0.019771911,-0.089686036,1.084183216
25.714389,9.655059814,8.774860382,-17.091091156,0.035152771,-0.053553224,1.079300404
25.752688,4.810394287,14.634235382,-20.501430511,-0.015994690,-0.230555177,0.882400990
25.791008,16.780914307,9.568317413,-17.747219086,0.049190857,-0.024866700,1.042435169
25.805316,20.229400635,8.332355499,-21.066005707,0.037105896,-0.097376466,0.965164661
25.820672,4.131378174,2.404315948,-22.149379730,-0.020389222,-0.235071778,0.865067005
25.859005,14.576019287,-10.260478973,-14.153774261,0.066402771,0.011021972,1.044998646
25.897312,8.037628174,-7.727519989,-23.034389496,0.042843200,-0.116785645,0.899368763
25.911626,-2.849517822,-4.416362762,-25.407131195,0.017208435,-0.096277833,0.974197865
25.926997,-0.011383057,-3.188030243,-25.124843597,0.028194763,-0.028895020,1.026932240
25.965325,5.321563721,5.547626495,-35.340602875,0.008175232,-0.191492677,0.974075794
26.003639,2.834381104,1.740558624,-25.040920258,-0.048831604,-0.168543458,1.139847279
26.017945,10.150970459,6.623371124,-27.055080414,0.011715271,-0.206141114,1.086868763
26.033301,8.762420654,11.109455109,-31.266506195,0.014156677,-0.213953614,1.035110950
26.071639,-11.814056396,5.486591339,-30.679042816,-0.069095276,-0.166468263,1.102249622
26.109935,8.640350342,-0.227825165,-31.136806488,0.018429138,-0.295130372,0.933426380
26.124242,-1.972137451,1.938922882,-32.609279633,-0.008914612,-0.292933106,0.914627552
26.139605,-5.580841064,-0.075237274,-31.625087738,-0.013797425,-0.117273927,1.001297474
26.177903,1.171173096,-4.149333954,-29.130275726,0.021236755,-0.159510255,0.937088490
26.216215,-9.044586182,1.847370148,-39.376552582,-0.034427308,-0.162562013,0.962845325
26.230512,-6.969390869,-3.226177216,-35.813625336,-0.044070862,-0.178187013,0.993240833
26.245877,-3.314910889,-11.549846649,-27.093227386,-0.009524964,-0.162195802,0.998123646
26.284196,-0.095306396,-7.017986298,-36.660488129,0.064693786,-0.178309083,0.969437122
26.322466,3.421844482,-11.679546356,-38.041408539,-0.007449768,-0.146937013,1.060867786
26.336771,8.983673096,-8.963481903,-37.926967621,0.022945739,-0.186365724,1.005814075
26.352124,6.176055908,-5.339519501,-41.131313324,0.043575622,-0.233362794,0.983963490
26.390435,8.556427002,-3.928081512,-43.381984711,-0.001956604,-0.145960450,1.117996693
26.428719,7.305206299,-1.395122528,-48.753078461,0.019649841,-0.309290528,0.994095325
26.443028,2.567352295,-0.563518524,-49.760158539,0.022457458,-0.239344239,1.047317982
26.458391,15.117706299,-4.286663055,-53.544338226,0.007320739,-0.105433106,1.102615833
26.496681,12.775482178,-8.192913055,-47.890956879,0.036861755,-0.119104981,1.001053333
26.553581,1.491607666,16.167743683,-61.906154633,0.024776794,-0.156702638,0.999832630
26.567948,6.748260498,19.639118195,-61.570461273,0.024044372,-0.138147950,1.020950794
26.583341,7.740081787,23.568256378,-62.074001312,0.044308044,-0.180994630,0.996170521
26.621662,3.253997803,33.646686554,-65.919219971,-0.018436097,-0.160608888,1.103592396
26.659952,5.847991943,29.221637726,-56.771572113,-0.023074768,-0.215662599,1.006180286
26.674242,5.245269775,26.490314484,-54.795558929,-0.033328675,-0.163660645,1.052811146
26.705276,12.851776123,8.286579132,-43.900783539,-0.060550354,-0.181238770,1.003860950
26.743661,8.625091553,-7.880107880,-34.615810394,0.007931091,-0.123133302,0.993851185
26.781950,11.417449951,-12.549297333,-34.158046722,-0.021121643,-0.045374513,1.015701771
26.796252,13.439239502,-19.522563934,-31.960781097,-0.028201722,-0.071253419,0.928177357
26.811641,9.891571045,-21.345989227,-29.504116058,-0.035159729,-0.073328614,0.909134388
26.849954,7.915557861,-15.219585419,-31.541164398,0.008419372,0.029576659,0.957474232
26.888263,1.316131592,-15.478984833,-23.598964691,-0.051273011,-0.010950685,0.907059193
26.902567,3.330291748,-11.435405731,-22.179897308,0.004513122,0.007237792,0.937454700
26.917938,3.841461182,-7.796184540,-26.154811859,0.017818786,-0.003870606,0.934280872
26.956244,3.055633545,-8.597270966,-24.354274750,-0.079105042,0.012853026,0.985306263
26.994520,0.698150635,-10.695354462,-21.363552094,-0.036868714,-0.057825685,0.999832630
27.008838,2.193511963,-12.427227020,-23.698146820,-0.052493714,-0.005213380,1.027908802
27.024215,9.601654053,-25.221721649,-20.989711761,-0.118167542,0.010411620,1.018143177
27.062523,1.087249756,-45.905010223,-2.633388519,-0.070438050,-0.047083497,0.970413685
27.100849,11.737884521,-38.679973602,-8.065517426,-0.071658753,0.005162597,1.018875599
27.115149,13.073028564,-36.536113739,-6.409938812,-0.086429261,0.015050292,1.001663685
27.130540,12.035430908,-29.257671356,-0.687892914,-0.076053284,-0.035730958,0.912430286
27.168883,0.576080322,-2.791301727,-5.563076019,-0.001834534,0.067906737,0.985672474
27.207187,15.300811768,18.807514191,-9.560878754,-0.027835511,0.065465331,0.916458607
27.221486,4.756988525,23.606403351,-7.058437347,-0.020633362,0.007604003,0.886917591
27.236867,1.865447998,26.642902374,-8.004482269,-0.000369690,0.063878417,0.924393177
27.275173,5.161346436,28.046710968,-16.045864105,-0.070804261,0.108556151,0.946854115
27.313469,4.909576416,11.109455109,0.479404449,-0.004764222,0.129308105,0.889481068
27.327767,1.293243408,10.125263214,-3.533657074,0.029659607,0.135289550,0.899002552
27.343144,-2.147613525,3.930194855,-11.262233734,-0.058475159,0.173497558,0.922440052
27.381453,3.833831787,-15.456096649,5.407993317,-0.048953675,0.164098144,0.873611927
27.419735,-6.236968994,-6.804363251,-0.596340179,0.007442810,0.157140136,0.971268177
27.434029,-0.873504639,-5.614177704,-2.259548187,-0.033206604,0.174840331,0.969559193
27.465186,0.644744873,-8.795635223,9.695713043,-0.034061097,-0.011927247,0.917313099
27.503558,-4.993377686,-2.547161102,2.226535797,-0.037601136,0.092442870,1.085770130
27.541850,0.621856689,-2.386943817,3.653232574,-0.095096253,-0.051233888,1.012039661
27.556128,-7.724700928,-0.960247040,8.207981110,-0.075076722,-0.047937989,1.050735950
27.571473,-3.887115479,4.769428253,9.939853668,-0.000857972,0.122472167,1.144974232
27.609772,11.943878174,21.638019562,4.660312653,0.042476989,0.086949706,1.078445911
27.648079,6.023468018,31.876667023,-0.169094086,0.061153747,0.058019042,1.046707630
27.662364,7.434906006,32.036884308,-2.366359711,0.041500427,0.043736815,1.068192005
27.677719,9.571136475,28.504474640,0.090305328,0.004024841,-0.016077638,1.021439075
27.716069,2.315582275,22.027118683,3.927890778,0.046871521,0.055821776,1.046829700
27.754382,0.568450928,4.838092804,6.956760406,-0.046756409,-0.062708497,1.100540638
27.768657,0.118316650,4.357440948,10.237400055,0.022823669,0.009801269,1.131424427
27.784014,3.559173584,8.614643097,7.864658356,0.047237732,0.017003417,1.117752552
27.822326,8.976043701,23.049457550,-6.730373383,0.000484802,-0.057093263,1.124954700
27.860636,7.938446045,-6.430522919,11.572544098,-0.060672425,-0.059534669,1.003372669
27.874927,4.947723389,-9.848491669,6.422702789,-0.033450745,-0.044275880,1.058304310
27.890264,7.495941162,-19.469158173,1.242343903,-0.081180237,-0.057581544,1.059769154
27.928568,12.668670654,-48.903362274,13.678256989,-0.124759339,-0.037562013,0.945755482
27.966871,9.616912842,-42.441265106,14.105503082,-0.047122620,0.064732909,1.038528919
27.981164,13.584197998,-34.888164520,11.664096832,-0.040042542,0.048985839,1.017776966
28.012623,11.127532959,-6.087200165,8.063022614,-0.066531800,0.009801269,0.936844349
28.050996,6.572784424,36.851032257,1.784030914,-0.028934143,0.083287597,0.842850208
28.089279,-6.450592041,50.294025421,6.361667633,-0.010257386,0.141881347,0.893631458
28.103599,-5.016265869,50.728900909,5.018894196,-0.008548401,0.163976073,0.905350208
28.119006,0.949920654,47.814472198,1.326267242,-0.016360901,0.156163573,0.864090443
28.157333,-8.418975830,19.295795441,13.113681793,-0.067264222,0.071690917,0.872757435
28.195654,-4.772125244,-6.506816864,9.047214508,-0.024905823,0.117223144,0.860672474
28.209946,-4.352508545,-13.213054657,10.580722809,-0.037845276,0.090978026,0.842972279
28.225307,-10.005889893,-25.320903778,14.548007965,-0.034427308,0.069615722,0.844925404
28.263646,-13.027130127,-31.996623993,14.990512848,-0.016116761,0.102696776,0.887039661
28.301944,-17.139373779,-31.111614227,11.282627106,-0.025516175,0.075597167,1.005325794
28.316251,-11.745391846,-28.998271942,15.982334137,-0.025638245,0.140538573,0.997025013
28.331640,-7.427154541,-26.953594208,16.264621735,-0.000980042,0.132237792,0.978592396
28.381442,-10.921417236,-9.154216766,8.810703278,0.008053161,0.098302245,1.082230091
28.419845,-1.491485596,6.676776886,6.842319489,0.005977966,-0.015101075,0.918777943
28.434126,-16.307769775,17.434223175,6.193820953,0.048214294,0.068639159,0.983963490
28.449459,-14.011322021,20.890338898,2.638523102,0.051998474,0.108556151,1.019485950
28.487783,3.597320557,31.792743683,4.461948395,0.037105896,0.119054198,0.908157825
28.526091,-18.535552979,53.940876007,-1.710231781,0.120846130,0.145299315,1.067337513
28.540410,-9.769378662,61.234577179,-2.885158539,0.133419365,0.158360839,1.098099232
28.555768,7.976593018,67.338088989,-12.841518402,0.106197692,0.130162597,1.041336536
28.605823,-2.269683838,9.606464386,-3.007228851,-0.076541565,0.027623534,1.089798450
28.644234,13.881744385,-47.537700653,8.383457184,-0.056888245,-0.021570802,0.975906849
28.658523,9.967864990,-53.633586884,11.358921051,-0.011722229,-0.018519044,0.956497669
28.673882,7.495941162,-53.015605927,9.154026031,0.084835388,0.034825683,0.950760365
28.712212,6.870330811,-35.742656708,-3.495510101,0.051021911,0.055211425,0.971634388
28.750492,9.464324951,-25.534526825,-6.776149750,0.065548278,-0.012293458,0.956619740
28.764813,8.792938232,-20.583049774,-9.583766937,0.030758239,0.008702636,0.939041615
28.780168,8.083404541,-18.652812958,-8.996303558,0.029049255,0.005895019,0.933792591
28.818461,5.390228271,-9.924785614,-9.789760590,0.059810974,0.033971190,0.939651966
28.856737,7.679046631,-3.416912079,-18.555934906,0.026607849,0.018712401,0.904739857
28.871037,2.269805908,-8.551494598,-16.526515961,-0.053958558,-0.003992677,0.896072865
28.886384,0.263275146,-13.556377411,-12.841518402,-0.055423401,0.002354980,0.908035755
28.924690,-0.797210693,-19.247905731,-10.148342133,0.021725036,0.083409667,0.961624622
28.963028,-2.605377197,-14.052288055,-14.169033051,-0.021976136,0.003087401,0.891556263
28.977330,-4.939971924,-15.044109344,-12.780483246,-0.040897034,0.000157714,0.886429310
28.992669,-7.595001221,-17.905132294,-7.172878265,-0.051517151,-0.006434083,0.922562122
29.030994,-5.161224365,-17.554180145,-3.785427094,-0.007327698,-0.026087403,0.986282825
29.069287,-6.832061768,-8.086101532,-4.044826508,-0.007571839,0.001988769,1.065872669
29.083578,-5.596099854,-4.698650360,-3.968532562,-0.005862854,-0.003382325,1.087357044
29.098909,-3.620086670,-1.082317352,-3.945644379,-0.002933167,0.005772948,1.102737904
29.137235,0.598968506,14.939411163,-5.723293304,-0.000735901,0.006993651,1.041702747
29.175504,2.567352295,20.859821320,-7.020290375,-0.021243714,-0.009485841,1.013138294
29.189818,1.453460693,18.128498077,-4.319484711,-0.053470276,-0.034754395,0.981766224
29.205176,-0.942169189,17.289264679,-2.328212738,-0.041995667,-0.021448731,0.984940052
29.243483,-1.140533447,22.050006866,-3.732021332,-0.003909729,0.038976073,1.033768177
29.293685,-3.398834229,7.020099640,0.319187164,-0.042972229,0.014684081,1.030960560
29.308023,-1.766143799,-2.455608368,3.561679840,-0.025149964,0.034093261,1.046341419
29.335516,-2.544342041,-6.956951141,5.858127594,-0.001956604,0.040807128,1.042435169
29.373886,-4.474578857,-0.800029755,1.898471832,0.006100036,0.017613769,1.037430286
29.412177,-5.756317139,-12.396709442,6.224338531,-0.035525940,-0.018519044,1.101761341
29.426474,-4.878936768,-13.907329559,7.795993805,-0.016238831,-0.007654786,1.132034779
29.441829,-1.819549561,-11.282817841,7.963840485,0.023311950,-0.004480958,1.165726185
29.480146,4.787506104,5.433185577,2.478305817,0.055904724,0.029088378,1.146072865
29.518430,3.452362061,13.550861359,-1.000698090,0.007931091,0.011754394,1.124344349
29.532723,2.559722900,11.414630890,-0.077541351,0.007931091,0.035680175,1.141800404
29.548065,5.466522217,5.707843781,1.898471832,0.012325622,0.055699706,1.169998646
29.586375,11.737884521,10.430438995,-3.121669769,0.036129333,0.006261230,1.131790638
29.624661,15.064300537,11.254413605,-5.456264496,-0.005984925,0.010411620,1.075882435
29.638964,14.240325928,4.456623077,-3.648097992,-0.016116761,0.059361815,1.044266224
29.654298,16.605438232,0.779254913,-3.320034027,-0.010135315,0.050206542,1.033768177
29.692628,13.546051025,-6.728069305,-0.047023773,-0.015994690,0.053014159,0.931717396
29.730898,5.779327393,-9.329692841,3.790561676,-0.016482972,0.087315917,0.890091419
29.745195,3.391326904,-7.460491180,3.203098297,0.006588317,0.100865722,0.910110950
29.760519,3.002227783,-1.875774384,0.487033844,0.003414489,0.095372558,0.957108021
29.798854,2.986968994,-1.921550751,0.227634430,-0.026858948,0.098912597,0.935989857
29.837124,2.307952881,1.801593781,-0.710781097,0.006466247,0.087560058,0.977737904
29.851422,4.375518799,4.227741241,-1.969631195,-0.007693909,0.058629394,0.961014271
29.866750,2.231658936,7.279499054,-1.527126312,-0.033939026,0.014073730,0.906448841
29.905063,-4.314361572,4.174335480,-1.977260590,-0.009036683,0.075108886,0.948318958
29.943336,-1.232086182,-4.530803680,0.914279938,-0.062869690,0.058019042,0.977005482
29.957637,-1.399932861,-9.131328583,4.477207184,-0.058719300,0.079503417,0.955887318
29.972985,-2.422271729,-9.360210419,5.751316071,-0.038699768,0.090245605,0.945145130
30.011280,-5.611358643,-2.585308075,3.340427399,-0.029300354,0.074010253,0.997757435
30.049545,-3.955780029,0.611408234,5.919162750,-0.015018128,0.089635253,1.024246693
30.063847,-2.658782959,-1.227275848,5.499546051,-0.015018128,0.077062011,1.022659779
30.079171,-3.185211182,-2.386943817,6.254856110,-0.014773987,0.071202636,1.026810169
30.117477,-2.719818115,4.044635773,7.689182281,0.022823669,0.071690917,1.046097279
30.169127,0.919403076,17.708881378,0.601474762,0.025631286,0.082799315,1.031326771
30.183466,0.766815186,15.145404816,1.051609039,0.006100036,0.065587401,1.021927357
30.198830,0.026763916,13.169391632,2.485935211,0.008907653,0.060826659,1.021072865
30.237144,0.362457275,11.811359406,-0.863368988,0.050045349,0.090978026,1.000931263
30.275445,0.644744873,-0.304119110,-0.130947113,-0.014651917,0.061437011,0.978714466
30.289705,-0.743804932,-3.966228485,1.341526031,-0.004764222,0.053014159,0.979446888
30.305041,-1.949249268,-6.575481415,0.639621735,0.017696716,0.075475097,0.997757435
30.343340,-0.629364014,-6.598369598,-3.892238617,-0.004398011,0.062779784,0.997757435
30.381635,-3.475128174,-13.258831024,-0.054653168,-0.016116761,0.074376464,1.026566029
30.395933,-2.849517822,-13.838665009,0.342075348,-0.011233948,0.091832519,1.037308216
30.411283,-1.262603760,-13.419048309,0.136081696,-0.004031800,0.099645019,1.037796497
30.449611,-2.757965088,-6.102458954,-0.062282562,0.008541442,0.086095214,0.980667591
30.487893,-4.573760986,0.054462433,-1.382167816,0.007076599,0.102574706,1.025467396
30.502176,-0.621734619,-2.066509247,0.700656891,0.004513122,0.107701659,1.013992786
30.517505,0.988067627,-2.493755341,0.891391754,0.004024841,0.098912597,0.991653919
30.555846,-4.825531006,4.479511261,-1.252468109,0.035274841,0.103062987,0.972610950
30.594127,-3.635345459,-3.531352997,-0.298793793,-0.018191956,0.102940917,1.019852161
30.608426,-3.192840576,-7.147686005,0.792209625,-0.019534729,0.102696776,1.030838490
30.637434,-0.690399170,-11.130229950,2.165500641,-0.007083558,0.118932128,1.037918568
30.675837,-2.651153564,-7.399456024,2.012912750,-0.003665589,0.120152831,1.007645130
30.714124,-3.894744873,-2.333538055,0.929538727,-0.000125550,0.157384276,1.065750599
30.728437,-1.399932861,-2.852336884,1.288120270,-0.015750550,0.150060058,1.072342396
30.743793,2.559722900,-4.500286102,3.157321930,-0.033450745,0.110631347,1.060257435
30.782116,1.430572510,-0.517742157,5.331699371,0.010738708,0.136021972,0.996048450
30.820432,3.688873291,10.476215363,1.051609039,0.016720153,0.125279784,0.942215443
30.834729,3.482879639,10.399921417,0.532810211,0.010250427,0.102330565,0.924637318
30.850098,-1.438079834,7.523639679,1.478855133,-0.010501526,0.053380370,0.928055286
30.888430,-4.085479736,3.144367218,3.065769196,0.000484802,0.118810058,0.977371693
30.926709,-4.238067627,0.489337921,2.081577301,-0.007449768,0.121739745,1.000198841
30.941012,-2.017913818,-2.638713837,2.859775543,-0.028934143,0.118810058,1.013504505
30.956375,-0.499664307,-3.172771454,4.667942047,-0.024295472,0.107579589,1.007523060
31.008531,-2.880035400,-1.868144989,6.987277985,-0.045047425,0.074498534,0.930252552
31.046901,-7.221160889,3.068073273,6.636325836,-0.004275940,0.121617675,1.017288685
31.061206,-3.818450928,4.990680695,6.376926422,-0.010989808,0.133336425,1.072342396
31.076531,-0.476776123,4.349811554,6.888095856,-0.009158753,0.124913573,1.076981068
31.114884,4.482330322,2.465351105,7.132236481,0.010616638,0.069127440,0.985916615
31.153183,0.316680908,4.922016144,6.865207672,0.011471130,0.074254394,0.976150990
31.167460,0.324310303,4.510028839,6.758396149,0.010860778,0.095128417,0.977493763
31.182806,0.003875732,4.197223663,6.659214020,0.015377380,0.099278808,0.983353138
31.221129,0.850738525,0.962360382,6.811801910,0.009151794,0.100133300,0.984329700
31.259434,3.902496338,0.992877960,4.011814117,0.033565857,0.106969237,0.939285755
31.273717,5.138458252,1.587970734,3.493015289,0.026119567,0.094273925,0.905472279
31.289043,2.437652588,1.900775909,3.134433746,0.020138122,0.058263183,0.851883411
31.327368,-7.816253662,1.366718292,1.471225739,0.025509216,0.105260253,0.934525013
31.365656,-3.101287842,-4.431621552,-0.321681976,0.008663513,0.090001464,0.988235950
31.379945,-1.293121338,-9.512798309,-0.375087738,-0.014529847,0.067662597,0.983597279
31.395281,-2.094207764,-11.496440887,0.456516266,-0.019656800,0.075475097,0.974319935
31.433632,-4.001556396,-14.311687469,2.752964020,-0.000247620,0.108678222,0.956863880
31.471917,-4.337249756,-4.134075165,-1.458461761,0.017330505,0.096837401,0.964188099
31.486210,-5.626617432,-1.212017059,-3.724391937,-0.012942933,0.089879394,0.995193958
31.501534,-5.626617432,-1.448528290,-3.304775238,-0.026370667,0.093175292,1.017288685
31.539885,-0.461517334,-3.256694794,1.799289703,0.027096130,0.106358886,1.049759388
31.578182,1.766265869,4.685504913,-4.830654144,0.019527771,0.091832519,0.929642200
31.592463,-1.224456787,4.418476105,-3.922756195,0.009518005,0.091344237,0.922073841
31.607807,-5.504547119,0.207050323,-3.388698578,0.006710388,0.083775878,0.957596302
31.646144,-7.060943604,-22.208110809,0.937168121,-0.068851136,0.050816894,1.092117786
31.684443,3.719390869,-25.397197723,6.659214020,0.017086364,0.056798339,1.093948841
31.698734,5.069793701,-18.378154755,4.446689606,0.041744567,0.056432128,1.062088490
31.714073,4.253448486,-0.311748505,-1.199062347,0.041622497,0.035802245,0.993362904
31.752402,0.835479736,15.450580597,-1.496608734,0.011471130,0.004918456,0.957596302
31.790698,0.927032471,18.456562042,3.500644684,0.017330505,-0.022181153,0.949905872
31.820231,-2.712188721,22.019489288,0.532810211,0.054317810,-0.004847169,0.997025013
31.834562,-1.132904053,21.630390167,-1.244838715,0.036495544,0.002843261,1.040115833
31.872808,5.931915283,14.168842316,-0.306423187,0.018184997,0.012608886,1.018387318
31.911121,1.316131592,6.379230499,2.363864899,0.052242614,0.006139159,0.941116810
31.925418,-0.972686768,8.011920929,-0.047023773,0.071529724,0.027257323,0.971634388
31.940771,-0.453887939,9.224994659,-1.534755707,0.071163513,0.040074706,0.984695911
31.994557,-2.643524170,-2.226726532,0.471775055,0.015377380,0.041417480,0.988968372
32.032888,0.331939697,-10.367290497,1.852695465,0.024898864,0.068028808,0.989334583
32.047179,0.408233643,-10.367290497,1.639072418,0.022091247,0.069981933,0.975174427
32.062544,-1.399932861,-11.069194794,1.997653961,0.005245544,0.063145995,0.958206654
32.100885,-3.864227295,-14.601604462,4.538242340,-0.008426331,0.085240722,0.989700794
32.139210,-1.087127686,-12.022869110,4.950229645,0.025997497,0.119420409,1.033401966
32.153499,2.170623779,-5.438701630,2.829257965,0.037227966,0.095494628,1.028885365
32.168836,0.248016357,-1.685039520,1.112644196,0.037960388,0.064610839,1.018753529
32.207160,-1.850067139,7.142169952,-1.107509613,0.012325622,0.053990722,1.084061146
32.245442,5.626739502,1.549823761,4.881565094,0.040890075,0.053624511,1.080276966
32.259726,7.167877197,3.403766632,4.248325348,0.084713317,0.071568847,1.039139271
32.275088,10.128082275,13.871295929,-3.106410980,0.116939880,0.033727050,0.965042591
32.313449,-0.919281006,11.262042999,-8.218105316,-0.041873597,-0.067957520,0.911697865
32.351758,-4.711090088,-26.221172333,7.712070465,-0.048831604,-0.022791505,1.077347279
32.366064,-2.063690186,-29.097454071,9.092990875,-0.014163636,0.008946776,1.090897083
32.381423,3.269256592,-26.564495087,6.056491852,0.051998474,0.053014159,1.053787708
32.419761,2.452911377,-7.948772430,-1.748378754,0.046749450,0.025914550,0.957108021
32.458071,-3.375946045,9.705646515,-3.274257660,0.014767028,0.003575683,0.921951771
32.472365,-5.481658936,12.269123077,-3.258998871,0.031368591,0.026280761,0.957962513
32.487715,-5.542694092,13.016803741,-3.678615570,0.030147888,0.023473144,0.976150990
32.526081,-0.461517334,11.643512726,-4.441555023,0.033443786,0.031285644,1.046097279
32.564389,3.757537842,4.876239777,-1.633937836,0.024532653,0.049229980,0.944290638
32.578682,3.032745361,4.540546417,-1.900966644,0.035885192,0.043126464,0.922562122
32.594037,-0.820098877,5.837543488,-3.266628265,0.049923278,0.068517089,0.911942005
32.648064,-0.064788818,6.676776886,-5.357082367,0.037350036,0.087193847,0.939285755
32.686460,-2.536712646,-1.593486786,-6.715114594,0.017330505,0.076085448,0.953567982
32.700756,-4.146514893,-8.826152802,-3.861721039,0.008907653,0.077672362,1.020950794
32.716106,-2.750335693,-11.649028778,-2.831752777,0.020260192,0.078160644,1.054520130
32.754463,5.161346436,-9.650127411,-8.004482269,0.038204528,-0.008875489,1.006180286
32.792759,-3.108917236,-9.360210419,-6.188686371,0.009518005,-0.013514161,0.946487904
32.807052,-5.580841064,-9.428874969,-6.287868500,0.010372497,-0.005579591,0.974319935
32.822407,-6.153045654,-7.674114227,-7.401760101,0.024532653,0.033360839,1.071732044
32.860730,3.116668701,-5.347148895,-8.088405609,0.010738708,0.041539550,1.047440052
32.899049,-1.735626221,1.565082550,-7.989223480,0.012935974,-0.020472169,0.938675404
32.913336,-3.818450928,3.861530304,-8.508022308,0.014522888,-0.009852052,0.938065052
32.928696,-6.748138428,5.768878937,-8.515651703,0.004879333,-0.000452638,0.960403919
32.967047,-3.627716064,0.420673370,-6.051357269,-0.006473206,-0.024500489,1.018265247
33.005349,-2.155242920,0.146015167,-5.898769379,-0.005984925,-0.009974122,1.002029896
33.019644,-1.491485596,-0.525371552,-5.158718109,-0.023563050,-0.021937013,0.989456654
33.035013,-2.017913818,-0.944988251,-4.258449554,-0.025760315,-0.013636231,0.992020130
33.073338,-0.934539795,-1.494304657,-1.023586273,-0.010257386,-0.010218263,1.013260365
33.111650,1.400054932,5.143268585,-2.076442719,0.007931091,0.022740722,1.020340443
33.125937,2.300323486,3.426654816,-1.694972992,-0.009036683,0.011021972,1.004959583
33.141294,1.758636475,1.450641632,-0.230129242,-0.012942933,0.012120605,0.998856068
33.179628,1.499237061,-3.752605438,2.173130035,0.018184997,0.040196776,1.018753529
33.217926,3.673614502,-4.591838837,1.837436676,-0.000857972,0.033604980,0.973465443
33.232216,2.216400146,-4.492656708,2.417270660,-0.004398011,0.032140136,0.969925404
33.247592,-0.537811279,-1.944438934,3.622714996,0.008663513,0.051305175,0.992874622
33.301855,3.795684814,2.839191437,2.150241852,0.005367614,0.069615722,1.001297474
33.340235,-1.239715576,-0.578777313,4.866306305,0.007198669,0.055577636,0.976273060
33.354527,-1.186309814,-0.258342743,6.018344879,0.022579528,0.056920409,0.987381458
33.369872,-0.865875244,1.443012238,6.018344879,0.036983825,0.040318847,0.993729115
33.424345,-4.436431885,17.632587433,-0.466640472,0.058101989,0.029942870,0.985306263
33.462747,-3.932891846,22.347553253,-4.472072601,0.067379333,0.091100097,1.005203724
33.477039,-1.377044678,20.333393097,-6.760890961,0.037960388,0.083531737,0.982132435
33.492394,-0.125823975,17.037494659,-6.745632172,0.020870544,0.060582519,0.975052357
33.530718,-4.192291260,-12.862102509,-2.610500336,-0.064456604,-0.002283692,1.027542591
33.569052,2.231658936,-40.121929169,6.369297028,-0.038943909,0.022862792,1.027420521
33.583356,2.895416260,-40.427104950,6.560031891,-0.005130433,0.037755370,0.992630482
33.598709,2.864898682,-37.436382294,4.767124176,0.004391052,0.042394042,0.982498646
33.637067,-1.781402588,-19.163982391,2.798740387,-0.006839417,0.020665526,0.941849232
33.675370,-3.574310303,8.324726105,-0.062282562,0.030147888,0.071446776,1.007156849
33.689664,-2.353607178,14.130695343,-1.702602386,0.030269958,0.063023925,1.011185169
33.705020,-1.262603760,21.683795929,-3.785427094,0.021358825,0.031651855,1.000931263
33.743357,-2.124725342,23.316486359,-5.250270844,0.002437927,0.028966308,1.004959583
33.781664,0.423492432,14.000995636,-1.679714203,-0.009647034,0.062535644,1.016678333
33.795966,3.032745361,8.935077667,0.082675934,0.015865661,0.060704589,0.991531849
33.811323,3.307403564,8.324726105,-0.008876801,0.032467224,0.052403808,0.974686146
33.849667,0.431121826,11.735065460,-4.861171722,0.036983825,0.040562987,0.940384388
33.887951,-1.758514404,4.235370636,-1.702602386,0.008663513,0.050084472,0.995193958
33.902245,-1.483856201,-0.464336395,0.548069000,0.032467224,0.035313964,1.026566029
33.917607,-0.263153076,-1.822368622,0.059787750,0.044918396,0.023961425,1.040970325
33.955929,1.369537354,-5.354778290,-1.618679047,0.026974060,-0.007288575,0.983963490
33.994238,-3.292022705,-5.354778290,-3.640468597,0.016964294,-0.031702638,1.014725208
34.008527,-4.093109131,-6.430522919,-3.838832855,0.004513122,-0.036097169,1.035355091
34.023879,-3.139434814,-9.718791962,-2.152736664,-0.007938050,-0.004480958,1.077103138
34.062209,6.076873779,-7.285015106,-2.488430023,0.024532653,-0.017664552,1.053421497
34.100488,1.583160400,-0.998394012,-3.167446136,-0.025027893,-0.062952638,0.955643177
34.114808,-0.766693115,0.016315460,-1.199062347,-0.015018128,-0.043055177,0.973465443
34.130165,-0.766693115,4.891498566,-1.023586273,0.022579528,0.009190917,1.037186146
34.168487,6.473602295,11.193378448,-5.036647797,0.018429138,0.004796386,1.031326771
34.218256,0.644744873,0.481708527,-0.031764984,-0.027469300,-0.012659669,0.993729115
34.232570,0.354827881,0.718219757,0.799839020,-0.008792542,0.017247558,1.032547474
34.247933,1.407684326,2.129657745,0.853244781,0.005489685,0.026769042,1.041336536
34.286266,2.765716553,7.958515167,-1.000698090,0.011715271,0.007604003,0.973587513
34.324546,-0.041900635,2.762897491,2.409641266,0.007931091,0.008702636,0.961502552
34.338846,0.186981201,0.352008820,3.287021637,0.020748474,0.011266112,0.961258411
34.354184,0.576080322,-0.891582489,3.317539215,0.025020935,0.019078612,0.951981068
34.392512,-2.109466553,-4.988567352,3.081027985,0.009273864,0.013951659,0.942703724
34.430820,-3.337799072,-3.981487274,1.349155426,0.017574646,0.040318847,0.997513294
34.445117,-3.261505127,-3.874675751,0.532810211,0.005245544,0.039952636,1.015579700
34.460460,-1.148162842,-7.429973602,0.693027496,-0.029910706,0.026158690,1.038284779
34.498777,2.849639893,-19.774333954,7.834140778,-0.040408753,0.029210448,1.053665638
34.537069,4.795135498,-16.310588837,6.857578278,-0.001224183,0.006505370,1.017532825
34.551361,5.809844971,-7.857219696,6.323520660,0.000118591,-0.003626466,0.979080677
34.566693,6.092132568,-1.837627411,6.498996735,0.018062927,-0.000696778,0.950027943
34.605049,-2.742706299,23.736103058,-0.718410492,0.053463317,0.024815917,0.894852161
34.655085,-7.755218506,13.207538605,1.684848785,-0.044315003,0.003209472,1.043411732
34.669443,-5.107818604,0.725849152,5.591098785,-0.011844300,0.017003417,1.063919544
34.684791,-3.307281494,-3.394023895,5.301181793,0.001827575,0.016393065,1.054886341
34.723119,-4.222808838,-5.476848602,1.928989410,-0.011356018,-0.008387208,0.963943958
34.761437,-9.746490479,-9.497539520,5.980197906,-0.029544495,0.003453612,0.982864857
34.775737,-10.715423584,-9.283916473,6.750766754,-0.018314026,0.005162597,1.002396107
34.791101,-11.302886963,-5.934612274,6.102268219,0.001217224,0.018712401,1.051712513
34.829461,-4.314361572,4.471881866,2.119724274,0.002193786,0.033116698,1.121170521
34.867762,1.888336182,-0.815288544,5.545322418,-0.030398987,0.008336425,1.031570911
34.882069,1.934112549,-2.097026825,7.170383453,-0.019778870,0.006505370,1.012283802
34.897420,1.049102783,-0.281230927,7.681552887,0.023434021,0.031773925,0.991898060
34.935747,2.292694092,12.917621613,1.928989410,0.051266052,0.059605956,0.951248646
34.974069,0.446380615,20.302875519,1.112644196,0.066402771,0.068150878,0.951004505
35.001570,0.415863037,20.661457062,-5.280788422,0.033077575,0.053380370,0.987259388
35.015901,-0.614105225,10.209186554,-3.365810394,-0.016482972,0.013951659,1.022171497
35.054119,3.368438721,-12.984172821,3.508274078,-0.033206604,0.038731933,1.072342396
35.092450,6.443084717,-20.789043427,3.012363434,0.014278747,0.006383300,0.986771107
35.106745,2.224029541,-18.027202606,3.309909821,0.006832458,-0.009485841,0.943069935
35.122098,-0.362335205,-15.684978485,3.027622223,0.016720153,-0.008509278,0.948929310
35.160459,-4.650054932,-6.216899872,0.036899567,-0.005130433,0.002843261,1.028885365
35.198747,-0.232635498,4.799945831,-1.237209320,0.026119567,0.017979980,1.062332630
35.213036,1.232208252,8.225543976,-2.869899750,0.031368591,0.004552245,1.048782825
35.228380,2.101959229,11.574848175,-5.524929047,0.007931091,-0.048914552,1.010696888
35.266710,-2.651153564,3.846271515,-0.710781097,-0.028201722,-0.048548341,0.985550404
35.305050,-0.698028564,-5.293743134,2.402011871,-0.017093323,-0.033167481,1.020828724
35.319341,0.324310303,-5.751506805,2.791110992,-0.017947815,-0.030726075,1.016434193
35.334681,0.499786377,-3.661052704,3.554050446,-0.014285706,-0.039637208,0.989822865
35.373021,0.751556396,1.664264679,2.516452789,0.007442810,-0.010950685,1.015335560
35.411327,3.307403564,-0.304119110,3.821079254,-0.001834534,-0.020472169,0.976883411
35.425622,2.613128662,-1.089946747,4.469577789,0.010006286,-0.011805177,0.946487904
35.440987,1.949371338,-0.876323700,4.278842926,0.015011169,-0.013147950,0.934036732
35.479301,-0.438629150,0.924213409,3.393833160,0.020260192,-0.001307130,0.939041615
35.517633,0.034393311,-1.715557098,2.722446442,0.007564880,0.014928222,0.948441029
35.531925,-0.606475830,-3.271953583,3.851596832,0.002559997,0.009557128,0.941605091
35.547259,-1.285491943,-2.638713837,4.347507477,0.012691833,0.021031737,0.943680286
35.585571,-3.208099365,2.282245636,1.097385406,0.025387146,0.043004394,0.983719349
35.623880,-0.583587646,-4.362957001,1.860324860,-0.009158753,0.034581542,1.040115833
35.638164,1.010955811,-5.820171356,2.585117340,-0.013065003,0.013951659,1.042068958
35.653517,2.155364990,-8.025066376,4.065219879,-0.004031800,0.038731933,1.010818958
35.691870,-0.568328857,-5.652324677,0.380222321,-0.009036683,-0.055506349,0.979691029
35.730169,-1.491485596,-8.368389130,4.736606598,-0.044192933,-0.040613770,1.018265247
35.744457,0.103057861,-2.989665985,7.269565582,0.026729919,0.007970214,1.020218372
35.772009,1.468719482,20.737751007,-2.053554535,0.103023864,0.025304198,0.985184193
35.810437,-1.674591064,30.823810577,-10.995204926,-0.007083558,-0.029993653,0.965530872
35.848753,-2.948699951,1.191242218,-0.504787445,-0.111331604,-0.062464356,1.012039661
35.863044,-2.033172607,-17.813579559,7.368747711,-0.077762268,-0.040369630,1.034134388
35.878393,-1.499114990,-22.025005341,9.443943024,-0.049686097,-0.013636231,1.036331654
35.916711,1.201690674,-14.098064423,3.699008942,0.015133239,0.043736815,1.026321888
35.968500,-2.742706299,-0.159160614,3.264133453,-0.045901917,-0.000330567,1.006668568
35.982849,-3.047882080,2.038105011,4.187290192,-0.042239808,0.011021972,1.035965443
35.998191,-2.704559326,3.525836945,4.767124176,-0.042117737,0.015660644,1.042679310
36.036499,0.042022705,12.055500031,5.675022125,0.009884216,0.036900878,1.043900013
36.074835,2.048553467,15.290363312,5.011264801,0.000484802,0.022862792,0.976150990
36.089137,1.133026123,13.711078644,5.636875153,-0.001224183,0.029210448,0.957230091
36.104506,0.598968506,12.238605499,6.384555817,-0.001956604,0.026769042,0.957840443
36.142861,0.339569092,8.042438507,8.070652008,0.032833435,0.059972167,0.961136341
36.181163,-0.797210693,10.995014191,2.882663727,0.053463317,0.042027831,0.977982044
36.195471,-0.987945557,9.995563507,1.242343903,0.040890075,0.035802245,0.991043568
36.210832,-1.392303467,2.541645050,0.693027496,-0.006595276,0.017125487,1.013504505
36.249146,0.484527588,-17.775432587,6.842319489,0.004146911,0.000523925,1.056595325
36.287456,-0.308929443,-16.409770966,2.752964020,0.009151794,-0.015223145,0.979446888
36.301763,-2.857147217,-15.952007294,2.127353668,-0.003543518,-0.027063966,0.979202747
36.317130,-5.237518311,-16.096965790,2.112094879,-0.023563050,-0.039393067,1.000931263
36.355470,-4.306732178,-16.173259735,5.057041168,-0.009158753,0.026402831,1.122025013
36.393772,4.299224854,6.119831085,0.670139313,0.047970153,-0.027063966,1.020462513
36.408078,1.537384033,20.241840363,-4.006679535,0.035763122,-0.057703614,0.963211536
36.423426,-0.049530029,23.736103058,-4.998500824,0.019893982,-0.064905763,0.960525990
36.461763,-1.773773193,12.887104034,1.211826324,-0.045413636,-0.060145020,1.017654896
36.500068,3.360809326,-2.951519012,5.720798492,0.013912536,-0.051722169,1.007523060
36.514362,3.116668701,-3.836528778,5.133335114,0.021236755,-0.055384278,0.995071888
36.529699,2.338470459,-4.118816376,3.058139801,0.024288513,-0.031458497,0.979324818
36.568058,0.919403076,-6.079570770,3.821079254,-0.012210511,-0.029261231,0.973831654
36.620122,0.141204834,-4.599468231,5.568210602,-0.000369690,-0.018763185,0.964798450
36.634442,0.385345459,-3.401653290,5.522434235,0.010494567,-0.010218263,0.962601185
36.649791,0.415863037,-0.174419403,4.202548981,0.022335388,-0.007166505,0.955154896
36.688110,-1.110015869,1.381977081,2.386753082,0.005733825,-0.012049317,0.964310169
36.726433,-1.735626221,-2.196208954,2.279941559,0.003048278,0.003453612,1.003250599
36.740718,-1.796661377,-2.463237762,1.814548492,-0.005252503,0.004186034,1.028397083
36.756063,-1.598297119,-4.477397919,1.600925446,-0.023685120,0.000645995,1.065750599
36.794381,2.414764404,-9.474651337,2.997104645,-0.043338440,0.013707519,1.135086536
36.832667,13.370574951,-5.095378876,5.873386383,-0.010257386,0.005284667,1.012772083
36.846968,11.394561768,5.845172882,3.943149567,0.010982849,-0.031214356,0.909378529
36.862330,8.609832764,10.842426300,2.928440094,0.009151794,-0.039515138,0.875198841
36.900674,-1.872955322,21.889789581,2.699558258,0.023800232,-0.021448731,0.892654896
36.939002,-4.039703369,26.032550812,-2.221401215,0.038204528,-0.009241700,0.979935169
36.953300,-4.108367920,25.010211945,-3.266628265,0.031734802,-0.021448731,0.994217396
36.968652,-3.726898193,19.349201202,-4.586513519,0.018429138,-0.040979981,1.017410755
37.007000,-2.574859619,-1.883403778,-5.387599945,-0.029178284,-0.066980958,0.983719349
37.045284,-7.076202393,-19.598857880,-0.489528656,-0.036868714,-0.058802247,0.990311146
37.059606,-7.358489990,-21.605388641,0.441257477,-0.022342347,-0.049524903,1.000198841
37.074995,-6.893096924,-20.590679169,0.425998688,0.005611755,-0.031580567,1.021561146
37.113311,-6.206451416,-6.659404755,-7.195766449,0.007809021,-0.019129395,1.036942005
37.151641,-3.963409424,-3.561870575,-8.393581390,-0.041385315,0.002843261,1.056229115
37.165939,-0.385223389,-7.864849091,-6.661708832,-0.067630433,-0.002527833,1.040726185
37.181270,0.583709717,-10.641948700,-5.273159027,-0.075809143,-0.007898927,1.026321888
37.219580,-0.125823975,-14.349834442,-3.716762543,-0.042972229,0.018102050,0.982986927
37.257883,2.155364990,-14.334575653,-3.114040375,-0.072147034,0.025426269,0.968094349
37.287344,1.316131592,-12.205974579,-1.130397797,-0.050540589,0.030919433,0.927811146
37.301660,-0.720916748,-5.522624969,-2.946193695,-0.021121643,0.047765136,0.937454700
37.339875,-0.743804932,0.863178253,-6.280239105,-0.040408753,0.031041503,0.970291615
37.378168,-1.216827393,2.625568390,-3.648097992,-0.014163636,0.018590331,1.004227161
37.392449,-0.621734619,8.141620636,-5.967433929,0.011226989,-0.015223145,1.016800404
37.421967,-0.537811279,8.172138214,-8.218105316,-0.051517151,-0.025965333,1.008987904
37.460364,-3.452239990,-4.988567352,-1.893337250,-0.070315979,-0.045130372,1.021805286
37.498680,-3.078399658,-2.898113251,0.006381989,-0.013309143,0.017125487,1.075272083
37.512966,-0.308929443,8.324726105,-2.023036957,0.019161560,0.023229003,1.054031849
37.528308,0.492156982,14.412982941,-2.793605804,0.040401794,0.008336425,1.028397083
37.566676,-1.682220459,32.227619171,-11.468227386,0.019161560,-0.059778810,0.967239857
37.605010,-5.908905029,15.450580597,-1.870449066,-0.039188050,-0.056727052,0.981888294
37.619302,-6.366668701,9.751422882,0.220005035,-0.020999573,-0.048670411,1.009232044
37.634646,-4.260955811,3.159626007,1.326267242,0.023434021,-0.035120606,1.053421497
37.672965,0.293792725,0.886066437,-1.931484222,0.026729919,-0.041224122,1.042923450
37.711252,-0.247894287,-8.002178192,-0.016506195,-0.007205628,-0.049891114,1.025955677
37.725526,-0.354705811,-10.100261688,0.837985992,-0.011966370,-0.049158692,1.030228138
37.740886,-0.217376709,-13.266460419,2.287570953,-0.017093323,-0.046229005,1.044998646
37.779247,4.337371826,-10.275737762,4.072849274,0.015743591,-0.021082520,1.016067982
37.817547,4.688323975,-0.090496063,1.173679352,0.036495544,-0.019251466,0.955765247
37.831848,3.498138428,5.364521027,-0.031764984,0.041744567,-0.024134278,0.928787708
37.847187,2.361358643,7.462604523,-0.443752289,0.046505310,-0.026331544,0.918045521
37.885508,-2.536712646,15.023334503,-3.617580414,0.067135192,-0.003016114,0.940628529
37.923854,-1.430450439,14.107807159,-8.279140472,0.032223083,-0.013392091,0.989212513
37.938144,-0.392852783,3.892047882,-6.806667328,-0.013553284,-0.046595216,0.996170521
37.953504,-1.254974365,-3.027812958,-4.571254730,-0.022220276,-0.049524903,1.000198841
37.991859,0.339569092,-23.177043915,0.639621735,-0.010745667,-0.004236817,1.049026966
38.030164,4.467071533,-25.359050751,1.814548492,-0.003787659,-0.068934083,0.966019154
38.044455,2.857269287,-23.062602997,1.913730621,0.005977966,-0.066980958,0.945633411
38.059822,-1.842437744,-15.990154266,-0.153835297,0.016598083,-0.048548341,0.947098255
38.098165,-2.330718994,-1.425640106,-1.962001801,0.011471130,0.000890136,1.044754505
38.136464,2.216400146,8.309467316,-5.173976898,0.044063903,-0.008020997,1.055618763
38.150748,3.963531494,8.523090363,-8.927639008,0.005001403,-0.057337403,1.023025990
38.166099,3.696502686,5.005939484,-8.546169281,-0.027957581,-0.074061036,1.004959583
38.219912,-1.766143799,-13.655559540,1.013462067,-0.013553284,-0.036463380,0.996780872
38.258286,-1.552520752,4.105670929,-4.296596527,0.017452575,-0.057825685,1.026932240
38.272594,-1.193939209,8.713825226,-5.013759613,0.020504333,-0.051355958,1.029861927
38.287933,0.019134521,14.062030792,-6.997402191,0.021969177,-0.048060060,1.025589466
38.326280,2.536834717,10.033710480,-6.921108246,-0.017337464,-0.056604981,0.998978138
38.364599,2.071441650,2.106769562,-2.106960297,0.003414489,-0.076014161,0.954666615
38.378894,-0.148712158,2.045734406,-2.618129730,0.030269958,-0.073816895,0.926346302
38.394233,-1.636444092,3.502948761,-3.411586761,0.039425232,-0.068323731,0.926834583
38.432562,-2.208648682,10.369403839,-7.561977386,0.039059021,-0.051966310,0.896439075
38.486590,-10.349212646,6.615741730,-9.118373871,0.030025817,-0.062220216,0.947586536
38.502177,-10.776458740,3.594501495,-9.240444183,0.019527771,-0.062586427,0.976761341
38.516455,-10.158477783,-4.858867645,-7.401760101,0.006344177,-0.043909669,1.037552357
38.554653,0.522674561,-13.747112274,-5.738552094,0.052608825,-0.067591310,1.049149036
38.608897,-7.541595459,-18.301860809,-7.470424652,-0.024051331,-0.078943849,0.982254505
38.623235,-8.411346436,-19.949810028,-6.692226410,-0.019290589,-0.068934083,1.018509388
38.638592,-6.954132080,-21.178142548,-6.905849457,0.014034607,-0.061731935,1.088821888
38.676907,0.415863037,-4.942790985,-11.826808929,0.055782653,-0.084925294,1.065628529
38.715230,-2.132354736,11.330707550,-15.023525238,0.012081482,-0.115687013,1.006668568
38.729533,-2.841888428,10.979755402,-14.306362152,0.003780700,-0.110071778,1.009476185
38.744882,-3.345428467,5.662067413,-12.391384125,-0.011600159,-0.102259278,1.035355091
38.783218,-0.972686768,-6.865398407,-8.965785980,-0.008914612,-0.107386231,1.088211536
38.821511,1.789154053,-3.249065399,-8.675868988,0.021969177,-0.082483888,1.086502552
38.835832,3.719390869,4.212482452,-10.484035492,0.029171325,-0.092005372,1.037796497
38.851182,3.299774170,8.095844269,-10.995204926,0.033443786,-0.096155763,1.005569935
38.889504,-2.948699951,18.029315948,-11.727626801,0.039059021,-0.107996583,0.951370716
38.927841,-3.452239990,28.367145538,-15.115077972,0.087520935,-0.068445802,0.952469349
38.942144,-3.711639404,33.135517120,-19.166286469,0.081905700,-0.086023927,0.934280872
38.957499,-5.046783447,33.806903839,-20.913417816,0.068600036,-0.096644044,0.936478138
38.995858,-7.244049072,18.517597198,-20.814235687,0.002193786,-0.078089356,1.011795521
39.034167,-1.995025635,-12.289897919,-16.198451996,-0.018191956,-0.072596192,1.039505482
39.048470,-0.804840088,-18.118755341,-14.924343109,-0.017947815,-0.071009278,1.032059193
39.079903,-0.446258545,-27.289287567,-13.711269379,0.008419372,-0.090784669,1.005081654
39.118294,-1.506744385,-26.915447235,-12.925441742,0.004268982,-0.071619630,1.003616810
39.156647,-0.278411865,-13.708965302,-18.716152191,0.022823669,-0.089197755,0.991287708
39.170963,-1.987396240,-8.543865204,-21.020229340,-0.017947815,-0.113855958,0.990189075
39.186293,-3.322540283,-8.185283661,-20.745571136,-0.037967347,-0.121424317,0.998489857
39.224637,-0.492034912,-17.111675262,-13.367946625,-0.064212464,-0.109461427,1.060501575
39.262921,0.011505127,-7.346050262,-14.306362152,0.001339294,-0.122034669,0.968094349
39.277218,-1.583038330,-2.272502899,-16.679103851,-0.000613831,-0.132288575,0.959915638
39.292569,-5.748687744,3.884418488,-20.776088715,-0.046634339,-0.130091310,0.978592396
39.330871,-3.780303955,-11.412517548,-8.981044769,-0.116946839,-0.130701661,1.036819935
39.369152,-0.858245850,-3.683940887,-7.317836761,0.031978942,-0.083094239,0.958084583
39.383442,-4.077850342,14.802082062,-16.984279633,0.047603942,-0.102625489,0.916824818
39.398778,-6.603179932,21.462543488,-19.563014984,0.028438903,-0.112513185,0.911331654
39.437104,-9.464202881,17.319782257,-14.878566742,-0.048831604,-0.058924317,1.012161732
39.475434,-1.811920166,13.512714386,-15.176113129,0.039181091,-0.066492677,0.932449818
39.489732,-5.451141357,17.342670441,-19.105251312,0.036739685,-0.106897950,0.880814075
39.505091,-8.907257080,17.281635284,-20.638759613,0.014156677,-0.110560060,0.877884388
39.543429,-13.576446533,0.611408234,-16.961391449,-0.021854065,-0.086878419,1.041458607
39.581721,-5.565582275,-16.730205536,-16.305263519,-0.038211487,-0.099329591,1.087357044
39.596023,-4.428802490,-18.095867157,-15.145595551,-0.027103089,-0.102991700,1.076736927
39.611380,-4.352508545,-15.158550262,-14.817531586,0.000606872,-0.101770997,1.052078724
39.649675,-3.436981201,5.326374054,-21.661098480,0.023189880,-0.082850099,0.999954700
39.687990,-6.732879639,11.109455109,-22.790248871,-0.000369690,-0.088587403,0.974197865
39.702293,-8.243499756,10.010822296,-22.599514008,-0.003909729,-0.081995606,0.990555286
39.717639,-8.548675537,7.386310577,-21.813686371,-0.003665589,-0.042200685,1.053421497
39.755941,-2.582489014,5.013568878,-22.584255219,0.032711364,-0.034876466,1.093216419
39.794242,2.475799561,4.830463409,-26.452358246,0.034542419,-0.061609864,0.998367786
39.808531,-0.255523682,5.044086456,-28.222377777,0.028560974,-0.101648927,0.973953724
39.823877,-1.933990479,4.777057648,-28.313930511,0.025020935,-0.120203614,0.970901966
39.873756,-1.949249268,8.500202179,-32.677944183,0.064205505,-0.139002442,1.002396107
39.912136,-9.044586182,4.677875519,-35.485561371,-0.004275940,-0.161341310,0.967728138
39.926448,-10.639129639,3.068073273,-33.349330902,0.000118591,-0.161585450,1.012039661
39.941828,-9.006439209,4.059894562,-31.152065277,0.050655700,-0.121180177,1.083328724
39.980134,-1.720367432,14.489276886,-40.353115082,0.074337341,-0.085169435,1.040848255
40.030262,-6.183563232,-6.270305634,-35.203273773,-0.035281800,-0.134485841,1.044998646
40.044625,-7.015167236,-10.001079559,-33.425624847,-0.010013245,-0.097620606,1.076248646
40.060002,-1.110015869,-10.733501434,-33.738430023,0.048214294,-0.034754395,1.116287708
40.098311,7.045806885,4.387958527,-39.872463226,0.052608825,-0.075525880,0.935013294
40.136635,-2.475677490,-0.517742157,-35.882289886,-0.005984925,-0.068689942,0.909012318
40.150937,-2.551971436,-4.149333954,-33.585842133,0.000240661,-0.041590333,0.949539661
40.166268,0.423492432,-8.749858856,-31.487758636,0.026363708,-0.001551270,0.978836536
40.204556,3.025115967,-3.310100555,-32.281215668,0.063106872,-0.020838380,0.975906849
40.242857,4.253448486,8.095844269,-38.010890961,0.058468200,-0.018885255,0.948685169
40.257154,2.483428955,7.264240265,-38.346584320,0.029659607,-0.024622560,0.945999622
40.272486,1.369537354,5.494220734,-36.874111176,0.017696716,-0.023279786,0.948196888
40.310808,0.545562744,5.303485870,-36.370571136,0.062740661,-0.001429200,1.012161732
40.349101,4.322113037,9.171588898,-40.093715668,0.048702575,-0.061365724,0.984451771
40.363417,2.712310791,9.156330109,-40.658290863,0.040523864,-0.073206544,0.981888294
40.378788,0.141204834,7.035358429,-40.765102386,0.009762146,-0.075647950,1.007767200
40.417113,3.955902100,-4.835979462,-38.110073090,-0.001956604,-0.074305177,1.103592396
40.455442,7.953704834,-14.136211395,-33.494289398,-0.031375550,-0.128382325,1.046341419
40.469747,8.098663330,-14.189617157,-31.998928070,-0.019900940,-0.139246583,1.030716419
40.485102,6.229461670,-10.306255341,-32.700832367,0.000362732,-0.157923341,0.990555286
40.523444,-2.780853271,1.496417999,-35.600002289,-0.017337464,-0.145472169,1.024857044
40.561730,3.643096924,1.519306183,-31.472499847,-0.047977112,-0.094690919,1.089066029
40.576033,11.653961182,6.089313507,-27.917201996,0.015377380,-0.073206544,1.027054310
40.591380,14.095367432,11.902912140,-28.817470551,0.054928161,-0.093470216,0.948929310
40.629712,0.370086670,36.645038605,-40.589626312,0.037350036,-0.178187013,0.808060169
40.668056,-2.605377197,15.946491241,-31.693752289,-0.055301331,-0.129725099,1.034988880
40.682358,5.359710693,-1.654521942,-27.497585297,-0.047366761,-0.082972169,1.042435169
40.697704,7.968963623,-8.078472137,-26.566799164,-0.038699768,-0.091761231,0.999954700
40.736042,0.667633057,-25.374309540,-24.422939301,-0.076541565,-0.144617677,0.848343372
40.774332,-13.385711670,-40.778057098,-15.786464691,-0.086551331,-0.048670411,1.011917591
40.788641,-11.386810303,-41.251079559,-15.145595551,-0.064456604,-0.031214356,1.072830677
40.804019,-3.688751221,-35.529033661,-17.762477875,-0.027713440,-0.030115724,1.110794544
40.855082,-4.062591553,3.090961456,-23.438747406,-0.025760315,-0.089197755,0.987991810
40.893471,-3.200469971,34.463031769,-25.658901215,0.014889099,-0.087488770,1.003372669
40.907781,-3.314910889,40.551288605,-27.398403168,0.022213317,-0.081263185,0.996170521
40.923144,-4.344879150,50.240619659,-30.793483734,0.029171325,-0.056482911,0.986160755
40.961482,-2.223907471,54.848773956,-34.692104340,0.012203552,-0.088465333,1.003983021
40.999812,-1.789031982,42.130573273,-33.669765472,-0.013919495,-0.097132325,0.984329700
41.014118,-2.498565674,29.282672882,-33.341701508,-0.010013245,-0.061487794,1.004471302
41.029479,-1.811920166,21.912677765,-33.433254242,-0.017093323,-0.062464356,1.014481068
41.067830,1.361907959,-6.895915985,-32.388027191,-0.009524964,-0.062098145,1.027786732
41.106117,1.735748291,-17.859355927,-34.508998871,-0.009524964,-0.065271974,1.031326771
41.120426,1.880706787,-18.980876923,-36.469753265,-0.007938050,-0.047449708,1.023514271
41.148020,-0.247894287,-18.103496552,-39.117153168,-0.015262268,-0.053064942,1.028519154
41.186437,2.208770752,-11.122600555,-42.191799164,-0.010501526,-0.043909669,1.091507435
41.224737,3.894866943,-3.859416962,-44.877346039,-0.055911683,-0.070765138,1.030106068
41.239045,3.574432373,-0.914470673,-44.259365082,-0.048099183,-0.064173341,1.035965443
41.254390,3.826202393,0.619037628,-44.755275726,-0.051150940,-0.076502442,1.043777943
41.292703,4.581512451,3.068073273,-44.076259613,-0.065921448,-0.063074708,1.040970325
41.331016,4.848541260,3.632648468,-42.046840668,-0.047977112,-0.027796388,1.051224232
41.345321,5.489410400,5.272968292,-42.016323090,-0.046634339,-0.027552247,1.062332630
41.360668,7.930816650,5.120380402,-41.741664886,-0.053958558,-0.063807130,1.072342396
41.398986,10.112823486,-8.467571259,-34.989650726,-0.071780823,-0.068689942,0.987381458
41.437269,4.772247314,-8.925334930,-32.052333832,-0.085696839,-0.058436036,1.014481068
41.451569,4.245819092,-7.216350555,-28.176601410,-0.064822815,-0.060999513,1.055740833
41.466926,5.024017334,-5.553142548,-27.947719574,-0.049197815,-0.045130372,1.071243763
41.505260,8.525909424,-0.182048798,-24.499233246,-0.020755433,-0.042444825,0.994217396
41.543539,2.475799561,18.433673859,-29.275234222,0.014278747,-0.019861817,1.013138294
41.557859,5.207122803,19.929035187,-30.206020355,-0.026370667,-0.002283692,1.028519154
41.573225,6.336273193,16.694171906,-28.825099945,-0.048953675,-0.015101075,1.029495716
41.611554,8.754791260,-6.873027802,-18.128688812,-0.047977112,0.014317870,1.005692005
41.665710,5.481781006,-16.463176727,-15.664394379,-0.062625550,-0.012415528,0.992996693
41.680038,6.252349854,-20.567790985,-11.613185883,-0.067508362,-0.007532716,1.021805286
41.695406,7.213653564,-22.063152313,-10.102565765,-0.067020081,0.000523925,1.022537708
41.733741,5.970062256,-22.116558075,-6.226833344,-0.045901917,0.002110839,0.983353138
41.772056,5.443634033,-14.159099579,-3.403957367,-0.026126526,0.036168456,1.035721302
41.786356,8.213104248,-4.996196747,-4.288967133,-0.000125550,0.038976073,1.026199818
41.801691,9.014190674,0.313861847,-5.173976898,0.012691833,0.029210448,1.012405872
41.840047,4.573883057,13.825519562,-8.813198090,-0.003421448,-0.007898927,0.967606068
41.878357,7.930816650,11.925800323,-6.509120941,0.006344177,-0.000452638,1.013382435
41.892648,9.197296143,10.155780792,-7.340724945,-0.001102112,-0.021692872,1.001053333
41.908027,8.037628174,5.028827667,-7.111843109,-0.023074768,-0.044031739,0.976761341
41.946347,6.809295654,-0.189678192,-5.540187836,-0.004642151,0.025060058,0.996780872
41.984654,7.968963623,-0.037090302,-7.256801605,-0.043216370,0.012242675,0.961380482
41.998949,7.045806885,-0.754253387,-5.753810883,-0.047366761,0.008946776,0.954666615
42.014291,5.794586182,-0.800029755,-4.571254730,-0.039432190,0.014317870,0.953934193
42.052647,5.710662842,8.011920929,-6.333644867,0.002682067,0.030675292,0.977005482
42.090946,6.984771729,5.921466827,-9.377773285,-0.051028870,-0.019617677,0.917923450
42.105243,4.238189697,-2.043621063,-7.058437347,-0.080691956,-0.041468263,0.889847279
42.120598,1.728118896,-5.392925262,-5.479152679,-0.085940979,-0.052454591,0.894852161
42.158928,-4.589019775,-11.176006317,-0.695522308,-0.049319886,-0.024256349,1.002396107
42.197249,0.804962158,5.288227081,-7.584865570,-0.008792542,0.009068847,1.050247669
42.211530,1.590789795,9.881122589,-8.599575043,-0.025149964,0.005528808,1.042191029
42.226882,3.749908447,15.198810577,-8.912380219,-0.035159729,0.003697753,0.998123646
42.265232,-0.919281006,10.674579620,-6.394680023,-0.039798401,0.001378417,0.948685169
42.303532,-0.415740967,3.602130890,-5.318935394,-0.030765198,0.032506347,0.967483997
42.317839,-0.209747314,1.870258331,-5.029018402,-0.032840393,0.028966308,0.964920521
42.333183,0.072540283,-1.387493134,-3.899868011,-0.033939026,0.029576659,0.951370716
42.371502,-1.926361084,-3.180400848,-3.670986176,-0.028201722,0.044591308,0.939407825
42.409839,-3.620086670,-0.983135223,-4.189785004,-0.023318909,0.071202636,0.997391224
42.439001,-2.170501709,1.488788605,-5.952175140,-0.040408753,0.071446776,1.027176380
42.468370,-2.269683838,1.038654327,-4.952724457,-0.030154847,0.051061034,0.998611927
42.506700,-2.513824463,4.181964874,-7.096584320,0.020260192,0.059239745,1.032181263
42.545022,-0.736175537,1.626117706,-10.400112152,-0.017703675,0.026280761,0.997025013
42.559326,-1.415191650,-2.463237762,-9.904201508,-0.031497620,0.006017089,0.987991810
42.574676,-3.955780029,-12.343303680,-8.523281097,-0.053958558,-0.031580567,0.989456654
42.613017,-5.939422607,-25.015727997,-4.685695648,-0.052615784,0.004796386,1.097733021
42.651328,3.383697510,-14.670269012,-9.293849945,-0.020267151,0.018102050,1.046463490
42.665637,3.635467529,-10.130779266,-10.232265472,-0.034061097,-0.008875489,1.011307240
42.681020,0.232757568,-2.325908661,-9.927089691,-0.056155823,-0.046595216,0.965530872
42.719343,-2.941070557,-2.356426239,-7.836635590,-0.114505433,-0.036097169,1.002274036
42.757662,-0.827728271,-15.906230927,2.356235504,-0.120486878,-0.030726075,1.025223255
42.771970,-1.689849854,-15.852825165,4.683200836,-0.080691956,-0.007654786,1.043900013
42.787329,-1.048980713,-13.014690399,4.530612946,-0.060794495,0.031285644,1.045608997
42.825674,2.361358643,5.425556183,3.340427399,-0.024173401,0.039952636,1.012161732
42.863978,1.377166748,24.277790070,-0.016506195,0.001339294,-0.001062989,0.935867786
42.878263,0.003875732,27.009113312,-0.367458344,0.001217224,-0.008875489,0.925491810
42.893623,-3.414093018,29.328449249,-0.344570160,-0.010257386,-0.018030763,0.948441029
42.931952,-1.529632568,30.305011749,1.135532379,0.038204528,0.028966308,0.986893177
42.970270,-1.193939209,27.215106964,-3.266628265,0.004513122,0.038487792,0.948929310
42.984567,-2.483306885,22.843463898,-2.312953949,-0.009891175,0.036900878,0.952835560
42.999933,-4.215179443,10.285480499,0.853244781,-0.027957581,0.044713378,0.981400013
43.038267,-2.071319580,-11.595623016,5.530063629,-0.031253479,0.076939940,1.020828724
43.076572,-0.568328857,-21.399394989,6.293003082,0.007442810,0.024449706,0.997879505
43.090878,-0.667510986,-22.017375946,4.088108063,-0.007327698,0.019322753,1.014725208
43.106243,-0.942169189,-22.948162079,4.149143219,-0.023074768,0.015538573,1.030594349
43.144556,3.391326904,-22.185222626,6.415073395,0.000362732,0.031163573,1.066849232
43.196940,5.138458252,-7.506267548,1.852695465,-0.022586487,-0.014002442,1.026932240
43.211280,5.443634033,-4.774944305,2.485935211,-0.040164612,-0.009485841,1.023880482
43.226620,5.024017334,-4.195110321,2.974216461,-0.039676331,-0.013758302,1.022781849
43.264943,7.793487549,-1.936809540,3.081027985,-0.033450745,0.009557128,1.025345325
43.303251,8.365692139,3.327472687,2.585117340,0.020992614,0.007481933,0.944046497
43.317527,6.191314697,7.676227570,-1.679714203,0.019527771,-0.009485841,0.920486927
43.332870,4.360260010,8.507831573,-3.037746429,0.004635192,-0.018641114,0.914871693
43.371200,-1.270233154,-3.615276337,1.677219391,-0.039798401,-0.007532716,0.978348255
43.409501,1.590789795,-3.661052704,-0.268276215,0.012813903,0.010167480,1.006912708
43.423817,1.545013428,-1.196758270,-1.969631195,0.003902771,0.010533690,0.989334583
43.439153,-0.804840088,0.695331573,-2.396877289,-0.023563050,-0.024866700,0.985428333
43.477487,0.713409424,1.351459503,-0.657375336,-0.003909729,0.020055175,1.043533802
43.515795,2.224029541,-1.074687958,-0.481899261,-0.041507386,0.023473144,1.010452747
43.530094,2.391876221,-3.630535126,0.738803864,-0.036380433,0.041051269,1.011307240
43.545427,2.948822021,-5.827800751,0.906650543,-0.028201722,0.057774901,1.014114857
43.583742,6.229461670,-8.627788544,1.578037262,-0.042850159,0.068395019,0.977005482
43.622061,3.246368408,-7.948772430,3.897373199,-0.005374573,0.093541503,0.950027943
43.636351,4.009307861,-6.071941376,3.699008942,0.009395935,0.111485839,0.975052357
43.651693,5.573333740,-4.118816376,3.584568024,0.021358825,0.112584472,0.976639271
43.690050,5.291046143,5.593402863,-1.504238129,0.037472107,0.065099120,0.933548450
43.728346,0.530303955,5.219562531,-0.397975922,0.022335388,0.045934081,1.034012318
43.742635,2.147735596,4.326923370,-0.901515961,0.034542419,0.045934081,1.066605091
43.773364,8.319915771,-2.730266571,-4.227931976,-0.000613831,0.026036620,1.037430286
43.811751,-0.324188232,-19.766704559,-1.542385101,-0.049441956,0.007726073,1.045975208
43.850074,2.986968994,-22.139446259,2.569858551,-0.017459534,0.078282714,1.148514271
43.864371,9.693206787,-8.788005829,-0.230129242,0.057857849,0.069981933,1.144485950
43.879713,14.408172607,-0.586406708,-5.715663910,0.069820739,0.074986815,1.096634388
43.918067,11.257232666,11.567218781,-10.133083344,-0.083499573,-0.021570802,0.948685169
43.972064,11.280120850,-12.350933075,5.072299957,-0.031009339,0.037633300,0.992142200
43.986416,13.073028564,-3.943340302,2.859775543,-0.000369690,0.049840331,0.935989857
44.001779,11.913360596,2.656085968,1.311008453,0.016720153,0.045445800,0.905594349
44.040131,4.917205811,20.180805206,-2.229030609,0.030880310,0.074132323,0.875320911
44.078453,-0.835357666,20.577533722,-3.114040375,-0.016482972,0.058995605,0.883987904
44.092747,-4.047332764,13.779743195,-1.038845062,-0.020999573,0.062291503,0.919144154
44.108102,-4.543243408,9.949787140,0.151340485,-0.013065003,0.066441894,0.939651966
44.146443,-0.293670654,-2.509014130,2.218906403,-0.004153870,0.056065917,0.949051380
44.184739,-6.603179932,-6.750957489,3.668491364,0.009762146,0.056798339,0.963699818
44.199035,-6.664215088,-6.628887177,3.599826813,0.018673278,0.062291503,0.986404896
44.214381,-4.581390381,-4.141704559,2.348606110,0.022457458,0.055455565,1.022293568
44.252701,-2.048431396,0.931842804,-0.535305023,0.007809021,0.047398925,1.057327747
44.291025,3.734649658,-0.586406708,-0.619228363,-0.008670472,0.073277831,1.071243763
44.305320,7.846893311,-1.356975555,0.464145660,-0.003299378,0.050572753,1.018509388
44.320644,7.663787842,-1.067058563,0.319187164,0.005489685,0.053990722,0.980789661
44.358963,-0.095306396,8.286579132,-4.548366547,0.018062927,0.039464355,0.959793568
44.397268,-0.263153076,-6.323711395,-1.321132660,-0.084598206,0.064000487,1.099686146
44.411560,4.314483643,-15.646831512,5.285923004,-0.047244690,0.103185058,1.111649036
44.426896,6.794036865,-15.547649384,5.812351227,-0.005618714,0.119542480,1.087357044
44.465249,7.465423584,5.021198273,-7.928188324,-0.008182190,-0.004358888,0.891434193
44.503542,-6.679473877,-16.951457977,4.217807770,-0.133548409,-0.037806153,0.901077747
44.517849,-7.167755127,-23.299114227,7.795993805,-0.108768128,-0.006434083,0.940628529
44.533199,-3.704010010,-24.916545868,11.542026520,-0.041629456,0.032872558,0.983597279
44.571524,-4.039703369,2.801044464,1.707736969,-0.002200745,0.017125487,0.908524036
44.609852,-14.148651123,17.083271027,3.538791656,-0.020389222,0.041661620,1.034256458
44.624155,-13.088165283,17.548664093,4.164402008,-0.017703675,0.056065917,1.080276966
44.639520,-6.252227783,18.891437531,4.446689606,-0.003909729,0.063512206,1.120560169
44.677887,-1.903472900,18.296344757,4.446689606,-0.001834534,0.048009276,1.044022083
44.716219,-5.809722900,17.930133820,4.713718414,0.035396911,0.056798339,1.033646107
44.747572,-3.246246338,20.341022491,-0.336940765,0.047603942,0.063756347,1.042923450
44.761913,-1.491485596,17.426593781,-1.153285980,0.015743591,0.044347167,1.013504505
44.800141,-3.200469971,6.646259308,2.012912750,0.041866638,0.069371581,0.957352161
44.838452,-4.306732178,10.430438995,-6.005580902,0.077633239,0.086705565,0.945389271
44.852750,-4.672943115,11.376483917,-7.813747406,0.069332458,0.078404784,0.956131458
44.868099,-6.526885986,9.385211945,-11.567409515,0.046871521,0.073644042,0.979324818
44.906464,-5.855499268,-6.346599579,-12.757595062,-0.020755433,0.059850097,1.031326771
44.944771,-4.276214600,-36.642925262,-5.212123871,-0.070560120,0.045201659,1.071976185
44.959083,-1.140533447,-41.563884735,-2.557094574,-0.011111878,0.052403808,1.061356068
44.974437,-0.423370361,-38.374797821,-3.533657074,0.015987732,0.046300292,1.039139271
45.012769,-4.230438232,-16.112224579,-14.184291840,-0.037845276,0.027135253,0.984817982
45.051101,-5.535064697,-17.943279266,-4.334743500,-0.100101136,0.034825683,1.081009388
45.065422,-3.467498779,-17.966167450,-1.603420258,-0.081790589,0.034337401,1.099564075
45.096861,4.985870361,1.633747101,-6.478603363,-0.008914612,0.029942870,1.027420521
45.135271,-0.133453369,11.185749054,-7.455165863,-0.048221253,0.000768065,0.989944935
45.173591,1.651824951,1.168354034,0.311557770,-0.049441956,0.017003417,1.063919544
45.187897,7.076324463,-1.105205536,1.860324860,-0.015994690,0.028355956,1.024490833
45.203259,7.923187256,0.161273956,1.784030914,0.004146911,0.017857909,0.982986927
45.241572,0.881256104,13.680561066,-3.808315277,0.035274841,0.015538573,0.937210560
45.279886,1.819671631,13.413532257,-4.700954437,-0.017337464,0.021397948,0.981522083
45.294202,2.811492920,10.430438995,-3.403957367,-0.020633362,0.028478026,0.976028919
45.309591,3.124298096,3.457172394,-2.122219086,-0.018436097,0.025060058,0.957840443
45.347906,1.415313721,-3.401653290,-0.527675629,-0.019900940,0.024815917,0.951004505
45.386215,1.697601318,-9.848491669,0.578586578,-0.029056214,0.050450683,0.942215443
45.400505,1.575531006,-11.000530243,1.166049957,-0.039798401,0.052037597,0.938187122
45.415873,-0.209747314,-12.427227020,3.302280426,-0.037479065,0.043980956,0.940628529
45.454226,-1.888214111,-8.833782196,2.981845856,-0.012088440,0.059605956,1.005936146
45.492532,2.155364990,-3.294841766,-0.512416840,-0.041629456,0.045445800,1.049393177
45.519501,4.650177002,-6.873027802,3.538791656,-0.068973206,0.035436034,1.049759388
45.533829,5.329193115,-6.956951141,5.385105133,-0.057620667,0.033238769,1.036942005
45.572046,3.826202393,6.249530792,2.966587067,0.002682067,-0.001673341,0.990311146
45.610349,2.590240479,7.012470245,4.545871735,-0.057986878,0.047887206,0.968338490
45.624637,1.567901611,9.575946808,8.345310211,0.015377380,0.116734862,0.954666615
45.639998,1.590789795,14.939411163,7.429782867,0.056637146,0.129796386,0.941360950
45.678334,2.529205322,42.222126007,-11.330898285,0.053829528,0.067296386,0.854691029
45.716663,-11.379180908,9.133441925,-0.459011078,-0.130252510,-0.004603028,0.925858021
45.730966,-11.783538818,-5.576030731,6.033603668,-0.125735909,-0.005457520,0.977859974
45.746324,-9.075103760,-27.144329071,12.495700836,-0.073001526,0.035191894,1.051590443
45.784680,-3.353057861,-32.820598602,10.206882477,0.007198669,0.043492675,1.025955677
45.823009,-5.115447998,-13.182537079,3.515903473,-0.003421448,0.015538573,1.031570911
45.837309,-5.184112549,-8.551494598,2.775852203,-0.009647034,0.015416503,1.044998646
45.852643,-3.421722412,-1.303569794,1.738254547,-0.027713440,0.039830565,1.075150013
45.890967,-0.797210693,3.350360870,1.013462067,-0.049441956,0.032994628,1.053299427
45.929249,-0.865875244,5.776508331,4.316989899,-0.023807190,0.044957519,1.054153919
45.943532,3.017486572,10.003192902,2.684299469,0.013668396,0.069981933,1.027298450
45.958893,4.558624268,12.635334015,0.723545074,0.014400817,0.065953612,0.990555286
45.997246,-0.568328857,14.641864777,2.897922516,-0.018680237,0.032140136,0.881058216
46.035545,-5.161224365,17.624958038,5.514804840,0.058468200,0.065465331,0.855179310
46.049857,-5.779205322,20.936115265,3.279392242,0.075924255,0.068517089,0.857010365
46.065216,-7.930694580,26.421649933,-1.969631195,0.069820739,0.053258300,0.867630482
46.103554,-14.095245361,18.700702667,-3.625209808,0.004024841,-0.019251466,1.005936146
46.141867,-11.997161865,-11.145488739,-3.152187347,-0.014163636,0.026769042,1.084793568
46.156169,-10.280548096,-20.483867645,-3.190334320,-0.028812073,0.004674315,1.114090443
46.171534,-8.029876709,-36.627666473,-1.496608734,-0.063480042,0.009435058,1.139481068
46.209886,-4.276214600,-53.633586884,3.050510406,-0.042850159,-0.039759278,1.110916615
46.248199,1.171173096,-47.491924286,2.707187653,0.004391052,-0.006922364,1.142654896
46.262486,5.573333740,-33.850566864,-0.939662933,-0.003177308,-0.019495606,1.088577747
46.277847,6.961883545,-25.984661102,-1.275356293,0.006222107,-0.029261231,1.047317982
46.327939,0.255645752,7.783039093,-4.197414398,0.019527771,-0.026819825,0.948929310
46.366355,-1.270233154,20.569904327,-4.868801117,0.006954528,-0.016321778,0.958084583
46.380646,-1.529632568,23.194416046,-4.365261078,0.015377380,-0.027796388,0.957352161
46.396031,-2.223907471,24.468524933,-4.311855316,0.027584411,-0.022791505,0.961746693
46.446305,-2.063690186,27.726276398,-6.532009125,0.026974060,0.001378417,0.996536732
46.484676,-1.537261963,16.640766144,-3.770168304,-0.004398011,-0.043665528,0.949173450
46.498980,-4.337249756,8.149250031,-2.068813324,0.002559997,-0.029017091,0.957962513
46.514320,-4.787384033,3.960712433,-1.176174164,0.013180114,-0.027552247,0.972000599
46.552659,-2.109466553,-6.628887177,-1.389797211,0.028560974,-0.001551270,0.985550404
46.590944,-4.169403076,-5.476848602,-2.503688812,0.047481872,-0.017908692,0.966385365
46.605242,-5.428253174,-4.057781219,-4.327114105,0.043209411,-0.004480958,0.975540638
46.620595,-4.733978271,-2.905742645,-6.905849457,0.017818786,0.007970214,1.018753529
46.658905,-1.079498291,-13.235942841,-2.282436371,-0.041873597,-0.008997560,1.071732044
46.697234,-0.713287354,-20.750896454,0.708286285,-0.035037659,-0.009241700,1.089554310
46.711528,1.773895264,-17.828838348,-0.558193207,0.025753357,-0.027796388,1.081863880
46.726886,3.177703857,-15.326396942,-3.228481293,-0.007938050,-0.021570802,1.099442005
46.765225,5.634368896,-13.914958954,0.075046539,-0.049075745,-0.048670411,1.034744740
46.803516,6.565155029,1.542194366,2.752964020,0.074215271,-0.029993653,0.944290638
46.817835,3.841461182,17.029865265,-4.014308929,0.091793396,-0.042078614,0.894608021
46.833198,0.957550049,22.057636261,-7.302577972,0.065792419,-0.053064942,0.880936146
46.871521,-7.747589111,11.490924835,-4.868801117,-0.040652893,-0.079432130,0.946121693
46.909843,-6.328521729,-16.631023407,-0.581081390,-0.024783753,-0.022181153,1.032913685
46.924146,-4.848419189,-20.323650360,0.990573883,-0.027713440,-0.002161622,1.025833607
46.939507,-6.313262939,-20.079509735,1.463596344,0.015621521,-0.026941895,1.021194935
46.977874,-3.414093018,0.847919464,-7.943447113,0.036129333,-0.034510255,1.039993763
47.016168,-1.613555908,14.474018097,-9.194667816,0.022579528,-0.022303224,0.952103138
47.030467,-0.507293701,15.832050323,-8.820827484,0.038204528,-0.032923341,0.928177357
47.045843,-1.010833740,19.608600616,-10.094936371,0.067379333,-0.082972169,0.879105091
47.096310,-12.462554932,19.723041534,-12.559230804,0.057003357,-0.027918458,0.872513294
47.134712,-13.538299561,12.421710968,-16.175563812,0.036739685,-0.030970216,0.943436146
47.149013,-11.295257568,0.374897003,-14.901454926,-0.003665589,-0.030237794,1.001663685
47.164377,-9.761749268,-6.880657196,-12.994106293,-0.005862854,-0.036585450,1.006302357
47.202696,-4.962860107,-25.565044403,-7.439907074,0.017940857,-0.083338380,1.075150013
47.241034,-5.329071045,-43.280498505,-10.194118500,-0.026736878,-0.132532716,0.996536732
47.255326,-8.098541260,-54.221050262,-2.381618500,-0.031741761,-0.109583497,1.001419544
47.270665,-9.517608643,-57.150737762,-1.435573578,-0.007327698,-0.118738770,1.015945911
47.309007,-8.975921631,-32.515422821,-3.022487640,0.126583427,-0.066980958,1.062576771
47.347289,-8.243499756,11.704547882,-17.663295746,0.115963317,-0.060999513,1.025345325
47.361612,-8.899627686,17.197711945,-18.441493988,0.075680114,-0.078821778,1.028519154
47.376995,-12.027679443,20.180805206,-17.854030609,0.039181091,-0.104090333,1.043655872
47.415335,-6.267486572,15.824420929,-12.223537445,0.074093200,-0.098719239,1.112503529
47.453658,-0.324188232,21.592243195,-15.229518890,0.102535583,-0.089441895,1.029129505
47.467960,-0.675140381,23.598773956,-16.000087738,0.100460388,-0.112146974,0.998123646
47.483320,-2.742706299,28.191669464,-16.503627777,0.100338317,-0.146814942,0.971146107
47.521677,-2.574859619,39.292438507,-18.922145844,0.130489677,-0.140101075,0.994339466
47.559975,1.339019775,43.809040070,-25.162990570,0.077022888,-0.130823731,0.940384388
47.574264,-0.270782471,33.768756866,-24.239833832,0.041500427,-0.142664552,0.935501575
47.589622,-1.460968018,27.306659698,-22.027309418,0.032223083,-0.145228028,0.945633411
47.627957,0.660003662,5.524738312,-21.470363617,0.080807067,-0.092249513,0.982498646
47.666242,-0.827728271,-14.449016571,-23.728664398,0.018184997,-0.126917481,0.952347279
47.680547,-2.254425049,-20.163433075,-22.805507660,0.004757263,-0.130335450,0.959793568
47.709328,-4.100738525,-38.267986298,-16.274745941,0.004757263,-0.120569825,0.995193958
47.747718,-3.208099365,-50.810710907,-18.052394867,0.011959411,-0.113978028,1.040604115
47.786050,-5.420623779,-48.209087372,-14.039333344,0.020992614,-0.116175294,1.053421497
47.800367,-4.993377686,-46.568767548,-15.916164398,0.026119567,-0.150232911,1.061844349
47.815746,-8.281646729,-41.464702606,-16.724880219,-0.004275940,-0.135706544,1.128250599
47.854097,1.056732178,-26.625530243,-12.566860199,0.017330505,-0.063807130,1.175735950
47.906124,7.251800537,45.937641144,-27.360256195,0.165645927,-0.102869630,0.914749622
47.920457,0.820220947,67.994216919,-33.959682465,0.106441833,-0.164515138,0.880447865
47.935834,-2.857147217,73.868850708,-35.088832855,0.080562927,-0.160730958,0.909256458
47.974189,-2.330718994,62.661273956,-33.967311859,-0.027469300,-0.089441895,0.996292591
48.012503,-0.904022217,35.889728546,-29.237087250,0.042354919,-0.000208497,1.038528919
48.026823,2.170623779,30.625446320,-30.152614594,0.041012146,-0.024622560,1.032303333
48.042175,2.330841064,21.142108917,-30.015285492,0.038326599,-0.057093263,1.003494740
48.080498,1.499237061,7.058246613,-29.374416351,0.061886169,-0.052088380,0.955765247
48.118832,0.614227295,-4.828350067,-31.968410492,0.018429138,-0.035486817,0.934769154
48.133129,-1.262603760,-18.111125946,-29.465969086,-0.011356018,-0.037195802,0.930862904
48.148485,-2.002655029,-24.611370087,-27.993495941,-0.017581604,-0.044153810,0.943802357
48.186841,-2.307830811,-36.230937958,-25.109584808,0.035641052,-0.057703614,0.982010365
48.241146,-3.108917236,-7.628337860,-37.560756683,0.083004333,-0.070520997,1.030106068
48.256711,-3.345428467,-2.905742645,-39.895351410,0.061519958,-0.097986817,1.045975208
48.271001,1.026214600,4.075153351,-42.588527679,0.044552185,-0.091517091,1.069656849
48.309226,4.924835205,4.639728546,-41.795070648,0.042843200,-0.153650880,1.018753529
48.347520,5.436004639,6.890399933,-45.197780609,0.080807067,-0.193079591,0.965408802
48.361838,1.743377686,9.141071320,-49.165065765,0.063473083,-0.071131349,0.959915638
48.377183,2.086700439,8.126361847,-50.324733734,0.049068786,-0.083826661,0.967361927
48.415502,0.675262451,-3.134624481,-49.859340668,0.027950622,-0.136561036,0.984329700
48.453832,0.286163330,-11.610881805,-51.751430511,-0.004275940,-0.182703614,1.018509388
48.468127,-1.140533447,-16.577617645,-48.928554535,-0.021487854,-0.195887208,1.064774036
48.483496,-1.430450439,-18.919841766,-47.463710785,-0.014285706,-0.170496583,1.036331654
48.521851,4.222930908,-19.652263641,-44.366176605,0.012203552,-0.082605958,1.100418568
48.560153,3.566802979,-9.070293427,-42.649562836,0.026607849,-0.114466310,0.976761341
48.574461,2.529205322,-3.737346649,-43.572719574,0.038692810,-0.109339356,0.967117786
48.589823,1.804412842,6.363971710,-46.189601898,0.046627380,-0.097254395,0.964676380
48.628143,-2.025543213,5.623920441,-43.504055023,-0.013187073,-0.079187989,0.943924427
48.666435,-0.766693115,-1.578227997,-37.720973969,0.028560974,-0.044520020,1.034988880
48.695999,5.161346436,4.235370636,-41.642482758,0.031246521,-0.026331544,0.981033802
48.710344,4.734100342,4.822834015,-41.604335785,0.005367614,-0.044520020,0.954056263
48.748558,-4.421173096,-1.570598602,-32.265956879,-0.002200745,-0.074915528,0.952957630
48.786856,-1.239715576,2.076251984,-35.447414398,0.033932067,-0.040125489,1.019485950
48.801139,-0.339447021,3.182514191,-35.996730804,0.019527771,-0.060633302,1.010574818
48.816486,-1.048980713,4.365070343,-34.974391937,-0.000003479,-0.071497560,0.987625599
48.854824,-2.223907471,7.432086945,-34.402187347,0.010616638,-0.056360841,1.011795521
48.893116,-0.110565186,10.644062042,-34.684474945,0.007076599,-0.054895997,0.979080677
48.907423,-1.567779541,7.828815460,-33.959682465,-0.007205628,-0.048426270,0.955399036
48.922797,-2.956329346,5.807025909,-33.471401215,-0.021609925,-0.045374513,0.957230091
48.961125,-4.260955811,-0.998394012,-28.275783539,-0.031253479,-0.047205567,1.017166615
48.999432,-3.383575439,-3.622905731,-25.185878754,-0.015750550,-0.070643067,1.011185169
49.030289,-3.940521240,1.046283722,-24.911220551,0.007198669,-0.073816895,0.991775990
49.044621,-4.047332764,4.754169464,-25.727565765,0.017330505,-0.085291505,0.987137318
49.082867,-6.435333252,7.241352081,-25.529201508,0.009151794,-0.118982911,0.985306263
49.121169,-6.893096924,10.216815948,-24.384792328,0.060177185,-0.059290528,1.005569935
49.135469,-5.199371338,13.291461945,-27.848537445,0.060299255,-0.050867677,1.013870716
49.150845,-4.444061279,14.351947784,-28.992946625,0.056148864,-0.062708497,1.017532825
49.189181,1.239837646,11.796100616,-29.679592133,0.032101013,-0.070765138,0.998489857
49.227479,5.596221924,1.801593781,-29.465969086,0.012813903,-0.120447755,0.900955677
49.241769,4.001678467,-0.067607880,-28.764064789,0.001949646,-0.131678224,0.863602161
49.257137,-3.429351807,-2.028362274,-27.245815277,-0.005740784,-0.130213380,0.807938099
49.295474,-11.951385498,-3.966228485,-26.910121918,0.003292419,-0.081019044,0.959183216
49.333774,-10.425506592,-18.751995087,-23.003871918,-0.065799378,-0.061365724,1.062454700
49.348085,-8.686004639,-24.023906708,-21.752651215,-0.069705628,-0.059412599,1.083817005
49.363469,-5.664764404,-33.224956512,-18.418605804,-0.072513245,-0.078821778,1.113358021
49.401808,-3.604827881,-30.333415985,-11.246974945,-0.008792542,-0.103479981,1.055252552
49.440125,-2.963958740,-0.311748505,-18.418605804,0.067623474,-0.069178224,1.036209583
49.454428,-3.620086670,19.486530304,-22.271450043,0.050777771,-0.087366700,1.004837513
49.485474,-8.006988525,34.043415070,-24.422939301,0.038570739,-0.055018067,1.030106068
49.523904,-3.169952393,34.279926300,-26.032741547,0.038082458,0.000279784,1.121292591
49.562247,1.728118896,12.040241241,-24.552639008,-0.035525940,-0.037684083,1.037308216
49.576541,-0.476776123,3.861530304,-21.813686371,-0.038943909,-0.019617677,1.032181263
49.591883,-1.666961670,-9.177104950,-18.281276703,-0.005008362,0.009923339,1.074417591
49.630224,5.069793701,-14.014141083,-20.394618988,0.013058044,0.006871581,1.101639271
49.668518,5.703033447,-14.906780243,-18.845851898,-0.017703675,-0.017786622,1.016800404
49.682830,3.940643311,-12.854473114,-18.830593109,0.007076599,0.017613769,1.032425404
49.698176,4.734100342,-10.260478973,-20.005519867,0.016598083,0.029454589,1.049881458
49.736494,8.686126709,-3.104106903,-22.637660980,-0.024173401,0.012975097,0.997025013
49.774833,4.978240967,2.633197784,-20.821865082,0.018307067,0.024815917,1.005081654
49.789123,5.420745850,5.692584991,-22.187526703,0.036007263,0.038365722,1.018631458
49.804481,7.816375732,10.750873566,-26.009853363,0.032711364,0.039952636,1.013504505
49.842859,6.046356201,7.142169952,-22.637660980,-0.007083558,-0.011927247,0.961868763
49.881168,5.138458252,5.440814972,-21.752651215,0.048336364,0.023229003,0.979080677
49.895460,5.748809814,6.425006866,-22.973354340,0.049801208,0.019078612,0.968216419
49.910820,5.611480713,6.501300812,-24.621303558,0.034176208,0.003941894,0.950272083
49.949160,2.437652588,-9.734050751,-20.379360199,-0.039065979,-0.015711427,0.990921497
49.987461,4.161895752,-26.617900848,-13.490016937,-0.052249573,-0.013392091,0.993729115
50.001757,3.200592041,-32.904521942,-7.958705902,-0.023196839,-0.018396974,0.956619740
50.017119,0.469268799,-33.133403778,-6.982143402,0.001827575,-0.015711427,0.953934193
50.055470,-1.750885010,-11.420146942,-9.339626312,0.082638122,0.003087401,0.977127552
50.093784,-3.383575439,12.429340363,-14.565761566,0.069698669,-0.017054200,1.013626575
50.108094,-2.376495361,16.381366730,-13.070400238,0.046139099,-0.069056153,1.023148060
50.123462,-3.215728760,17.144306183,-13.352687836,0.047237732,-0.038538575,1.042068958
50.161825,4.077972412,14.565570831,-10.903652191,0.049801208,0.028111815,1.073563099
50.200147,6.641448975,22.477252960,-14.039333344,0.078853942,0.003331542,0.971878529
50.214444,4.512847900,24.338825226,-14.519985199,0.066036560,0.004674315,0.960037708
50.229813,3.521026611,23.232563019,-14.260585785,0.034298278,0.010533690,0.954178333
50.284118,1.560272217,-8.963481903,-3.800685883,-0.032474183,0.024571776,0.968216419
50.338891,-0.865875244,-22.139446259,-2.923305511,0.016842224,0.007970214,0.943192005
50.353212,-2.368865967,-22.719280243,-2.564723969,0.013302185,-0.001917481,0.951248646
50.368586,-4.779754639,-22.742168427,-2.328212738,0.004268982,0.015904784,0.972855091
50.406920,-1.697479248,-23.764507294,-1.504238129,-0.013675354,0.032750487,1.078323841
50.445238,2.941192627,-25.328533173,3.073398590,-0.008060120,-0.030359864,1.061111927
50.459534,5.779327393,-18.828289032,3.874485016,0.044308044,-0.031946778,1.023514271
50.474890,5.733551025,-13.159648895,0.868503571,0.065059997,-0.042444825,0.999710560
50.513234,2.628387451,1.557453156,-1.672084808,0.047970153,-0.044153810,0.954666615
50.551534,0.209869385,17.769916534,-4.243190765,0.108272888,-0.024622560,0.968216419
50.565852,-0.102935791,27.268512726,-9.217556000,0.097408630,-0.052820802,0.957352161
50.581212,-0.759063721,31.167133331,-9.621913910,0.092403747,-0.057581544,0.961258411
50.619546,-0.225006104,32.471759796,-13.566310883,0.043087341,-0.043543458,0.944534779
50.657871,-3.276763916,10.102375031,-10.415370941,-0.007205628,-0.055872560,0.944778919
50.672172,-4.581390381,2.740009308,-8.469875336,-0.012454651,-0.060633302,0.951126575
50.687530,-5.924163818,-9.543315887,-6.242092133,-0.010379456,-0.035853028,0.973221302
50.725878,-5.901275635,-23.062602997,-3.770168304,-0.001468323,-0.009119630,1.007645130
50.764191,-5.184112549,-23.924724579,-0.863368988,0.007809021,-0.029627442,1.037552357
50.778486,-4.062591553,-21.490947723,-0.504787445,0.022091247,-0.009241700,1.034744740
50.793846,-1.056610107,-13.220684052,-2.793605804,0.045040466,0.020421386,1.027176380
50.832181,0.560821533,0.199420929,-6.829555511,0.017696716,-0.009363770,0.966751575
50.870479,-3.879486084,8.683307648,-3.716762543,0.025265075,-0.010584474,0.999710560
50.884771,-1.583038330,11.063678741,-4.144008636,0.050411560,0.015050292,1.025101185
50.900128,0.713409424,12.734516144,-5.486782074,0.059078552,0.026769042,1.025223255
50.938474,2.529205322,19.227130890,-5.883510590,0.074459411,0.001744628,0.952469349
50.976795,-5.329071045,24.186237335,-11.964138031,0.054195739,-0.022425294,0.967117786
50.991106,-6.786285400,21.905048370,-11.788661957,0.038692810,-0.011316895,1.003128529
51.006486,-4.222808838,10.804279327,-9.042079926,0.009029724,-0.002894044,1.066971302
51.056286,0.766815186,-23.611919403,-7.363613129,-0.010135315,-0.063807130,1.012283802
51.094685,-5.016265869,-51.672832489,1.013462067,-0.053226136,-0.042200685,1.061600208
51.109001,-4.444061279,-56.784526825,2.867404938,-0.034915589,-0.035242677,1.073685169
51.124342,-1.270233154,-55.312053680,4.599277496,0.029903747,-0.026209474,1.077835560
51.162685,2.582611084,-16.493694305,-5.349452972,0.100094177,-0.032923341,0.967483997
51.201004,0.087799072,14.153583527,-12.856777191,0.064937927,-0.072596192,0.911819935
51.215306,-3.848968506,22.141559601,-13.413722992,0.027340271,-0.077356935,0.948929310
51.230660,-3.681121826,21.981342316,-12.559230804,0.007809021,-0.072962403,0.975784779
51.269005,2.262176514,17.914875031,-9.034450531,0.049923278,-0.018274903,1.033035755
51.307306,3.459991455,21.203144073,-12.460048676,0.039425232,-0.035120606,0.982986927
51.321621,1.766265869,19.158466339,-10.369594574,0.025143005,-0.028895020,0.996414661
51.337006,1.766265869,17.289264679,-9.652431488,0.027950622,-0.022059083,1.005447865
51.375347,5.298675537,6.501300812,-8.714015961,0.005855896,-0.022913575,1.006546497
51.413649,2.872528076,-7.933513641,-1.801784515,-0.028812073,-0.030726075,0.961868763
51.427948,1.964630127,-9.711162567,0.403110504,-0.011966370,-0.026331544,0.963333607
51.443289,1.010955811,-7.750408173,1.593296051,0.032345153,-0.003260255,0.978714466
51.481631,1.705230713,4.067523956,-1.839931488,0.041378357,-0.002894044,0.968216419
51.519917,-0.293670654,0.748737335,1.028720856,0.036617614,0.013829589,0.969070911
51.534213,-0.369964600,-0.220195770,0.471775055,0.043575622,0.010411620,0.982742786
51.549534,-0.263153076,-2.219097137,-0.924404144,0.033199646,-0.002405763,0.999954700
51.587880,-0.148712158,-4.080669403,0.586215973,0.000606872,-0.041956544,1.033157825
51.637972,2.964080811,-3.226177216,2.386753082,0.024776794,-0.064051270,1.045731068
51.652305,3.902496338,-3.973857880,1.005832672,-0.009158753,-0.094690919,1.021439075
51.667644,3.025115967,-5.026714325,2.218906403,-0.023318909,-0.095789552,1.021927357
51.705964,2.880157471,-3.294841766,5.209629059,0.040523864,-0.021326661,1.038284779
51.744261,4.360260010,15.442951202,-3.831203461,0.095577575,-0.034510255,0.971634388
51.758565,0.194610596,14.542682648,-8.080776215,0.004268982,-0.075281739,0.933426380
51.773933,-3.246246338,8.454425812,-5.700405121,-0.042361878,-0.083094239,0.945511341
51.812275,-5.344329834,-18.172161102,4.255954742,-0.031497620,-0.034021974,1.070023060
51.862596,3.093780518,-7.864849091,-0.428493500,0.036861755,-0.024744630,0.964920521
51.876931,1.552642822,-3.004924774,-1.931484222,0.023678161,-0.035120606,0.941727161
51.892277,-3.276763916,4.426105499,-1.817043304,-0.005008362,-0.049524903,0.951614857
51.930619,-1.392303467,10.705097198,-0.321681976,0.014278747,-0.010218263,1.048050404
51.968902,2.895416260,4.189594269,0.891391754,-0.009769104,-0.040369630,0.979568958
51.983212,2.132476807,1.450641632,2.310459137,-0.007938050,-0.035975099,0.972244740
51.998532,1.422943115,-2.028362274,3.744785309,0.018307067,-0.004969239,0.969315052
52.036883,3.826202393,1.717670441,1.440708160,0.040890075,-0.003016114,0.940872669
52.075170,3.757537842,10.102375031,0.906650543,0.073604919,0.013341308,0.903885365
52.089465,1.819671631,17.037494659,-3.991420746,0.084102966,0.006505370,0.882767200
52.104825,-0.461517334,19.120319366,-5.822475433,0.065914489,-0.007898927,0.884598255
52.143171,-6.160675049,10.613544464,-3.495510101,0.024166442,-0.024500489,1.033401966
52.181452,1.575531006,-9.543315887,-2.625759125,0.020626403,-0.032068849,1.034256458
52.195739,-1.193939209,-15.738384247,-1.504238129,0.028683044,-0.060511231,0.988724232
52.211096,-4.283843994,-16.272441864,-1.763637543,0.039059021,-0.054895997,0.987991810
52.249463,-7.900177002,-13.441936493,-6.196315765,0.018429138,-0.035975099,1.112625599
52.287757,4.978240967,-14.624492645,-6.287868500,0.001583435,-0.057825685,1.117996693
52.302062,6.748260498,-15.349285126,-6.326015472,-0.013309143,-0.075647950,1.087723255
52.317416,6.885589600,-17.805950165,-4.685695648,-0.044681214,-0.101770997,1.025345325
52.355756,2.338470459,-21.498577118,4.690830231,-0.047244690,-0.050989747,1.013382435
52.394057,5.855621338,-9.718791962,3.828708649,0.000118591,-0.040735841,0.983963490
52.408358,4.375518799,4.448993683,3.386203766,0.012691833,-0.057825685,0.943924427
52.423696,3.528656006,11.666400909,3.355686188,0.020748474,-0.045618653,0.929275990
52.462071,-0.751434326,34.699542999,0.220005035,0.054684021,-0.030481935,0.910233021
52.500365,-3.482757568,42.855365753,-0.497158051,0.034786560,-0.045374513,0.956741810
52.514662,-3.726898193,38.575275421,-1.122768402,0.027584411,-0.031702638,0.975174427
52.530044,-3.498016357,35.042865753,0.220005035,0.014156677,-0.030726075,0.983353138
52.568389,-0.423370361,19.967182159,3.775302887,0.052730896,-0.022913575,0.984940052
52.606679,-1.125274658,8.713825226,0.960056305,0.049312927,-0.017786622,0.943558216
52.634384,-3.108917236,-4.599468231,2.600376129,0.025631286,-0.009607911,0.950027943
52.648711,-3.375946045,-8.993999481,3.195468903,0.022823669,-0.013392091,0.955399036
52.686919,-5.824981689,-19.148723602,2.638523102,0.035641052,-0.006800294,1.024857044
52.725239,-3.490386963,-29.776470184,3.042881012,-0.007571839,-0.027186036,1.083206654
52.739523,-2.407012939,-32.538311005,4.721347809,-0.008548401,-0.024256349,1.087601185
52.754881,0.484527588,-35.353557587,6.224338531,0.011349060,-0.041956544,1.088455677
52.793239,2.460540771,-30.737773895,3.218357086,-0.005008362,-0.075281739,1.014114857
52.831542,-1.476226807,-18.179790497,3.882114410,0.015743591,-0.056971192,1.006180286
52.845857,-1.605926514,-3.165142059,2.943698883,0.043941833,-0.010950685,1.008743763
52.861202,-0.980316162,6.806476593,1.143161774,0.069820739,-0.001185060,1.000565052
52.899528,-3.482757568,39.818866730,-10.171230316,0.078365661,-0.037439942,0.983963490
52.951329,-3.528533936,6.508930206,-0.344570160,-0.067264222,-0.052332520,1.063919544
52.965651,-1.735626221,-0.609294891,1.677219391,-0.056888245,-0.048914552,1.065872669
52.981013,1.468719482,-7.712261200,4.416172028,-0.020877503,-0.051111817,1.018143177
53.019334,-0.263153076,-3.546611786,2.402011871,0.020382263,-0.040613770,0.940140247
53.057648,-6.633697510,5.211933136,0.395481110,0.026485778,-0.028040528,0.989456654
53.071942,-3.581939697,5.601032257,-0.695522308,0.022579528,-0.025354981,1.026566029
53.087310,-2.582489014,4.227741241,-0.726039886,0.014278747,-0.021448731,1.029251575
53.125665,0.728668213,-5.278484344,0.052158356,0.008053161,-0.021082520,0.987991810
53.163943,-0.247894287,-5.720989227,0.578586578,0.017574646,-0.018274903,0.970779896
53.178241,-0.026641846,-3.332988739,0.143711090,0.029537536,-0.020105958,0.965530872
53.193601,-0.080047607,1.961811066,-0.954921722,0.052975036,-0.011072755,0.941238880
53.231908,-1.430450439,14.657123566,-6.799037933,0.077999450,-0.002649903,0.918411732
53.270226,-5.687652588,15.076740265,-11.987026215,0.025753357,-0.007654786,0.998489857
53.284527,-5.039154053,10.636432648,-11.330898285,0.012447692,-0.012049317,1.033768177
53.299892,-2.033172607,-1.692668915,-8.866603851,-0.000980042,-0.039148927,1.075394154
53.338234,0.446380615,-18.408672333,-9.103115082,-0.013919495,-0.069422364,1.084671497
53.376521,0.026763916,-39.557353973,-7.035549164,-0.062259339,-0.082483888,1.079422474
53.390848,-1.285491943,-52.466289520,-4.067714691,-0.099612854,-0.090174317,1.090286732
53.406208,-1.972137451,-58.066265106,-1.054103851,-0.107547425,-0.082605958,1.093216419
53.458289,8.243621826,-23.039714813,-1.511867523,0.080196716,-0.055506349,1.059280872
53.496673,7.686676025,13.230426788,-8.439357758,0.018673278,-0.120081544,0.933426380
53.510966,1.606048584,22.301776886,-5.791957855,-0.030398987,-0.104578614,0.909256458
53.526323,-0.392852783,23.316486359,-2.793605804,-0.022586487,-0.084925294,0.936111927
53.564683,1.224578857,33.013446808,-1.694972992,0.048580505,-0.057093263,0.948807240
53.603002,-1.956878662,51.118000031,-6.150539398,0.089596130,-0.058069825,0.935135365
53.617306,-3.444610596,53.643329620,-7.775600433,0.079464294,-0.057703614,0.951858997
53.632645,-3.215728760,55.077655792,-9.133632660,0.055538513,-0.036585450,0.991409779
53.670980,-1.903472900,29.091938019,-3.129299164,-0.038943909,-0.064051270,0.980301380
53.709261,-0.888763428,-8.841411591,5.675022125,-0.000247620,-0.041834474,0.981155872
53.723547,-0.865875244,-14.853374481,6.071750641,0.007198669,-0.048182130,0.979202747
53.738886,-1.270233154,-22.223369598,6.926242828,0.017208435,-0.053797364,0.976517200
53.777241,-1.819549561,-27.609722137,7.361118317,0.016964294,-0.022547364,0.988846302
53.815537,-2.101837158,-26.114360809,7.788364410,0.040890075,-0.012537599,0.999954700
53.829854,-3.490386963,-21.239177704,5.270664215,0.044552185,-0.019983888,1.033035755
53.845199,-3.993927002,-18.401042938,4.530612946,0.042354919,-0.017664552,1.062088490
53.883525,3.971160889,-9.947673798,2.417270660,0.015865661,-0.036219239,1.097733021
53.921842,3.154815674,-1.585857391,2.615634918,0.026241638,-0.106897950,1.039261341
53.936134,2.147735596,0.840290070,0.563327789,-0.012576722,-0.103357911,1.027420521
53.951486,0.759185791,0.649555206,1.845066071,-0.027713440,-0.097132325,1.032303333
53.989835,1.003326416,7.027729034,8.757297516,0.063228942,-0.047083497,1.050980091
54.028136,4.146636963,30.152423859,-4.754360199,0.090938903,-0.066370606,0.965164661
54.042442,3.086151123,31.075580597,-6.738002777,0.055660583,-0.085291505,0.943314075
54.057814,-1.293121338,21.424396515,-4.853542328,-0.034549378,-0.103602052,0.939041615
54.096160,-2.666412354,-14.746562958,6.468479156,-0.020267151,-0.039881349,1.040115833
54.134445,4.085601807,-16.333477020,3.431980133,0.057369567,-0.024500489,0.955765247
54.148740,1.789154053,-12.633220673,0.876132965,0.054561950,-0.039637208,0.926712513
54.164095,-1.308380127,-8.589641571,-0.619228363,0.040401794,-0.052698731,0.913773060
54.216418,-1.506744385,1.832111359,-0.314052582,0.001827575,-0.039270997,1.079666615
54.268881,7.190765381,6.608112335,-1.221950531,0.013302185,-0.028284669,0.935867786
54.283200,5.970062256,7.683856964,-0.916774750,0.013424255,-0.038904786,0.908890247
54.298542,2.658905029,9.293659210,-0.268276215,0.027340271,-0.024134278,0.891922474
54.336889,-0.865875244,15.107257843,-2.549465179,0.078487732,0.032872558,0.934769154
54.375213,0.225128174,14.771564484,-9.110744476,0.036251403,0.015538573,0.961868763
54.389511,-0.019012451,9.110553741,-9.187038422,-0.000125550,-0.007654786,0.966019154
54.404861,-3.482757568,-7.582561493,-2.694423676,-0.045291565,-0.065760255,0.993484974
54.443188,0.713409424,-22.185222626,2.173130035,0.058956482,-0.052820802,1.075638294
54.481477,2.666534424,-16.211406708,-4.357631683,0.036617614,-0.080652833,0.998123646
54.495777,-2.902923584,-17.165081024,-3.472621918,-0.009158753,-0.082972169,0.972855091
54.511132,-6.160675049,-19.949810028,-2.747829437,-0.024783753,-0.084803224,0.990311146
54.549483,-5.565582275,-29.311077118,6.125156403,0.020870544,0.014806151,1.170486927
54.587793,11.585296631,-14.571086884,-3.693874359,0.019161560,-0.075159669,1.047684193
54.602114,8.480133057,-8.986370087,-1.900966644,-0.018314026,-0.125696778,0.954300404
54.617473,4.886688232,-7.117168427,-0.115688324,-0.025272034,-0.128382325,0.939285755
54.655786,3.292144775,10.819538116,3.508274078,0.042232849,-0.041346192,0.968826771
54.694105,2.040924072,39.635761261,-3.106410980,0.088375427,-0.044153810,0.879471302
54.708423,-0.240264893,45.266254425,-4.922206879,0.086544372,-0.047205567,0.883743763
54.723792,-4.108367920,51.240070343,-7.676418304,0.062496521,-0.063074708,0.919876575
54.762149,-2.773223877,37.423236847,-4.433925629,-0.002078675,-0.036097169,1.025589466
54.800454,2.430023193,12.940509796,1.333896637,-0.010623597,-0.021814942,1.006424427
54.814757,2.933563232,-1.616374969,4.065219879,0.011715271,-0.047937989,0.963089466
54.830104,1.682342529,-6.522075653,4.294101715,0.015621521,-0.041834474,0.945511341
54.868448,-1.697479248,-15.112773895,5.774204254,0.033809997,-0.027063966,0.984940052
54.906741,0.660003662,-16.745464325,4.027072906,0.014644958,-0.034876466,0.953690052
54.921051,-2.551971436,-19.362346649,4.988376617,0.011471130,-0.030115724,0.985062122
54.936406,-3.337799072,-21.407024384,4.675571442,0.006832458,-0.023035645,1.009720325
54.974736,1.705230713,-31.294719696,8.116428375,-0.011111878,-0.032435060,1.103226185
55.013050,6.885589600,-22.818462372,7.010166168,0.037105896,-0.096521974,1.033401966
55.044010,3.910125732,-5.682842255,3.813449860,0.019893982,-0.110926270,0.946365833
55.058327,1.758636475,-0.014202118,4.378025055,0.013668396,-0.112757325,0.938675404
55.096511,-3.047882080,24.880512238,5.240146637,0.074337341,-0.038660645,0.981033802
55.134844,-2.704559326,48.943622589,-6.135280609,0.099850036,-0.028406739,0.957718372
55.149118,-5.184112549,49.454792023,-10.209377289,0.045772888,-0.061976075,0.972488880
55.164485,-6.496368408,43.633563995,-11.063869476,0.001339294,-0.076014161,0.984817982
55.202845,-8.502899170,-5.904094696,3.508274078,-0.070560120,-0.071497560,1.098953724
55.241136,2.407135010,-28.090373993,5.018894196,0.037350036,-0.033777833,1.008743763
55.255436,1.453460693,-26.739971161,3.538791656,0.040645935,-0.052454591,0.966873646
55.270792,-3.444610596,-20.125286102,1.364414215,0.039425232,-0.080652833,0.941849232
55.309142,-4.886566162,-8.376018524,-3.533657074,-0.003543518,-0.050989747,1.017654896
55.347446,-5.046783447,-14.441387177,3.119174957,-0.041141175,-0.077234864,1.043900013
55.361736,-4.375396729,-16.501323700,4.461948395,-0.036380433,-0.073938966,1.065262318
55.377098,-3.581939697,-17.897502899,5.217258453,-0.026004456,-0.065271974,1.081009388
55.415443,2.590240479,-14.143840790,4.324619293,0.009518005,-0.039637208,1.086136341
55.453732,4.749359131,7.226093292,0.982944489,0.081295349,-0.020472169,1.025101185
55.468017,5.512298584,19.433124542,-4.266078949,0.096920349,-0.009485841,0.994827747
55.483380,5.580963135,23.743732452,-6.882961273,0.080318786,-0.019007325,0.981644154
55.521711,1.079620361,21.248920441,-6.104763031,0.001705505,-0.046229005,0.968216419
55.575724,2.803863525,15.137775421,-5.120571136,0.103145935,-0.025232911,1.006668568
55.590058,1.957000732,16.465290070,-10.514553070,0.062496521,-0.056482911,0.943802357
55.605425,-1.178680420,14.710529327,-8.881862640,0.042232849,-0.073206544,0.935257435
55.643765,-7.930694580,-6.529705048,-7.851894379,-0.003543518,-0.068689942,1.039139271
55.682079,0.194610596,-31.721965790,-2.572353363,0.002804138,-0.042444825,1.143143177
55.696391,6.870330811,-36.497966766,-4.136379242,0.017574646,-0.075892091,1.127029896
55.711757,8.915008545,-37.268535614,-4.823024750,0.007198669,-0.096888185,1.098709583
55.750105,8.503021240,-34.590618134,-2.068813324,-0.015628479,-0.122889161,1.014358997
55.788445,9.433807373,-12.946025848,-2.503688812,0.027706482,-0.098475099,0.953934193
55.802754,8.205474854,-4.767314911,-3.938014984,0.029049255,-0.102015138,0.931229115
55.834005,2.460540771,18.822772980,-5.044277191,0.036007263,-0.091639161,0.923172474
55.872454,1.018585205,39.712055206,-7.790859222,0.071529724,-0.053797364,0.991165638
55.910778,2.101959229,44.335468292,-12.551601410,0.021236755,-0.063318849,0.956985950
55.925084,0.698150635,32.868488312,-9.011562347,-0.025394104,-0.073694825,0.955643177
55.940434,-0.057159424,24.376972198,-6.226833344,-0.036258362,-0.074671388,0.965286732
55.978778,1.689971924,-8.543865204,2.714817047,0.007809021,-0.038172364,0.992020130
56.017083,2.468170166,-18.095867157,2.196018219,0.020992614,-0.042811036,0.938675404
56.031407,1.331390381,-17.950908661,2.012912750,0.014400817,-0.050745606,0.931717396
56.046776,-2.216278076,-19.499675751,2.066318512,0.001461364,-0.051966310,0.951004505
56.085129,0.240386963,-24.504558563,3.332798004,-0.011233948,-0.027430177,1.033401966
56.123455,3.650726318,-27.281658173,6.132785797,-0.008304261,-0.051966310,0.996536732
56.137757,2.880157471,-25.450603485,6.560031891,-0.002811097,-0.060755372,0.983353138
56.153115,0.438751221,-18.050090790,7.277194977,0.014889099,-0.060999513,0.988724232
56.191467,2.323211670,-2.501384735,3.836338043,0.029659607,-0.041346192,1.032425404
56.229766,4.550994873,9.896381378,3.851596832,-0.002933167,-0.042811036,0.963455677
56.244067,2.384246826,16.274555206,5.110446930,0.032589294,-0.016810060,0.945755482
56.259406,0.957550049,21.012409210,4.645053864,0.063106872,-0.009974122,0.944900990
56.297745,-2.590118408,39.651020050,-5.257900238,0.078365661,-0.008265138,0.995804310
56.336072,-1.438079834,12.406452179,-0.886257172,-0.096561097,-0.082239747,1.014236927
56.350367,-2.056060791,-0.693218231,3.683750153,-0.100101136,-0.078089356,1.020340443
56.365704,-1.712738037,-21.628276825,10.000888824,-0.073978089,-0.051722169,1.031937122
56.404079,-0.293670654,-26.266948700,9.802524567,0.033321716,-0.050501466,0.989700794
56.442398,-4.856048584,-7.895366669,4.843418121,0.010128357,-0.071741700,0.992996693
56.456695,-5.222259521,-4.996196747,4.713718414,-0.003543518,-0.064539552,1.014236927
56.472039,-4.138885498,-1.570598602,5.659763336,-0.015628479,-0.051233888,1.046097279
56.510375,-0.125823975,-0.609294891,6.872837067,-0.015750550,-0.038416505,1.044876575
56.548677,0.232757568,-0.067607880,9.062473297,0.001095153,-0.037562013,1.001541615
56.580323,1.041473389,3.670795441,9.024326324,0.034176208,-0.003626466,0.990433216
56.594639,1.781524658,5.463703156,8.131687164,0.039913513,-0.000818849,0.977005482
56.632871,1.827301025,12.978656769,5.957309723,0.058101989,-0.004847169,0.929031849
56.671184,-0.926910400,23.591144562,0.631992340,0.082027771,-0.006678224,0.906448841
56.685471,-2.628265381,24.956806183,-0.260646820,0.073482849,-0.014734864,0.909256458
56.700842,-4.817901611,24.186237335,-1.305873871,0.056026794,-0.012415528,0.940140247
56.739190,-3.673492432,14.580829620,0.097934723,0.041500427,-0.052942872,0.987747669
56.777501,0.339569092,-1.196758270,-0.115688324,0.056026794,-0.060145020,0.972366810
56.791817,-1.132904053,-9.932415009,-1.969631195,0.029537536,-0.083582520,0.938065052
56.807168,-3.406463623,-14.815227509,-2.755458832,0.011593200,-0.089197755,0.942947865
56.845500,-10.089813232,-35.811321259,5.385105133,0.000973083,-0.042200685,1.077103138
56.895353,2.895416260,-25.427715302,-3.831203461,0.056026794,-0.068567872,1.067825794
56.909679,2.887786865,-15.173809052,-6.638820648,0.029903747,-0.089686036,1.022293568
56.925045,2.071441650,-11.755840302,-8.027370453,0.003658630,-0.100550294,1.004959583
56.963379,-2.361236572,-9.032146454,1.036350250,-0.054202698,-0.096521974,1.043289661
57.001674,3.223480225,1.107318878,3.958408356,-0.014041565,-0.082239747,1.014481068
57.015976,2.475799561,7.454975128,5.316440582,0.012569763,-0.080530763,0.995316029
57.031324,1.079620361,24.064167023,4.187290192,0.076534607,-0.056727052,0.967117786
57.069686,-3.383575439,57.114704132,-5.555446625,0.086910583,-0.067103028,0.947586536
57.108019,-6.862579346,59.701068878,-7.188137054,0.025753357,-0.073694825,1.008133411
57.122324,-5.916534424,54.551227570,-5.395229340,0.010738708,-0.077234864,1.025101185
57.137701,-2.849517822,40.139301300,-1.405056000,0.007442810,-0.061487794,1.027054310
57.176067,-1.392303467,16.671283722,1.639072418,0.024410583,-0.066858888,0.995316029
