time,gyro x,gyro y,gyro z,accel x,accel y,accel z
132.407357,20.968616486,-15.320049286,5.602516174,0.004684021,-0.076715030,1.043700695
132.445734,25.103748322,-6.744609833,8.112586975,0.007979919,-0.047662295,1.067260265
132.484225,11.988819122,0.388874054,6.655372620,-0.003616760,0.009222470,1.065429211
132.498380,15.772998810,1.342548370,5.388893127,-0.009842346,0.048284970,1.028197765
132.513842,22.982776642,-0.450359344,-0.020347595,-0.008377503,0.004095517,1.046386242
132.514541,22.982776642,-0.450359344,-0.020347595,-0.008377503,0.004095517,1.046386242
132.552868,24.462879181,5.637897491,-2.896629333,0.022628356,-0.011163272,1.025512218
132.591396,22.402942657,5.660785675,6.365455627,0.035811950,0.076971494,1.049804211
132.605672,27.415454865,-1.480327606,0.658668518,0.031173278,0.132635564,1.063231945
132.621019,27.842700958,-11.657939911,2.237953186,0.090987734,-0.113091983,1.130004406
132.659600,13.278186798,-15.640483856,8.623756409,0.000045349,0.103216611,1.063842297
132.698073,12.843311310,-11.718975067,-3.980003357,-0.032547425,0.001165830,1.070556164
132.712383,9.066761017,3.265155792,-3.819786072,0.006026794,-0.101739444,1.062621593
132.727912,4.985034943,12.649311066,-0.943504333,0.027877379,-0.167901546,1.065673351
132.766329,5.030811310,26.298297882,6.472267151,-0.015945863,0.260076970,0.982055187
132.804818,1.498401642,2.761615753,6.655372620,0.101119570,-0.068170108,1.085326672
132.818989,0.529468536,-15.159832001,1.558937073,0.077804141,-0.044366397,1.078246593
132.834500,-0.538646698,-18.684612274,4.816688538,0.061812926,-0.011773624,1.067992687
132.835217,-0.538646698,-18.684612274,4.816688538,0.061812926,-0.011773624,1.067992687
132.835848,-0.538646698,-18.684612274,4.816688538,0.061812926,-0.011773624,1.067992687
132.836493,-0.538646698,-18.684612274,4.816688538,0.061812926,-0.011773624,1.067992687
132.837116,-0.538646698,-18.684612274,4.816688538,0.061812926,-0.011773624,1.067992687
132.837756,-0.538646698,-18.684612274,4.816688538,0.061812926,-0.011773624,1.067992687
132.838383,-0.683605194,-22.117839813,7.197059631,0.032760192,0.030706845,1.066527843
132.839029,-0.683605194,-22.117839813,7.197059631,0.032760192,0.030706845,1.066527843
132.839649,-0.683605194,-22.117839813,7.197059631,0.032760192,0.030706845,1.066527843
132.840295,-0.683605194,-22.117839813,7.197059631,0.032760192,0.030706845,1.066527843
132.840926,-0.683605194,-22.117839813,7.197059631,0.032760192,0.030706845,1.066527843
132.841566,-0.683605194,-22.117839813,7.197059631,0.032760192,0.030706845,1.066527843
132.842193,-0.683605194,-22.117839813,7.197059631,0.032760192,0.030706845,1.066527843
132.842837,-0.683605194,-22.117839813,7.197059631,0.032760192,0.030706845,1.066527843
132.843462,-0.683605194,-22.117839813,7.197059631,0.032760192,0.030706845,1.066527843
132.844104,-0.683605194,-22.117839813,7.197059631,0.032760192,0.030706845,1.066527843
132.892985,-8.015453339,-20.187602997,7.784523010,0.019820739,-0.093438663,1.094726086
132.931495,-5.230724335,-9.308086395,6.495155334,0.000045349,0.063299619,1.030395031
132.945665,-6.253063202,-6.530986786,7.570899963,-0.005691956,0.058050595,1.038573742
132.961105,-5.261241913,-4.387126923,2.451576233,0.004439880,0.034368955,1.044677258
132.999602,-4.086315155,4.806293488,3.237403870,0.064132266,-0.133599788,1.114013195
133.048567,-5.741893768,4.806293488,2.901710510,0.057418395,0.035345517,1.047484875
133.062768,-6.375133514,2.799762726,3.183998108,0.057296325,0.038275205,1.033690929
133.078276,-4.978954315,-0.053630829,2.192176819,0.033614684,0.104193173,0.985473156
133.116736,1.155078888,0.053180695,-1.019798279,0.043746520,-0.029229678,0.968261242
133.155195,1.971424103,5.080951691,-0.470481873,0.056441832,-0.045709170,0.948729992
133.169527,0.765979767,7.743610382,-1.164756775,0.059005309,-0.061090030,0.946044445
133.184843,-0.630199432,8.964313507,-1.599632263,0.055831481,-0.047784366,0.934813976
133.223390,-0.279247284,15.220417023,-0.912986755,0.057906676,0.004705869,0.894652843
133.261801,5.221546173,17.722858429,-2.591453552,0.074386172,-0.038507022,0.912719250
133.276115,-1.431285858,21.796955109,2.810157776,0.095382266,-0.118829288,0.943358898
133.291585,-3.308116913,21.240009308,3.679908752,0.090865664,-0.087091006,0.928710461
133.330038,-1.133739471,12.557758331,4.480995178,0.079879336,-0.036675967,0.924193859
133.379126,-4.757701874,11.527790070,4.915870667,0.066329531,-0.131036311,0.945800304
133.394818,-4.856884003,12.290729523,0.307716370,0.037032653,-0.041436709,0.930663586
133.408974,-3.422557831,14.411701202,-0.470481873,0.045089293,-0.046685733,0.933959484
133.447349,-4.063426971,21.301044464,3.992713928,0.039107848,-0.035699405,0.987914562
133.485801,0.353992462,12.199176788,8.547462463,0.023726989,0.140325993,0.981688976
133.500095,3.436267853,7.415546417,6.045021057,0.028243590,0.099676572,1.001586437
133.515607,5.892932892,-2.166973114,6.678260803,0.043502379,0.051947080,1.038695812
133.554027,5.496204376,-24.986492157,9.005226135,0.055343200,-0.049981631,1.110473156
133.592513,6.991565704,-41.618572235,6.388343811,-0.000320862,0.040228330,1.047606945
133.606689,11.515796661,-42.701946259,-0.233970642,-0.029861879,-0.009088077,1.062255383
133.622172,9.669483185,-39.169536591,0.826515198,-0.031204652,-0.036431827,1.065429211
133.660593,11.492908478,-9.132610321,4.564918518,-0.079666562,0.108953916,1.061889172
133.709558,6.289661407,18.729938507,4.999794006,-0.017288636,-0.045953311,1.048095226
133.723967,2.192676544,22.811664581,6.365455627,-0.010696839,-0.030328311,1.026000500
133.739459,3.573596954,22.247089386,4.686988831,-0.010696839,0.012152158,1.006103039
133.777930,4.580677032,8.582843781,-0.005088806,0.042159606,-0.096734561,1.028441906
133.816414,7.754505157,-3.181682587,-0.211082458,-0.001175354,0.029852353,1.033813000
133.830578,6.365955353,-5.409465790,-2.911888123,0.003463318,-0.032037295,1.048217297
133.846023,-0.279247284,-7.034526825,-1.073204041,0.022872496,-0.072686709,1.055419445
133.884518,-4.475414276,-11.581645966,-3.812156677,-0.013504456,0.011419736,1.009032726
133.922971,-9.831249237,1.273883820,-3.300987244,-0.014114807,-0.057672061,1.005370617
133.937267,-10.182201385,6.026996613,-3.232322693,-0.010452698,-0.032769717,1.004516125
133.952612,-11.502086639,16.128314972,1.810707092,-0.004471253,-0.002374209,1.013671398
133.991209,-13.806163788,13.702167511,1.314796448,0.053268004,-0.061334170,1.036254406
134.029711,-9.129344940,-2.525554657,2.451576233,0.038497496,0.045965634,0.993407726
134.043883,0.025928497,-13.603435516,-0.371299744,0.022384215,0.049017392,0.998534679
134.059211,2.848804474,-17.288433075,-0.706993103,0.022018004,0.014593564,1.018920422
134.097756,-0.469982147,-17.570720673,3.245033264,0.026900817,-0.091729678,1.036864758
134.098484,-0.469982147,-17.570720673,3.245033264,0.026900817,-0.091729678,1.036864758
134.099106,-0.469982147,-17.570720673,3.245033264,0.026900817,-0.091729678,1.036864758
134.148053,-1.202404022,-4.646526337,0.940956116,-0.018509340,0.052191220,1.040282726
134.162367,-2.201854706,3.906024933,2.176918030,-0.023392152,0.109808408,1.026977062
134.177914,-1.866161346,7.118000031,1.650489807,-0.022781800,0.103949033,1.025390148
134.216353,-5.787670135,12.214435577,2.230323792,0.022872496,-0.007012881,1.009154797
134.254772,-7.725536346,-1.198040009,0.239051819,0.035323668,-0.002862491,0.940551281
134.269089,-2.430736542,-10.551677704,-2.057395935,0.018966246,0.069036923,0.888793468
134.284560,0.918567657,-14.038311005,-2.881370544,0.013106872,0.052923642,0.890258312
134.323013,1.597583771,-12.809978485,-6.535850525,-0.020706605,-0.009210147,0.873168468
134.371974,0.781238556,11.176837921,-3.980003357,-0.005325745,-0.074761905,0.922973156
134.386180,-1.332103729,13.915790558,-3.453575134,0.011764099,-0.102838077,0.936156750
134.401514,-4.864513397,15.754474640,-2.736412048,0.036056090,-0.120416202,0.945800304
134.440058,-8.229076385,8.949054718,-3.636680603,0.034713317,-0.075738467,0.929809093
134.478566,-3.666698456,3.547443390,-6.436668396,0.030807067,-0.063897647,0.949462414
134.492726,-4.208385468,4.531635284,-4.895530701,0.025924254,-0.040948428,0.956054211
134.508176,-3.544628143,4.173053741,-3.842674255,0.009078552,0.062445126,0.964477062
134.546606,0.117481232,-0.061260223,-4.910789490,-0.004837464,0.156561345,0.988646984
134.585094,2.925098419,-2.464519501,-5.254112244,0.002852966,0.078558408,1.036010265
134.599263,0.910938263,0.129474640,-3.568016052,0.024947692,-0.047906436,1.061522961
134.614804,-1.293956757,0.968708038,-2.621971130,0.039718200,-0.110040225,1.061400890
134.653055,0.491321564,-1.419292450,-4.086814880,0.038009215,-0.102471866,1.032470226
134.691569,2.108753204,2.357257843,2.047218323,0.001143982,0.129095525,0.981200695
134.705860,3.298938751,2.647174835,2.703346252,-0.011551331,0.183172673,0.968505383
134.721373,8.471668243,-0.908123016,1.215614319,-0.008499573,0.196112126,0.960937023
134.759856,10.111988068,-11.963115692,1.612342834,0.022750426,-0.069146670,0.984740734
134.760590,10.111988068,-11.963115692,1.612342834,0.022750426,-0.069146670,0.984740734
134.761200,10.111988068,-11.963115692,1.612342834,0.022750426,-0.069146670,0.984740734
134.761821,10.111988068,-11.963115692,1.612342834,0.022750426,-0.069146670,0.984740734
134.762426,10.111988068,-11.963115692,1.612342834,0.022750426,-0.069146670,0.984740734
134.763049,10.111988068,-11.963115692,1.612342834,0.022750426,-0.069146670,0.984740734
134.763638,10.111988068,-11.963115692,1.612342834,0.022750426,-0.069146670,0.984740734
134.764272,10.111988068,-11.963115692,1.612342834,0.022750426,-0.069146670,0.984740734
134.764868,10.111988068,-11.963115692,1.612342834,0.022750426,-0.069146670,0.984740734
134.765491,10.111988068,-11.963115692,1.612342834,0.022750426,-0.069146670,0.984740734
134.766091,10.478199005,-14.862285614,0.887550354,0.023360778,-0.090753116,0.976684093
134.766710,10.478199005,-14.862285614,0.887550354,0.023360778,-0.090753116,0.976684093
134.767307,10.478199005,-14.862285614,0.887550354,0.023360778,-0.090753116,0.976684093
134.805612,11.012256622,-14.496074677,2.276100159,-0.020096254,-0.045709170,0.942016125
134.819956,12.995899200,-13.740764618,0.582374573,-0.020462465,-0.050714053,0.949828625
134.835284,12.606800079,-11.848674774,0.918067932,-0.013016175,-0.093682803,0.963866711
134.836049,10.050952911,-9.590373993,2.077735901,-0.011307190,-0.110894717,0.973876476
134.874461,7.411182404,-5.180583954,0.223793030,-0.021316957,0.009222470,0.964477062
134.912947,1.811206818,-1.075969696,-2.431236267,-0.019241761,-0.010186709,0.976195812
134.927097,-0.119029999,4.356159210,-2.103172302,-0.003494690,-0.079278506,0.998290539
134.942402,-2.430736542,8.338703156,0.139869690,-0.003128479,-0.092095889,1.014770031
134.980941,-7.702648163,14.724506378,-0.302635193,-0.005081604,-0.015069522,1.004882336
135.019434,-8.969127655,9.116901398,-0.378929138,0.016402770,-0.040093936,1.060302258
135.033578,-9.251415253,6.866230011,-0.821434021,0.018233825,-0.026910342,1.058349133
135.059608,-7.504283905,-0.824199677,-0.981651306,0.003219177,0.034124814,1.059203625
135.108562,-3.887950897,-3.135906219,-2.438865662,-0.007645081,0.019476376,1.047973156
135.146847,-6.443798065,6.744159698,0.826515198,0.036666442,-0.113702334,1.080443859
135.161235,-6.100475311,8.018268585,1.291908264,0.033858825,-0.057427920,1.062743664
135.176608,-3.048717499,10.391010284,1.742042542,0.038375426,-0.028131045,1.060058117
135.215110,-8.358776093,12.695087433,2.115882874,0.026778746,0.043890439,1.031127453
135.253563,-4.002391815,8.758319855,4.595436096,0.028731871,0.070867978,0.969359875
135.267846,-2.117931366,4.646076202,3.748573303,0.043868590,0.038031064,0.964354992
135.283182,-1.591503143,-4.631267548,4.076637268,0.051559020,-0.019097842,0.950194836
135.321686,-0.248729706,-16.876445770,0.719703674,0.012008240,0.018621884,0.890258312
135.360191,0.727832794,-14.312969208,-1.775108337,-0.031448793,0.005438291,0.826903820
135.374361,6.243885040,-3.982769012,-2.194725037,-0.036209535,0.038641416,0.813964367
135.389697,7.899463654,2.540363312,-2.110801697,-0.026932191,-0.027886905,0.840331554
135.428219,1.750171661,23.208393097,2.329505920,-0.002762268,-0.036675967,0.850951672
135.466707,-0.767528534,18.958820343,1.597084045,0.045577575,-0.101251163,0.909667492
135.480884,-0.210582733,15.861286163,1.406349182,0.037032653,-0.041314639,0.903930187
135.496323,5.557239532,8.453144073,-0.317893982,0.040206481,-0.045098819,0.930541515
135.497161,5.557239532,8.453144073,-0.317893982,0.040206481,-0.045098819,0.930541515
135.497784,5.557239532,8.453144073,-0.317893982,0.040206481,-0.045098819,0.930541515
135.498399,5.557239532,8.453144073,-0.317893982,0.040206481,-0.045098819,0.930541515
135.499033,5.557239532,8.453144073,-0.317893982,0.040206481,-0.045098819,0.930541515
135.499644,5.557239532,8.453144073,-0.317893982,0.040206481,-0.045098819,0.930541515
135.548498,7.716358185,-2.540813446,-0.340782166,0.009078552,0.047186337,0.970580578
135.586983,-0.576793671,-5.333171844,2.413429260,0.000655700,0.072332822,1.033080578
135.601304,5.976856232,-7.934795380,0.940956116,-0.020096254,0.150579900,1.036376476
135.616796,5.656421661,-8.812175751,0.048316956,-0.017166566,0.087225400,1.062865734
135.655263,4.725635529,-2.022014618,0.368751526,-0.019974183,0.048895322,1.116454601
135.693677,1.254261017,3.745807648,-1.149497986,0.004928161,0.013983212,1.099975109
135.719781,-2.674877167,4.310382843,5.228675842,0.025680114,-0.058282413,1.124022961
135.733990,-3.643810272,1.502765656,4.572547913,0.023971129,-0.000543155,1.095214367
135.772338,4.428089142,-16.060100555,8.272804260,-0.011795471,0.145697087,1.070556164
135.810834,6.488025665,-31.288372040,3.603614807,-0.020950746,-0.051690616,1.068725109
135.825007,2.490222931,-29.342876434,5.839027405,-0.023880433,-0.111871280,1.064330578
135.840321,-1.538097382,-27.946697235,4.564918518,-0.058060121,-0.011773624,0.995727062
135.878845,4.809558868,-13.824687958,-1.126609802,-0.067337461,-0.086846866,0.997069836
135.917325,-2.575695038,7.812274933,-3.476463318,-0.042679261,-0.066339053,0.990478039
135.931486,-5.741893768,19.355548859,0.002540588,-0.033523988,-0.034234561,0.984130383
135.946982,-6.466686249,21.590961456,-2.560935974,-0.030472230,-0.027032413,0.982421398
135.985419,-10.968029022,20.934833527,-5.727134705,0.015914489,-0.070611514,0.990233898
136.023909,-10.365306854,10.642780304,-8.275352478,0.016280700,-0.031671084,0.950561047
136.038203,-9.419261932,10.871662140,-6.291709900,0.017989684,-0.092584170,0.975219250
136.053716,-10.144054413,12.161029816,-4.559837341,0.013473083,-0.076592959,0.985229015
136.092193,-12.753307343,11.420978546,1.177467346,0.027999450,-0.000054874,0.994384289
136.130628,0.048816681,-7.713542938,-3.796897888,0.021407653,0.003118955,0.997313976
136.144962,0.697315216,-9.926067352,-2.782188416,0.024581481,-0.045831241,1.022704601
136.160423,-1.187145233,-10.643230438,-1.622520447,0.013595154,-0.051568545,1.043822765
136.161132,-1.187145233,-10.643230438,-1.622520447,0.013595154,-0.051568545,1.043822765
136.161745,-1.187145233,-10.643230438,-1.622520447,0.013595154,-0.051568545,1.043822765
136.210639,-4.620372772,-6.546245575,3.145851135,0.008468200,-0.009210147,1.049315929
136.249112,-2.964794159,-1.259075165,1.154579163,-0.016190004,-0.015557803,1.044921398
136.263407,-3.826915741,1.601947784,1.269020081,-0.033523988,0.070990048,1.023803234
136.278740,1.300037384,6.995929718,-1.889549255,-0.027664613,0.089178525,1.013183117
136.317257,-1.538097382,12.084735870,-3.018699646,0.033492614,-0.065362491,1.012572765
136.366204,-3.849803925,0.892414093,-4.956565857,0.023116637,0.007269345,0.915282726
136.380526,-0.370800018,-1.808391571,-6.108604431,0.022018004,0.011541806,0.900146008
136.396013,1.475513458,-3.853069305,-6.070457458,0.027267028,-0.078790225,0.896483898
136.434493,3.955066681,2.494586945,-5.154930115,0.011764099,-0.059381045,0.898070812
136.472973,-3.643810272,17.089618683,-0.348411560,0.037765075,-0.062921084,0.917968273
136.487306,-1.858531952,15.945209503,-0.798545837,0.044967223,-0.031182803,0.919311047
136.502783,-1.316844940,12.641681671,-2.209983826,0.061080504,-0.078546084,0.936400890
136.541234,-4.780590057,1.884235382,-2.187095642,0.048751403,-0.083428897,0.948974133
136.579694,0.529468536,-8.369670868,-2.126060486,0.017257262,0.041204892,0.951415539
136.594002,2.627552032,-11.711345673,-3.018699646,0.024703551,0.001654111,0.981322765
136.609470,-2.209484100,-16.433940887,0.109352112,0.025802184,-0.000421084,1.024657726
136.647916,-0.363170624,-17.578350067,-0.546775818,-0.021194886,0.071600400,1.066039562
136.686382,-0.035106659,-10.299907684,-3.613792419,-0.037430238,0.087957822,1.079467297
136.700663,-0.050365448,-6.393657684,-1.340232849,-0.018631410,-0.019219913,1.104735851
136.716005,-9.495555878,0.228656769,2.779640198,-0.004959534,-0.130303890,1.115355968
136.754542,-1.431285858,-4.036174774,-0.203453064,0.009688904,-0.073297061,1.071532726
136.793001,-1.744091034,-13.061748505,-3.751121521,-0.008133362,0.070990048,1.017699718
136.807287,2.116382599,-11.085735321,-1.096092224,-0.014358948,0.015203916,1.018065929
136.822755,0.010669708,-9.567485809,0.200904846,-0.019241761,-0.023492374,1.019408703
136.823475,-2.743541718,-8.888469696,0.223793030,-0.026077699,0.010199033,1.001220226
136.824071,-2.743541718,-8.888469696,0.223793030,-0.026077699,0.010199033,1.001220226
136.824682,-2.743541718,-8.888469696,0.223793030,-0.026077699,0.010199033,1.001220226
136.825288,-2.743541718,-8.888469696,0.223793030,-0.026077699,0.010199033,1.001220226
136.825901,-2.743541718,-8.888469696,0.223793030,-0.026077699,0.010199033,1.001220226
136.826489,-2.743541718,-8.888469696,0.223793030,-0.026077699,0.010199033,1.001220226
136.864840,4.527271271,-6.973491669,-3.583274841,-0.021561097,-0.055718936,0.950561047
136.913724,4.145801544,12.008441925,-6.245933533,-0.009109925,-0.141900569,0.939086437
136.929487,1.506031036,18.401874542,-4.353843689,0.005416443,-0.198541194,0.945922375
136.943790,-2.354442596,26.641620636,-0.546775818,0.020186950,-0.088555850,0.922118664
136.982168,0.170886993,15.990985870,-2.087913513,0.055953551,-0.069634952,0.960814953
137.031109,-3.140270233,-7.087932587,-3.575645447,0.037154723,-0.017999209,0.936400890
137.045446,-0.744640350,-13.374553680,-3.400169373,0.022018004,-0.015557803,0.928222179
137.060922,0.308216095,-14.473186493,-3.575645447,0.012008240,-0.054864444,0.938231945
137.099397,-0.447093964,-3.189311981,-0.729881287,0.001510193,-0.111138858,0.958373547
137.137852,-3.460704803,5.767597198,1.383460999,0.026168395,-0.153863460,1.000243664
137.152139,-2.896129608,6.629718781,-1.553855896,0.013961365,-0.119073428,1.021483898
137.167591,-4.422008514,8.323444366,-0.188194275,0.008101990,-0.063653506,1.022948742
137.206069,1.322925568,11.199726105,0.887550354,0.010177185,-0.016290225,1.078612804
137.244562,-5.223094940,2.380146027,7.509864807,0.049605895,-0.097344913,1.072753429
137.258852,-2.819835663,-2.029644012,7.395423889,0.044601012,-0.110772647,1.064696789
137.274309,-0.752269745,-13.237224579,6.014503479,0.032393981,-0.133355647,1.063476086
137.312786,-0.111400604,-25.139080048,3.863014221,-0.029129457,0.034491025,0.988402843
137.313525,-0.111400604,-25.139080048,3.863014221,-0.029129457,0.034491025,0.988402843
137.362367,6.053150177,-15.342937469,-0.195823669,-0.051224183,-0.004571475,0.947753429
137.376560,5.572498322,-10.055767059,0.208534241,-0.044876527,-0.025201358,0.941894054
137.392038,5.091846466,-0.663982391,-0.844322205,-0.040237855,-0.070855655,0.928588390
137.430500,7.357776642,14.053119659,-4.285179138,-0.037186097,-0.046685733,0.908446789
137.468966,6.716907501,29.868854523,0.223793030,-0.004593323,-0.055108584,0.935546398
137.483254,6.266773224,30.456317902,1.383460999,0.007735779,-0.051202334,0.947753429
137.498710,6.068408966,21.713031769,-1.691184998,0.031783629,-0.049005069,0.966186047
137.537141,5.419910431,2.105487823,-2.003990173,0.060470153,-0.179376155,1.016356945
137.575567,1.704395294,-17.677532196,-4.376731873,-0.003006409,-0.055841006,1.000365734
137.589865,0.804126740,-19.371257782,-6.024681091,-0.007400940,-0.127374202,1.022948742
137.605353,-1.919567108,-16.563640594,-4.308067322,-0.016556215,-0.110406436,1.030517101
137.643737,-5.352794647,-0.053630829,-4.330955505,-0.039139222,0.006903134,1.039672375
137.644599,-5.352794647,-0.053630829,-4.330955505,-0.039139222,0.006903134,1.039672375
137.645198,-5.352794647,-0.053630829,-4.330955505,-0.039139222,0.006903134,1.039672375
137.645785,-5.352794647,-0.053630829,-4.330955505,-0.039139222,0.006903134,1.039672375
137.646406,-5.352794647,-0.053630829,-4.330955505,-0.039139222,0.006903134,1.039672375
137.646996,-5.352794647,-0.053630829,-4.330955505,-0.039139222,0.006903134,1.039672375
137.647622,-5.352794647,-0.053630829,-4.330955505,-0.039139222,0.006903134,1.039672375
137.648219,-6.008922577,4.226459503,-3.369651794,-0.041214418,0.040472470,1.044066906
137.648838,-6.008922577,4.226459503,-3.369651794,-0.041214418,0.040472470,1.044066906
137.649447,-6.008922577,4.226459503,-3.369651794,-0.041214418,0.040472470,1.044066906
137.650067,-6.008922577,4.226459503,-3.369651794,-0.041214418,0.040472470,1.044066906
137.650657,-6.008922577,4.226459503,-3.369651794,-0.041214418,0.040472470,1.044066906
137.651298,-6.008922577,4.226459503,-3.369651794,-0.041214418,0.040472470,1.044066906
137.651898,-6.008922577,4.226459503,-3.369651794,-0.041214418,0.040472470,1.044066906
137.700782,-6.588756561,3.776325226,-6.779991150,-0.003372620,0.039373837,1.105834484
137.715120,-6.748973846,1.746906281,-5.643211365,0.000045349,0.027777158,1.112670422
137.730588,-5.390941620,-2.426372528,-10.320030212,-0.002029846,-0.071099795,1.139525890
137.769055,-16.011058807,2.807392120,-2.950035095,0.005782654,0.004095517,1.100097179
137.807598,-3.872692108,-6.118999481,-6.039939880,0.028609801,-0.076104678,1.050414562
137.821768,-5.589305878,-7.026897430,-4.567466736,0.027022887,-0.090753116,1.042113781
137.837207,-4.025279999,-8.186565399,-1.042686462,0.000045349,0.049383603,0.972899914
137.875680,5.046070099,-10.277019501,-0.073753357,-0.010940979,0.006414853,0.968505383
137.914172,7.380664825,-11.978374481,-2.156578064,-0.006424378,-0.117730655,0.958007336
137.928456,1.513660431,-9.346233368,-0.958763123,-0.010818909,-0.141534358,0.926635265
137.943899,1.391590118,-7.545696259,-0.645957947,-0.034744691,-0.038751163,0.897338390
137.982360,5.664051056,4.737628937,-5.452476501,-0.030106019,-0.129571468,0.914794445
138.020810,3.459156036,20.240558624,-2.927146912,-0.016190004,-0.040948428,0.898803234
138.035110,3.779590607,20.622028351,-2.835594177,-0.013260315,-0.034234561,0.913817883
138.050607,0.025928497,16.647113800,-4.880271912,0.015426208,-0.075372256,0.941771984
138.089048,-1.408397675,1.418842316,-5.345664978,0.027511168,-0.088311709,0.943236828
138.127532,-2.354442596,-3.967510223,-2.866111755,0.015792418,-0.111627139,0.962768078
138.141871,-2.163707733,-2.975688934,-2.507530212,0.006637146,-0.087457217,0.966430187
138.157191,-0.889598846,0.419391632,-0.310264587,0.008346130,-0.080621280,0.987548351
138.195674,-2.674877167,2.349628448,-0.401817322,0.026168395,-0.062310733,1.050048351
138.234149,0.437915802,-3.074871063,2.772010803,0.035567809,-0.100518741,1.101806164
138.248444,-0.172435760,-7.896648407,0.437416077,0.044234801,-0.113702334,1.117675304
138.274451,-0.363170624,-15.671001434,2.886451721,0.041427184,-0.109307803,1.144286633
138.323451,-4.727184296,-9.994731903,5.472816467,-0.013382385,-0.013848819,1.056029797
138.361991,-7.695018768,1.647724152,6.205238342,-0.013870667,0.034368955,1.001220226
138.376276,0.895679474,6.385578156,4.793800354,-0.030350160,0.111395322,0.965941906
138.391776,5.099475861,6.454242706,0.666297913,-0.009231995,-0.006402530,0.986083508
138.430203,0.979602814,5.920185089,1.841224670,0.034591246,-0.085382022,0.978148937
138.468704,0.460803986,-0.976787567,2.688087463,0.035323668,-0.058648624,0.928832531
138.482875,5.084217072,-7.293926239,-3.476463318,0.011886169,0.028509580,0.878539562
138.498360,8.158863068,-8.140789032,-4.185997009,0.015670348,0.006414853,0.876098156
138.536790,6.266773224,3.944171906,-1.653038025,0.012130310,-0.076715030,0.881469250
138.575247,5.618274689,17.394794464,-1.530967712,0.031173278,-0.086602725,0.942748547
138.589581,2.955615997,18.302692413,-0.302635193,0.052901793,-0.113458194,0.955199718
138.604932,0.407398224,17.722858429,1.406349182,0.072310977,-0.097100772,0.957152843
138.643457,-5.589305878,8.254779816,0.773109436,0.059371520,-0.105767764,0.984740734
138.681921,-3.895580292,-4.402385712,1.551307678,0.069625430,-0.068292178,0.978026867
138.696200,-3.071605682,-7.950054169,2.024330139,0.054488707,-0.015435733,0.972411633
138.711522,0.071704865,-12.916790009,1.803077698,0.026534606,0.041326962,0.975219250
138.750050,0.178516388,-17.791973114,3.481544495,-0.016800355,0.120916806,0.991332531
138.788551,4.069507599,-15.770183563,0.887550354,-0.005325745,0.004095517,1.027343273
138.802714,6.159961700,-9.285198212,-1.599632263,-0.027786683,0.020819150,1.045653820
138.818152,6.533802032,-4.410015106,-3.384910583,-0.012283753,-0.084405459,1.073729992
138.856593,1.094043732,11.451496124,0.986732483,0.004928161,0.072699033,1.016479015
138.895100,1.650989532,6.835712433,1.734413147,0.057540465,-0.122369327,1.047606945
138.909277,1.269519806,5.126728058,3.069557190,0.040450621,-0.025445499,1.016234875
138.924720,7.769763947,1.724018097,3.740943909,0.018722106,0.043890439,1.001952648
138.973638,9.448230743,-5.645977020,4.145301819,-0.004349182,0.004461728,0.955321789
139.012197,10.485828400,-0.412212372,-1.057945251,-0.035477113,-0.059991397,0.925658703
139.026543,11.332691193,3.768695831,-0.523887634,-0.024490785,-0.110650577,0.937865734
139.042012,6.304920197,13.473285675,3.275550842,-0.023880433,-0.105767764,0.951049328
139.080482,9.097278595,19.309772491,0.597633362,-0.009598206,-0.077081241,1.000365734
139.118975,0.537097931,7.262958527,0.681556702,0.024459410,-0.032647647,1.031737804
139.133258,-0.714122772,2.952350616,1.276649475,0.023849059,-0.071954288,1.051513195
139.148737,-9.129344940,-4.577861786,-0.104270935,0.002975036,-0.098809756,1.052367687
139.187232,-9.991466522,-4.295574188,2.260841370,-0.010208557,-0.041924991,1.001708508
139.225690,-11.120616913,-0.129924774,0.857032776,-0.025833558,-0.062554874,1.034301281
139.240003,-13.027965546,3.448261261,4.748023987,-0.030106019,0.004827939,1.033202648
139.255318,-11.753856659,3.188861847,4.954017639,-0.041092347,0.078192197,1.020995617
139.293872,-1.576244354,-1.724468231,2.787269592,-0.006302307,-0.086480655,1.101562023
139.294594,-1.576244354,-1.724468231,2.787269592,-0.006302307,-0.086480655,1.101562023
139.295216,-1.576244354,-1.724468231,2.787269592,-0.006302307,-0.086480655,1.101562023
139.295839,-1.576244354,-1.724468231,2.787269592,-0.006302307,-0.086480655,1.101562023
139.296457,-1.576244354,-1.724468231,2.787269592,-0.006302307,-0.086480655,1.101562023
139.297084,-1.576244354,-1.724468231,2.787269592,-0.006302307,-0.086480655,1.101562023
139.297687,-3.918468475,-2.769695282,2.428688049,0.005294372,-0.147515804,1.119994640
139.298320,-3.918468475,-2.769695282,2.428688049,0.005294372,-0.147515804,1.119994640
139.298931,-3.918468475,-2.769695282,2.428688049,0.005294372,-0.147515804,1.119994640
139.299558,-3.918468475,-2.769695282,2.428688049,0.005294372,-0.147515804,1.119994640
139.300172,-3.918468475,-2.769695282,2.428688049,0.005294372,-0.147515804,1.119994640
139.349062,-7.252513885,-9.308086395,7.502235413,0.043624450,-0.140069515,1.130736828
139.363395,-8.038341522,-12.344585419,8.219398499,0.014327575,-0.006524600,1.095702648
139.378860,-0.134288788,-18.470989227,2.596534729,-0.009231995,0.040716611,1.068969250
139.417310,-4.162609100,-14.351116180,2.398170471,-0.043045472,0.113714658,0.976073742
139.455739,3.535449982,-2.098308563,-0.058494568,-0.029617738,-0.064385928,0.993773937
139.470061,-1.332103729,7.209552765,-0.256858826,-0.010574768,-0.069146670,0.960204601
139.485520,-0.286876678,11.413349152,0.567115784,-0.002151917,-0.038262881,0.936645031
139.523951,-0.325023651,10.253681183,-2.209983826,0.030684996,-0.039361514,0.917235851
139.562466,5.809009552,0.221027374,-5.429588318,0.043380309,-0.071221866,0.889037609
139.576635,3.726184845,0.297321320,-3.659568787,0.044845153,-0.091485538,0.887694836
139.602572,2.947986603,2.914203644,-1.424156189,0.031661559,-0.047784366,0.883910656
139.641137,1.589954376,6.118549347,-1.256309509,0.044967223,-0.088799991,0.907958508
139.679591,0.003040314,4.653705597,-2.278648376,0.019088317,-0.037042178,0.922973156
139.693874,0.529468536,3.631366730,-4.475914001,0.025435973,-0.063409366,0.930053234
139.709345,0.514209747,5.012287140,-4.567466736,0.038497496,-0.091851749,0.952392101
139.747793,1.681507111,9.513629913,-0.439964294,0.028487731,0.013983212,1.015502453
139.786283,1.475513458,-2.960430145,-0.470481873,0.041183043,0.084295712,1.080932140
139.800466,1.841724396,-7.263408661,-1.782737732,0.035934020,0.081854306,1.085692883
139.815953,2.360523224,-13.138042450,-4.216514587,0.033614684,-0.058770694,1.123900890
139.854391,-2.713024139,-3.921733856,-3.522239685,-0.002029846,-0.045342959,1.110229015
139.892857,-11.051952362,7.262958527,0.429786682,0.021651793,-0.017388858,1.050048351
139.907195,-0.660717010,7.232440948,-1.843772888,0.019332457,0.073065244,0.994872570
139.922531,2.032459259,6.187213898,-2.393089294,0.032027770,0.007757626,1.001220226
139.961030,6.175220490,2.731098175,5.930580139,0.016280700,0.174139470,0.937499523
139.999454,16.390979767,-13.237224579,0.551856995,0.046676207,-0.050225772,0.983642101
140.013783,11.561573029,-15.297161102,3.794349670,0.057540465,-0.176690608,0.987792492
140.029118,8.235157013,-15.472637177,4.030860901,0.033614684,-0.133599788,0.960204601
140.067623,13.194263458,-8.102642059,2.581275940,-0.052811097,0.127630681,0.872924328
140.106127,13.041675568,14.487995148,4.748023987,0.007857849,-0.158502132,0.972899914
140.120298,9.677112579,19.668354034,6.479896545,0.006759216,-0.159356624,0.991820812
140.135744,3.771961212,20.385517120,6.159461975,0.024215270,-0.065484561,0.996215343
140.136458,3.771961212,20.385517120,6.159461975,0.024215270,-0.065484561,0.996215343
140.137094,3.771961212,20.385517120,6.159461975,0.024215270,-0.065484561,0.996215343
140.137727,3.771961212,20.385517120,6.159461975,0.024215270,-0.065484561,0.996215343
140.138361,3.771961212,20.385517120,6.159461975,0.024215270,-0.065484561,0.996215343
140.138993,3.771961212,20.385517120,6.159461975,0.024215270,-0.065484561,0.996215343
140.139622,3.771961212,20.385517120,6.159461975,0.024215270,-0.065484561,0.996215343
140.140271,3.771961212,20.385517120,6.159461975,0.024215270,-0.065484561,0.996215343
140.140914,3.771961212,20.385517120,6.159461975,0.024215270,-0.065484561,0.996215343
140.141548,3.771961212,20.385517120,6.159461975,0.024215270,-0.065484561,0.996215343
140.142188,3.390491486,17.425312042,6.907142639,0.028853942,0.008978330,0.990844250
140.180596,5.755603790,-2.655254364,3.885902405,0.029708434,0.030340634,1.031493664
140.219050,1.780689240,-27.839885712,1.635231018,0.022994567,-0.062799014,1.048339367
140.245094,0.292957306,-25.871501923,3.740943909,-0.018387269,-0.126397640,1.074218273
140.259486,-1.995861053,-22.102581024,2.840675354,-0.024368715,-0.129327327,1.083983898
140.297786,-5.863964081,-2.922283173,5.922950745,-0.041946840,0.046209775,1.067748547
140.336254,-6.657421112,7.476581573,4.221595764,-0.001907776,-0.092950381,1.142577648
140.362387,-8.061229706,7.209552765,3.237403870,0.029830504,-0.079522647,1.140136242
140.376580,-9.075939178,4.127277374,3.092445374,0.037643004,-0.095269717,1.141601086
140.414936,-6.031810760,-5.546794891,3.901161194,0.023726989,0.015692197,1.087401867
140.463837,-0.569164276,-7.415996552,1.627601624,-0.030960511,0.122503720,1.011718273
140.479596,3.680408478,-4.150615692,1.642860413,-0.035965394,0.098700009,1.022826672
140.493770,3.848255157,2.914203644,-0.775657654,-0.029739808,-0.037530459,1.067504406
140.532143,-4.734813690,15.418781281,2.726234436,0.016524840,-0.043023624,1.061034679
140.570603,-6.993114471,-0.923381805,-3.522239685,0.001632263,0.077215634,0.982787609
140.584885,-4.658519745,-4.730449677,-5.452476501,-0.008499573,0.095282041,0.961547375
140.600400,-1.698314667,-4.837261200,-9.587608337,-0.014847229,-0.027764834,0.960448742
140.638824,-10.266124725,12.229694366,-4.643760681,-0.013992737,-0.080621280,0.938598156
140.677303,-10.342418671,32.233966827,-3.506980896,0.016524840,-0.075860538,0.939940929
140.691603,-13.989269257,32.203449249,-3.125511169,0.052413512,-0.085748233,0.937743664
140.707091,-13.676464081,30.189289093,-2.057395935,0.059737731,-0.023858584,0.929809093
140.745601,-11.181652069,7.774127960,-6.184898376,0.049361754,-0.039849795,0.930663586
140.784027,-9.640514374,-1.594768524,-4.338584900,0.028487731,-0.117242374,0.945312023
140.798374,-7.443248749,-2.517925262,-4.773460388,-0.004105042,0.029974423,0.940673351
140.813709,-5.146800995,-1.899944305,-5.238853455,-0.009720276,0.057806455,0.956908703
140.852203,-7.092296600,3.288043976,-4.414878845,-0.005081604,-0.001275577,0.992797375
140.890673,-5.108654022,11.268390656,-5.254112244,-0.007767151,-0.046685733,1.060546398
140.904959,-6.855785370,13.770832062,-3.651939392,0.005782654,-0.053521670,1.072997570
140.920266,-9.587108612,16.021503448,1.352943420,0.035323668,-0.096124209,1.082641125
140.969260,-6.169139862,-6.660686493,3.435768127,0.011031677,0.042059384,0.988769054
141.007828,6.121814728,-18.615947723,3.985084534,-0.015945863,0.010931455,0.992675304
141.022005,5.366504669,-17.929302216,7.624305725,-0.020950746,-0.013604678,0.999755383
141.037485,6.465137482,-20.668254852,4.923500061,-0.031815004,-0.018365420,0.993163586
141.075983,4.450977325,-19.874797821,5.869544983,-0.020096254,-0.133965999,0.997802258
141.114452,-0.859081268,-15.060649872,1.459754944,-0.054520082,-0.049615420,0.926269054
141.128747,-1.164257050,-5.653606415,0.986732483,-0.049271058,-0.119317569,0.906737804
141.144232,-3.559886932,0.381244659,0.132240295,-0.042313050,-0.146417171,0.897460461
141.182692,-5.619823456,22.697223663,5.549110413,-0.032181215,-0.056695499,0.860717297
141.221128,0.659168243,19.149555206,4.404701233,0.013106872,-0.048516788,0.859008312
141.235468,-3.727733612,8.872760773,4.931129456,0.025069762,-0.132012874,0.899901867
141.250922,-4.261791229,2.326740265,2.955116272,0.025069762,-0.093194522,0.887328625
141.289393,-1.690685272,-14.412151337,5.648292542,0.008346130,-0.189752132,0.913939953
141.327888,3.413379669,-14.175640106,7.509864807,-0.027664613,-0.114190616,0.933349133
141.342206,1.605213165,-12.253032684,7.441200256,-0.035843324,-0.124078311,0.949462414
141.357507,0.048816681,-6.790386200,6.930030823,-0.038406800,-0.068902530,0.953246593
141.396008,3.581226349,1.930011749,6.281532288,-0.040481996,-0.089410342,1.007689953
141.434482,0.216663361,9.460224152,8.120216370,-0.016434144,-0.176080257,1.097045422
141.448788,-3.346263885,10.337604523,8.265174866,-0.021072816,-0.119561709,1.083617687
141.464107,-0.256359100,10.337604523,10.073341370,-0.026077699,0.010443173,1.058104992
141.464879,-0.256359100,10.337604523,10.073341370,-0.026077699,0.010443173,1.058104992
141.465529,-0.256359100,10.337604523,10.073341370,-0.026077699,0.010443173,1.058104992
141.466197,-0.256359100,10.337604523,10.073341370,-0.026077699,0.010443173,1.058104992
141.466821,-0.256359100,10.337604523,10.073341370,-0.026077699,0.010443173,1.058104992
141.467477,-0.256359100,10.337604523,10.073341370,-0.026077699,0.010443173,1.058104992
141.468104,-0.256359100,10.337604523,10.073341370,-0.026077699,0.010443173,1.058104992
141.517061,6.236255646,-4.165874481,4.969276428,-0.028030824,0.009832822,1.043578625
141.555596,15.788257599,-10.452495575,3.779090881,-0.016556215,-0.095757999,1.091796398
141.569757,13.125598907,-10.696636200,5.205787659,-0.006424378,-0.147759944,1.115233898
141.585254,8.601367950,-13.023601532,2.985633850,-0.004349182,-0.166802913,1.119140148
141.634203,0.323474884,-11.856304169,-0.111900330,-0.043655824,0.037908994,0.978393078
141.672747,5.122364044,-5.027996063,-5.063377380,-0.037674379,-0.055474795,0.967650890
141.686916,3.543079376,-0.168071747,-3.346763611,-0.025223207,-0.072076358,0.964721203
141.702348,2.276599884,10.185016632,-2.408348083,-0.022171449,-0.096734561,0.968749523
141.740836,-2.018749237,21.789325714,-1.454673767,-0.010086487,-0.038629092,0.958495617
141.779294,-6.680309296,20.393146515,-3.171287537,0.053390075,-0.101617374,0.982055187
141.793585,-6.825267792,14.777912140,-2.126060486,0.057906676,-0.137872249,0.998412609
141.808908,-8.694469452,11.184467316,-2.721153259,0.059249450,-0.152520686,1.005370617
141.847438,-9.739696503,-3.097759247,0.826515198,0.027633239,0.025579892,0.939452648
141.848162,-9.739696503,-3.097759247,0.826515198,0.027633239,0.025579892,0.939452648
141.848771,-9.739696503,-3.097759247,0.826515198,0.027633239,0.025579892,0.939452648
141.849405,-9.739696503,-3.097759247,0.826515198,0.027633239,0.025579892,0.939452648
141.850005,-9.739696503,-3.097759247,0.826515198,0.027633239,0.025579892,0.939452648
141.850631,-9.739696503,-3.097759247,0.826515198,0.027633239,0.025579892,0.939452648
141.851237,-9.739696503,-3.097759247,0.826515198,0.027633239,0.025579892,0.939452648
141.851860,-6.253063202,-7.248149872,-0.661216736,0.012496521,0.025579892,0.942016125
141.852460,-6.253063202,-7.248149872,-0.661216736,0.012496521,0.025579892,0.942016125
141.853090,-6.253063202,-7.248149872,-0.661216736,0.012496521,0.025579892,0.942016125
141.853697,-6.253063202,-7.248149872,-0.661216736,0.012496521,0.025579892,0.942016125
141.892090,-6.840526581,-17.875896454,4.046119690,-0.026199769,0.087469541,0.953490734
141.906268,-3.086864471,-20.355449677,2.054847717,-0.053787660,0.122015439,0.942504406
141.921753,5.358875275,-27.092205048,-7.466636658,-0.047684144,-0.005181827,0.986815929
141.970689,0.437915802,-6.889568329,-6.680809021,-0.046463441,-0.109674014,1.074218273
142.009159,-10.006725311,11.695636749,-6.596885681,-0.035843324,-0.107965030,1.055419445
142.023484,-4.925548553,18.287433624,-5.849205017,-0.024124574,0.036200009,1.004027843
142.038965,-4.101573944,20.362628937,-2.568565369,-0.015335510,0.008612119,1.007323742
142.077439,5.763233185,7.461322784,-8.412681580,0.029830504,-0.015435733,0.970092297
142.115859,3.413379669,-8.369670868,-4.094444275,0.013106872,0.007269345,0.954101086
142.130176,10.134876251,-16.136394501,-3.903709412,0.009200622,-0.011651553,0.928222179
142.145651,10.493457794,-18.944011688,-4.208885193,0.007491638,-0.086114444,0.930907726
142.184136,9.440601349,-15.602336884,-6.299339294,-0.042923402,-0.015801944,0.884154797
142.222561,7.350147247,9.261859894,-5.048118591,-0.034866761,-0.066705264,0.888915539
142.236846,7.136524200,15.411151886,-5.627952576,-0.029129457,-0.067925967,0.895507336
142.252170,4.969776154,25.642169952,-4.826866150,-0.010574768,-0.083428897,0.912719250
142.290700,0.941455841,26.107563019,-3.674827576,0.033980895,-0.057672061,0.945189953
142.339660,3.276050568,-8.346782684,-5.612693787,0.038619567,-0.075250186,0.959594250
142.353879,4.206836700,-13.618694305,-6.398521423,0.038009215,-0.084405459,0.966430187
142.369375,3.993213654,-18.966899872,-0.600181580,0.019454528,-0.082208194,0.975951672
142.407828,7.640064240,-22.453533173,-4.712425232,-0.014114807,-0.043145694,0.994018078
142.446273,4.328907013,-8.545146942,0.956214905,-0.017410707,-0.089776553,1.069457531
142.460548,3.024280548,-3.990398407,-2.065025330,-0.013626526,-0.042291202,1.078734875
142.476022,2.330005646,-1.991497040,-1.271568298,-0.011429260,-0.023980655,1.082641125
142.514488,2.490222931,3.875507355,-2.820335388,0.018233825,-0.075128116,1.096435070
142.563492,0.483692169,8.170856476,-0.775657654,0.009322693,0.071478330,1.042968273
142.577801,3.649890900,6.393207550,0.063575745,-0.003738831,0.118231259,1.028808117
142.593267,4.557788849,3.761066437,-3.468833923,-0.009109925,0.111761533,1.027953625
142.631734,6.114185333,5.195392609,-5.109153748,0.023238707,-0.044854678,1.028930187
142.670185,5.335987091,9.933246613,-3.545127869,0.027267028,0.015814267,0.995360851
142.684469,3.543079376,9.513629913,-3.392539978,0.023971129,0.019720517,0.991820812
142.699922,2.391040802,7.537616730,-5.627952576,0.017989684,0.087103330,0.948974133
142.738364,7.739246368,11.596454620,-3.629051208,0.031173278,-0.027154483,0.947387218
142.776827,8.723438263,17.211688995,1.352943420,0.041305114,0.005804501,0.949096203
142.791130,7.411182404,16.364826202,2.367652893,0.051070739,-0.030328311,0.963378429
142.806595,6.587207794,9.757770538,1.047767639,0.058150817,0.005072080,0.968383312
142.845019,4.191577911,-2.022014618,4.122413635,0.047164489,-0.038629092,0.996337414
142.883539,2.017200470,-14.679180145,1.604713440,0.026656676,-0.028985538,0.987426281
142.897823,0.422657013,-15.579448700,2.360023499,-0.008743714,0.033758603,0.987914562
142.913156,0.460803986,-15.213237762,1.642860413,-0.019974183,0.047552548,0.992553234
142.951698,-1.271068573,-8.758769989,1.001991272,-0.035110902,0.059393369,1.029906750
142.990179,-1.774608612,-0.938640594,0.605262756,-0.038284730,0.108831845,1.062255383
143.004470,-3.239452362,0.961078644,1.749671936,-0.039871644,0.108587705,1.077392101
143.019928,-2.125560760,-0.335918427,0.689186096,-0.028397035,0.078680478,1.088866711
143.068902,-3.269969940,-16.639934540,-0.089012146,-0.020340394,0.054632626,1.078856945
143.107419,-3.422557831,-20.439373016,-3.209434509,-0.029739808,-0.057427920,1.057372570
143.121718,-2.743541718,-17.257915497,-3.476463318,-0.035599183,-0.004205264,1.026488781
143.137180,0.003040314,-8.926616669,1.162208557,-0.048294496,0.062567197,1.000365734
143.175645,1.956165314,-1.487957001,-2.110801697,-0.042679261,0.112860166,0.966674328
143.214098,-0.859081268,5.782855988,-5.040489197,-0.024368715,0.004217587,0.945800304
143.228410,-0.790416718,8.804096222,-3.087364197,-0.028397035,0.066107236,0.922362804
143.243863,3.779590607,13.435138702,-3.941856384,-0.031937074,0.042181455,0.911864758
143.282309,2.581775665,19.614948273,-4.430137634,0.003341247,-0.053643741,0.917113781
143.320753,2.062976837,20.820392609,-2.316795349,0.038375426,-0.055963077,0.948241711
143.335052,0.117481232,14.922870636,0.773109436,0.063399844,-0.043023624,0.954223156
143.350517,-0.775157928,10.055316925,1.856483459,0.061080504,-0.038751163,0.949828625
143.388964,-2.079784393,-10.353313446,1.536048889,0.031661559,-0.001397647,0.925414562
143.427432,2.101123810,-19.378887177,1.261390686,-0.019363832,0.066473447,0.886718273
143.441735,3.657520294,-16.998516083,3.229774475,-0.025223207,0.032782041,0.894042492
143.457061,4.672229767,-15.342937469,3.191627502,-0.031692933,0.038275205,0.904784679
143.457839,4.672229767,-15.342937469,3.191627502,-0.031692933,0.038275205,0.904784679
143.458480,4.672229767,-15.342937469,3.191627502,-0.031692933,0.038275205,0.904784679
143.496914,6.518543243,-0.755535126,2.703346252,-0.016556215,-0.076837100,0.988891125
143.497630,6.518543243,-0.755535126,2.703346252,-0.016556215,-0.076837100,0.988891125
143.498254,6.518543243,-0.755535126,2.703346252,-0.016556215,-0.076837100,0.988891125
143.498871,6.518543243,-0.755535126,2.703346252,-0.016556215,-0.076837100,0.988891125
143.499485,6.518543243,-0.755535126,2.703346252,-0.016556215,-0.076837100,0.988891125
143.500109,6.518543243,-0.755535126,2.703346252,-0.016556215,-0.076837100,0.988891125
143.500716,6.518543243,-0.755535126,2.703346252,-0.016556215,-0.076837100,0.988891125
143.501350,4.382312775,3.898395538,4.053749084,-0.014114807,-0.064385928,1.009154797
143.501954,4.382312775,3.898395538,4.053749084,-0.014114807,-0.064385928,1.009154797
143.502578,4.382312775,3.898395538,4.053749084,-0.014114807,-0.064385928,1.009154797
143.540932,0.102222443,10.719074249,3.954566956,0.017013121,-0.023492374,1.067870617
143.566974,-0.729381561,7.148517609,5.022682190,0.033370543,-0.028497256,1.083129406
143.581347,-2.964794159,0.564350128,4.114784241,0.047896910,-0.065118350,1.090331554
143.619640,-2.766429901,-7.835613251,8.570350647,0.008346130,0.119940244,1.036010265
143.658074,4.817188263,-18.142925262,7.364906311,-0.001907776,0.074530087,1.025268078
143.672428,7.762134552,-19.058452606,7.784523010,-0.047073793,0.185003728,0.993041515
143.687899,12.339771271,-18.982158661,3.206886292,-0.054520082,0.158148259,0.997313976
143.726350,8.631885529,2.136005402,3.924049377,-0.026565980,-0.047662295,1.039916515
143.764793,1.490772247,24.200214386,3.183998108,-0.018509340,0.106634580,1.009154797
143.779127,2.513111115,25.359882355,1.894630432,-0.015091370,0.160101384,0.996215343
143.804872,2.909839630,22.292865753,0.124610901,0.030318785,0.050238095,1.010253429
143.843532,6.724536896,9.063495636,-0.218711853,0.031539489,0.104071103,0.972045422
143.882002,3.817737579,-3.326641083,2.306617737,0.040450621,-0.038018741,0.995482922
143.896169,2.558887482,-4.944072723,2.451576233,0.034225035,-0.029595889,0.990355968
143.911630,0.544727325,-7.019268036,2.848304749,0.017379332,0.016180478,0.972655773
143.950080,-0.027477264,-6.332622528,1.589454651,-0.010208557,0.068670712,0.941894054
143.988575,-3.666698456,6.606830597,1.253761292,-0.004105042,-0.000787295,0.939696789
144.002744,-3.849803925,11.092914581,2.497352600,-0.003250550,0.015936337,0.936645031
144.028807,-3.781139374,15.006793976,0.605262756,0.024825621,0.008734189,0.947265148
144.067411,-1.957714081,11.665119171,0.368751526,0.034835387,0.016912900,0.964965343
144.105805,-4.887401581,4.356159210,1.917518616,0.037154723,0.020575009,0.967040539
144.120141,-2.682506561,3.402484894,0.200904846,0.020797301,0.070990048,0.950805187
144.135615,-1.248180389,4.203571320,0.277198792,0.017379332,0.079657041,0.952025890
144.174104,2.085865021,12.603534698,5.648292542,0.037520934,-0.007134952,0.984618664
144.212498,3.382862091,2.929462433,7.113136292,0.042647887,0.099920712,0.989745617
144.226842,8.303821564,-5.882488251,6.045021057,0.028609801,0.104437314,0.991698742
144.242160,8.029163361,-8.789287567,7.296241760,0.026900817,0.078558408,0.999511242
144.280647,15.109241486,-16.937480927,3.245033264,-0.027176332,0.148504704,0.965697765
144.319073,10.150135040,4.028095245,10.508216858,-0.040604066,0.147406071,1.005370617
144.333385,11.485279083,9.246601105,13.193763733,-0.049026918,0.194403142,1.006469250
144.348726,11.584461212,12.756122589,9.478248596,-0.032791566,0.106268369,1.048949718
144.387273,1.742542267,10.535968781,10.653175354,-0.013992737,0.104193173,1.032836437
144.425757,4.367053986,0.983966827,6.350196838,-0.032059144,0.126165837,0.998900890
144.439928,4.565418243,0.953449249,5.861915588,-0.026688050,0.063299619,1.005126476
144.455263,2.703845978,3.524555206,6.014503479,-0.028519105,0.024481259,1.011229992
144.493765,-1.858531952,12.038959503,8.883155823,-0.036209535,0.065863095,1.006591320
144.532234,-1.133739471,18.775714874,7.921852112,-0.029495668,0.106512509,1.004394054
144.546405,-4.956066132,19.927753448,11.812843323,-0.003006409,0.022650205,1.027221203
144.561916,-6.001293182,18.371356964,11.217750549,0.007979919,-0.013848819,1.029662609
144.610816,-6.329357147,-0.313030243,13.163246155,0.010787536,0.024481259,1.011962414
144.649352,-8.137523651,-6.981121063,17.580665588,-0.027542543,0.026800595,0.988524914
144.663695,-7.298290253,-6.386028290,14.330543518,-0.042313050,0.032171689,0.984130383
144.679175,-7.450878143,0.457538605,15.673316956,-0.038284730,0.032415830,0.988036633
144.717613,-8.183300018,12.840045929,14.490760803,-0.043411683,0.094549619,0.983642101
144.756041,-9.793102264,27.107013702,17.168678284,-0.018875550,-0.002130069,1.032714367
144.770367,-12.997447968,29.540790558,18.206275940,-0.013626526,0.034246884,1.034179211
144.785715,-13.478099823,33.736957550,20.846046448,0.010787536,0.052313291,1.018065929
144.824234,-12.493907928,28.480304718,23.928321838,0.031783629,0.116522275,0.994872570
144.862710,-9.938060760,18.226398468,24.538673401,0.023482848,0.065863095,0.998168468
144.888590,-8.335887909,16.486896515,31.214393616,-0.000931214,0.215033025,0.951659679
144.902903,-1.263439178,10.436786652,27.079261780,-0.043167543,0.228094548,0.951293468
144.941368,-0.439464569,15.350116730,32.679237366,0.002364685,0.012274228,0.983031750
144.979829,-5.390941620,20.667804718,36.341346741,0.010421325,0.102484189,0.971313000
144.994000,-3.369152069,15.792621613,34.960426331,-0.023514222,0.144598454,0.967772961
145.009536,-1.408397675,9.475482941,29.184974670,-0.019974183,0.141912907,0.967650890
145.047796,-4.475414276,6.080402374,35.525001526,-0.010452698,0.060736142,0.948729992
145.086366,1.483142853,6.515277863,34.861244202,-0.045364808,0.185492009,0.903319836
145.100518,2.597034454,6.500019073,34.159339905,-0.023025941,0.064642392,0.923339367
145.116078,-0.965892792,11.642230988,41.048683167,0.000655700,0.117010556,0.941161633
145.154551,-6.954967499,-4.577861786,42.635597229,-0.034744691,0.020697080,1.084960461
145.192923,-3.292858124,-28.007732391,48.144020081,-0.060379457,0.038397275,1.014770031
145.207287,1.971424103,-32.768474579,42.193092346,-0.079300351,0.073065244,1.038573742
145.222615,-4.193126678,-37.140117645,44.466651917,-0.080398984,-0.082940616,1.073119640
145.261164,-7.336437225,-13.191448212,39.965309143,-0.108231016,0.147894353,0.964477062
145.299409,-9.777843475,21.362079620,41.918434143,-0.073196836,0.048040830,1.005004406
145.313838,-14.881908417,42.663349152,41.102088928,-0.024124574,0.013617001,1.038939953
145.329206,-17.987071991,53.970111847,43.100990295,-0.008865784,-0.006646670,1.057738781
145.367758,-27.989208221,76.431045532,54.148353577,0.106490664,0.140448064,1.092895031
145.406218,-25.914012909,41.923297882,59.275306702,0.147018000,0.046575986,1.198974133
145.420390,-26.799022675,12.847675323,60.045875549,0.141036555,0.057684384,1.202392101
145.435718,-31.102001190,-2.853618622,63.074745178,0.147018000,0.023504697,1.164184093
145.436503,-31.102001190,-2.853618622,63.074745178,0.147018000,0.023504697,1.164184093
145.437161,-31.102001190,-2.853618622,63.074745178,0.147018000,0.023504697,1.164184093
145.437815,-31.102001190,-2.853618622,63.074745178,0.147018000,0.023504697,1.164184093
145.438456,-31.102001190,-2.853618622,63.074745178,0.147018000,0.023504697,1.164184093
145.439118,-28.736888885,-16.487346649,63.883460999,0.106490664,0.230169743,1.108886242
145.439753,-28.736888885,-16.487346649,63.883460999,0.106490664,0.230169743,1.108886242
145.440418,-28.736888885,-16.487346649,63.883460999,0.106490664,0.230169743,1.108886242
145.441050,-28.736888885,-16.487346649,63.883460999,0.106490664,0.230169743,1.108886242
145.441712,-28.736888885,-16.487346649,63.883460999,0.106490664,0.230169743,1.108886242
145.442350,-28.736888885,-16.487346649,63.883460999,0.106490664,0.230169743,1.108886242
145.443004,-28.736888885,-16.487346649,63.883460999,0.106490664,0.230169743,1.108886242
145.443638,-28.736888885,-16.487346649,63.883460999,0.106490664,0.230169743,1.108886242
145.444303,-28.736888885,-16.487346649,63.883460999,0.106490664,0.230169743,1.108886242
145.444937,-28.736888885,-16.487346649,63.883460999,0.106490664,0.230169743,1.108886242
145.445593,-28.736888885,-16.487346649,63.883460999,0.106490664,0.230169743,1.108886242
145.446241,-28.736888885,-16.487346649,63.883460999,0.106490664,0.230169743,1.108886242
145.446907,-28.736888885,-16.487346649,63.883460999,0.106490664,0.230169743,1.108886242
145.447540,-28.736888885,-16.487346649,63.883460999,0.106490664,0.230169743,1.108886242
145.485964,-15.316783905,-41.748271942,70.307411194,0.015059997,0.267034978,0.979003429
145.534879,-4.765331268,-49.873577118,80.691017151,-0.068191953,0.120428525,1.087768078
145.549109,-6.001293182,-57.647930145,80.958045959,-0.093216367,0.056097470,1.128783703
145.564638,-6.382762909,-62.042461395,80.935157776,-0.122635312,0.054022275,1.130492687
145.603141,-8.374034882,-62.179790497,73.870338440,-0.201736882,-0.006890811,1.045165539
145.641380,-9.381114960,-29.182659149,67.911781311,-0.201736882,0.059637509,0.902709484
145.655776,-8.374034882,-17.845378876,67.476905823,-0.202469304,0.059271298,0.889159679
145.681567,-6.687938690,4.043354034,63.540138245,-0.223465398,-0.035089053,0.921630383
145.720165,-9.182750702,-0.000225067,52.149452209,-0.152054265,-0.059136905,0.993651867
145.758643,-9.388744354,-17.212139130,49.097694397,-0.119705625,-0.020196475,0.911742687
145.772814,-7.138072968,-20.729290009,46.175636292,-0.138016179,0.007513486,0.889159679
145.788151,-3.620922089,-18.005596161,41.857398987,-0.147537664,-0.041314639,0.886962414
145.826693,-6.863414764,6.042255402,41.376747131,-0.069534726,-0.060845889,0.918578625
145.865164,-8.381664276,22.544635773,40.270484924,-0.039261293,-0.015679874,0.942504406
145.879339,-12.646495819,35.712970734,39.309181213,-0.019241761,-0.029351749,0.966430187
145.894821,-14.561473846,41.587604523,41.071571350,-0.006912659,-0.015313663,0.968017101
145.933265,-17.269908905,51.841510773,45.069374084,0.036544371,0.007269345,0.976073742
145.971767,-16.201793671,42.014850616,46.541847229,0.079879336,0.109075986,1.034301281
145.985943,-13.821422577,27.717365265,47.770179749,0.090011172,0.057562314,1.061156750
146.001487,-12.089550018,18.661273956,46.953834534,0.089278750,-0.016412295,1.077636242
146.039930,-16.613780975,-9.155498505,46.984352112,0.085738711,-0.078179874,1.064208508
146.078346,-5.825817108,-13.054119110,54.445899963,0.005050232,0.093573056,0.916625500
146.092640,-1.942455292,-16.372905731,53.469337463,-0.013992737,0.064642392,0.931518078
146.108153,4.420459747,-22.835002899,51.928199768,-0.036209535,0.045965634,0.989379406
146.108883,4.420459747,-22.835002899,51.928199768,-0.036209535,0.045965634,0.989379406
146.109489,4.420459747,-22.835002899,51.928199768,-0.036209535,0.045965634,0.989379406
146.110115,4.420459747,-22.835002899,51.928199768,-0.036209535,0.045965634,0.989379406
146.110712,4.420459747,-22.835002899,51.928199768,-0.036209535,0.045965634,0.989379406
146.111340,4.420459747,-22.835002899,51.928199768,-0.036209535,0.045965634,0.989379406
146.149630,0.285327911,-30.044780731,52.561439514,-0.041214418,-0.077203311,1.022704601
146.188036,5.969226837,-30.121074677,45.168556213,-0.062088441,-0.033135928,0.912963390
146.202366,6.655872345,-26.466594696,45.260108948,-0.059158754,-0.059625186,0.907714367
146.217710,5.801380157,-16.655193329,45.717872620,-0.067093320,-0.068170108,0.912230968
146.266768,2.200305939,-6.485210419,43.589271545,-0.108353086,-0.132379085,0.954101086
146.305309,3.794849396,-12.741313934,33.693946838,-0.114456601,-0.154717952,0.957885265
146.319481,2.200305939,-12.054668427,32.168067932,-0.110550351,-0.151422054,0.958739758
146.334932,0.361621857,-7.087932587,30.077613831,-0.104568906,-0.159478694,0.944091320
146.373370,-0.767528534,3.249897003,24.614967346,-0.104446836,-0.154229671,0.905028820
146.411834,0.994861603,5.729450226,21.967567444,-0.065506406,-0.150567561,0.924560070
146.425990,0.437915802,4.287494659,20.807899475,-0.056351136,-0.154717952,0.937133312
146.441440,1.223743439,3.280414581,20.647682190,-0.058304261,-0.133477718,0.943114758
146.442148,1.223743439,3.280414581,20.647682190,-0.058304261,-0.133477718,0.943114758
146.442784,2.421558380,2.502216339,20.029701233,-0.065994687,-0.147759944,0.955688000
146.443548,2.421558380,2.502216339,20.029701233,-0.065994687,-0.147759944,0.955688000
146.481906,4.222095490,1.518024445,14.971412659,-0.064407773,-0.188043147,1.020873547
146.520372,0.651538849,7.911457062,13.643898010,-0.043899965,-0.095880069,1.070800304
146.534647,1.528919220,11.771930695,13.468421936,-0.047073793,-0.090020694,1.082396984
146.550177,0.979602814,11.710895538,12.842811584,-0.052933168,-0.086724795,1.088988781
146.588616,3.283679962,6.248249054,6.800331116,-0.034500550,-0.135674983,1.168578625
146.627099,-1.972972870,16.937030792,9.714759827,-0.011917542,-0.025811709,1.124389172
146.641271,-1.789867401,19.210590363,10.538734436,-0.014847229,0.011419736,1.100585461
146.656764,1.689136505,16.631855011,11.568702698,-0.023392152,0.080755673,1.073852062
146.695272,10.264575958,-12.886272430,9.592689514,-0.020218324,-0.015557803,1.183227062
146.733714,4.084766388,-34.874187469,9.661354065,-0.047928285,-0.057305850,1.181518078
146.759833,3.611743927,-38.147197723,8.761085510,-0.076370664,0.011053525,1.130370617
146.774167,1.422107697,-35.232769012,9.325660706,-0.103104062,-0.022271670,1.094604015
146.774798,1.422107697,-35.232769012,9.325660706,-0.103104062,-0.022271670,1.094604015
146.813122,-3.262340546,-10.109172821,6.365455627,-0.124344297,0.009222470,1.002685070
146.851583,1.452625275,-1.869426727,-1.263938904,-0.094559141,-0.001397647,0.966674328
146.865742,1.597583771,-0.259624481,-1.820884705,-0.076858945,-0.050958194,0.990355968
146.881211,-3.125011444,6.126178741,-0.157676697,-0.064651914,-0.093072452,1.017333508
146.931838,-6.924449921,8.849872589,-2.049766541,-0.036331605,-0.075494327,0.910033703
146.970412,-6.741344452,12.336505890,-0.439964294,-0.001419495,-0.091485538,0.931640148
146.984566,-8.198558807,13.870014191,0.513710022,0.000411560,-0.124810733,0.940063000
147.000074,-11.204540253,12.939228058,0.460304260,0.003097107,-0.124810733,0.949462414
147.038549,-9.907543182,4.615558624,-1.637779236,0.018111754,-0.071343936,0.949462414
147.039458,-8.290111542,2.433551788,-2.209983826,0.022384215,-0.049493350,0.964232922
147.040066,-8.290111542,2.433551788,-2.209983826,0.022384215,-0.049493350,0.964232922
147.040654,-8.290111542,2.433551788,-2.209983826,0.022384215,-0.049493350,0.964232922
147.041282,-8.290111542,2.433551788,-2.209983826,0.022384215,-0.049493350,0.964232922
147.041884,-8.290111542,2.433551788,-2.209983826,0.022384215,-0.049493350,0.964232922
147.042521,-8.290111542,2.433551788,-2.209983826,0.022384215,-0.049493350,0.964232922
147.043115,-8.290111542,2.433551788,-2.209983826,0.022384215,-0.049493350,0.964232922
147.043750,-8.290111542,2.433551788,-2.209983826,0.022384215,-0.049493350,0.964232922
147.044355,-8.290111542,2.433551788,-2.209983826,0.022384215,-0.049493350,0.964232922
147.044982,-8.290111542,2.433551788,-2.209983826,0.022384215,-0.049493350,0.964232922
147.045582,-8.290111542,2.433551788,-2.209983826,0.022384215,-0.049493350,0.964232922
147.046217,-8.290111542,2.433551788,-2.209983826,0.022384215,-0.049493350,0.964232922
147.046813,-8.290111542,2.433551788,-2.209983826,0.022384215,-0.049493350,0.964232922
147.085109,-11.746227264,7.728351593,4.435218811,0.025435973,-0.090508975,0.994140148
147.099444,-13.226329803,8.933795929,5.877174377,0.019698668,-0.110162295,0.997802258
147.114884,-13.394176483,7.957233429,5.343116760,0.019576598,-0.101129092,0.993773937
147.153391,-9.793102264,6.103290558,4.389442444,0.022628356,-0.043878116,0.986327648
147.191887,-10.098278046,12.443317413,11.393226624,0.017379332,-0.061578311,1.040771008
147.206066,-10.083019257,8.872760773,10.828651428,0.012374450,-0.071099795,1.038451672
147.221512,-6.573497772,-1.266704559,6.663002014,0.002364685,-0.100030459,1.015502453
147.260033,-4.048168182,-2.395854950,9.783424377,0.022872496,-0.074029483,0.991332531
147.298495,0.903308868,-6.096111298,9.493507385,-0.008865784,-0.002374209,1.007079601
147.312791,2.421558380,-9.178386688,6.922401428,-0.010696839,-0.011163272,1.014403820
147.328109,2.780139923,-9.994731903,4.915870667,0.000777771,-0.045220889,1.011962414
147.366640,0.308216095,3.143085480,10.180152893,0.013595154,-0.043878116,0.953856945
147.367366,1.727283478,6.912006378,12.850440979,0.010177185,-0.044976749,0.931273937
147.367973,1.727283478,6.912006378,12.850440979,0.010177185,-0.044976749,0.931273937
147.368606,1.727283478,6.912006378,12.850440979,0.010177185,-0.044976749,0.931273937
147.369218,1.727283478,6.912006378,12.850440979,0.010177185,-0.044976749,0.931273937
147.369844,1.727283478,6.912006378,12.850440979,0.010177185,-0.044976749,0.931273937
147.370456,1.727283478,6.912006378,12.850440979,0.010177185,-0.044976749,0.931273937
147.371093,1.727283478,6.912006378,12.850440979,0.010177185,-0.044976749,0.931273937
147.371695,1.727283478,6.912006378,12.850440979,0.010177185,-0.044976749,0.931273937
147.372336,1.727283478,6.912006378,12.850440979,0.010177185,-0.044976749,0.931273937
147.372951,1.727283478,6.912006378,12.850440979,0.010177185,-0.044976749,0.931273937
147.421854,9.310901642,-6.134258270,4.671730042,-0.009231995,-0.153253108,0.999022961
147.436182,7.777393341,-6.080852509,5.381263733,-0.011795471,-0.105279483,1.020629406
147.451652,1.483142853,1.624835968,8.188880920,-0.017044496,-0.053399600,1.030639172
147.500697,-11.540233612,21.323932648,11.019386292,-0.005691956,-0.179254085,1.046142101
147.539274,-13.279735565,9.452594757,9.241737366,-0.000442932,-0.098077334,0.900634289
147.553605,-10.334789276,4.981769562,8.486427307,-0.001419495,-0.137994319,0.873900890
147.579370,-8.442699432,-3.769145966,6.754554749,-0.010940979,-0.221856624,0.865111828
147.618059,-4.589855194,-7.210002899,8.738197327,-0.041458558,-0.087213077,0.846313000
147.656598,-4.620372772,-19.615398407,3.649391174,-0.058670472,-0.233819515,0.920287609
147.670777,-6.054698944,-21.141277313,2.718605042,-0.062454652,-0.221368343,0.908202648
147.686229,-5.207836151,-19.546733856,2.764381409,-0.095291562,-0.094293155,0.859252453
147.724681,2.528369904,-4.104839325,-6.436668396,-0.114822812,-0.141168147,0.927489758
147.763188,-4.528820038,15.052570343,-3.445945740,-0.044754457,-0.244073421,0.977294445
147.777354,-5.009471893,20.339740753,-2.507530212,-0.044510316,-0.149713069,0.956420422
147.792870,-4.910289764,20.171894073,-5.643211365,-0.046341371,-0.114556827,0.939086437
147.831340,2.360523224,29.708637238,-6.047569275,-0.009354065,-0.124932803,0.872680187
147.869809,11.378467560,39.298786163,0.017799377,0.023726989,-0.066461124,0.892821789
147.884121,12.675464630,33.302082062,4.488624573,0.033248473,-0.095635928,0.939696789
147.899616,11.698902130,27.366413116,5.976356506,0.025435973,-0.024835147,0.938354015
147.938113,22.036731720,-5.668865204,4.374183655,0.022628356,0.005682431,0.956176281
147.976471,28.132617950,-30.761943817,5.312599182,-0.007889221,-0.100152530,1.006713390
147.990872,24.989307404,-32.020793915,4.892982483,-0.011063050,-0.175103694,1.027099133
148.006187,20.709217072,-30.395732880,6.258644104,-0.029007386,-0.160577327,1.029418468
148.044722,9.074390411,-8.354412079,5.999244690,-0.056106996,-0.136773616,1.057860851
148.083129,8.227527618,8.819355011,5.266822815,-0.077591367,0.126043767,1.080565929
148.097449,7.228076935,8.300556183,4.671730042,-0.053177308,0.041571103,1.115600109
148.112759,-0.714122772,7.514728546,7.204689026,-0.039871644,-0.072686709,1.142455578
148.151304,-2.552806854,1.136554718,10.416664124,-0.042923402,0.058783017,1.117797375
148.200267,-10.128795624,-18.989788055,5.533851624,-0.039139222,-0.060967959,1.162597179
148.214491,-8.946239471,-19.996868134,4.595436096,-0.056351136,-0.061578311,1.155761242
148.240465,-13.638317108,-14.068828583,4.130043030,-0.079666562,-0.081109561,1.158690929
148.278802,-15.232860565,3.860248566,6.586708069,-0.070633359,0.094305478,1.092040539
148.317402,-9.182750702,3.638996124,6.853736877,0.004561950,-0.290826350,1.191649914
148.331711,-17.933666229,0.732196808,5.739845276,-0.008499573,-0.139215022,1.137084484
148.347206,-16.743480682,0.922931671,6.510414124,-0.004105042,-0.056329288,1.088378429
148.347943,-16.743480682,0.922931671,6.510414124,-0.004105042,-0.056329288,1.088378429
148.348540,-16.743480682,0.922931671,6.510414124,-0.004105042,-0.056329288,1.088378429
148.349169,-16.743480682,0.922931671,6.510414124,-0.004105042,-0.056329288,1.088378429
148.387508,-8.663951874,-7.187114716,9.623207092,-0.023270082,0.035223447,1.043090343
148.425789,-0.706493378,-11.833415985,0.651039124,-0.029983949,-0.073541202,1.040893078
148.440183,-3.781139374,-3.792034149,1.673377991,-0.016800355,-0.168145686,1.037719250
148.455522,-5.299388885,1.571430206,1.887001038,-0.012649964,-0.161920100,1.020385265
148.494016,-10.495006561,19.920124054,2.520240784,0.017379332,-0.189874202,1.012694836
148.532521,-12.066661835,18.440021515,4.755653381,0.036300231,-0.007134952,0.920165539
148.546693,-10.563671112,14.282001495,4.984535217,0.028487731,0.026556455,0.906127453
148.562033,-6.695568085,3.890766144,2.276100159,0.029708434,0.034857236,0.898437023
148.600588,-6.047069550,-15.213237762,3.328956604,0.056930114,-0.120782413,0.893798351
148.649577,-1.339733124,-19.760356903,4.137672424,-0.001419495,-0.120538272,0.876098156
148.663773,-3.842174530,-17.723308563,3.061927795,0.002852966,-0.167535335,0.887694836
148.679277,-6.459056854,-9.674297333,5.434669495,0.003219177,-0.152276546,0.874267101
148.717727,-7.817089081,3.326190948,3.779090881,0.002364685,-0.193658382,0.892211437
148.756243,-9.198009491,15.762104034,3.756202698,-0.006546448,-0.045587100,0.874389172
148.770406,-5.627452850,14.205707550,4.015602112,0.024947692,-0.043633975,0.881469250
148.785927,-4.353343964,11.382831573,6.113685608,0.023971129,0.000189267,0.888427258
148.834950,6.846607208,-15.640483856,2.009071350,0.009933044,-0.052056827,0.983642101
148.873285,8.586109161,-22.155986786,-1.881919861,-0.022537660,-0.085870303,1.015746593
148.887675,5.358875275,-16.967998505,0.406898499,-0.012405823,-0.253472835,1.073485851
148.903048,1.780689240,-14.740215302,-1.530967712,-0.014236878,-0.269708186,1.063476086
148.941543,2.597034454,6.530536652,-0.317893982,-0.031448793,-0.091607608,0.986083508
148.942254,2.597034454,6.530536652,-0.317893982,-0.031448793,-0.091607608,0.986083508
148.942873,2.597034454,6.530536652,-0.317893982,-0.031448793,-0.091607608,0.986083508
148.981286,9.600818634,26.725543976,5.335487366,-0.013748596,0.015692197,0.986327648
148.995470,11.012256622,27.274860382,7.403053284,0.001266052,-0.006402530,1.002563000
149.010793,12.164295197,16.456378937,7.395423889,0.010299255,0.082098447,0.999145031
149.011558,12.164295197,16.456378937,7.395423889,0.010299255,0.082098447,0.999145031
149.012209,12.164295197,16.456378937,7.395423889,0.010299255,0.082098447,0.999145031
149.050617,15.177906036,-19.119487762,1.375831604,0.051803160,-0.205499202,1.069213390
149.089140,8.944690704,-31.334148407,1.001991272,-0.016678285,-0.126885921,0.979369640
149.103293,9.280384064,-29.632793427,0.048316956,-0.028885316,-0.064996280,0.964965343
149.118628,8.708179474,-21.415935516,5.968727112,-0.050247621,-0.029473819,0.963134289
149.157153,7.945240021,0.434650421,2.604164124,-0.039871644,-0.062676944,0.958739758
149.195664,5.000293732,6.507648468,-1.035057068,-0.030594300,-0.051202334,0.996581554
149.209819,4.016101837,6.332172394,0.055946350,-0.016922425,-0.078424014,1.002074718
149.225326,0.598133087,4.340900421,1.383460999,-0.005814026,-0.144952327,1.012816906
149.263736,-0.950634003,-2.891765594,1.520790100,-0.007767151,-0.068292178,0.996947765
149.264442,-0.950634003,-2.891765594,1.520790100,-0.007767151,-0.068292178,0.996947765
149.265058,-0.897228241,-4.951702118,2.566017151,-0.013504456,-0.066705264,0.996093273
149.265687,-0.897228241,-4.951702118,2.566017151,-0.013504456,-0.066705264,0.996093273
149.266306,-0.897228241,-4.951702118,2.566017151,-0.013504456,-0.066705264,0.996093273
149.266934,-0.897228241,-4.951702118,2.566017151,-0.013504456,-0.066705264,0.996093273
149.267640,-0.897228241,-4.951702118,2.566017151,-0.013504456,-0.066705264,0.996093273
149.268258,-0.897228241,-4.951702118,2.566017151,-0.013504456,-0.066705264,0.996093273
149.268864,-0.897228241,-4.951702118,2.566017151,-0.013504456,-0.066705264,0.996093273
149.269619,-0.897228241,-4.951702118,2.566017151,-0.013504456,-0.066705264,0.996093273
149.270228,-0.897228241,-4.951702118,2.566017151,-0.013504456,-0.066705264,0.996093273
149.270833,-0.897228241,-4.951702118,2.566017151,-0.013504456,-0.066705264,0.996093273
149.271471,-0.897228241,-4.951702118,2.566017151,-0.013504456,-0.066705264,0.996093273
149.272087,-0.897228241,-4.951702118,2.566017151,-0.013504456,-0.066705264,0.996093273
149.310420,-1.271068573,-13.229595184,3.725685120,-0.015091370,-0.076715030,0.994140148
149.324743,1.109302521,-16.693340302,1.398719788,-0.036209535,-0.056817569,0.998412609
149.340208,1.956165314,-17.883525848,-0.523887634,-0.032181215,-0.099542178,1.013671398
149.378672,-2.339183807,-11.482463837,1.879371643,-0.040970277,-0.106256045,1.033446789
149.417131,-3.125011444,-1.953350067,2.489723206,-0.031692933,-0.082452334,1.043578625
149.431455,-2.224742889,-0.343547821,1.795448303,-0.037918519,-0.067437686,1.047118664
149.457194,-0.759899139,1.548542023,-3.537498474,-0.003006409,-0.174127132,1.078612804
149.506230,2.375782013,6.324542999,-6.841026306,0.004439880,-0.049371280,1.041747570
149.544746,2.795398712,9.528888702,-6.635032654,0.022506285,0.034246884,1.009154797
149.558909,5.145252228,10.810626984,-5.696617126,0.021285582,0.032904111,1.009643078
149.574396,7.197559357,13.656391144,-6.970726013,0.026412535,-0.056573428,1.035033703
149.612856,-0.386058807,22.910846710,0.384010315,0.054000426,-0.082696475,1.036254406
149.651373,1.452625275,14.518512726,-1.683555603,0.054732848,-0.005792178,1.004027843
149.665660,2.001941681,5.561603546,-0.577293396,0.042647887,0.037786923,0.986571789
149.681154,3.192127228,0.694049835,-1.981101990,0.030318785,0.068548642,0.977782726
149.719623,3.665149689,-7.332073212,-1.592002869,0.034713317,-0.087823428,0.984008312
149.758077,4.016101837,-1.297222137,-2.675376892,0.015548279,-0.074151553,0.984740734
149.772391,-3.445446014,5.149616241,-1.592002869,0.042892028,-0.144830257,0.998412609
149.787845,-5.619823456,7.339252472,-1.393638611,0.051803160,-0.127496272,0.982421398
149.826333,-6.657421112,7.415546417,0.612892151,0.056441832,-0.071221866,0.963378429
149.864810,-3.475963593,-6.904827118,3.260292053,0.073775820,-0.097466983,0.985839367
149.879100,-3.971874237,-11.322246552,3.039039612,0.060958434,-0.096368350,0.987548351
149.894439,-2.575695038,-18.409954071,3.039039612,0.040328551,-0.019952334,0.985351086
149.933010,0.712574005,-32.852397919,-2.988182068,-0.018509340,0.052801572,1.006591320
149.971479,0.422657013,-24.025188446,-0.241600037,-0.048294496,0.060614072,1.026244640
149.985780,1.628101349,-21.171794891,-3.102622986,-0.052444886,0.041082822,1.033324718
150.001114,2.581775665,-11.268840790,-6.833396912,-0.024368715,-0.107232608,1.081420422
150.001908,2.581775665,-11.268840790,-6.833396912,-0.024368715,-0.107232608,1.081420422
150.002620,2.581775665,-11.268840790,-6.833396912,-0.024368715,-0.107232608,1.081420422
150.003269,2.581775665,-11.268840790,-6.833396912,-0.024368715,-0.107232608,1.081420422
150.003890,2.581775665,-11.268840790,-6.833396912,-0.024368715,-0.107232608,1.081420422
150.004547,2.581775665,-11.268840790,-6.833396912,-0.024368715,-0.107232608,1.081420422
150.005178,2.581775665,-11.268840790,-6.833396912,-0.024368715,-0.107232608,1.081420422
150.005838,2.581775665,-11.268840790,-6.833396912,-0.024368715,-0.107232608,1.081420422
150.006464,2.581775665,-11.268840790,-6.833396912,-0.024368715,-0.107232608,1.081420422
150.007126,2.581775665,-11.268840790,-6.833396912,-0.024368715,-0.107232608,1.081420422
150.007746,2.581775665,-11.268840790,-6.833396912,-0.024368715,-0.107232608,1.081420422
150.046162,-8.946239471,12.206806183,-1.805625916,0.004806091,-0.051690616,1.044555187
150.095107,-1.049816132,4.394306183,-5.177818298,0.050948668,0.004339658,1.024779797
150.109492,1.765430450,1.807941437,-3.148399353,0.059493590,0.014349423,1.012938976
150.124963,6.694019318,-4.471050262,0.139869690,0.048873473,-0.008843936,1.023070812
150.163420,4.252613068,-12.497173309,-1.447044373,0.044234801,-0.126275569,1.063109875
150.201897,-0.393688202,-3.036724091,-1.706443787,-0.000809143,-0.002374209,0.984618664
150.216196,-1.232921600,0.869525909,-0.043235779,-0.005447815,-0.016412295,0.978393078
150.231638,-1.805126190,5.759967804,-3.606163025,-0.019974183,0.000433408,0.960448742
150.270120,-3.765880585,15.395893097,-1.744590759,0.033980895,-0.121514834,0.968627453
150.308609,-3.483592987,8.064044952,-4.659019470,0.057174254,-0.159356624,0.992675304
150.322921,-7.275402069,5.668415070,-3.888450623,0.061812926,-0.170220882,0.994262218
150.338242,-10.449230194,0.999225616,-2.835594177,0.054122496,-0.077325381,0.953612804
150.339031,-10.449230194,0.999225616,-2.835594177,0.054122496,-0.077325381,0.953612804
150.339664,-10.449230194,0.999225616,-2.835594177,0.054122496,-0.077325381,0.953612804
150.378107,-10.678112030,-7.652507782,0.284828186,0.025802184,-0.014581241,0.914184093
150.416578,-4.063426971,-13.885723114,-1.149497986,0.002120544,-0.028619327,0.907958508
150.430870,-2.857982635,-13.107524872,-1.080833435,0.002486755,-0.105767764,0.918944836
150.456872,-2.987682343,-8.407817841,2.001441956,-0.005936096,-0.108575381,0.924804211
150.495439,-0.660717010,0.411762238,0.116981506,-0.007400940,-0.134576350,0.978637218
150.533900,-5.398571014,8.941425323,2.421058655,0.024093200,-0.180474788,1.017333508
150.548190,-2.285778046,6.370319366,0.429786682,0.012862732,-0.034722842,1.002440929
150.563663,-0.698863983,3.959430695,0.384010315,0.010787536,-0.017877139,1.007201672
150.602127,-0.973522186,-2.617107391,-2.377830505,0.044967223,-0.164605647,1.049926281
150.651105,6.327808380,0.694049835,-3.766380310,0.034713317,-0.116998233,1.033324718
150.665442,2.940357208,3.967060089,-0.119529724,0.049850035,-0.155328304,1.054442883
150.680902,-3.086864471,4.813922882,0.612892151,0.033614684,-0.028008975,1.016845226
150.719404,6.526172638,-2.319561005,-1.790367126,0.044478942,-0.049859561,1.005614758
150.757910,4.031360626,-5.539165497,-1.324974060,0.039596129,-0.020806827,0.958861828
150.772196,5.618274689,-5.172954559,-1.706443787,0.031539489,-0.041436709,0.952514172
150.787659,5.770862579,-4.875408173,-5.055747986,0.024825621,-0.066705264,0.944701672
150.826133,6.472766876,6.103290558,-1.500450134,0.007735779,-0.023248233,0.914306164
150.864587,9.448230743,13.870014191,-2.225242615,0.050826598,-0.177789241,0.958739758
150.878889,3.451526642,16.738666534,0.864662170,0.051070739,-0.152154475,0.973266125
150.894353,3.237903595,15.807880402,-0.645957947,0.041915465,-0.085382022,0.969481945
150.943237,-3.582775116,6.400836945,-1.828514099,0.056319762,-0.042901553,0.950683117
150.981920,-3.628551483,1.708759308,-2.217613220,0.031051207,-0.053765811,0.944335461
150.996216,-2.102672577,1.250995636,-3.072105408,0.020431090,-0.015313663,0.929931164
151.011676,-0.782787323,2.319110870,-3.041587830,0.025069762,-0.070001163,0.938354015
151.050179,-1.072704315,7.133258820,-0.966392517,0.030562926,-0.055963077,0.947875500
151.088723,-5.146800995,2.265705109,1.055397034,0.030562926,0.005194150,0.972655773
151.103033,-1.751720428,-0.885234833,0.101722717,0.021529723,0.089788876,0.952392101
151.118476,6.167591095,-6.454692841,0.696815491,0.005416443,0.085516416,0.977904797
151.156963,1.429737091,-4.219280243,2.184547424,0.011519958,-0.111627139,1.028808117
151.157700,1.429737091,-4.219280243,2.184547424,0.011519958,-0.111627139,1.028808117
151.158303,1.429737091,-4.219280243,2.184547424,0.011519958,-0.111627139,1.028808117
151.158929,1.429737091,-4.219280243,2.184547424,0.011519958,-0.111627139,1.028808117
151.159519,1.429737091,-4.219280243,2.184547424,0.011519958,-0.111627139,1.028808117
151.160129,1.429737091,-4.219280243,2.184547424,0.011519958,-0.111627139,1.028808117
151.160716,1.429737091,-4.219280243,2.184547424,0.011519958,-0.111627139,1.028808117
151.161344,1.429737091,-4.219280243,2.184547424,0.011519958,-0.111627139,1.028808117
151.161930,1.429737091,-4.219280243,2.184547424,0.011519958,-0.111627139,1.028808117
151.162545,1.429737091,-4.219280243,2.184547424,0.011519958,-0.111627139,1.028808117
151.163143,1.856983185,-1.327739716,1.040138245,0.005904724,-0.107354678,1.024657726
151.163751,1.856983185,-1.327739716,1.040138245,0.005904724,-0.107354678,1.024657726
151.164354,1.856983185,-1.327739716,1.040138245,0.005904724,-0.107354678,1.024657726
151.164973,1.856983185,-1.327739716,1.040138245,0.005904724,-0.107354678,1.024657726
151.165555,1.856983185,-1.327739716,1.040138245,0.005904724,-0.107354678,1.024657726
151.166176,1.856983185,-1.327739716,1.040138245,0.005904724,-0.107354678,1.024657726
151.166775,1.856983185,-1.327739716,1.040138245,0.005904724,-0.107354678,1.024657726
151.167395,1.856983185,-1.327739716,1.040138245,0.005904724,-0.107354678,1.024657726
151.168065,1.856983185,-1.327739716,1.040138245,0.005904724,-0.107354678,1.024657726
151.206408,10.821521759,-3.250347137,-1.622520447,-0.011429260,0.054388486,1.004271984
151.232523,8.982837677,-4.158245087,0.055946350,-0.008987854,-0.079766788,1.051635265
151.246718,7.167041779,-6.202922821,-3.613792419,-0.019974183,-0.025445499,1.022094250
151.285071,9.371936798,6.522907257,1.772560120,-0.005081604,-0.157159358,1.073485851
151.334009,1.132190704,20.545734406,6.319679260,0.013717224,-0.049005069,1.056518078
151.348200,0.659168243,20.492328644,8.631385803,-0.012649964,0.041937314,1.042479992
151.363630,3.504932404,10.757221222,-0.325523376,-0.002762268,0.034613095,1.039184093
151.402116,4.252613068,-3.174053192,2.009071350,0.015182068,-0.028985538,1.007689953
151.440576,4.290760040,-8.552776337,5.114234924,0.006270935,-0.056817569,1.003905773
151.454863,3.756702423,-11.451946259,1.246131897,0.005782654,-0.054254092,0.989623547
151.470308,4.420459747,-10.635601044,2.009071350,0.008956482,-0.040338077,0.979979992
151.508763,-2.034008026,-2.258525848,3.328956604,0.034591246,-0.117364444,0.991820812
151.547237,2.665699005,3.501667023,0.712074280,0.025069762,-0.017388858,0.964477062
151.561550,-1.950084686,9.460224152,5.983985901,0.062911563,-0.169976741,0.998046398
151.577041,-5.673229218,11.993183136,9.020484924,0.054854918,-0.123834170,0.992675304
151.577775,-5.673229218,11.993183136,9.020484924,0.054854918,-0.123834170,0.992675304
151.578374,-5.673229218,11.993183136,9.020484924,0.054854918,-0.123834170,0.992675304
151.578994,-5.673229218,11.993183136,9.020484924,0.054854918,-0.123834170,0.992675304
151.579589,-5.673229218,11.993183136,9.020484924,0.054854918,-0.123834170,0.992675304
151.580213,-5.673229218,11.993183136,9.020484924,0.054854918,-0.123834170,0.992675304
151.580806,-6.268321991,13.595355988,9.516395569,0.038375426,-0.051934756,0.976806164
151.581442,-6.268321991,13.595355988,9.516395569,0.038375426,-0.051934756,0.976806164
151.582035,-6.268321991,13.595355988,9.516395569,0.038375426,-0.051934756,0.976806164
151.582652,-6.268321991,13.595355988,9.516395569,0.038375426,-0.051934756,0.976806164
151.583261,-6.268321991,13.595355988,9.516395569,0.038375426,-0.051934756,0.976806164
151.621638,-3.460704803,14.533771515,9.203590393,0.073897891,-0.081231631,0.984374523
151.660058,-5.970775604,10.307086945,16.939796448,0.074630313,-0.016290225,0.986449718
151.674393,-4.689037323,7.064594269,17.389930725,0.054122496,0.036200009,0.978393078
151.689719,-2.812206268,2.303852081,14.544166565,0.029952575,0.053167783,0.972533703
151.728215,-0.378429413,9.567035675,9.051002502,0.012984802,-0.180230647,1.023192883
151.766715,-5.917369843,49.499286652,21.586097717,-0.004105042,0.055975400,0.984252453
151.780886,-0.347911835,58.646930695,22.104896545,0.020186950,0.056219541,1.010009289
151.796332,1.017749786,58.898700714,23.569740295,0.064376406,-0.015557803,1.039916515
151.845279,4.939258575,23.559345245,28.132118225,0.075118594,0.128363103,1.019896984
151.883798,8.242786407,-20.408855438,23.646034241,0.063521914,-0.125054866,1.095092297
151.898102,5.923450470,-26.832805634,26.949562073,0.032760192,-0.007501163,1.069823742
151.913562,7.456958771,-36.300884247,24.317420959,-0.031204652,0.068914853,1.051146984
151.914415,7.456958771,-36.300884247,24.317420959,-0.031204652,0.068914853,1.051146984
151.952707,5.122364044,-32.158123016,22.493995667,-0.064773984,0.104559384,0.984008312
151.991155,-0.599681854,2.563251495,22.318519592,-0.070267148,-0.001031436,0.975829601
152.005441,-2.957164764,13.183368683,25.431312561,-0.073196836,0.026922666,0.958373547
152.020945,0.056446075,25.489582062,22.844947815,-0.061722230,0.116400205,0.938964367
152.059373,-8.473217010,33.866657257,27.041114807,0.011886169,-0.035455264,0.993651867
152.097856,0.544727325,6.522907257,23.844398499,0.046187926,-0.113824405,1.015258312
152.112054,-3.399669647,-1.747356415,22.532142639,0.054976989,-0.190240413,1.032470226
152.127520,-6.611644745,-14.618144989,20.922340393,0.033858825,-0.078790225,0.984008312
152.166015,-6.321727753,-16.784893036,23.134864807,-0.003494690,-0.089410342,0.981811047
152.204437,-4.147350311,-2.014385223,22.997535706,-0.019119691,-0.000176944,0.950927258
152.218766,-9.014904022,9.338153839,26.888526917,-0.021194886,0.046942197,0.954467297
152.234111,-7.832347870,13.435138702,26.453651428,-0.030472230,0.105413876,0.944823742
152.272591,-6.954967499,23.399127960,26.194252014,0.027877379,0.002630673,0.987182140
152.311066,-0.599681854,20.622028351,28.635658264,0.058761168,0.068670712,0.988524914
152.337153,-2.995311737,10.574115753,29.421485901,0.064376406,0.074408017,0.986815929
152.351478,0.086963654,7.987751007,31.115211487,0.064498477,0.125189275,0.970946789
152.389794,7.868946075,-2.235637665,32.313026428,0.045211364,0.074530087,0.984740734
152.428272,2.619922638,4.302753448,37.600196838,0.049727965,-0.079278506,1.010741711
152.442586,0.086963654,7.278217316,39.530433655,0.039840270,0.013494931,0.986449718
152.457934,2.879322052,12.244953156,44.787086487,0.003097107,0.187933415,0.951903820
152.496438,6.495655060,10.558856964,44.680274963,0.015792418,0.165716618,0.969359875
152.534878,5.885303497,4.478229523,44.016517639,0.039107848,-0.009942569,1.011107922
152.561000,5.038440704,3.120197296,45.855201721,0.024337340,0.049505673,1.010497570
152.575206,4.290760040,2.113117218,45.107521057,0.029708434,0.013128720,1.038207531
152.613587,-1.232921600,4.295124054,50.364173889,0.027755309,0.063177548,1.039550304
152.652043,-5.932628632,2.502216339,53.782142639,0.027877379,0.106146298,1.035033703
152.666330,-7.336437225,-0.732646942,57.154335022,0.021529723,0.144842595,1.013793468
152.681673,-5.833446503,-4.486309052,56.620277405,0.020309020,0.157049626,1.010009289
152.720196,-6.214916229,-18.020854950,58.031715393,0.005904724,0.121405087,1.003417492
152.758642,-4.498302460,-14.641033173,59.153236389,-0.041214418,0.138861150,1.007689953
152.772940,-5.299388885,-10.963665009,60.434974670,-0.043411683,0.101385556,1.015136242
152.788418,-8.457958221,-1.365886688,62.090553284,-0.049026918,0.129827946,1.009887218
152.826838,-8.747875214,12.840045929,63.692726135,-0.062454652,0.182074040,1.024901867
152.865330,-8.351146698,17.699970245,65.272010803,-0.026932191,0.101751767,1.048583508
152.879509,-9.594738007,17.532123566,65.630592346,-0.025101136,0.077825986,1.058104992
152.894965,-11.814891815,14.884723663,65.394081116,-0.029129457,0.147528142,1.034179211
152.933425,-4.856884003,2.280963898,65.447486877,-0.026321840,0.156195134,1.001586437
152.971888,2.726734161,-10.063396454,63.379920959,-0.042801332,0.052679501,0.993163586
152.986199,3.283679962,-11.245952606,60.602821350,-0.038406800,-0.020806827,1.000609875
153.001664,1.887500763,-8.850322723,60.511268616,-0.033890199,-0.061212100,0.992675304
153.040144,1.757801056,-1.823650360,59.862770081,-0.068436094,0.093573056,0.963622570
153.078563,1.712024689,6.522907257,57.192481995,-0.084183164,0.220282048,0.941771984
153.092900,2.963245392,8.559955597,54.247535706,-0.059036683,0.125311345,0.959838390
153.108380,1.315296173,11.062397003,56.444801331,-0.054520082,0.076117001,0.969481945
153.146802,-1.980602264,14.922870636,55.086769104,-0.032669496,-0.007745303,0.980346203
153.185272,-7.626354218,7.507099152,52.920021057,-0.035843324,0.038885556,0.986938000
153.199590,-6.428539276,3.875507355,50.944007874,-0.040726136,0.050360166,0.982421398
153.215078,-4.719554901,-1.960979462,50.158180237,-0.046829652,0.072088681,0.987304211
153.253497,-2.575695038,-9.544597626,48.922218323,-0.048294496,0.021673642,1.015746593
153.302435,-3.605663300,-16.769634247,44.970191956,-0.074783750,-0.021295108,1.078246593
153.316797,-4.643260956,-15.259014130,44.977821350,-0.073563047,-0.047174014,1.085326672
153.332253,-7.695018768,-7.675395966,46.061195374,-0.096023984,-0.043511905,1.099242687
153.370683,-17.720043182,9.132160187,43.291725159,-0.117386289,0.090155087,1.083129406
153.409206,-15.812694550,10.253681183,39.187110901,-0.094070859,0.108221494,1.078612804
153.423391,-15.911876678,10.299457550,38.324989319,-0.095291562,0.081976376,1.089965343
153.438855,-18.597423553,10.841144562,37.790931702,-0.086014219,0.047674619,1.090209484
153.477288,-18.299877167,10.711444855,37.607826233,-0.101883359,0.145330876,1.013305187
153.515759,-4.940807343,0.060810089,34.205116272,-0.067825742,-0.002374209,1.021361828
153.530045,-6.504833221,-5.707012177,41.475929260,-0.061966371,0.026190244,1.008056164
153.545505,-4.101573944,-11.528240204,40.636695862,-0.071243711,0.048407041,0.996215343
153.583986,2.207935333,-33.355937958,34.823097229,-0.142898992,0.101751767,0.993529797
153.632965,-4.780590057,-14.938579559,29.291786194,-0.141434148,-0.034478702,0.988036633
153.647155,-5.604564667,-8.812175751,28.933204651,-0.153397039,-0.022393741,0.968383312
153.662607,-3.628551483,0.495685577,21.723426819,-0.134598210,-0.065118350,0.975097179
153.701045,-12.455760956,5.264057159,21.029151917,-0.075882383,-0.059625186,0.968749523
153.739557,-7.733165741,-7.011638641,19.686378479,-0.070389219,-0.047418155,0.965331554
153.753846,-8.992015839,-10.917888641,17.710365295,-0.067215391,-0.075494327,0.965575695
153.769184,-9.297191620,-16.678081512,16.703285217,-0.056717347,-0.101983584,0.948119640
153.807697,-10.762035370,-20.424114227,20.434059143,-0.079788633,-0.018243350,0.877563000
153.846192,-3.048717499,-18.173442841,16.825355530,-0.135452703,-0.076226749,0.871581554
153.860484,-4.544078827,-7.614360809,15.162147522,-0.110062070,-0.235528499,0.915526867
153.875976,-4.589855194,-2.914653778,14.521278381,-0.090897031,-0.261773616,0.932006359
153.914406,-5.917369843,-1.655803680,11.477149963,-0.071854062,-0.072930850,0.948607922
153.963399,1.063526154,-13.389812469,0.559486389,-0.139969304,0.009588681,0.956664562
153.977801,-2.140819550,1.350177765,3.481544495,-0.089798398,-0.241265804,1.024901867
153.993120,-5.848705292,9.162677765,7.227577209,-0.083939023,-0.228814632,1.042113781
154.031603,-2.301036835,20.248188019,-0.157676697,-0.049271058,-0.110894717,1.062621593
154.070115,-3.361522675,27.724994659,-3.857933044,-0.012161682,-0.204644710,1.092284679
154.084276,-4.772960663,31.631244659,-1.492820740,-0.000687073,-0.230035335,1.099242687
154.099598,-8.541881561,35.606159210,4.297889709,-0.009231995,-0.108087100,1.094604015
154.138117,-4.673778534,19.744647980,1.436866760,-0.003128479,0.029608212,1.074096203
154.176610,-3.483592987,-6.592021942,-6.505332947,0.019820739,-0.099908389,1.054442883
154.190758,-5.123912811,-10.139690399,-4.933677673,0.006759216,-0.058404483,1.032592297
154.206241,-3.277599335,-12.779460907,-6.566368103,-0.035599183,0.014959775,0.997191906
154.244694,-7.313549042,-1.098857880,-3.980003357,-0.026321840,-0.077203311,0.960814953
154.283219,-2.926647186,10.665668488,-4.468284607,-0.021194886,-0.102838077,0.923339367
154.297385,-4.833995819,17.120136261,-4.918418884,-0.009109925,-0.210626155,0.952270031
154.312872,-8.251964569,19.820941925,-4.178367615,-0.002396057,-0.191949397,0.946166515
154.313591,-9.327709198,22.361530304,-1.813255310,-0.005814026,-0.102838077,0.925536633
154.314231,-9.327709198,22.361530304,-1.813255310,-0.005814026,-0.102838077,0.925536633
154.314867,-9.327709198,22.361530304,-1.813255310,-0.005814026,-0.102838077,0.925536633
154.315500,-9.327709198,22.361530304,-1.813255310,-0.005814026,-0.102838077,0.925536633
154.316142,-9.327709198,22.361530304,-1.813255310,-0.005814026,-0.102838077,0.925536633
154.316768,-9.327709198,22.361530304,-1.813255310,-0.005814026,-0.102838077,0.925536633
154.317543,-9.327709198,22.361530304,-1.813255310,-0.005814026,-0.102838077,0.925536633
154.318157,-9.327709198,22.361530304,-1.813255310,-0.005814026,-0.102838077,0.925536633
154.318783,-9.327709198,22.361530304,-1.813255310,-0.005814026,-0.102838077,0.925536633
154.319424,-9.327709198,22.361530304,-1.813255310,-0.005814026,-0.102838077,0.925536633
154.357714,-7.527172089,14.632953644,-3.690086365,0.007857849,-0.103448428,0.942870617
154.406718,-7.267772675,-8.903728485,-8.237205505,-0.013260315,-0.146539241,0.954589367
154.422460,-8.900463104,-12.626873016,-10.663352966,-0.010330628,-0.141656429,0.944823742
154.436624,-6.871044159,-13.244853973,-6.993614197,-0.032669496,-0.026299991,0.907958508
154.475014,-3.598033905,-8.880840302,-14.081321716,-0.028274965,-0.119927920,0.953612804
154.513485,-7.351696014,13.122333527,-10.732017517,-0.004471253,-0.180596858,0.990722179
154.527786,-8.465587616,17.204059601,-9.991966248,-0.010574768,-0.104913272,0.985717297
154.543118,-8.206188202,21.537555695,-9.076438904,-0.028763246,0.029608212,0.977050304
154.592130,-0.592052460,19.523395538,-5.948387146,0.024581481,-0.050225772,1.026610851
154.651548,4.107654572,-10.124431610,-6.078086853,0.039596129,-0.091973819,1.030761242
154.667239,5.030811310,-14.023052216,-6.291709900,0.045089293,-0.115655459,1.023925304
154.681399,5.572498322,-17.021404266,-0.691734314,0.032760192,-0.077325381,0.998534679
154.719733,12.286365509,-20.492778778,-0.218711853,-0.006790589,0.018743955,0.974486828
154.758206,12.835681915,-18.860088348,1.459754944,-0.024612855,0.014959775,0.974730968
154.772506,13.621509552,-15.503154755,1.864112854,-0.012649964,-0.073297061,0.989501476
154.787814,10.882556915,-12.596355438,3.672279358,-0.015457581,-0.108209170,0.996093273
154.826316,9.600818634,-2.166973114,0.696815491,-0.035965394,-0.000299014,0.936522961
154.864809,7.479846954,13.854755402,-1.500450134,-0.013260315,-0.088555850,0.960570812
154.878979,6.999195099,18.607868195,2.009071350,-0.005447815,-0.067193545,0.962157726
154.894303,5.496204376,22.254718781,4.755653381,0.014083435,-0.097344913,0.984008312
154.895064,5.496204376,22.254718781,4.755653381,0.014083435,-0.097344913,0.984008312
154.895727,5.496204376,22.254718781,4.755653381,0.014083435,-0.097344913,0.984008312
154.896383,5.496204376,22.254718781,4.755653381,0.014083435,-0.097344913,0.984008312
154.897100,5.496204376,22.254718781,4.755653381,0.014083435,-0.097344913,0.984008312
154.897833,5.496204376,22.254718781,4.755653381,0.014083435,-0.097344913,0.984008312
154.898455,5.496204376,22.254718781,4.755653381,0.014083435,-0.097344913,0.984008312
154.899070,5.496204376,22.254718781,4.755653381,0.014083435,-0.097344913,0.984008312
154.899709,5.496204376,22.254718781,4.755653381,0.014083435,-0.097344913,0.984008312
154.938020,1.345813751,3.532184601,6.861366272,0.059371520,-0.123467959,1.010009289
154.976480,-0.271617889,-26.169048309,6.632484436,0.009810974,0.009710751,0.986693859
154.990669,3.115833282,-38.505779266,6.151832581,-0.038773011,0.067938291,0.980834484
155.006164,5.175769806,-43.060527802,3.229774475,-0.050247621,0.054510556,0.989135265
155.044564,6.251514435,-42.221294403,6.868995667,-0.060867738,-0.051080264,1.005370617
155.083034,0.788867950,-14.694438934,0.956214905,-0.025101136,-0.315240413,1.089843273
155.097368,-3.826915741,-5.371318817,6.289161682,-0.014847229,-0.287652522,1.082519054
155.112863,-7.244884491,5.393756866,7.715858459,-0.040481996,-0.072564639,1.042235851
155.151295,-8.992015839,8.987201691,3.046669006,-0.021683168,-0.148858577,1.093871593
155.189712,-5.596935272,6.980670929,-2.911888123,-0.012405823,-0.112603702,1.041137218
155.204055,-6.695568085,7.476581573,-2.652488708,-0.010940979,-0.121392764,1.042724133
155.229989,-5.795299530,14.503253937,-5.277000427,-0.040115785,-0.013360538,1.011229992
155.230760,-5.795299530,14.503253937,-5.277000427,-0.040115785,-0.013360538,1.011229992
155.231372,-5.795299530,14.503253937,-5.277000427,-0.040115785,-0.013360538,1.011229992
155.269798,-2.903759003,31.738056183,-1.851402283,-0.004227112,-0.066827334,0.999633312
155.308282,5.023181915,26.939167023,-3.796897888,0.036788512,-0.109063663,1.054076672
155.322593,2.062976837,22.460712433,-3.629051208,0.058272887,-0.154473811,1.076171398
155.337949,-2.285778046,11.565937042,0.178016663,0.063766055,-0.093194522,1.047240734
155.376473,-0.508129120,-7.431255341,-2.423606873,0.046432067,-0.070855655,1.014892101
155.414990,0.460803986,-23.727642059,-3.423057556,-0.022049379,0.031561337,0.931762218
155.429174,1.574695587,-22.461162567,-4.605613708,-0.019485902,-0.057672061,0.924438000
155.444667,0.994861603,-18.676982880,-3.331504822,-0.020706605,-0.090508975,0.921874523
155.483126,-0.881969452,3.425373077,-2.843223572,-0.022415590,-0.095269717,0.913085461
155.521602,-5.146800995,21.552814484,-1.561485291,-0.009842346,-0.063043155,0.916991711
155.535773,-4.116832733,23.505939484,-1.782737732,0.002364685,-0.084405459,0.925902843
155.551270,-6.283580780,22.903217316,-1.118980408,0.037032653,-0.142388850,0.955443859
155.551998,-6.283580780,22.903217316,-1.118980408,0.037032653,-0.142388850,0.955443859
155.552636,-6.283580780,22.903217316,-1.118980408,0.037032653,-0.142388850,0.955443859
155.553284,-6.283580780,22.903217316,-1.118980408,0.037032653,-0.142388850,0.955443859
155.602177,-5.001842499,1.205219269,-1.805625916,0.047164489,-0.109674014,0.964232922
155.640662,-1.164257050,-13.824687958,-1.180015564,0.019454528,-0.042779483,0.967772961
155.654957,-1.309215546,-15.686260223,-2.026878357,0.003341247,-0.037042178,0.974120617
155.670415,-1.354991913,-15.716777802,-2.278648376,-0.014847229,0.041326962,0.967650890
155.708880,2.192676544,-4.493938446,-0.378929138,-0.017288636,-0.015069522,0.996825695
155.747353,-0.218212128,-0.053630829,0.887550354,0.010787536,-0.092340030,1.025756359
155.761628,0.689685822,-2.197490692,1.307167053,0.017989684,-0.054376163,1.010863781
155.776935,6.358325958,-6.569133759,2.039588928,0.017379332,-0.041070499,1.000487804
155.815466,8.883655548,-13.862834930,4.374183655,-0.002518128,-0.040338077,0.969115734
155.853941,15.177906036,-17.151103973,8.906044006,-0.031326722,0.090521298,0.940307140
155.879973,19.274890900,-21.446453094,7.723487854,-0.057693910,0.118231259,0.953856945
155.894314,20.930469513,-25.291667938,3.183998108,-0.056106996,0.041326962,0.966308117
155.932661,18.138111115,-16.975627899,6.594337463,-0.054764222,-0.110894717,0.993651867
155.971156,9.768665314,4.798664093,4.770912170,-0.077591367,-0.043756045,0.988891125
155.985419,9.097278595,11.169208527,3.161109924,-0.063187070,-0.006646670,0.978881359
156.000872,8.959949493,12.046588898,1.505531311,-0.054031800,0.004705869,0.983764172
156.039365,3.031909943,9.460224152,-1.019798279,-0.034988832,-0.015679874,1.007445812
156.077840,0.788867950,2.105487823,-1.637779236,0.000411560,-0.050591983,0.994384289
156.092130,1.300037384,-0.824199677,-3.835044861,0.014449646,-0.077325381,0.998412609
156.107581,-2.079784393,-4.837261200,0.269569397,0.036666442,-0.125543147,1.008300304
156.146010,-0.981151581,-12.108074188,1.772560120,0.004439880,-0.032037295,0.978393078
156.184476,-1.499950409,-10.063396454,8.097328186,0.003829529,-0.051202334,0.989501476
156.198783,-0.325023651,-10.391460419,9.028114319,-0.003250550,-0.025323428,0.991088390
156.214248,2.665699005,-14.389263153,6.167091370,0.005660583,-0.090142764,1.017821789
156.214967,2.665699005,-14.389263153,6.167091370,0.005660583,-0.090142764,1.017821789
156.215563,2.665699005,-14.389263153,6.167091370,0.005660583,-0.090142764,1.017821789
156.216174,2.665699005,-14.389263153,6.167091370,0.005660583,-0.090142764,1.017821789
156.216776,2.665699005,-14.389263153,6.167091370,0.005660583,-0.090142764,1.017821789
156.217396,2.665699005,-14.389263153,6.167091370,0.005660583,-0.090142764,1.017821789
156.217992,2.665699005,-14.389263153,6.167091370,0.005660583,-0.090142764,1.017821789
156.218611,2.665699005,-14.389263153,6.167091370,0.005660583,-0.090142764,1.017821789
156.219212,2.665699005,-14.389263153,6.167091370,0.005660583,-0.090142764,1.017821789
156.219829,2.665699005,-14.389263153,6.167091370,0.005660583,-0.090142764,1.017821789
156.220437,2.665699005,-14.389263153,6.167091370,0.005660583,-0.090142764,1.017821789
156.221048,2.665699005,-14.389263153,6.167091370,0.005660583,-0.090142764,1.017821789
156.221642,1.681507111,-16.327129364,6.617225647,0.014205505,-0.127130061,1.029296398
156.222273,1.681507111,-16.327129364,6.617225647,0.014205505,-0.127130061,1.029296398
156.222963,1.681507111,-16.327129364,6.617225647,0.014205505,-0.127130061,1.029296398
156.223567,1.681507111,-16.327129364,6.617225647,0.014205505,-0.127130061,1.029296398
156.224172,1.681507111,-16.327129364,6.617225647,0.014205505,-0.127130061,1.029296398
156.224777,1.681507111,-16.327129364,6.617225647,0.014205505,-0.127130061,1.029296398
156.225383,1.681507111,-16.327129364,6.617225647,0.014205505,-0.127130061,1.029296398
156.225990,1.681507111,-16.327129364,6.617225647,0.014205505,-0.127130061,1.029296398
156.264252,1.589954376,-19.630657196,8.013404846,-0.027664613,-0.034112491,1.019164562
156.302709,4.763782501,-14.663921356,3.779090881,-0.031937074,-0.067803897,1.029662609
156.316887,5.488574982,-10.353313446,2.924598694,-0.034256410,-0.091119327,1.036132336
156.332326,4.000843048,-0.999675751,1.368202209,-0.045120668,-0.082086124,1.041625500
156.381270,9.555042267,21.293415070,-1.973472595,-0.038406800,0.055120908,1.015746593
156.419815,9.997547150,30.311359406,-4.201255798,0.005904724,-0.142632991,1.091796398
156.433986,4.595935822,34.568561554,-2.141319275,0.029342223,-0.107232608,1.086303234
156.449493,4.489124298,34.400714874,-0.905357361,0.034713317,-0.040460147,1.073974133
156.487942,4.061878204,14.243854523,-4.033409119,0.029342223,0.058050595,1.067992687
156.536930,0.910938263,-6.111370087,-6.787620544,0.015548279,0.048284970,0.985106945
156.551318,3.848255157,-6.118999481,-9.496055603,-0.001663635,0.076605283,0.945067883
156.566796,4.443347931,-2.556072235,-7.947288513,-0.000809143,0.054388486,0.940673351
156.605250,0.811756134,14.365924835,-4.506431580,0.017989684,0.006536923,0.948607922
156.643713,-2.133190155,20.057453156,-1.912437439,0.065108828,-0.076959170,0.995971203
156.658005,-4.422008514,18.150104523,-0.615440369,0.074874453,-0.063531436,0.993407726
156.673472,-4.574596405,11.962665558,-0.089012146,0.071456484,-0.034112491,0.980346203
156.711933,-6.359874725,0.381244659,-1.981101990,0.058883239,-0.042779483,0.987426281
156.750431,-1.332103729,-4.616008759,-2.164207458,0.037520934,0.034246884,0.974975109
156.764715,-0.019847870,-5.035625458,-0.813804626,0.046798278,-0.012017764,0.993163586
156.780044,-2.316295624,-7.927165985,0.437416077,0.043014098,-0.007745303,1.012816906
156.818599,0.323474884,-17.143474579,3.618873596,-0.012649964,0.219061345,0.992919445
156.857072,4.992664337,-21.774517059,-4.857383728,-0.023025941,0.081366025,1.046386242
156.871349,0.147998810,-12.184368134,-1.485191345,-0.006058167,-0.106744327,1.077514172
156.886807,-3.575145721,-7.370220184,-1.088462830,-0.002884339,-0.125909358,1.075927258
156.887528,-7.870494843,-2.166973114,1.757301331,-0.013992737,-0.045587100,1.039550304
156.888141,-7.870494843,-2.166973114,1.757301331,-0.013992737,-0.045587100,1.039550304
156.888759,-7.870494843,-2.166973114,1.757301331,-0.013992737,-0.045587100,1.039550304
156.889363,-7.870494843,-2.166973114,1.757301331,-0.013992737,-0.045587100,1.039550304
156.927689,1.567066193,9.994281769,-1.294456482,0.011397888,-0.058404483,1.020751476
156.966196,0.025928497,11.604084015,6.701148987,0.018355895,0.119940244,0.958861828
156.980376,10.935962677,4.005207062,6.098426819,0.018600035,0.177191228,0.962035656
156.995883,13.262928009,-0.854717255,7.212318420,0.031905700,0.106268369,0.995604992
157.034332,12.995899200,-23.872600555,6.251014709,0.006515075,0.122503720,0.991088390
157.072808,9.043872833,-28.610454559,5.053199768,-0.021072816,-0.019219913,0.996825695
157.087104,6.465137482,-21.583782196,7.059730530,-0.040848207,0.006414853,0.967895031
157.102568,5.877674103,-17.799602509,5.663551331,-0.045853090,-0.001397647,0.953734875
157.141014,4.840076447,4.104389191,6.937660217,-0.043777894,-0.020684756,0.953856945
157.189974,-2.217113495,14.587177277,2.558387756,-0.008743714,-0.064507999,0.991576672
157.204370,-4.002391815,14.373554230,2.466835022,-0.003738831,-0.054254092,0.993651867
157.219738,-5.520641327,9.277118683,-0.096641541,0.005050232,-0.045953311,0.999145031
157.220493,-5.520641327,9.277118683,-0.096641541,0.005050232,-0.045953311,0.999145031
157.258914,-10.205089569,-1.007305145,-1.469932556,-0.000320862,-0.037774600,0.974730968
157.297379,-8.305370331,-1.022563934,-2.187095642,-0.024612855,-0.021417178,0.962035656
157.311642,-8.778392792,-0.023113251,-0.584922791,-0.030594300,-0.004571475,0.967406750
157.326960,-8.236705780,1.609577179,-2.309165955,-0.036575746,0.016668759,0.965697765
157.365494,-1.507579803,9.361042023,2.176918030,-0.019607972,0.014837705,0.996581554
157.404008,-3.163158417,8.102191925,1.032508850,0.005294372,-0.118463077,1.075194836
157.418176,-6.443798065,3.814472198,2.207435608,0.020919371,-0.088555850,1.045043468
157.433638,-3.361522675,0.259174347,0.986732483,0.018966246,-0.018731631,1.022948742
157.472099,-3.865062714,-7.095561981,-3.209434509,0.002975036,-0.132745296,1.077880383
157.510605,1.696765900,12.161029816,0.795997620,-0.012894104,0.039495908,0.994628429
157.524760,1.086414337,18.409503937,2.627052307,-0.003128479,0.081976376,1.003783703
157.550807,4.389942169,17.303241730,1.215614319,0.001021911,0.164007634,0.984740734
157.589308,10.707080841,1.327289581,0.483192444,0.048263121,0.016790830,1.023070812
157.627724,6.945789337,-15.953289032,-3.575645447,0.038497496,-0.101495303,1.050048351
157.642044,4.031360626,-17.212139130,-3.934226990,0.024093200,-0.084039249,1.031005383
157.657516,1.666248322,-14.297710419,-4.666648865,-0.001419495,0.004950009,0.966308117
157.695976,-0.454723358,4.638446808,-4.147850037,-0.017654847,-0.007379092,0.947143078
157.734392,-0.828563690,20.057453156,0.361122131,0.011886169,0.030584775,0.917113781
157.748685,-0.988780975,19.004596710,-0.790916443,0.023238707,0.030462705,0.921874523
157.764008,-0.553905487,14.030231476,-0.371299744,0.054244567,-0.052911319,0.952514172
157.802526,-4.597484589,-4.387126923,-2.957664490,0.040206481,-0.052545108,0.942382336
157.851782,-5.413829803,-6.645427704,-4.437767029,-0.002884339,0.014593564,0.933104992
157.865983,-4.536449432,-3.746257782,-4.506431580,-0.010574768,0.024481259,0.933715343
157.881442,-5.589305878,3.547443390,-5.223594666,-0.008133362,-0.007623233,0.940917492
157.919922,-4.154979706,10.787738800,-2.034507751,0.002120544,0.143499821,0.917724133
157.968809,3.276050568,-4.196392059,-2.423606873,0.036544371,0.057928525,1.000731945
157.984591,7.914722443,-15.312419891,-2.972923279,0.038009215,0.051702939,1.012694836
157.998887,9.478748322,-19.638286591,-4.239402771,0.040084410,-0.012139834,1.033446789
158.037250,6.915271759,-22.506938934,-4.163108826,-0.018631410,0.093206845,0.994384289
158.075524,12.126148224,-2.777324677,-1.691184998,-0.030350160,0.111639462,0.968261242
158.089913,11.592090607,9.040607452,1.757301331,-0.024979066,0.082830869,0.990355968
158.105267,9.883106232,13.213886261,3.702796936,-0.020828675,0.094061337,0.991576672
158.143769,13.507068634,7.285846710,2.085365295,0.003463318,0.162420720,0.952514172
158.182237,10.638416290,-4.188762665,0.353492737,0.003097107,0.043524228,0.969481945
158.196523,11.294544220,-3.807292938,-0.157676697,-0.015213440,0.067083798,0.948852062
158.211849,13.423145294,-0.549541473,-2.995811462,-0.008377503,-0.026544131,0.947631359
158.212631,13.423145294,-0.549541473,-2.995811462,-0.008377503,-0.026544131,0.947631359
158.213285,13.423145294,-0.549541473,-2.995811462,-0.008377503,-0.026544131,0.947631359
158.213949,13.423145294,-0.549541473,-2.995811462,-0.008377503,-0.026544131,0.947631359
158.214572,13.423145294,-0.549541473,-2.995811462,-0.008377503,-0.026544131,0.947631359
158.215237,13.423145294,-0.549541473,-2.995811462,-0.008377503,-0.026544131,0.947631359
158.215870,13.423145294,-0.549541473,-2.995811462,-0.008377503,-0.026544131,0.947631359
158.254292,9.043872833,13.892902374,0.597633362,-0.017898988,0.049505673,0.961791515
158.255010,9.043872833,13.892902374,0.597633362,-0.017898988,0.049505673,0.961791515
158.255618,9.043872833,13.892902374,0.597633362,-0.017898988,0.049505673,0.961791515
158.293983,4.229724884,11.894001007,2.237953186,0.034713317,0.017645322,0.982177258
158.308156,3.550708771,7.819904327,3.008522034,0.031661559,0.070867978,0.973754406
158.323497,6.312549591,-2.708660126,0.170387268,0.026900817,0.074652158,0.979003429
158.362010,1.475513458,-16.556011200,1.467384338,0.019576598,0.026312314,0.970214367
158.400519,0.407398224,-13.923870087,5.938209534,-0.015579651,0.045599423,0.973266125
158.414681,1.162708282,-12.245403290,5.076087952,-0.024124574,0.066961728,0.971557140
158.430231,2.352893829,-8.804546356,4.709877014,-0.020340394,0.070745908,0.980956554
158.468494,4.779041290,-4.387126923,4.755653381,-0.012894104,0.068304501,1.035277843
158.517474,6.587207794,-6.263957977,3.855384827,0.013839294,-0.008477725,1.093871593
158.531905,5.389392853,-6.035076141,4.656471252,0.020553160,-0.039971866,1.118041515
158.547234,-1.118480682,-5.981670380,6.235755920,0.007003357,0.029364072,1.103026867
158.585778,8.067310333,-4.371868134,4.374183655,-0.008987854,0.142767400,1.061278820
158.624227,5.480945587,2.990497589,4.007972717,-0.020340394,0.175970525,1.063964367
158.650295,7.731616974,7.858051300,1.894630432,0.013106872,0.075994931,1.077636242
158.664493,5.587757111,8.926166534,2.443946838,0.026900817,0.033392392,1.079101086
158.702837,3.283679962,6.385578156,-1.553855896,0.019088317,0.079779111,1.043334484
158.741339,0.178516388,5.515827179,-2.950035095,0.007491638,0.151922673,0.959472179
158.755499,1.353443146,5.973590851,-3.865562439,0.008346130,0.151068181,0.941405773
158.770959,2.833545685,9.307636261,-3.606163025,0.012008240,0.110174619,0.925658703
158.809431,-1.255809784,21.934284210,-1.111351013,0.044356871,0.009344541,0.927001476
158.847936,-1.324474335,21.148456573,0.322975159,0.055831481,0.084906064,0.931273937
158.862090,-2.461254120,17.844928741,0.689186096,0.060592223,0.089422666,0.936278820
158.877628,-2.583324432,10.642780304,0.864662170,0.059493590,0.096380673,0.939696789
158.878354,-2.583324432,10.642780304,0.864662170,0.059493590,0.096380673,0.939696789
158.878996,-2.583324432,10.642780304,0.864662170,0.059493590,0.096380673,0.939696789
158.917191,-2.804576874,-2.304302216,-1.935325623,0.047042418,0.020208798,0.953734875
158.955689,-3.331005096,-3.792034149,0.681556702,0.011153747,0.135443181,0.923217297
158.970011,-1.042186737,-4.242168427,-0.500999451,0.014937927,0.092962705,0.937987804
158.985545,-3.460704803,-2.823101044,1.330055237,0.019332457,0.036566220,0.966796398
159.023983,0.422657013,-4.318462372,1.230873108,-0.011063050,0.244696110,0.940917492
159.062412,4.077136993,-5.371318817,-0.279747009,-0.001785706,0.116644345,0.992919445
159.076783,5.084217072,-0.862346649,0.712074280,0.008590271,0.032904111,1.030272961
159.092113,2.909839630,1.945270538,1.871742249,0.022750426,-0.020074405,1.044921398
159.141250,6.175220490,2.692951202,6.159461975,0.058028746,0.139959782,0.974853039
159.179825,5.633533478,-11.787639618,13.262428284,-0.002396057,0.339666814,0.904540539
159.194015,16.810596466,-20.988689423,9.737648010,-0.036087465,0.412054509,0.898192883
159.209327,17.512500763,-23.224102020,10.019935608,-0.018631410,0.302557439,0.922729015
159.210081,17.512500763,-23.224102020,10.019935608,-0.018631410,0.302557439,0.922729015
159.210734,17.512500763,-23.224102020,10.019935608,-0.018631410,0.302557439,0.922729015
159.249184,20.388782501,-28.213726044,7.715858459,-0.055374574,0.203314275,0.940551281
159.287690,14.559925079,-15.991436005,3.405250549,-0.060989808,0.042425595,0.979369640
159.301876,14.628589630,-10.002361298,3.718055725,-0.060257386,0.042913876,0.974486828
159.317319,12.942493439,2.509845734,2.573646545,-0.077835508,0.045477353,0.984618664
159.355770,7.975757599,29.830707550,-1.111351013,-0.045853090,0.055242978,1.048217297
159.394275,-0.729381561,38.795246124,0.063575745,0.026290465,0.111395322,1.059569836
159.408584,-1.469432831,34.255756378,0.818885803,0.045943785,0.085760556,1.072387218
159.424111,-5.719005585,17.158283234,0.811256409,0.076949649,0.060247861,1.089721203
159.462534,-6.451427460,-20.668254852,1.375831604,0.027267028,0.088568173,1.046630383
159.500979,-11.586009979,-29.632793427,5.068458557,-0.019730043,0.080877744,1.012084484
159.515291,-8.648693085,-28.442607880,5.503334045,-0.056839418,0.220770329,0.970946789
159.530783,-4.978954315,-27.961956024,4.908241272,-0.058060121,0.172674626,0.981688976
159.531512,-4.528820038,-26.642070770,4.358924866,-0.054886293,0.091497861,0.999267101
159.532118,-4.528820038,-26.642070770,4.358924866,-0.054886293,0.091497861,0.999267101
159.532738,-4.528820038,-26.642070770,4.358924866,-0.054886293,0.091497861,0.999267101
159.533339,-4.528820038,-26.642070770,4.358924866,-0.054886293,0.091497861,0.999267101
159.533955,-4.528820038,-26.642070770,4.358924866,-0.054886293,0.091497861,0.999267101
159.534545,-4.528820038,-26.642070770,4.358924866,-0.054886293,0.091497861,0.999267101
159.535182,-4.528820038,-26.642070770,4.358924866,-0.054886293,0.091497861,0.999267101
159.535772,-4.528820038,-26.642070770,4.358924866,-0.054886293,0.091497861,0.999267101
159.536403,-4.528820038,-26.642070770,4.358924866,-0.054886293,0.091497861,0.999267101
159.537003,-4.528820038,-26.642070770,4.358924866,-0.054886293,0.091497861,0.999267101
159.585836,-4.971324921,-8.018718719,4.450477600,-0.077225156,0.182196110,0.980102062
159.624408,-7.275402069,10.726703644,-2.667747498,-0.029861879,-0.040948428,1.018920422
159.638575,-8.679210663,17.211688995,-0.859580994,-0.021805238,-0.025811709,1.007812023
159.654032,-8.221446991,27.076496124,0.010169983,-0.027908754,0.113714658,0.968505383
159.692488,-2.499401093,33.759845734,2.817787170,0.020675231,0.128241032,0.968017101
159.730995,7.174671173,16.959918976,1.696266174,0.000777771,0.278631657,0.925780773
159.745158,10.104358673,10.864032745,-0.256858826,0.008224060,0.206121892,0.940795422
159.760609,9.333789825,3.417743683,-0.836692810,0.021773864,0.023260556,0.974608898
159.809561,6.304920197,-0.831829071,-1.645408630,-0.023148011,0.165838689,0.914306164
159.848093,10.005176544,-4.265056610,-7.001243591,-0.065262266,0.307196110,0.884643078
159.862391,11.950672150,-3.868328094,-10.556541443,-0.044022035,0.187200993,0.892455578
159.877903,11.576831818,-0.824199677,-10.220848083,-0.034256410,0.095404111,0.900268078
159.916369,8.746326447,17.799152374,-9.366355896,-0.016312074,0.044622861,0.922729015
159.954823,-1.545726776,29.380573273,-6.032310486,0.013473083,0.149603337,0.941771984
159.969114,2.574146271,25.596393585,-4.353843689,0.042403746,0.130560368,0.958739758
159.984569,1.338184357,20.789875031,-4.140220642,0.052413512,0.058660947,0.979735851
160.023071,0.178516388,1.685871124,-4.796348572,0.026168395,0.175116032,0.957396984
160.061529,0.704944611,-8.644329071,-6.520591736,0.012862732,0.158148259,0.979857922
160.075869,1.025379181,-9.002910614,-4.445396423,0.005538513,0.188299626,0.985106945
160.091190,0.537097931,-10.742412567,-3.125511169,-0.020218324,0.258978337,0.992187023
160.129679,5.183399200,-12.741313934,-6.787620544,-0.020828675,0.188787907,1.035888195
160.168163,4.031360626,-2.136455536,-3.651939392,-0.025223207,0.155096501,1.068847179
160.182439,3.672779083,-0.442729950,-5.277000427,-0.017410707,0.077948056,1.086547375
160.197907,0.140369415,1.846088409,-4.674278259,-0.008499573,0.135443181,1.075316906
160.198608,0.140369415,1.846088409,-4.674278259,-0.008499573,0.135443181,1.075316906
160.199217,0.140369415,1.846088409,-4.674278259,-0.008499573,0.135443181,1.075316906
160.199833,0.140369415,1.846088409,-4.674278259,-0.008499573,0.135443181,1.075316906
160.200444,0.140369415,1.846088409,-4.674278259,-0.008499573,0.135443181,1.075316906
160.201062,0.140369415,1.846088409,-4.674278259,-0.008499573,0.135443181,1.075316906
160.201659,0.140369415,1.846088409,-4.674278259,-0.008499573,0.135443181,1.075316906
160.202282,0.140369415,1.846088409,-4.674278259,-0.008499573,0.135443181,1.075316906
160.202884,0.140369415,1.846088409,-4.674278259,-0.008499573,0.135443181,1.075316906
160.203500,0.140369415,1.846088409,-4.674278259,-0.008499573,0.135443181,1.075316906
160.204100,0.140369415,1.846088409,-4.674278259,-0.008499573,0.135443181,1.075316906
160.204715,0.140369415,1.846088409,-4.674278259,-0.008499573,0.135443181,1.075316906
160.205316,0.140369415,1.846088409,-4.674278259,-0.008499573,0.135443181,1.075316906
160.243686,10.699451447,-3.044353485,-4.201255798,-0.021927308,0.343084782,1.053832531
160.282154,10.783374786,-10.078655243,1.116432190,0.000899841,0.217474431,1.113646984
160.296449,8.135974884,-15.487895966,2.520240784,0.008590271,0.188299626,1.119140148
160.311905,6.266773224,-19.027935028,3.763832092,0.002608825,0.219305485,1.107787609
160.350374,-1.271068573,-24.368511200,2.955116272,-0.032791566,0.093939267,1.079711437
160.388869,-2.064525604,-12.367473602,0.284828186,-0.068314023,0.201361150,0.983764172
160.403058,-1.721202850,-7.217632294,0.559486389,-0.066971250,0.172430485,0.984618664
160.428999,-7.489025116,10.299457550,-1.378379822,-0.048172425,0.089178525,0.995116711
160.467573,-11.799633026,25.718463898,0.483192444,-0.017044496,0.169256657,0.978026867
160.505989,-9.877025604,10.963214874,-0.104270935,0.037643004,0.093695126,1.027831554
160.520310,-12.348949432,4.386676788,-1.294456482,0.049117614,0.035833798,1.037475109
160.535778,-16.011058807,-6.508098602,1.650489807,0.049483825,0.044989072,1.016967297
160.584867,-12.036144257,-18.379436493,3.542579651,-0.025589418,0.112127744,1.010985851
160.623362,-14.874279022,-12.176738739,5.526222229,-0.040481996,0.151678532,1.013671398
160.637644,-12.715160370,-9.605632782,7.044471741,-0.039871644,0.208441228,1.012328625
160.652964,-9.350597382,-8.980022430,6.220497131,-0.043167543,0.185247868,1.035399914
160.691519,-17.857372284,-6.019817352,4.824317932,-0.011429260,0.014959775,1.088134289
160.729980,-10.350048065,-8.613811493,0.818885803,-0.050857972,0.258734196,0.996215343
160.744268,-9.716808319,-7.126079559,1.764930725,-0.046829652,0.144598454,1.013793468
160.759717,-10.578929901,-5.455242157,1.116432190,-0.049271058,0.116766416,1.006713390
160.798146,-6.291210175,7.842792511,-1.408897400,-0.026810121,0.007879697,0.978148937
160.836633,-4.696666718,24.688495636,0.376380920,0.009810974,-0.006402530,1.016601086
160.850795,-6.825267792,25.024188995,1.276649475,0.022140075,0.010443173,1.027953625
160.866298,-8.938610077,17.425312042,-0.684104919,0.039351989,0.100286923,1.008178234
160.867027,-8.938610077,17.425312042,-0.684104919,0.039351989,0.100286923,1.008178234
160.867661,-8.938610077,17.425312042,-0.684104919,0.039351989,0.100286923,1.008178234
160.868307,-8.938610077,17.425312042,-0.684104919,0.039351989,0.100286923,1.008178234
160.906619,-4.689037323,-6.065593719,-7.794700623,0.027389098,0.078924619,1.007934093
160.945053,-12.203990936,-4.158245087,-4.666648865,0.010909607,0.009466611,0.996093273
160.959330,-13.645946503,-1.999126434,-5.086265564,0.013228943,0.019598447,0.981688976
160.985325,-14.912425995,7.652057648,-2.263389587,0.002486755,0.093084775,0.952880383
161.023870,-20.535289764,18.348468781,-1.706443787,0.027511168,0.016790830,1.005004406
161.062358,-21.267711639,12.138141632,-1.569114685,0.078292422,0.031561337,1.006469250
161.088451,-21.771251678,2.151264191,0.689186096,0.078658633,0.017889462,1.027099133
161.102672,-23.655712128,-10.963665009,-0.241600037,0.063643984,0.087957822,1.004516125
161.141029,-17.231761932,-28.610454559,2.077735901,-0.005203675,0.220282048,0.970336437
161.179541,-15.957653046,-29.464946747,-2.347312927,-0.029495668,0.182318181,0.991820812
161.193708,-16.697704315,-21.461711884,-0.615440369,-0.015091370,0.010687314,0.993651867
161.209155,-18.482982635,-16.365276337,-0.409446716,-0.006180237,-0.035821475,0.986449718
161.247601,-16.339122772,3.852619171,4.275001526,-0.004471253,-0.014703311,0.956054211
161.286105,-9.259044647,2.174152374,3.084815979,0.032882262,0.026556455,0.904052258
161.300274,-3.262340546,-2.319561005,3.718055725,0.038375426,0.045477353,0.882323742
161.315751,0.819385529,-5.607830048,4.542030334,0.055221129,0.002996884,0.892577648
161.354195,3.558338165,-20.866619110,8.135475159,-0.009964417,0.151312321,0.895141125
161.392673,4.237354279,-25.512920380,3.611244202,-0.025955629,0.011175595,0.886840343
161.406997,2.711475372,-22.384868622,5.243934631,-0.025589418,-0.032037295,0.879516125
161.422496,3.886402130,-15.274272919,3.863014221,-0.036941957,-0.031915225,0.853759289
161.460979,0.392139435,5.012287140,1.558937073,-0.008499573,-0.199029475,0.864501476
161.461705,0.392139435,5.012287140,1.558937073,-0.008499573,-0.199029475,0.864501476
161.462307,0.392139435,5.012287140,1.558937073,-0.008499573,-0.199029475,0.864501476
161.462926,0.392139435,5.012287140,1.558937073,-0.008499573,-0.199029475,0.864501476
161.463520,0.392139435,5.012287140,1.558937073,-0.008499573,-0.199029475,0.864501476
161.464128,0.392139435,5.012287140,1.558937073,-0.008499573,-0.199029475,0.864501476
161.464712,0.392139435,5.012287140,1.558937073,-0.008499573,-0.199029475,0.864501476
161.465463,0.392139435,5.012287140,1.558937073,-0.008499573,-0.199029475,0.864501476
161.466055,0.392139435,5.012287140,1.558937073,-0.008499573,-0.199029475,0.864501476
161.466626,0.392139435,5.012287140,1.558937073,-0.008499573,-0.199029475,0.864501476
161.467258,0.392139435,5.012287140,1.558937073,-0.008499573,-0.199029475,0.864501476
161.467827,0.392139435,5.012287140,1.558937073,-0.008499573,-0.199029475,0.864501476
161.527398,-1.316844940,24.314655304,3.016151428,0.007369568,-0.082940616,0.916625500
161.542927,-0.393688202,19.469989777,2.169288635,0.028853942,-0.080499209,0.917846203
161.557249,0.346363068,14.617694855,2.085365295,0.040084410,-0.087091006,0.926391125
161.595648,-0.065624237,-9.460674286,1.253761292,0.011642029,-0.047784366,0.961181164
161.634160,-2.369701385,-17.997966766,0.948585510,0.000533630,-0.179132015,0.978148937
161.648458,-2.980052948,-12.069927216,4.358924866,-0.021927308,-0.031060733,0.948363781
161.663994,-0.813304901,-7.736431122,5.480445862,-0.026443910,-0.061700381,0.966796398
161.702404,-6.497203827,5.790485382,7.471717834,-0.016556215,-0.024224795,0.955688000
161.751366,3.398120880,6.286396027,3.420509338,0.002730896,-0.092217959,0.991698742
161.765741,1.162708282,6.095661163,4.900611877,0.017013121,-0.147882015,1.002685070
161.781068,9.753406525,3.555072784,10.180152893,-0.005203675,-0.060845889,1.043944836
161.819595,5.923450470,-11.505352020,1.452125549,-0.010452698,-0.118218936,1.115966320
161.858095,6.686389923,-12.115703583,-3.125511169,-0.057083558,0.012884580,1.096923351
161.872266,5.534351349,-10.978923798,-7.680259705,-0.054764222,0.048284970,1.100219250
161.887587,2.864063263,5.187763214,-5.620323181,-0.034744691,-0.006768741,1.106444836
161.926128,-11.540233612,48.255695343,3.168739319,0.014083435,0.067572080,1.076903820
161.964614,-10.144054413,39.352191925,2.718605042,0.030807067,0.081854306,1.044921398
161.978776,-6.970226288,17.699970245,-3.476463318,0.068893008,-0.048150577,1.011229992
161.994110,-6.016551971,5.485309601,-3.835044861,0.062545352,-0.049127139,0.991332531
162.032641,0.788867950,-22.903667450,-7.176719666,0.040206481,-0.081719913,0.949828625
162.071131,2.658069611,-13.862834930,-2.080284119,-0.001907776,0.018255673,0.866698742
162.085300,5.480945587,-9.475933075,-3.148399353,0.008346130,-0.017388858,0.852904797
162.100749,7.319629669,-8.857952118,-4.475914001,0.018355895,-0.029717959,0.854125500
162.101455,7.319629669,-8.857952118,-4.475914001,0.018355895,-0.029717959,0.854125500
162.102085,7.319629669,-8.857952118,-4.475914001,0.018355895,-0.029717959,0.854125500
162.102854,7.319629669,-8.857952118,-4.475914001,0.018355895,-0.029717959,0.854125500
162.103478,7.319629669,-8.857952118,-4.475914001,0.018355895,-0.029717959,0.854125500
162.104084,7.319629669,-8.857952118,-4.475914001,0.018355895,-0.029717959,0.854125500
162.104729,7.319629669,-8.857952118,-4.475914001,0.018355895,-0.029717959,0.854125500
