time,gyro x,gyro y,gyro z,accel x,accel y,accel z
105.129222,6.648242950,21.163715363,-6.787620544,-0.050857972,-0.115533389,0.899535656
105.168022,4.054248810,26.733173370,-4.857383728,-0.040726136,-0.088922061,0.959472179
105.182357,0.926197052,26.237262726,4.168190002,-0.012649964,-0.097222842,1.021117687
105.197724,0.086963654,19.523395538,4.259742737,0.000045349,-0.157159358,1.035766125
105.236282,4.527271271,4.081501007,-7.466636658,0.052657653,-0.096856631,1.092284679
105.274730,5.717456818,-8.964763641,6.266273499,-0.078690000,-0.001641788,0.983642101
105.289028,14.315784454,-7.759319305,-1.515708923,-0.115433164,-0.012017764,0.983764172
105.304362,7.624805450,5.836261749,5.472816467,-0.053055238,-0.160089046,1.056273937
105.342886,5.953968048,5.393756866,5.335487366,-0.070633359,-0.108819522,1.016356945
105.343628,5.953968048,5.393756866,5.335487366,-0.070633359,-0.108819522,1.016356945
105.344257,5.953968048,5.393756866,5.335487366,-0.070633359,-0.108819522,1.016356945
105.344917,5.953968048,5.393756866,5.335487366,-0.070633359,-0.108819522,1.016356945
105.345536,5.953968048,5.393756866,5.335487366,-0.070633359,-0.108819522,1.016356945
105.383951,-2.163707733,0.137104034,1.124061584,-0.076492734,-0.172051936,1.095946789
105.398124,-8.229076385,-0.549541473,2.375282288,-0.090042539,-0.183648616,1.076659679
105.413614,-7.534801483,-8.506999969,-4.445396423,-0.094437070,-0.037286319,1.002807140
105.452043,-6.718456268,5.805744171,-0.424705505,-0.065384336,0.003485166,1.059447765
105.490499,-8.061229706,8.567584991,5.831398010,-0.110184141,-0.027764834,0.975707531
105.504669,2.619922638,7.980121613,-3.789268494,-0.121658750,-0.030206241,0.960448742
105.520159,-2.514659882,30.303730011,-0.424705505,-0.158890203,-0.091363467,0.948241711
105.558601,1.391590118,51.048053741,9.775794983,-0.121414609,-0.198419124,1.070678234
105.597071,-5.146800995,22.216571808,-5.673728943,-0.121902891,-0.145074397,1.101562023
105.611345,-12.844860077,12.779010773,-5.940757751,-0.062332582,-0.101129092,1.066649914
105.626870,-11.769115448,10.970844269,-4.811607361,-0.088089414,-0.032281436,1.054198742
105.665359,-2.941905975,0.396503448,-4.933677673,-0.042190980,0.009710751,1.031859875
105.666091,-2.941905975,0.396503448,-4.933677673,-0.042190980,0.009710751,1.031859875
105.666685,-2.941905975,0.396503448,-4.933677673,-0.042190980,0.009710751,1.031859875
105.667324,-2.941905975,0.396503448,-4.933677673,-0.042190980,0.009710751,1.031859875
105.667931,-2.941905975,0.396503448,-4.933677673,-0.042190980,0.009710751,1.031859875
105.668551,-2.941905975,0.396503448,-4.933677673,-0.042190980,0.009710751,1.031859875
105.669148,-3.086864471,-3.608928680,-2.461753845,-0.044510316,-0.032403506,1.031981945
105.669771,-3.086864471,-3.608928680,-2.461753845,-0.044510316,-0.032403506,1.031981945
105.670364,-3.086864471,-3.608928680,-2.461753845,-0.044510316,-0.032403506,1.031981945
105.670981,-3.086864471,-3.608928680,-2.461753845,-0.044510316,-0.032403506,1.031981945
105.671667,-3.086864471,-3.608928680,-2.461753845,-0.044510316,-0.032403506,1.031981945
105.672274,-3.086864471,-3.608928680,-2.461753845,-0.044510316,-0.032403506,1.031981945
105.672867,-3.086864471,-3.608928680,-2.461753845,-0.044510316,-0.032403506,1.031981945
105.673497,-3.086864471,-3.608928680,-2.461753845,-0.044510316,-0.032403506,1.031981945
105.674085,-3.086864471,-3.608928680,-2.461753845,-0.044510316,-0.032403506,1.031981945
105.674714,-3.086864471,-3.608928680,-2.461753845,-0.044510316,-0.032403506,1.031981945
105.675315,-3.086864471,-3.608928680,-2.461753845,-0.044510316,-0.032403506,1.031981945
105.713628,-3.971874237,-14.549480438,2.535499573,-0.118362851,-0.146295100,1.022216320
105.727964,-4.048168182,-19.493328094,1.169837952,-0.122757383,-0.157769710,1.018188000
105.743291,-1.225292206,-24.292217255,-1.469932556,-0.128616765,-0.136041194,1.023559093
105.781805,-5.467235565,-18.150554657,-2.164207458,-0.122024961,-0.122247256,1.002074718
105.820186,-5.299388885,-11.100994110,-2.415977478,-0.152664617,-0.118951358,0.988646984
105.834492,-5.535900116,-6.881938934,-3.156028748,-0.141800359,-0.153497249,0.986815929
105.849809,-8.091747284,0.770343781,-4.193626404,-0.206131414,-0.171075374,1.015746593
105.909164,-9.541332245,22.788776398,-6.612144470,-0.167068914,-0.180596858,0.971313000
105.947642,2.459705353,-24.673686981,-9.946189880,0.025680114,-0.121392764,0.878051281
105.961933,3.176868439,-33.653484344,-9.869895935,0.044601012,-0.209405452,0.906981945
105.977439,1.048267365,-44.845806122,-7.008872986,0.005538513,-0.191339046,0.888793468
106.015863,7.830799103,-52.017436981,-7.115684509,-0.007645081,-0.133721858,0.831420422
106.054349,9.761035919,-37.155376434,-2.324424744,-0.045853090,-0.185967952,0.865478039
106.068512,7.586658478,-22.308574677,-3.560386658,-0.056106996,-0.268121272,0.874511242
106.084006,6.564319611,-15.342937469,-3.712974548,-0.060257386,-0.275933772,0.870604992
106.122500,5.831897736,11.100543976,-8.794151306,-0.025467347,-0.213433772,0.911376476
106.160935,4.298389435,15.289081573,-12.044273376,0.049117614,-0.257745296,0.974364758
106.175279,3.337085724,9.727252960,-13.554893494,0.065108828,-0.198419124,0.978759289
106.190608,4.191577911,0.404132843,-8.115135193,0.078292422,-0.126763850,0.964232922
106.229114,11.332691193,-13.832317352,-5.803428650,0.049239684,-0.118829288,0.970824718
106.267503,2.940357208,-3.563152313,4.625953674,0.051436950,-0.178033382,1.032592297
106.281837,1.536548615,-3.669963837,4.892982483,0.049727965,-0.205132991,1.011840343
106.297285,7.838428497,-14.755474091,-3.796897888,0.038619567,-0.181573421,0.996093273
106.335761,8.204639435,-10.208354950,-2.667747498,0.045455504,-0.099420108,1.050170422
106.374222,-0.851451874,-6.416545868,2.161659241,0.066451602,-0.169122249,1.060302258
106.388397,7.212818146,-10.101543427,-3.072105408,0.097823672,-0.206231624,1.112548351
106.403845,-0.653087616,-6.721721649,5.304969788,0.094893984,-0.299493343,1.126464367
106.442325,-4.803478241,3.715290070,7.120765686,0.052901793,-0.347833186,1.018065929
106.480751,-1.866161346,6.789936066,-5.017601013,0.039596129,-0.290338069,1.023070812
106.495039,-10.998546600,26.794208527,3.588356018,0.054244567,-0.212823421,0.980346203
106.510378,-9.732067108,32.211078644,3.428138733,0.061690856,-0.195123225,0.957641125
106.548929,-8.969127655,35.331501007,10.386146545,0.141646907,-0.109307803,1.018432140
106.587397,-7.275402069,4.035724640,13.659156799,0.094527774,-0.282525569,0.984130383
106.601570,-2.987682343,-10.200725555,9.188331604,0.057174254,-0.224908382,0.966186047
106.617044,2.886951447,-29.426799774,3.763832092,0.019088317,-0.251519710,0.978515148
106.665984,-1.644908905,-36.209331512,5.205787659,-0.008133362,-0.253594905,1.018310070
106.704486,-5.078136444,-23.056255341,2.512611389,-0.011307190,-0.168267757,0.976317883
106.718832,-7.969676971,-14.579998016,7.616676331,-0.013626526,-0.155572444,0.954589367
106.734165,-4.605113983,-4.234539032,6.861366272,-0.016067933,-0.182916194,0.941405773
106.772690,0.422657013,9.116901398,5.571998596,-0.027786683,-0.142510921,0.901732922
106.811109,7.052600861,19.126667023,4.740394592,-0.027786683,-0.154107600,0.912841320
106.825436,13.949573517,28.129352570,0.460304260,-0.010940979,-0.215875179,1.031249523
106.840881,8.113086700,36.498798370,6.411231995,-0.011063050,-0.226495296,1.070922375
106.879372,-0.225841522,43.441547394,8.074440002,0.000777771,-0.202203304,1.111449718
106.917835,-1.812755585,14.510883331,3.687538147,0.051681090,-0.174615413,1.140990734
106.932122,-6.085216522,-3.265605927,8.173622131,0.054000426,-0.173028499,1.118285656
106.947449,-3.857433319,-14.892803192,6.258644104,0.035079528,-0.079888858,1.097899914
106.986000,-6.573497772,-32.432781219,8.684791565,0.008101990,0.016790830,1.096923351
106.986742,-6.573497772,-32.432781219,8.684791565,0.008101990,0.016790830,1.096923351
106.987356,-6.573497772,-32.432781219,8.684791565,0.008101990,0.016790830,1.096923351
106.987967,-6.573497772,-32.432781219,8.684791565,0.008101990,0.016790830,1.096923351
106.988569,-6.573497772,-32.432781219,8.684791565,0.008101990,0.016790830,1.096923351
106.989191,-6.573497772,-32.432781219,8.684791565,0.008101990,0.016790830,1.096923351
106.989793,-6.573497772,-32.432781219,8.684791565,0.008101990,0.016790830,1.096923351
107.038629,2.703845978,-26.024089813,4.748023987,-0.026565980,-0.103936709,1.063476086
107.052826,2.215564728,-8.629070282,8.433021545,-0.046463441,-0.087335147,1.071898937
107.068315,-1.782238007,5.607379913,11.316932678,-0.056961488,-0.086602725,1.051269054
107.106727,-5.955516815,41.557086945,9.607948303,-0.005569885,-0.118218936,1.065429211
107.145160,-7.908641815,23.048175812,15.299476624,0.066451602,-0.151177913,1.036010265
107.159328,-5.551158905,7.011188507,13.956703186,0.063521914,-0.206475765,1.018676281
107.174830,2.711475372,-31.723247528,2.657569885,0.033980895,-0.201592952,0.986815929
107.213332,2.597034454,-55.183635712,2.878822327,-0.019974183,-0.049249209,1.005614758
107.251692,-3.712474823,-36.583171844,5.564369202,-0.036575746,0.065618955,0.931273937
107.266048,-3.849803925,-28.381572723,8.783973694,-0.029007386,0.080755673,0.906615734
107.281482,-1.545726776,-13.809429169,11.774696350,-0.018509340,-0.001519717,0.885375500
107.319951,5.648792267,-0.129924774,11.019386292,-0.024002504,-0.153985530,0.863036633
107.320685,5.648792267,-0.129924774,11.019386292,-0.024002504,-0.153985530,0.863036633
107.321286,5.648792267,-0.129924774,11.019386292,-0.024002504,-0.153985530,0.863036633
107.321919,5.648792267,-0.129924774,11.019386292,-0.024002504,-0.153985530,0.863036633
107.322513,5.648792267,-0.129924774,11.019386292,-0.024002504,-0.153985530,0.863036633
107.323126,5.648792267,-0.129924774,11.019386292,-0.024002504,-0.153985530,0.863036633
107.361377,11.996448517,7.362140656,8.448280334,-0.043411683,-0.176568538,0.888915539
107.375694,12.423694611,9.376300812,6.815589905,-0.038406800,-0.216729671,0.913695812
107.391004,10.485828400,14.770282745,5.388893127,-0.044998597,-0.163629085,0.946898937
107.391788,10.485828400,14.770282745,5.388893127,-0.044998597,-0.163629085,0.946898937
107.392459,10.485828400,14.770282745,5.388893127,-0.044998597,-0.163629085,0.946898937
107.393117,10.485828400,14.770282745,5.388893127,-0.044998597,-0.163629085,0.946898937
107.393755,10.485828400,14.770282745,5.388893127,-0.044998597,-0.163629085,0.946898937
107.442658,4.161060333,23.566974640,6.197608948,-0.019119691,-0.124810733,0.986693859
107.481208,7.556140900,7.690204620,2.794898987,0.016280700,-0.095757999,1.039062023
107.495372,7.006824493,2.181781769,4.114784241,0.019454528,-0.100396670,1.061645031
107.510869,5.000293732,-11.093364716,2.062477112,0.020553160,-0.112359561,1.086059093
107.549346,3.802478790,-18.356548309,-0.676475525,-0.029739808,0.022283994,1.070556164
107.587801,-2.186595917,2.425922394,7.311500549,-0.005936096,-0.033990420,1.083983898
107.601969,-1.942455292,2.792133331,6.548561096,0.004561950,-0.042047061,1.085937023
107.617502,-1.011669159,1.189960480,3.695167542,0.010543396,-0.051446475,1.086547375
107.655790,-0.828563690,10.253681183,5.701698303,0.003097107,-0.098321475,1.066894054
107.694283,-1.919567108,1.289142609,5.694068909,0.084518008,-0.064019717,1.034911633
107.708653,4.214466095,-8.003459930,6.090797424,0.085128359,0.045111142,1.013915539
107.724115,5.908191681,-11.490093231,6.266273499,0.084151797,0.061224423,0.997313976
107.724826,5.908191681,-11.490093231,6.266273499,0.084151797,0.061224423,0.997313976
107.725423,5.908191681,-11.490093231,6.266273499,0.084151797,0.061224423,0.997313976
107.763796,16.543567657,-9.369121552,8.341468811,0.038741637,0.064520322,1.021728039
107.802051,8.174121857,5.950702667,14.597572327,0.030074645,-0.089776553,1.061156750
107.816442,7.144153595,0.312580109,10.912574768,0.030807067,-0.078546084,1.047118664
107.831810,8.822620392,-5.073772430,7.586158752,0.037032653,-0.087823428,1.061278820
107.870287,6.159961700,-23.575054169,6.327308655,0.033736754,-0.125665218,1.033202648
107.908758,7.289112091,-34.370647430,-2.484642029,-0.010696839,-0.000176944,1.014159679
107.923052,5.244434357,-28.640972137,-0.844322205,-0.002884339,-0.062921084,1.026122570
107.938358,-2.751171112,-14.747844696,3.779090881,-0.015335510,-0.076104678,1.011229992
107.976882,-8.732616425,4.058612823,2.161659241,0.020186950,-0.083306827,0.958251476
108.025845,-6.283580780,26.450885773,2.169288635,0.024703551,-0.114190616,0.907104015
108.040057,-5.162059784,27.351154327,3.534950256,0.044112731,-0.132134944,0.923949718
108.055551,-5.238353729,19.805683136,0.361122131,0.081954531,-0.170342952,0.958739758
108.093976,-1.988231659,0.221027374,-2.499900818,0.041183043,-0.074639834,0.966063976
108.144605,-1.652538300,-5.859600067,-3.140769958,0.044967223,-0.133355647,1.020507336
108.159033,-3.376781464,-6.263957977,-2.835594177,0.039474059,-0.112725772,1.015258312
108.174355,-2.476512909,-8.011089325,-3.743492126,0.041183043,-0.099175967,1.010131359
108.212862,-0.637828827,-9.170757294,-5.933128357,0.018111754,-0.068902530,1.026366711
108.251120,-3.384410858,-2.769695282,-6.818138123,0.002242615,-0.076837100,1.032104015
108.265490,-5.673229218,4.806293488,-7.932029724,0.001510193,-0.111138858,1.015014172
108.280863,-6.871044159,8.338703156,-7.626853943,0.018966246,-0.132867366,1.005370617
108.319372,-5.299388885,6.767047882,-7.069908142,0.106002383,-0.103570499,0.960448742
108.357839,5.725086212,-11.535869598,-8.412681580,0.098678164,-0.019830264,0.949462414
108.372010,7.220447540,-9.063945770,-4.315696716,0.058517028,0.051702939,0.943603039
108.387315,7.510364532,-4.768596649,-3.339134216,0.050948668,0.036810361,0.942138195
108.388053,7.510364532,-4.768596649,-3.339134216,0.050948668,0.036810361,0.942138195
108.388701,7.510364532,-4.768596649,-3.339134216,0.050948668,0.036810361,0.942138195
108.427120,3.115833282,13.557209015,1.551307678,0.043624450,-0.060967959,0.954467297
108.465611,2.131641388,9.765399933,4.542030334,0.113082461,-0.071343936,0.964599133
108.479764,3.474414825,2.128376007,5.205787659,0.118575625,-0.094537295,0.969481945
108.495101,4.443347931,-15.861736298,1.841224670,0.100509219,-0.086358584,0.969970226
108.533628,5.587757111,-23.155437469,2.230323792,0.032027770,-0.072808780,0.968505383
108.572129,1.567066193,-11.734233856,2.253211975,0.023971129,-0.130303890,0.994994640
108.586292,0.994861603,-8.140789032,1.032508850,0.021407653,-0.104669131,0.992919445
108.601791,-2.598583221,3.707660675,2.810157776,0.019942809,-0.102105655,0.996581554
108.640217,-5.833446503,20.377887726,6.197608948,0.059737731,-0.115777530,0.988646984
108.640937,-5.833446503,20.377887726,6.197608948,0.059737731,-0.115777530,0.988646984
108.641561,-5.833446503,20.377887726,6.197608948,0.059737731,-0.115777530,0.988646984
108.642195,-5.833446503,20.377887726,6.197608948,0.059737731,-0.115777530,0.988646984
108.642807,-5.833446503,20.377887726,6.197608948,0.059737731,-0.115777530,0.988646984
108.681194,-4.544078827,5.805744171,5.770362854,0.091598086,-0.048638858,1.027709484
108.695352,-5.146800995,0.518573761,5.289710999,0.083297305,-0.060235538,1.032226086
108.721445,-3.376781464,-10.528789520,5.526222229,0.053145934,-0.043389834,1.017089367
108.770454,1.528919220,-16.708599091,4.412330627,0.012252380,-0.073663272,1.037597179
108.809021,3.054798126,-4.234539032,1.909889221,-0.029495668,-0.097344913,1.048095226
108.823186,1.712024689,0.732196808,-0.775657654,-0.028274965,-0.162042171,1.056640148
108.838519,-0.996410370,6.927265167,-2.751670837,-0.029251527,-0.150933772,1.053832531
108.877034,-6.413280487,31.028522491,-3.087364197,0.011886169,-0.036187686,1.009521008
108.915546,1.330554962,29.334796906,-3.178916931,0.061934996,0.161322087,0.988158703
108.929708,3.665149689,26.695026398,-0.661216736,0.073287539,0.042791806,1.002929211
108.945171,2.558887482,23.734821320,1.383460999,0.087569766,-0.038751163,1.008666515
108.983640,3.665149689,-6.080852509,0.376380920,0.090011172,-0.109796084,0.971435070
109.022131,10.684192657,-36.827312469,-5.452476501,0.028609801,-0.082940616,0.926635265
109.036294,12.156665802,-38.208232880,-6.062828064,0.003951599,-0.057427920,0.930175304
109.051800,10.440052032,-31.646953583,-7.626853943,-0.018631410,-0.052911319,0.931151867
109.090288,4.298389435,3.875507355,-4.620872498,-0.019119691,-0.120660342,0.973998547
109.128777,-4.299938202,33.813251495,-2.980552673,0.029220153,-0.129205257,1.001464367
109.143067,-7.397472382,35.629047394,-1.813255310,0.051803160,-0.131158382,1.000121593
109.169123,-6.382762909,26.382221222,-1.035057068,0.093429141,-0.103326358,1.004271984
109.207662,-5.337535858,-5.775676727,-4.140220642,0.102950625,-0.095757999,1.014037609
109.246130,-4.071056366,-22.186504364,-5.444847107,0.070479922,-0.027520694,1.025268078
109.260422,-5.276500702,-21.545635223,-4.117332458,0.052535582,-0.074029483,1.020629406
109.275753,-5.520641327,-19.355998993,-4.575096130,0.038985778,-0.076715030,1.019652843
109.314277,-7.633983612,-2.472148895,-2.644859314,0.029830504,-0.080377139,1.038451672
109.363253,-3.613292694,3.570331573,-3.087364197,0.034713317,-0.090386905,1.033446789
109.377484,-2.011119843,4.470600128,-5.391441345,0.014937927,-0.135797054,1.042968273
109.392981,-2.049266815,7.232440948,-7.176719666,0.001143982,-0.110406436,1.036010265
109.431473,-2.163707733,27.114643097,-4.544578552,0.023482848,-0.076592959,1.027953625
109.469931,5.107105255,17.501605988,-1.019798279,0.084518008,-0.023492374,1.032226086
109.484197,6.365955353,9.238971710,-1.462303162,0.075484805,-0.039849795,1.034301281
109.499671,10.218799591,-5.600200653,-3.407798767,0.046309996,-0.062432803,1.031493664
109.538151,6.129444122,-18.104778290,-3.972373962,0.015792418,-0.072442569,1.031371593
109.576599,-2.331554413,-12.443767548,-0.508628845,0.043624450,-0.039605655,0.974364758
109.590942,-3.025829315,-11.970745087,0.750221252,0.054000426,-0.026544131,0.950927258
109.606423,-2.072154999,-13.855205536,1.101173401,0.070357852,-0.003106631,0.917357922
109.644883,2.024829865,-17.196880341,3.924049377,0.051681090,0.013617001,0.885863781
109.683359,1.544178009,-7.484661102,5.961097717,0.011886169,-0.074151553,0.879516125
109.697647,0.605762482,-0.549541473,6.609596252,0.016158629,-0.182305843,0.904540539
109.713100,-1.759349823,1.930011749,6.884254456,0.019454528,-0.199639827,0.911376476
109.713809,-2.667247772,3.440631866,6.273902893,0.017745543,-0.172296077,0.910277843
109.714413,-2.667247772,3.440631866,6.273902893,0.017745543,-0.172296077,0.910277843
109.715019,-2.667247772,3.440631866,6.273902893,0.017745543,-0.172296077,0.910277843
109.753356,-3.514110565,3.906024933,4.885353088,0.039107848,-0.141046077,0.951781750
109.791802,-1.507579803,-4.425273895,3.229774475,0.041549254,-0.006158389,0.969237804
109.806090,0.590503693,-6.118999481,3.542579651,0.025802184,0.020819150,0.984984875
109.821401,0.155628204,-5.539165497,4.046119690,0.025435973,-0.031549014,0.995238781
109.859932,0.178516388,-6.126628876,4.435218811,0.027877379,-0.028253116,1.007812023
109.898425,3.588855743,-9.491191864,1.185096741,0.012618591,-0.008721866,1.056151867
109.912579,2.322376251,-2.662883759,4.069007874,0.007979919,-0.113946475,1.051391125
109.928020,4.748523712,-0.953899384,0.895179749,-0.003250550,-0.085870303,1.055907726
109.966483,2.497852325,4.394306183,-4.979454041,0.005904724,-0.119683780,1.055175304
110.015433,5.786121368,17.623676300,-4.689537048,0.029464293,0.152655095,1.038573742
110.029794,4.336536407,23.582233429,-3.178916931,0.026656676,0.173284978,1.035033703
110.045280,3.817737579,34.782184601,0.437416077,0.032760192,0.129705876,1.038451672
110.083757,-1.576244354,30.326618195,5.343116760,0.094161563,-0.111627139,1.038939953
110.122257,0.971973419,-21.255718231,0.399269104,0.117110781,-0.080499209,0.982421398
110.136556,4.420459747,-33.844219208,0.017799377,0.093673281,-0.058526553,0.975707531
110.152046,7.670581818,-48.446880341,-2.400718689,0.052291442,-0.028741397,0.969481945
110.190514,4.794300079,-39.612041473,-4.445396423,-0.013382385,-0.060479678,0.959960461
110.228986,-3.590404510,-7.210002899,-0.752769470,-0.018509340,-0.111016788,0.952147961
110.243274,-8.702098846,15.746845245,-0.729881287,0.000167419,-0.110284366,0.949218273
110.258760,-11.006175995,24.925006866,0.422157288,0.019820739,-0.131646663,0.949706554
110.297247,-16.003429413,36.483539581,3.069557190,0.094161563,-0.106744327,0.936034679
110.335700,-10.113536835,9.277118683,-1.721702576,0.144820735,-0.042291202,0.912353039
110.350000,-2.392589569,-7.522808075,-3.224693298,0.129928157,0.007391416,0.927855968
110.365463,-1.065074921,-12.291179657,-1.714073181,0.112594180,-0.019830264,0.941161633
110.414398,2.421558380,0.022663116,2.268470764,0.036666442,-0.052178897,0.995238781
110.452908,2.703845978,16.776813507,5.823768616,0.028487731,-0.122735538,1.072265148
110.467210,1.322925568,16.822589874,5.022682190,0.025435973,-0.150323421,1.083861828
110.482676,3.405750275,11.535419464,0.590003967,0.015182068,-0.128839046,1.090819836
110.521173,2.741992950,0.449909210,-1.752220154,-0.000931214,-0.121392764,1.090941906
110.559628,4.756153107,-14.404521942,-8.641563416,0.015059997,-0.084161319,1.070312023
110.573806,4.336536407,-13.672100067,-7.573448181,0.009688904,-0.034966983,1.059569836
110.589236,4.786670685,-10.215984344,-5.208335876,0.016646910,0.013494931,1.046142101
110.627705,3.100574493,-2.418743134,-4.903160095,0.017745543,-0.028497256,1.030272961
110.676688,-5.017101288,17.852558136,1.619972229,0.053512145,-0.041802920,0.996215343
110.691045,-5.909740448,18.073810577,3.901161194,0.099166445,-0.017632999,0.971068859
110.706561,-5.245983124,13.412250519,6.045021057,0.121749453,-0.030938663,0.960326672
110.745037,1.254261017,-20.714031219,7.677711487,0.092208438,-0.020928897,0.921752453
110.783460,4.779041290,-33.294902802,5.350746155,0.019454528,-0.104547061,0.913817883
110.797756,2.139270782,-27.916179657,4.023231506,0.016891051,-0.167535335,0.929198742
110.813236,-0.019847870,-22.682415009,6.884254456,0.015304138,-0.155938655,0.929931164
110.851685,-6.451427460,-1.838909149,8.440650940,0.017501403,-0.113824405,0.933715343
110.890130,-5.383312225,2.303852081,7.509864807,0.054244567,-0.066949405,0.942870617
110.904458,-4.277050018,0.877155304,7.342018127,0.055831481,-0.042657413,0.945678234
110.919784,-0.492870331,-3.990398407,5.816139221,0.051314879,-0.040582217,0.964599133
110.958300,-0.889598846,-4.936443329,4.061378479,-0.006058167,-0.074151553,1.017577648
110.996750,-2.812206268,8.003009796,3.191627502,-0.002518128,-0.057427920,1.040893078
111.011040,-2.728282928,8.865131378,2.154029846,0.007125427,-0.047051944,1.047851086
111.026498,-2.423107147,6.492389679,2.100624084,0.019454528,-0.073052920,1.058837414
111.064976,0.987232208,-3.662334442,-4.323326111,0.005904724,-0.131280452,1.026977062
111.103439,5.381763458,-5.180583954,-9.229026794,0.006270935,0.002996884,0.998290539
111.117599,7.342517853,0.541461945,-9.702049255,0.013595154,0.116644345,0.994994640
111.133059,7.052600861,7.217182159,-7.756553650,0.005172302,0.160467595,0.997558117
111.171528,2.574146271,40.572895050,1.078285217,0.028731871,-0.011529483,1.013183117
111.220470,0.811756134,15.983356476,-2.484642029,0.125533625,-0.180840999,0.999877453
111.236141,3.985584259,-11.429058075,-4.475914001,0.117843203,-0.057672061,0.967040539
111.250467,6.793201447,-21.553264618,-3.987632751,0.101851992,-0.059136905,0.964110851
111.288756,7.655323029,-29.022441864,-5.574546814,0.045455504,-0.054986514,0.953368664
111.327199,2.307117462,1.136554718,-1.080833435,0.028731871,-0.092950381,0.944579601
111.341517,-0.401317596,10.322345734,-0.783287048,0.026412535,-0.087823428,0.942870617
111.356831,-2.842723846,26.244892120,1.993812561,0.040816832,-0.056451358,0.945434093
111.395322,-5.116283417,29.319538116,6.624855042,0.134688899,-0.109063663,0.991332531
111.433687,0.552356720,-17.425762177,1.749671936,0.118331484,-0.047051944,0.994506359
111.459794,1.177967072,-29.564128876,0.460304260,0.063277774,-0.056817569,1.011107922
111.474145,2.940357208,-31.646953583,-2.377830505,0.024825621,-0.054498233,1.016723156
111.512493,0.765979767,-7.774578094,-0.806175232,-0.015823793,-0.046929874,1.025146008
111.550974,-5.268871307,20.454181671,0.376380920,-0.017044496,-0.081231631,1.046142101
111.565136,-6.810009003,33.653034210,1.520790100,-0.002762268,-0.117242374,1.049804211
111.580560,-7.061779022,35.941852570,0.147499084,0.016402770,-0.125543147,1.052978039
111.619039,-4.353343964,21.713031769,0.109352112,0.069869570,-0.074151553,1.029662609
111.657499,3.916919708,-15.983806610,-1.797996521,0.088058047,-0.048394717,1.009643078
111.671792,8.853137970,-31.654582977,-3.613792419,0.046676207,0.033148251,0.991820812
111.697790,9.989917755,-36.270366669,-2.858482361,0.010055115,0.011541806,0.986449718
111.736285,5.839527130,-14.915691376,0.727333069,-0.017288636,0.007635556,0.960814953
111.774733,-0.325023651,5.904926300,5.205787659,0.021163512,-0.003106631,0.932006359
111.789050,-0.202953339,5.683673859,4.595436096,0.031051207,-0.027154483,0.920531750
111.804364,2.513111115,0.678791046,2.489723206,0.046920348,-0.070489444,0.909179211
111.842857,9.486377716,-5.981670380,-0.027976990,0.017135192,-0.015069522,0.909423351
111.881245,5.007923126,-1.297222137,1.719154358,-0.000565003,-0.133111507,0.967040539
111.895516,4.450977325,-1.091228485,-0.295005798,-0.002762268,-0.136773616,0.981322765
111.910834,-0.172435760,0.732196808,1.368202209,0.000655700,-0.148858577,0.990600109
111.949324,-0.057994843,0.900043488,-1.721702576,0.023482848,-0.076959170,1.022826672
111.987772,-2.423107147,7.224811554,-1.187644958,0.017989684,-0.038140811,1.048827648
112.001924,-6.481945038,11.787189484,2.756752014,0.025069762,-0.026544131,1.046874523
112.017380,-5.055248260,12.229694366,1.177467346,0.023360778,-0.006768741,1.046630383
112.055828,-11.189281464,10.825885773,5.381263733,0.034957457,-0.106744327,1.064940929
112.094285,-5.703746796,-12.268291473,2.253211975,0.040694762,-0.045465030,1.060790539
112.108470,-1.759349823,-20.683513641,1.780189514,0.022018004,0.008734189,1.051269054
112.123908,0.399768829,-23.903118134,2.329505920,0.017379332,-0.043511905,1.054320812
112.162391,4.977405548,-28.457866669,-3.278099060,-0.029739808,-0.100762881,1.049438000
112.200860,10.081470490,-7.232891083,-10.220848083,-0.051834535,0.017034970,1.043700695
112.237387,3.459156036,46.851886749,-6.238304138,-0.042923402,0.143621892,1.053344250
112.252890,1.208484650,59.234394073,-3.224693298,-0.024124574,0.118597470,1.068236828
112.291403,-3.506481171,58.013690948,0.376380920,0.086226992,-0.084527530,1.071288586
112.329843,4.527271271,-4.272686005,-7.321678162,0.140548274,-0.061212100,1.017943859
112.344118,6.587207794,-20.332561493,-8.710227966,0.119796328,-0.080499209,1.012084484
112.359445,11.767566681,-35.850749969,-12.738548279,0.053390075,0.040350400,1.004394054
112.360216,11.767566681,-35.850749969,-12.738548279,0.053390075,0.040350400,1.004394054
112.360881,11.767566681,-35.850749969,-12.738548279,0.053390075,0.040350400,1.004394054
112.361550,11.767566681,-35.850749969,-12.738548279,0.053390075,0.040350400,1.004394054
112.362169,11.767566681,-35.850749969,-12.738548279,0.053390075,0.040350400,1.004394054
112.362831,11.767566681,-35.850749969,-12.738548279,0.053390075,0.040350400,1.004394054
112.363457,11.767566681,-35.850749969,-12.738548279,0.053390075,0.040350400,1.004394054
112.364213,11.767566681,-35.850749969,-12.738548279,0.053390075,0.040350400,1.004394054
112.364858,11.767566681,-35.850749969,-12.738548279,0.053390075,0.040350400,1.004394054
112.365487,11.767566681,-35.850749969,-12.738548279,0.053390075,0.040350400,1.004394054
112.366130,11.767566681,-35.850749969,-12.738548279,0.053390075,0.040350400,1.004394054
112.366764,11.141956329,-35.415874481,-11.777244568,0.041060973,-0.008843936,1.015258312
112.367421,11.141956329,-35.415874481,-11.777244568,0.041060973,-0.008843936,1.015258312
112.368050,11.141956329,-35.415874481,-11.777244568,0.041060973,-0.008843936,1.015258312
112.368707,11.141956329,-35.415874481,-11.777244568,0.041060973,-0.008843936,1.015258312
112.407067,1.994312286,-6.393657684,-4.445396423,0.009566833,-0.141290218,1.021361828
112.445548,-8.404552460,22.125019073,-3.178916931,0.016402770,-0.122857608,1.015380383
112.459707,-16.018688202,36.742938995,-1.729331970,0.048385192,-0.135797054,0.999877453
112.475200,-18.383800507,40.298236847,-0.912986755,0.063766055,-0.108087100,0.983153820
112.513666,-14.935314178,18.523944855,-4.201255798,0.144942805,-0.106500186,0.966796398
112.514397,-14.935314178,18.523944855,-4.201255798,0.144942805,-0.106500186,0.966796398
112.515028,-14.935314178,18.523944855,-4.201255798,0.144942805,-0.106500186,0.966796398
112.515670,-14.073192596,7.140888214,-2.286277771,0.162520930,-0.101861514,0.963988781
112.564543,-5.551158905,-23.330913544,-0.378929138,0.078048281,0.026434384,0.945189953
112.578870,-2.705394745,-20.683513641,-1.263938904,0.043624450,0.012762509,0.946776867
112.594369,-0.683605194,-16.708599091,-1.576744080,0.031539489,0.013128720,0.960692883
112.632823,-4.521190643,9.322895050,8.288063049,0.021041442,-0.118096866,1.011840343
112.671267,-1.110851288,3.433002472,6.739295959,0.021041442,-0.104669131,1.055663586
112.685593,-1.591503143,-3.341899872,4.168190002,-0.003738831,-0.184869319,1.050658703
112.700925,-0.782787323,-5.974040985,3.634132385,-0.011917542,-0.169000179,1.046020031
112.739408,1.773059845,-18.921123505,-0.890098572,-0.018753480,-0.129815608,1.007323742
112.777869,5.824268341,-28.885112762,-5.078636169,-0.022659730,-0.025323428,0.975707531
112.792179,7.960498810,-28.633342743,-5.673728943,-0.030838441,0.010443173,0.963988781
112.807507,9.379566193,-24.399028778,-7.741294861,-0.035232972,0.032049619,0.963134289
112.846017,2.520740509,5.889667511,-2.797447205,-0.032547425,-0.012506045,0.948852062
112.846732,2.520740509,5.889667511,-2.797447205,-0.032547425,-0.012506045,0.948852062
112.885073,-4.376232147,23.414386749,-0.272117615,0.043258239,-0.041436709,0.922729015
112.899269,-3.842174530,22.224201202,2.527870178,0.069259219,0.010931455,0.908690929
112.925248,1.490772247,7.102741241,1.810707092,0.096480899,0.033880673,0.900023937
112.963822,8.837879181,-12.352214813,2.375282288,0.034102965,0.026678525,0.924315929
113.002268,6.060779572,-6.210552216,6.571449280,0.002364685,-0.063775577,0.965575695
113.016588,2.696216583,-1.899944305,6.220497131,0.000533630,-0.178277522,0.999877453
113.032081,0.399768829,-0.457988739,5.304969788,-0.000931214,-0.167413265,1.006103039
113.070574,-4.666149139,10.879291534,5.938209534,-0.000809143,-0.090142764,1.017211437
113.109093,-5.551158905,2.998126984,4.519142151,0.040084410,-0.043145694,1.032592297
113.123271,-4.391490936,-5.798564911,5.175270081,0.032638121,-0.022027530,1.036376476
113.138703,-3.613292694,-9.124980927,4.305519104,0.024947692,-0.023004092,1.035888195
113.177183,-5.726634979,-14.435039520,5.915321350,-0.004349182,-0.122735538,1.048339367
113.215697,-3.208934784,-19.096599579,2.405799866,-0.017044496,-0.056207217,1.034301281
113.230009,-2.278148651,-18.310771942,1.467384338,-0.024734925,-0.076470889,1.026000500
113.245343,-0.447093964,-15.358196259,0.582374573,-0.024368715,-0.184869319,1.008666515
113.283878,5.786121368,-8.285747528,-7.466636658,-0.029007386,-0.019830264,0.970824718
113.322377,9.295642853,24.108661652,-7.680259705,-0.029129457,0.227117985,0.975219250
113.336670,8.677661896,35.316242218,-4.323326111,-0.018753480,0.195257634,0.993529797
113.352160,5.343616486,52.512897491,-2.766929626,0.002730896,0.067694150,1.023559093
113.352880,5.343616486,52.512897491,-2.766929626,0.002730896,0.067694150,1.023559093
113.353491,5.343616486,52.512897491,-2.766929626,0.002730896,0.067694150,1.023559093
113.354107,5.343616486,52.512897491,-2.766929626,0.002730896,0.067694150,1.023559093
113.354820,5.343616486,52.512897491,-2.766929626,0.002730896,0.067694150,1.023559093
113.355431,5.343616486,52.512897491,-2.766929626,0.002730896,0.067694150,1.023559093
113.356036,5.343616486,52.512897491,-2.766929626,0.002730896,0.067694150,1.023559093
113.356666,5.343616486,52.512897491,-2.766929626,0.002730896,0.067694150,1.023559093
113.357273,5.343616486,52.512897491,-2.766929626,0.002730896,0.067694150,1.023559093
113.357911,5.343616486,52.512897491,-2.766929626,0.002730896,0.067694150,1.023559093
113.358513,5.343616486,52.512897491,-2.766929626,0.002730896,0.067694150,1.023559093
113.359153,5.343616486,52.512897491,-2.766929626,0.002730896,0.067694150,1.023559093
113.359766,5.343616486,52.512897491,-2.766929626,0.002730896,0.067694150,1.023559093
113.360407,3.627002716,58.120502472,-1.820884705,0.019332457,0.015692197,1.034545422
113.361009,3.627002716,58.120502472,-1.820884705,0.019332457,0.015692197,1.034545422
113.361650,3.627002716,58.120502472,-1.820884705,0.019332457,0.015692197,1.034545422
113.362259,3.627002716,58.120502472,-1.820884705,0.019332457,0.015692197,1.034545422
113.411190,-1.629650116,35.690082550,-0.340782166,0.121383242,-0.167657405,1.034789562
113.449681,5.198657990,-10.513530731,-3.125511169,0.088912539,-0.049371280,0.983153820
113.463990,8.120716095,-25.406108856,-3.423057556,0.033248473,-0.039605655,0.983031750
113.479457,7.968128204,-29.121623993,-5.360923767,0.013351013,-0.024346866,0.985473156
113.517905,2.047718048,-21.431194305,-3.270469666,-0.001663635,-0.077691592,1.000731945
113.556402,-6.176769257,9.223712921,1.459754944,0.000289490,-0.100152530,0.994506359
113.582483,-13.188182831,20.980609894,2.161659241,0.045943785,-0.168756038,0.993896008
113.596809,-15.240489960,19.500507355,1.887001038,0.066451602,-0.155938655,0.981933117
113.635143,-10.510265350,-2.670513153,0.940956116,0.107223086,-0.072320499,0.947021008
113.673606,-0.813304901,-24.437175751,-0.378929138,0.045821715,0.024725400,0.949584484
113.687881,1.101673126,-23.788677216,-0.424705505,0.030807067,0.022528134,0.973021984
113.703389,-1.576244354,-14.587627411,2.169288635,-0.001053284,-0.061456241,1.008910656
113.741827,-3.956615448,4.890216827,2.619422913,-0.027786683,-0.192681819,1.047851086
113.780311,-3.865062714,15.182270050,-0.958763123,-0.026565980,-0.118341006,1.054442883
113.794606,-2.941905975,16.700519562,-2.095542908,-0.026810121,-0.104669131,1.050536633
113.810064,-2.362071991,19.256366730,-1.729331970,-0.016312074,-0.118341006,1.048949718
113.848523,1.033008575,13.648761749,-1.080833435,0.036910582,-0.065850772,1.042968273
113.887006,6.900012970,-13.351665497,1.276649475,0.047042418,-0.033135928,1.034057140
113.901340,8.296192169,-20.149456024,1.764930725,0.035567809,-0.059869327,1.033202648
113.916656,9.005725861,-25.886760712,1.124061584,0.016036559,-0.070367374,1.027099133
113.955178,4.473865509,-25.711284637,2.001441956,-0.036331605,-0.095147647,1.008910656
113.993654,-0.622570038,-8.384929657,1.520790100,-0.024124574,-0.029595889,0.946776867
114.007930,-1.904308319,0.274433136,5.091346741,-0.011795471,0.020452939,0.917846203
114.023231,-0.843822479,2.898944855,6.334938049,0.002120544,0.014349423,0.924071789
114.023970,-0.843822479,2.898944855,6.334938049,0.002120544,0.014349423,0.924071789
114.024706,-0.843822479,2.898944855,6.334938049,0.002120544,0.014349423,0.924071789
114.025353,-0.843822479,2.898944855,6.334938049,0.002120544,0.014349423,0.924071789
114.025976,-0.843822479,2.898944855,6.334938049,0.002120544,0.014349423,0.924071789
114.026607,-1.370250702,3.021015167,6.624855042,0.018477965,-0.031671084,0.929687023
114.064949,-0.355541229,-4.341350555,5.602516174,0.023971129,-0.006036319,0.925170422
114.103426,1.010120392,-18.966899872,4.709877014,0.009078552,-0.089898624,0.930541515
114.117565,0.712574005,-24.788127899,1.978553772,-0.004227112,-0.141778499,0.944945812
114.133035,-0.004589081,-25.703655243,0.506080627,-0.010940979,-0.135430843,0.944823742
114.171505,-1.789867401,-11.986003876,2.016700745,-0.033768129,-0.086480655,0.934813976
114.220471,-3.819286346,17.600788116,0.925697327,-0.051834535,0.003851376,0.992797375
114.234846,-4.406749725,31.051410675,1.787818909,-0.035232972,-0.050103702,1.020751476
114.250333,-5.818187714,34.614337921,1.139320374,-0.015335510,-0.131646663,1.042724133
114.288795,-9.518444061,22.552265167,-3.201805115,0.069869570,-0.100030459,1.054564953
114.327264,6.167591095,-2.205120087,-3.957115173,0.049850035,0.003851376,1.041015148
114.341528,5.641162872,-3.593669891,-2.477012634,0.042159606,-0.092950381,1.055419445
114.356994,5.824268341,-1.419292450,-4.956565857,0.000167419,-0.111382999,1.042113781
114.357713,5.824268341,-1.419292450,-4.956565857,0.000167419,-0.111382999,1.042113781
114.358320,5.824268341,-1.419292450,-4.956565857,0.000167419,-0.111382999,1.042113781
114.396705,3.695667267,15.937580109,-3.804527283,0.018477965,-0.041192569,1.022582531
114.435169,3.123462677,34.438861847,0.986732483,0.047530700,0.170111150,1.019408703
114.449462,3.665149689,38.253559113,4.618324280,0.058761168,0.191595525,1.014770031
114.464770,3.710926056,37.338031769,10.721839905,0.085616641,-0.013726749,1.035521984
114.513758,5.191028595,-13.168560028,6.800331116,0.097579531,-0.190118343,0.996093273
114.552310,9.829700470,-41.496501923,5.137123108,0.041793395,-0.080255069,0.984740734
114.566479,11.294544220,-46.928630829,1.513160706,-0.006546448,0.004827939,0.984130383
114.581956,10.981739044,-44.349895477,2.688087463,-0.015457581,0.013494931,0.987548351
114.620405,3.878772736,-18.287883759,7.677711487,-0.050247621,-0.068658389,0.984252453
114.658888,-6.390392303,12.649311066,6.167091370,-0.040115785,-0.102349795,0.990233898
114.673237,-9.686290741,21.522296906,6.067909241,-0.023636293,-0.101007022,0.988646984
114.688559,-11.463939667,23.315204620,5.297340393,-0.014969300,-0.100152530,0.981200695
114.689338,-11.463939667,23.315204620,5.297340393,-0.014969300,-0.100152530,0.981200695
114.690009,-11.463939667,23.315204620,5.297340393,-0.014969300,-0.100152530,0.981200695
114.728449,-11.418163300,12.275470734,0.178016663,0.028853942,-0.087945499,0.968871593
114.766873,-5.787670135,-7.843242645,-0.172935486,0.022628356,-0.010186709,0.983397961
114.781192,-5.184947968,-10.605083466,-0.264488220,0.014571716,-0.031060733,0.986327648
114.796649,-4.154979706,-12.199626923,-1.302085876,-0.010818909,-0.087823428,1.001098156
114.845610,-6.375133514,2.128376007,-0.813804626,-0.021439027,-0.117486514,1.008788586
114.884139,-4.330455780,5.157245636,-4.407249451,0.008712341,-0.131158382,0.981444836
114.898416,-2.720653534,5.012287140,-5.582176208,0.011519958,-0.130792171,0.966430187
114.913743,2.162158966,4.897846222,-6.718955994,0.024337340,-0.113214053,0.946776867
114.952265,8.624256134,8.781208038,-3.094993591,0.050216246,0.004950009,0.943603039
114.990816,15.055835724,14.007343292,5.922950745,0.045943785,0.036200009,0.980956554
115.004989,14.796436310,13.778461456,8.120216370,0.038741637,0.014837705,0.998046398
115.020472,13.743579865,7.583393097,9.493507385,0.030929137,-0.025323428,1.021117687
115.021195,13.743579865,7.583393097,9.493507385,0.030929137,-0.025323428,1.021117687
115.059494,10.020435333,-8.323894501,10.813392639,0.012252380,-0.066339053,1.041503429
115.098013,8.227527618,-30.288921356,8.135475159,-0.020462465,-0.041192569,1.013061047
115.112173,7.670581818,-37.529216766,5.366004944,-0.036453675,-0.012750186,0.997313976
115.127669,8.418262482,-38.978801727,4.442848206,-0.044754457,0.000067197,0.989501476
115.166182,6.091297150,-27.488933563,1.291908264,-0.086990781,-0.048394717,0.970946789
115.204658,-1.683055878,9.040607452,0.887550354,-0.068924375,-0.048394717,0.961547375
115.218990,-3.796398163,22.933734894,0.391639709,-0.038528871,-0.060601749,0.972777843
115.234326,-5.139171600,27.488483429,0.475563049,-0.028274965,-0.059381045,0.975829601
115.272847,-5.856334686,27.862323761,-1.836143494,0.018722106,-0.057305850,0.984252453
115.311296,-0.157176971,5.103839874,-2.797447205,0.026412535,0.025335751,1.008422375
115.325599,1.277149200,0.037921906,-2.599082947,0.026778746,-0.000299014,1.025146008
115.341067,-0.180065155,-6.889568329,-1.118980408,0.017257262,-0.054009952,1.047118664
115.379529,-0.515758514,-11.757122040,-2.583824158,-0.005814026,0.027899228,1.041381359
115.418043,-0.920116425,-2.739177704,-0.386558533,-0.020218324,-0.066949405,1.033690929
115.432205,-0.241100311,-0.587688446,-1.866661072,-0.021072816,-0.088189639,1.029418468
115.458129,0.422657013,1.495136261,-4.659019470,0.000777771,-0.080743350,1.009521008
115.496667,7.762134552,2.021564484,-7.504783630,0.006881286,0.111395322,1.003173351
115.535208,9.242237091,26.481403351,-2.866111755,-0.018509340,0.175970525,1.023314953
115.549374,5.641162872,39.314044952,1.314796448,0.006026794,0.031439267,1.048827648
115.564809,2.917469025,42.121662140,2.550758362,0.019576598,-0.029229678,1.053466320
115.603272,-0.225841522,18.989337921,4.130043030,0.079024844,-0.144097835,1.061278820
115.641804,7.098377228,-28.389202118,-3.049217224,0.050094176,-0.020318545,1.039306164
115.656094,7.914722443,-38.742290497,-3.110252380,0.012130310,-0.000299014,1.034545422
115.671567,7.662952423,-39.474712372,-4.903160095,-0.006546448,-0.000787295,1.039428234
115.710019,-1.210033417,-22.812114716,-0.531517029,-0.036453675,-0.052789249,1.034545422
115.759011,-11.051952362,7.194293976,-1.164756775,-0.036087465,-0.052789249,0.995604992
115.783748,-12.364208221,12.389911652,-1.675926208,-0.018631410,-0.086602725,0.986815929
115.799482,-13.577281952,11.207355499,-3.697715759,-0.004837464,-0.051568545,0.964965343
115.837977,-7.702648163,-4.623638153,-7.085166931,0.009444763,0.070867978,0.965453625
115.876463,-6.878673553,-8.568035126,-7.497154236,-0.025223207,-0.024102725,0.999755383
115.890764,-6.901561737,-6.500469208,-8.199058533,-0.029983949,-0.049493350,1.000487804
115.906246,-8.000194550,-3.372417450,-8.298240662,-0.022537660,-0.149590999,1.013061047
115.944693,-8.084117889,-4.120098114,-9.435020447,-0.020340394,-0.084893741,1.011718273
115.983206,-5.940258026,-10.505901337,-12.204490662,-0.020096254,-0.044366397,0.981933117
115.997533,-3.231822968,-14.679180145,-12.158714294,-0.013870667,-0.096734561,0.998656750
116.012898,-4.238903046,-16.113506317,-12.715660095,-0.023636293,-0.088922061,0.982787609
116.013816,-1.545726776,-17.540203094,-16.202293396,-0.031326722,-0.046685733,0.965331554
116.014476,-1.545726776,-17.540203094,-16.202293396,-0.031326722,-0.046685733,0.965331554
116.015112,-1.545726776,-17.540203094,-16.202293396,-0.031326722,-0.046685733,0.965331554
116.015763,-1.545726776,-17.540203094,-16.202293396,-0.031326722,-0.046685733,0.965331554
116.016407,-1.545726776,-17.540203094,-16.202293396,-0.031326722,-0.046685733,0.965331554
116.054785,2.619922638,-6.981121063,-16.293846130,-0.036209535,0.058783017,0.934569836
116.055508,2.619922638,-6.981121063,-16.293846130,-0.036209535,0.058783017,0.934569836
116.056140,2.619922638,-6.981121063,-16.293846130,-0.036209535,0.058783017,0.934569836
116.056775,2.619922638,-6.981121063,-16.293846130,-0.036209535,0.058783017,0.934569836
116.057391,2.619922638,-6.981121063,-16.293846130,-0.036209535,0.058783017,0.934569836
116.058029,2.619922638,-6.981121063,-16.293846130,-0.036209535,0.058783017,0.934569836
116.058636,2.619922638,-6.981121063,-16.293846130,-0.036209535,0.058783017,0.934569836
116.059277,2.619922638,-6.981121063,-16.293846130,-0.036209535,0.058783017,0.934569836
116.059903,2.619922638,-6.981121063,-16.293846130,-0.036209535,0.058783017,0.934569836
116.060543,2.619922638,-6.981121063,-16.293846130,-0.036209535,0.058783017,0.934569836
116.109401,2.993762970,23.689044952,-11.899314880,-0.015335510,0.037786923,0.957763195
116.123756,2.474964142,28.396381378,-11.227928162,0.023360778,-0.043756045,0.975219250
116.139272,0.582874298,28.564228058,-11.807762146,0.034102965,-0.023004092,0.977904797
116.177797,0.292957306,16.982807159,-5.872093201,0.092696719,0.026556455,0.958495617
116.216277,10.302722931,-18.966899872,-7.222496033,0.063643984,0.008612119,0.954467297
116.230585,10.142505646,-23.300395966,-7.123313904,0.051436950,-0.032769717,0.968871593
116.246074,7.929981232,-25.963054657,-8.160911560,0.006881286,-0.034356631,0.970580578
116.284529,1.750171661,-16.044841766,-4.323326111,-0.010330628,-0.110284366,0.985106945
116.323020,-3.788768768,-2.899394989,-3.873191833,-0.007034729,-0.129083186,0.996337414
116.337301,-5.001842499,-0.473247528,-4.399620056,-0.005814026,-0.113824405,0.988524914
116.352757,-3.819286346,0.716938019,-7.336936951,0.005538513,-0.095513858,0.988402843
116.391238,-5.276500702,7.926715851,-9.267173767,0.005660583,-0.006768741,0.985839367
116.429698,-8.641063690,22.155536652,-5.917869568,0.019698668,-0.024835147,0.986449718
116.444000,-10.044872284,26.656879425,-5.292259216,0.056197692,-0.108453311,1.003783703
116.459331,-12.547313690,27.023090363,-3.232322693,0.068282656,-0.103936709,0.998168468
116.497900,-4.673778534,3.745807648,-6.284080505,0.086959414,0.032171689,0.993896008
116.536413,-0.103771210,-11.772380829,-5.032859802,0.042892028,-0.099298038,1.010009289
116.550575,2.398670197,-14.953838348,-4.216514587,0.030929137,-0.083062686,0.994018078
116.566034,2.696216583,-15.915142059,-5.673728943,0.023238707,-0.070977725,0.984740734
116.604507,6.533802032,-4.547344208,-4.308067322,0.002852966,0.181219548,0.967284679
116.642999,7.922351837,11.695636749,0.582374573,0.003463318,0.030340634,0.999999523
116.669057,6.198108673,13.862384796,0.307716370,0.008346130,-0.086846866,1.011840343
116.683450,5.236804962,7.224811554,0.353492737,0.031417418,-0.135919124,1.014159679
116.732225,10.249317169,-38.788066864,-8.290611267,0.022872496,-0.032769717,1.021239758
116.770784,8.082569122,-34.569011688,-7.123313904,-0.038528871,0.018255673,1.005126476
116.785128,7.624805450,-28.656230927,-4.918418884,-0.041824769,-0.015313663,1.009887218
116.800451,3.504932404,-15.945659637,-5.215965271,-0.044144105,-0.087823428,1.026610851
116.838996,-4.597484589,10.406269073,-4.773460388,-0.048294496,-0.056085147,1.033202648
116.877480,-7.588207245,12.603534698,-6.902061462,-0.030472230,-0.087945499,1.052489758
116.891793,-9.640514374,4.142536163,-7.870994568,-0.022903871,-0.095391788,1.055053234
116.907114,-9.442150116,-2.250896454,-10.678611755,-0.025223207,-0.080010928,1.051269054
116.945652,-7.214366913,-24.162517548,-18.323265076,-0.055984925,0.050482236,1.029174328
116.984146,-10.472118378,-10.521160126,-20.016990662,-0.109940000,-0.025445499,1.052001476
116.998308,-15.980541229,3.974689484,-16.621910095,-0.075760312,-0.107232608,1.057982922
117.013763,-17.491161346,6.042255402,-17.468772888,-0.060379457,-0.109063663,1.059325695
117.052240,-15.347301483,-6.004558563,-25.250755310,-0.042190980,-0.104180850,1.051024914
117.090716,-13.996898651,-13.283000946,-28.157554626,-0.028763246,-0.077691592,0.977050304
117.104885,-14.431774139,-14.549480438,-26.662193298,-0.024490785,-0.049127139,0.955810070
117.120401,-8.457958221,-20.523296356,-29.164634705,-0.007767151,0.019110166,0.912353039
117.158881,9.066761017,-41.374431610,-27.821861267,-0.029129457,0.029119931,0.891845226
117.197355,18.771350861,-39.352642059,-30.766807556,-0.143997625,-0.048760928,0.989379406
117.211637,16.886890411,-30.822978973,-33.902488708,-0.154861882,-0.088311709,1.015746593
117.237638,3.756702423,4.752887726,-33.803306580,-0.157181218,-0.120904483,1.067870617
117.276238,-6.184398651,26.725543976,-39.647422791,-0.066605039,-0.026666202,1.044188976
117.314641,-7.855236053,30.204547882,-41.806541443,-0.028152894,-0.013848819,1.032470226
117.328987,-6.542980194,25.062335968,-41.898094177,-0.019119691,0.027288876,1.034057140
117.344319,-4.360973358,23.002399445,-44.843040466,-0.019363832,0.063909970,1.053344250
117.382823,-9.510814667,17.730487823,-42.783103943,0.004317810,-0.049005069,1.077636242
117.431742,-14.187633514,-3.250347137,-49.649559021,0.005904724,-0.076104678,1.052001476
117.445964,-15.133678436,-1.762615204,-49.229942322,-0.000076721,-0.061090030,1.030395031
117.461432,-16.712963104,1.350177765,-48.459373474,0.002364685,-0.057183780,1.025512218
117.499919,-19.505321503,15.197528839,-48.444114685,0.013473083,0.072699033,0.973632336
117.538398,-19.963085175,33.752216339,-41.081748962,0.043136168,0.045843564,0.952758312
117.552569,-17.842113495,34.202350616,-40.761314392,0.059981871,-0.011773624,0.957396984
117.568097,-17.605602264,27.679218292,-41.074119568,0.077071719,-0.052178897,0.961181164
117.606537,-8.702098846,2.715839386,-44.041954041,0.078780703,0.017401181,0.959472179
117.644970,1.002490997,-18.387065887,-45.285545349,0.054000426,-0.115777530,0.949950695
117.659268,2.795398712,-23.338542938,-46.819053650,0.048629332,-0.137261897,0.949706554
117.674788,5.183399200,-28.160320282,-49.130760193,0.022018004,-0.076837100,0.941283703
117.713243,10.638416290,-11.734233856,-53.632102966,-0.011185120,0.119574033,0.952880383
117.751645,2.711475372,25.489582062,-45.567832947,-0.009842346,0.075384580,0.994262218
117.766027,-2.117931366,49.911273956,-38.518272400,0.021163512,-0.044000186,1.004394054
117.781351,-4.559337616,55.343402863,-38.411460876,0.050094176,-0.140801936,1.015258312
117.819860,0.582874298,28.465045929,-44.598899841,0.130660579,-0.142510921,1.006103039
117.858272,6.892383575,-10.437236786,-43.065391541,0.066695742,-0.041680850,0.994140148
117.872632,7.167041779,-20.843730927,-41.714988708,0.050338317,-0.053765811,1.002563000
117.887960,7.495105743,-24.406658173,-43.614707947,0.029464293,-0.055718936,1.007445812
117.937028,-0.294506073,-16.037212372,-40.936790466,-0.019730043,-0.147149593,1.009521008
117.975542,-6.802379608,-7.026897430,-44.049583435,-0.022781800,-0.119073428,1.002318859
117.989696,-8.892833710,-4.799114227,-43.607078552,-0.022171449,-0.118707217,0.993529797
118.005176,-11.624156952,-2.540813446,-44.316612244,-0.013748596,-0.122857608,0.963988781
118.043588,-5.924999237,-9.521709442,-49.649559021,0.010177185,-0.017144717,0.916381359
118.082031,-2.690135956,-3.669963837,-46.956382751,-0.010086487,-0.016412295,0.963744640
118.096189,-2.079784393,-2.678142548,-49.092613220,-0.008133362,-0.067681827,0.974486828
118.111660,-2.392589569,-2.037273407,-47.398887634,0.002242615,-0.140313655,1.006469250
118.150113,-2.537548065,-8.636699677,-52.388511658,-0.018875550,-0.127130061,1.018920422
118.188562,-2.507030487,-6.416545868,-54.318748474,-0.025955629,-0.123467959,0.988158703
118.214662,-2.194225311,-1.983867645,-56.386314392,-0.006668518,-0.032037295,0.967162609
118.229016,-1.774608612,0.854267120,-54.051719666,0.003829529,-0.014581241,0.951659679
118.267345,7.891834259,6.660236359,-50.076805115,0.028609801,-0.085137881,0.949340343
118.305813,13.781726837,4.951251984,-51.854454041,0.005416443,-0.081964053,0.992553234
118.320106,10.501087189,15.365375519,-45.056663513,-0.005447815,-0.071832217,1.018432140
118.335428,10.287464142,20.248188019,-42.493186951,-0.011673401,-0.059625186,1.032592297
118.336211,10.287464142,20.248188019,-42.493186951,-0.011673401,-0.059625186,1.032592297
118.336859,10.287464142,20.248188019,-42.493186951,-0.011673401,-0.059625186,1.032592297
118.375280,2.482593536,16.433490753,-40.860496521,0.036422301,-0.110772647,1.073119640
118.413744,2.856433868,-10.940776825,-37.602745056,0.047896910,-0.008721866,1.018310070
118.428050,5.412281036,-19.424663544,-40.303550720,0.037765075,-0.044000186,1.014281750
118.443374,7.136524200,-28.633342743,-42.203269958,0.014693786,-0.046685733,1.034911633
118.481881,-1.004039764,-9.414897919,-37.282310486,-0.033523988,-0.117730655,1.042113781
118.520385,-8.625804901,11.199726105,-40.387474060,-0.012283753,-0.093316592,1.046874523
118.534557,-11.700450897,16.349567413,-37.701927185,0.006515075,-0.171075374,1.049926281
118.550056,-16.018688202,21.537555695,-37.869773865,0.025069762,-0.133355647,1.022704601
118.588461,-8.450328827,14.198078156,-41.592918396,0.078536563,-0.115899600,1.032104015
118.626936,-7.595836639,10.535968781,-39.105735779,0.069503359,-0.026177920,1.020385265
118.641106,-8.663951874,9.574665070,-33.948265076,0.091964297,-0.048272647,1.041503429
118.656596,-10.418712616,8.895648956,-31.468711853,0.086593203,-0.031793155,1.035644054
118.695056,-8.175670624,5.279315948,-29.362998962,0.069015078,-0.002984561,1.036986828
118.695779,-8.175670624,5.279315948,-29.362998962,0.069015078,-0.002984561,1.036986828
118.696398,-8.175670624,5.279315948,-29.362998962,0.069015078,-0.002984561,1.036986828
118.697035,-7.641613007,7.896198273,-28.226219177,0.059249450,-0.007012881,1.035277843
118.697720,-7.641613007,7.896198273,-28.226219177,0.059249450,-0.007012881,1.035277843
118.735999,-9.938060760,11.497272491,-24.510704041,0.080733828,-0.148004085,1.017577648
118.750326,-5.909740448,1.510395050,-24.426780701,0.103438906,-0.191705257,0.986938000
118.765753,-1.728832245,-6.614910126,-29.507957458,0.113448672,-0.201715022,0.992309093
118.804197,9.341419220,-23.002849579,-34.108482361,0.062301207,0.011785947,0.938598156
118.842649,7.380664825,22.407306671,-22.717796326,0.030562926,0.041693173,0.989257336
118.857001,2.757251740,50.819171906,-14.249168396,0.068160586,-0.163751155,1.036132336
118.872318,-1.339733124,58.013690948,-11.357627869,0.097823672,-0.236505061,1.048705578
118.910818,-0.332653046,29.334796906,-13.646446228,0.180343196,-0.296075374,1.041015148
118.949248,5.671680450,-22.125469208,-12.433372498,0.104415469,-0.164727718,1.016356945
118.963532,6.266773224,-28.747783661,-14.546714783,0.078414492,-0.106622256,1.020507336
118.978850,4.389942169,-28.648601532,-12.128196716,0.042281676,-0.074151553,1.020385265
119.027863,-4.460155487,-0.808940887,-9.129844666,0.030807067,-0.143853694,0.973876476
119.076880,-9.838878632,28.678668976,-5.780540466,0.067306094,-0.128228694,0.953612804
119.091193,-11.357128143,31.417621613,-3.484092712,0.083297305,-0.150323421,0.951415539
119.106731,-11.273204803,25.047077179,-3.873191833,0.141524836,-0.146417171,0.942626476
119.145148,-3.178417206,-15.487895966,-4.041038513,0.151412532,-0.046929874,0.914306164
119.183651,2.581775665,-20.965801239,-0.256858826,0.066695742,-0.017999209,0.949096203
119.197939,3.863513947,-17.776714325,-0.584922791,0.049239684,0.009832822,0.958617687
119.213411,5.198657990,-13.717876434,-0.249229431,0.040572692,-0.002130069,0.971801281
119.262324,4.031360626,4.615558624,6.251014709,0.018844176,-0.167047054,1.071166515
119.301052,6.900012970,-2.990947723,-2.888999939,-0.016312074,-0.229424983,1.122802258
119.315226,3.810108185,-3.364788055,-3.415428162,-0.022781800,-0.223931819,1.120971203
119.330648,2.398670197,-2.403484344,-3.705345154,-0.025467347,-0.183648616,1.114623547
119.369080,2.490222931,-8.209453583,-1.263938904,0.041183043,-0.154229671,1.123900890
119.407628,11.233509064,-32.745586395,-1.866661072,0.000411560,-0.103082217,1.111693859
119.421798,10.493457794,-33.302532196,-1.035057068,-0.026443910,-0.081841983,1.107787609
119.437234,8.723438263,-27.832256317,0.887550354,-0.066605039,-0.072442569,1.080321789
119.475675,-6.398021698,12.038959503,4.915870667,-0.057693910,-0.170098811,1.059569836
119.514231,-17.277538300,21.133197784,2.154029846,0.024459410,-0.176934749,0.967162609
119.528535,-18.742382050,14.770282745,2.329505920,0.051192809,-0.143121272,0.936034679
119.544040,-12.570201874,-1.785503387,6.464637756,0.058150817,-0.008111514,0.887816906
119.582485,-3.826915741,-29.876934052,4.976905823,0.031905700,-0.014825381,0.848998547
119.620990,-2.049266815,-31.051860809,3.161109924,-0.014114807,-0.118218936,0.856078625
119.635295,-1.370250702,-26.184307098,3.931678772,-0.020706605,-0.116509952,0.854857922
119.650804,-3.063976288,-15.358196259,5.304969788,-0.027420472,-0.165093929,0.862182140
119.689244,-0.195323944,2.792133331,5.098976135,-0.042801332,-0.062066592,0.858153820
119.738205,6.289661407,33.416522980,-1.538597107,-0.069534726,-0.131036311,0.966430187
119.752597,2.131641388,46.348346710,1.726783752,-0.041580629,-0.176690608,1.039184093
119.767948,0.903308868,47.622455597,0.712074280,-0.027542543,-0.170098811,1.072509289
119.806469,-6.214916229,26.389850616,-0.974021912,0.024337340,-0.103204288,1.127196789
119.845024,2.047718048,-19.607769012,-2.644859314,0.029952575,-0.047906436,1.100463390
119.859179,3.909290314,-29.167400360,-4.613243103,0.010665466,-0.108453311,1.094359875
119.874607,6.045520782,-38.002239227,-7.787071228,-0.021683168,-0.163873225,1.086181164
119.913056,3.924549103,-17.433391571,-7.947288513,-0.054398011,-0.028741397,1.055419445
119.951568,0.498950958,29.815448761,-7.016502380,-0.038040590,0.063543759,1.047118664
119.965731,-1.133739471,43.426288605,-4.590354919,-0.023392152,0.045721494,1.053832531
119.981160,-5.688488007,64.735183716,2.245582581,0.014937927,-0.090997256,1.076293468
120.019649,-10.601818085,50.674213409,5.945838928,0.102218203,-0.161431819,1.054076672
120.058125,-4.223644257,-18.921123505,-0.531517029,0.132979915,-0.071099795,0.987914562
120.072403,-1.828014374,-36.621318817,-3.438316345,0.100020938,-0.074273624,0.967895031
120.087727,0.842273712,-48.347698212,-4.742942810,0.067428164,-0.040460147,0.947997570
120.126275,2.093494415,-50.392375946,-6.047569275,-0.001541565,-0.076715030,0.928832531
120.164816,-6.779491425,-16.731487274,-1.508079529,-0.006058167,-0.169122249,0.906981945
120.178992,-10.754405975,0.060810089,0.170387268,0.012984802,-0.213799983,0.895263195
120.194464,-12.959300995,6.881488800,-0.592552185,0.015059997,-0.191949397,0.877685070
120.232960,-11.578380585,20.805133820,-1.614891052,0.079268984,-0.192071468,0.866820812
120.271411,-2.621471405,7.667316437,-4.308067322,0.101851992,-0.174127132,0.889525890
120.285562,-2.384960175,3.043903351,-5.757652283,0.092208438,-0.124322452,0.893798351
120.301071,3.741443634,-1.075969696,-5.406700134,0.063888125,-0.027642764,0.910033703
120.360360,2.383411407,7.087482452,-0.813804626,0.058761168,-0.186334163,1.042846203
120.398864,4.260242462,-6.576763153,-4.964195251,0.036178160,-0.181329280,1.096313000
120.413150,2.238452911,-9.735332489,-4.704795837,0.030807067,-0.213189632,1.101562023
120.428470,1.719654083,-13.557659149,-9.320579529,0.009322693,-0.168145686,1.087401867
120.466999,-3.094493866,-4.043804169,-9.251914978,0.027633239,-0.047051944,1.016601086
120.505482,2.062976837,8.659137726,-1.195274353,0.063033633,-0.030084170,0.974608898
120.519790,3.787220001,8.529438019,-1.126609802,0.065719180,-0.078790225,0.970702648
120.535125,7.220447540,4.882587433,-1.279197693,0.077560000,-0.154717952,0.978881359
120.573650,7.579029083,-2.647624969,-1.820884705,0.055587340,-0.141290218,0.973021984
120.612147,5.671680450,-9.582744598,2.642311096,0.046187926,-0.049859561,0.945800304
120.626299,7.029712677,-16.006694794,4.427589417,0.039474059,-0.007745303,0.935302258
120.641775,8.235157013,-19.447551727,4.198707581,0.028365660,0.002142392,0.931640148
120.680195,8.525074005,-21.995769501,1.520790100,-0.022049379,-0.061456241,0.954711437
120.718671,0.926197052,-8.247600555,1.665748596,-0.033646058,-0.196588069,0.990966320
120.732831,-2.415477753,-5.340801239,0.254310608,-0.034256410,-0.219171077,0.990722179
120.748318,-6.748973846,-0.625835419,-2.995811462,-0.027664613,-0.188165218,0.965453625
120.786820,-7.916271210,6.400836945,-6.535850525,-0.002029846,-0.103326358,0.927367687
120.825231,-5.451976776,9.231342316,-6.512962341,0.037032653,-0.014092959,0.944945812
120.839550,-3.414928436,10.513080597,-6.314598083,0.043014098,-0.025567569,0.961425304
120.855013,-5.474864960,11.840595245,-3.613792419,0.055831481,-0.098565616,0.980224133
120.903927,-0.920116425,-9.834514618,-4.124961853,0.083541445,-0.096002139,0.997680187
120.942509,8.471668243,-22.819744110,-7.893882751,0.047774840,-0.103570499,0.991820812
120.956679,10.226428986,-19.279705048,-7.855735779,0.011642029,-0.095880069,0.988646984
120.971987,11.416614532,-14.045940399,-8.611045837,-0.002273987,-0.092340030,0.984496593
121.010517,13.766468048,14.938129425,-10.724388123,0.004928161,0.020697080,0.990844250
121.049039,11.088550568,49.979938507,-3.476463318,0.052657653,0.224066228,1.051879406
121.063210,12.034595490,58.799518585,3.786720276,0.078170352,0.090643369,1.085082531
121.078529,10.905445099,56.800617218,4.305519104,0.099654727,-0.036187686,1.106078625
121.117060,9.234607697,8.170856476,-1.988731384,0.136031672,-0.200982600,1.122558117
121.155597,1.345813751,-27.618633270,-2.316795349,0.058517028,-0.066461124,1.057494640
121.169770,0.163257599,-28.869853973,-1.439414978,0.043868590,-0.049127139,1.038329601
121.185223,-4.460155487,-24.841533661,0.216163635,0.031661559,0.014959775,0.988402843
121.223705,-4.170238495,-12.100444794,2.604164124,0.022018004,-0.073419131,0.931762218
121.262224,-1.370250702,-2.952800751,-0.928245544,0.022018004,-0.167413265,0.973510265
121.276385,-2.438365936,-1.175151825,-3.201805115,0.032027770,-0.168878108,0.988158703
121.291901,-7.191478729,5.683673859,1.642860413,0.033492614,-0.125421077,0.990600109
121.330350,-4.109203339,-0.503765106,-4.109703064,0.047896910,-0.017266788,0.996093273
121.331064,-4.109203339,-0.503765106,-4.109703064,0.047896910,-0.017266788,0.996093273
121.331668,-4.109203339,-0.503765106,-4.109703064,0.047896910,-0.017266788,0.996093273
121.332299,-4.109203339,-0.503765106,-4.109703064,0.047896910,-0.017266788,0.996093273
121.332908,-4.109203339,-0.503765106,-4.109703064,0.047896910,-0.017266788,0.996093273
121.333519,-4.109203339,-0.503765106,-4.109703064,0.047896910,-0.017266788,0.996093273
121.334114,-4.109203339,-0.503765106,-4.109703064,0.047896910,-0.017266788,0.996093273
121.334732,-4.109203339,-0.503765106,-4.109703064,0.047896910,-0.017266788,0.996093273
121.335453,-4.109203339,-0.503765106,-4.109703064,0.047896910,-0.017266788,0.996093273
121.373593,-2.331554413,1.045001984,-3.819786072,0.030196715,0.033636533,1.031493664
121.387968,-3.079235077,4.203571320,-0.691734314,0.033614684,0.002386533,1.044555187
121.413758,-3.216564178,5.759967804,0.162757874,0.024337340,-0.061944522,1.059936047
121.452394,-1.057445526,-3.097759247,-0.783287048,0.004195740,-0.139459163,1.090697765
121.490857,3.375232697,-19.813762665,-6.917320251,-0.006180237,-0.152398616,1.079223156
121.505062,3.375232697,-21.812664032,-7.390342712,-0.008499573,-0.174249202,1.071776867
121.520407,3.009021759,-23.109661102,-9.320579529,-0.014603089,-0.106500186,1.033568859
121.569457,6.503284454,-10.307537079,-4.277549744,-0.021927308,-0.028497256,0.966308117
121.608048,5.267322540,2.898944855,-0.310264587,-0.034012269,0.006658994,0.942382336
121.622211,2.307117462,10.764850616,0.635780334,-0.025711488,-0.052789249,0.934691906
121.637729,0.476062775,13.610614777,1.673377991,-0.018021058,-0.045587100,0.922973156
121.676021,1.422107697,9.101642609,4.557289124,0.021163512,-0.009576358,0.880370617
121.714537,10.173023224,-23.178325653,-1.729331970,0.021041442,-0.078790225,0.900268078
121.728841,13.240039825,-31.997905731,-4.903160095,-0.020340394,-0.043756045,0.922851086
121.744338,12.347400665,-30.601726532,-5.193077087,-0.027176332,-0.066094913,0.941161633
121.782839,4.824817657,-8.026348114,-3.957115173,-0.044632386,-0.109918155,0.964232922
121.821128,-5.932628632,35.751117706,-3.018699646,-0.020584535,-0.099298038,1.045775890
121.835515,-10.952770233,49.300922394,1.383460999,-0.003738831,-0.091607608,1.072997570
121.850877,-20.886241913,63.361896515,5.900062561,0.068893008,-0.130059749,1.110839367
121.889413,-21.824657440,25.634540558,3.183998108,0.163497493,-0.024957217,1.088744640
121.927847,-12.974559784,-33.844219208,2.344764709,0.092940859,-0.094537295,1.000854015
121.942186,-10.533153534,-40.085063934,2.039588928,0.069015078,-0.053887881,0.983153820
121.957533,-6.550609589,-41.122661591,0.124610901,0.042159606,-0.005181827,0.970946789
121.996042,0.186145782,-13.145671844,7.372535706,0.017867614,-0.035699405,0.936522961
122.034558,10.623157501,7.644428253,0.422157288,0.021163512,-0.091119327,0.989745617
122.048713,7.846057892,26.359333038,5.770362854,0.018722106,-0.026422061,1.003783703
122.064035,9.219348907,33.653034210,5.861915588,0.021041442,0.039862119,1.004760265
122.064795,9.219348907,33.653034210,5.861915588,0.021041442,0.039862119,1.004760265
122.065437,9.219348907,33.653034210,5.861915588,0.021041442,0.039862119,1.004760265
122.066073,11.584461212,37.719501495,4.465736389,0.030196715,0.060125791,1.017211437
122.066700,11.584461212,37.719501495,4.465736389,0.030196715,0.060125791,1.017211437
122.067344,11.584461212,37.719501495,4.465736389,0.030196715,0.060125791,1.017211437
122.067962,11.584461212,37.719501495,4.465736389,0.030196715,0.060125791,1.017211437
122.068604,11.584461212,37.719501495,4.465736389,0.030196715,0.060125791,1.017211437
122.106982,12.561023712,40.992511749,6.891883850,0.055465270,0.235662907,1.054931164
122.155959,12.049854279,5.225910187,9.485877991,0.104415469,-0.101129092,1.070312023
122.170163,13.041675568,-8.186565399,8.669532776,0.095992617,-0.152032405,1.078856945
122.185722,10.752857208,-27.488933563,7.242835999,0.055587340,-0.118951358,1.063964367
122.224209,7.754505157,-37.216411591,9.035743713,0.014937927,-0.118218936,1.063354015
122.262650,-2.392589569,-31.273113251,7.715858459,-0.011795471,-0.055841006,1.046142101
122.276971,-8.206188202,-18.593059540,9.363807678,-0.009842346,-0.053643741,1.017577648
122.292459,-11.509716034,-11.703716278,12.110389709,-0.009109925,-0.090753116,0.996337414
122.330980,-13.920604706,-2.990947723,6.434120178,0.037154723,-0.175225765,0.954711437
122.369269,-13.935863495,-0.259624481,7.754005432,0.038009215,-0.065850772,0.927978039
122.383670,-11.845409393,-3.853069305,6.884254456,0.054000426,-0.036675967,0.913451672
122.399037,-8.381664276,-7.087932587,3.397621155,0.042892028,0.032537900,0.918700695
122.399790,-8.381664276,-7.087932587,3.397621155,0.042892028,0.032537900,0.918700695
122.400436,-8.381664276,-7.087932587,3.397621155,0.042892028,0.032537900,0.918700695
122.438848,-10.662853241,15.739215851,7.403053284,-0.025711488,0.057562314,0.970824718
122.487871,-12.120067596,31.272663116,7.242835999,0.048751403,-0.153741390,0.976562023
122.502085,-7.664501190,23.452533722,7.372535706,0.064498477,-0.163751155,0.971313000
122.517543,-3.025829315,2.464069366,1.429237366,0.054244567,-0.195977718,0.977538586
122.555996,5.740345001,-26.306377411,-3.835044861,0.025313903,-0.147027522,0.968871593
122.594523,13.087451935,-25.802837372,-4.552207947,0.011153747,-0.055596866,0.957519054
122.608694,12.988269806,-21.591411591,-2.774559021,0.014327575,-0.037652530,0.962523937
122.624184,15.017688751,-11.192546844,-0.256858826,0.005416443,0.009222470,0.964843273
122.662596,12.629688263,15.304340363,4.297889709,0.002486755,0.007757626,0.993651867
122.701119,7.823169708,24.528278351,8.539833069,0.058028746,-0.070611514,1.026610851
122.715398,5.702198029,15.182270050,10.004676819,0.080245547,-0.012139834,1.004394054
122.730890,7.357776642,7.285846710,9.424842834,0.078780703,0.021185361,0.992553234
122.731620,8.311450958,-1.396404266,7.906593323,0.087325625,0.008490048,0.990722179
122.732226,8.311450958,-1.396404266,7.906593323,0.087325625,0.008490048,0.990722179
122.791478,12.088001251,-36.697612762,6.777442932,0.015548279,-0.054620303,0.996215343
122.830076,10.623157501,-33.401714325,1.825965881,-0.017166566,-0.091729678,1.001586437
122.844256,4.656970978,-22.308574677,4.954017639,-0.027542543,-0.125665218,1.010619640
122.859712,1.559436798,-17.143474579,2.360023499,-0.021439027,-0.165948421,1.011718273
122.898176,-7.443248749,-2.701030731,-0.256858826,0.009688904,-0.085259952,0.962523937
122.898898,-7.443248749,-2.701030731,-0.256858826,0.009688904,-0.085259952,0.962523937
122.899500,-7.443248749,-2.701030731,-0.256858826,0.009688904,-0.085259952,0.962523937
122.900121,-7.443248749,-2.701030731,-0.256858826,0.009688904,-0.085259952,0.962523937
122.900734,-6.954967499,-0.732646942,-0.928245544,0.019698668,-0.039849795,0.951659679
122.939157,-5.001842499,3.997577667,-0.981651306,0.043258239,-0.012994327,0.943725109
122.953302,-3.468334198,5.187763214,-0.836692810,0.069869570,0.002508603,0.958983898
122.968785,-3.002941132,5.340351105,-0.317893982,0.080611758,0.007147275,0.968017101
123.007248,-1.080333710,4.981769562,2.680458069,0.099532656,-0.063165225,0.985839367
123.045712,6.961048126,-2.380596161,1.124061584,0.087203555,0.039617978,1.046508312
123.059997,5.656421661,1.189960480,3.306068420,0.057418395,-0.031304874,1.070678234
123.075504,4.847705841,3.074420929,1.887001038,0.048873473,-0.067803897,1.063598156
123.113964,3.153980255,8.102191925,-1.569114685,0.051314879,-0.030572452,1.040404797
123.152459,12.255847931,5.286945343,-3.598533630,0.071578555,0.216497868,1.028686047
123.166737,14.468372345,6.377948761,-2.980552673,0.057052184,0.230658025,1.042357922
123.182197,16.009510040,13.915790558,-4.590354919,0.034225035,0.165960759,1.084960461
123.220656,3.909290314,39.649738312,-2.644859314,0.044967223,-0.042047061,1.125854015
123.221384,3.909290314,39.649738312,-2.644859314,0.044967223,-0.042047061,1.125854015
123.221989,3.909290314,39.649738312,-2.644859314,0.044967223,-0.042047061,1.125854015
123.222613,3.909290314,39.649738312,-2.644859314,0.044967223,-0.042047061,1.125854015
123.223219,3.909290314,39.649738312,-2.644859314,0.044967223,-0.042047061,1.125854015
123.223849,3.909290314,39.649738312,-2.644859314,0.044967223,-0.042047061,1.125854015
123.224442,3.909290314,39.649738312,-2.644859314,0.044967223,-0.042047061,1.125854015
123.225212,3.909290314,39.649738312,-2.644859314,0.044967223,-0.042047061,1.125854015
123.225818,3.909290314,39.649738312,-2.644859314,0.044967223,-0.042047061,1.125854015
123.226406,3.909290314,39.649738312,-2.644859314,0.044967223,-0.042047061,1.125854015
123.227040,3.909290314,39.649738312,-2.644859314,0.044967223,-0.042047061,1.125854015
123.227617,3.909290314,39.649738312,-2.644859314,0.044967223,-0.042047061,1.125854015
123.228258,0.109851837,42.861713409,-0.218711853,0.070968203,-0.105401553,1.132689953
123.228840,0.109851837,42.861713409,-0.218711853,0.070968203,-0.105401553,1.132689953
123.229463,0.109851837,42.861713409,-0.218711853,0.070968203,-0.105401553,1.132689953
123.288667,-4.063426971,-18.638835907,-5.055747986,0.167647883,-0.034966983,1.051879406
123.304333,-2.529918671,-29.289470673,-4.559837341,0.134322688,0.018988095,1.027709484
123.318609,-0.561534882,-35.186992645,-3.880821228,0.076827578,0.011175595,1.006225109
123.356957,-4.933177948,-22.484050751,-4.506431580,0.042159606,0.014837705,0.973754406
123.405945,-17.590343475,10.085834503,5.076087952,0.064132266,-0.094415225,0.930297375
123.420293,-16.629039764,3.326190948,5.381263733,0.099776797,-0.114068545,0.912719250
123.435800,-15.789806366,-3.395305634,3.275550842,0.093551211,-0.092706241,0.895019054
123.474305,-6.420909882,-20.546184540,0.826515198,0.041060973,-0.019097842,0.887450695
123.512739,1.109302521,-22.285686493,-6.703697205,-0.007523010,0.018743955,0.912230968
123.527049,0.361621857,-9.857402802,-5.032859802,-0.028030824,0.030828916,0.927855968
123.542384,2.299488068,-2.403484344,-4.796348572,-0.033035707,0.018988095,0.943236828
123.580921,-4.269420624,24.490131378,-8.527122498,-0.018753480,-0.085137881,1.030639172
123.619393,-5.619823456,33.485187531,-12.898765564,0.080489688,-0.051202334,1.073974133
123.633696,-5.909740448,28.289569855,-11.197410583,0.122481875,-0.098443545,1.095458508
123.649197,-7.687389374,9.261859894,-16.125999451,0.156783625,-0.016046084,1.067016125
123.687679,2.627552032,-19.150005341,-10.907493591,0.107101016,-0.007379092,0.978637218
123.726197,11.538684845,-2.182231903,-8.969627380,0.041671325,-0.007012881,0.950805187
123.740380,13.743579865,5.141986847,-9.854637146,0.031173278,0.028997861,0.945800304
123.755828,14.002979279,25.481952667,-3.262840271,0.037887145,-0.011895694,0.989623547
123.794334,5.435169220,49.880756378,1.200355530,0.049117614,0.016058408,1.001830578
123.832794,1.788318634,24.497760773,5.419410706,0.178756282,-0.019586124,1.016234875
123.847099,7.052600861,-16.929851532,5.190528870,0.189254329,0.034246884,1.013793468
123.862577,8.471668243,-36.926494598,4.954017639,0.154342219,0.015203916,1.015014172
123.901057,8.807361603,-75.149765015,0.666297913,0.026656676,0.007391416,0.991942883
123.939553,4.977405548,-67.253341675,-2.530418396,-0.031204652,0.016790830,0.946654797
123.953739,-0.561534882,-45.128093719,0.475563049,-0.040726136,-0.025323428,0.921020031
123.969210,-2.415477753,-32.181011200,-1.012168884,-0.043167543,-0.046563663,0.904906750
123.969932,-2.415477753,-32.181011200,-1.012168884,-0.043167543,-0.046563663,0.904906750
123.970641,-2.415477753,-32.181011200,-1.012168884,-0.043167543,-0.046563663,0.904906750
123.971258,-2.415477753,-32.181011200,-1.012168884,-0.043167543,-0.046563663,0.904906750
123.971877,-2.415477753,-32.181011200,-1.012168884,-0.043167543,-0.046563663,0.904906750
123.972510,-2.415477753,-32.181011200,-1.012168884,-0.043167543,-0.046563663,0.904906750
123.973127,-2.415477753,-32.181011200,-1.012168884,-0.043167543,-0.046563663,0.904906750
123.973755,-3.460704803,-19.058452606,-2.538047791,-0.038406800,-0.056329288,0.898314953
123.974381,-3.460704803,-19.058452606,-2.538047791,-0.038406800,-0.056329288,0.898314953
123.975007,-3.460704803,-19.058452606,-2.538047791,-0.038406800,-0.056329288,0.898314953
123.975628,-3.460704803,-19.058452606,-2.538047791,-0.038406800,-0.056329288,0.898314953
124.013986,-7.801830292,28.754962921,-3.018699646,-0.013504456,-0.015069522,0.904296398
124.062978,-7.565319061,57.243122101,1.475013733,0.075118594,-0.014459170,0.950316906
124.077305,-7.275402069,54.618610382,-2.469383240,0.098434024,-0.017510928,0.968627453
124.092789,-4.551708221,43.632282257,-3.239952087,0.108932070,0.090277158,0.984984875
124.131244,-1.377880096,26.328815460,3.618873596,0.134688899,0.094305478,1.033446789
124.169749,3.207386017,-8.918987274,-0.676475525,0.078414492,-0.070367374,1.071532726
124.184047,2.734363556,-8.758769989,-4.369102478,0.055099059,-0.056817569,1.069945812
124.199383,0.765979767,-3.471599579,-3.171287537,0.050948668,-0.002984561,1.062377453
124.237911,-1.095592499,19.080890656,0.750221252,0.103194766,0.113958798,1.022948742
124.276374,8.738697052,11.176837921,4.954017639,0.123946719,0.211859196,1.001830578
124.302497,5.252063751,9.704364777,10.508216858,0.083053164,0.024603330,1.019286633
124.316696,7.304370880,7.621540070,9.852088928,0.100020938,0.028021298,1.020385265
124.355074,6.602466583,-17.135845184,6.518043518,0.064010195,-0.005670108,1.016112804
124.393588,5.351245880,-19.912944794,8.516944885,0.036300231,0.044989072,0.957274914
124.407874,7.693470001,-19.958721161,8.280433655,0.041915465,0.020575009,0.961303234
124.423342,5.938709259,-20.530925751,7.067359924,0.038619567,0.000433408,0.946776867
124.461777,3.817737579,6.637348175,10.729469299,0.002364685,0.068914853,0.981200695
124.462504,3.817737579,6.637348175,10.729469299,0.002364685,0.068914853,0.981200695
124.463104,3.817737579,6.637348175,10.729469299,0.002364685,0.068914853,0.981200695
124.463730,3.817737579,6.637348175,10.729469299,0.002364685,0.068914853,0.981200695
124.464330,3.817737579,6.637348175,10.729469299,0.002364685,0.068914853,0.981200695
124.464947,3.817737579,6.637348175,10.729469299,0.002364685,0.068914853,0.981200695
124.465540,3.817737579,6.637348175,10.729469299,0.002364685,0.068914853,0.981200695
124.466173,3.817737579,6.637348175,10.729469299,0.002364685,0.068914853,0.981200695
124.504465,-4.826366425,28.327716827,11.950172424,0.042892028,-0.058282413,1.004516125
124.518773,-3.407299042,26.260150909,10.004676819,0.049605895,0.008123837,1.005736828
124.534263,-4.727184296,15.990985870,11.095680237,0.069259219,-0.076348819,0.995971203
124.572730,-0.729381561,-17.051921844,1.444496155,0.081466250,-0.116387881,0.975463390
124.611155,-2.468883514,-13.679729462,0.475563049,0.035567809,-0.017999209,0.975585461
124.625493,-4.528820038,-5.157695770,-0.333152771,0.022750426,0.053167783,0.953734875
124.640820,-2.713024139,13.664020538,4.671730042,0.036666442,0.098333798,0.946776867
124.679356,-5.131542206,39.191974640,12.209571838,0.091476016,0.043158017,0.992675304
124.728317,-1.118480682,19.492877960,11.133827209,0.108932070,-0.023370303,1.039916515
124.742525,1.628101349,6.919635773,6.395973206,0.054610778,0.009222470,1.061156750
124.757993,0.369251251,5.157245636,8.433021545,0.054732848,-0.030816592,1.077392101
124.796452,-1.255809784,-0.557170868,5.472816467,0.029586364,-0.025933780,1.061767101
124.834952,-9.121715546,8.598102570,12.079872131,0.071944766,0.095037900,1.039672375
124.849107,-5.596935272,2.273334503,12.949623108,0.125289485,0.137030095,0.999145031
124.864563,-2.636730194,-3.601299286,14.795936584,0.132369563,0.091375791,0.996459484
124.903008,1.521289825,-13.679729462,17.588294983,0.052291442,0.116156064,0.958983898
124.941526,4.832447052,2.097858429,24.370826721,0.032638121,0.170721501,0.948119640
124.955680,4.489124298,7.423175812,28.429664612,0.038131285,0.102240048,0.952270031
124.971248,4.046619415,6.026996613,27.804054260,0.062789492,-0.004205264,0.955810070
125.009499,10.340869904,-20.721660614,21.067298889,0.052535582,0.046087705,0.962157726
125.048026,5.397022247,-9.468303680,29.146827698,0.037154723,0.024481259,0.976928234
125.062202,3.474414825,-7.278667450,28.826393127,0.042037535,0.005560361,0.966430187
125.077763,5.084217072,-2.517925262,26.911415100,0.048018981,0.041326962,0.969970226
125.116255,-1.133739471,13.160480499,33.297218323,0.041305114,0.095037900,0.932616711
125.116979,1.208484650,17.081989288,34.662879944,0.051436950,0.106756650,0.938476086
125.117591,1.208484650,17.081989288,34.662879944,0.051436950,0.106756650,0.938476086
125.118224,1.208484650,17.081989288,34.662879944,0.051436950,0.106756650,0.938476086
125.118836,1.208484650,17.081989288,34.662879944,0.051436950,0.106756650,0.938476086
125.119472,1.208484650,17.081989288,34.662879944,0.051436950,0.106756650,0.938476086
125.120076,1.208484650,17.081989288,34.662879944,0.051436950,0.106756650,0.938476086
125.120715,1.208484650,17.081989288,34.662879944,0.051436950,0.106756650,0.938476086
125.121325,1.208484650,17.081989288,34.662879944,0.051436950,0.106756650,0.938476086
125.121962,1.208484650,17.081989288,34.662879944,0.051436950,0.106756650,0.938476086
125.122572,1.208484650,17.081989288,34.662879944,0.051436950,0.106756650,0.938476086
125.171465,0.712574005,-2.571331024,41.208900452,0.136642024,0.055242978,0.998534679
125.185674,1.147449493,-10.849224091,40.857948303,0.117476992,0.055609189,0.997558117
125.201016,0.712574005,-16.639934540,43.215431213,0.069015078,0.084661923,0.995360851
125.239522,0.109851837,-8.064495087,47.800697327,0.047896910,0.143133610,0.994506359
125.277998,-4.063426971,13.198627472,56.437171936,0.050094176,0.163641423,1.012938976
125.292166,-2.064525604,14.526142120,56.742347717,0.084884219,0.136785954,1.027587414
125.307503,-3.323375702,9.887470245,60.183204651,0.091231875,0.111517392,1.041137218
125.345996,0.376880646,10.207904816,58.703102112,0.031173278,0.040472470,1.039184093
125.384512,3.497303009,21.804584503,57.001747131,0.031173278,-0.031304874,1.080810070
125.398675,-1.515209198,26.519550323,56.040443420,0.041793395,-0.028253116,1.092284679
125.414219,-2.003490448,26.252521515,55.292762756,0.054488707,-0.042413272,1.093017101
125.463154,-6.962596893,-3.837810516,54.720558167,0.136275813,0.099310361,1.048705578
125.501481,-0.622570038,-22.453533173,55.308021545,0.054366637,0.069647275,0.940307140
125.515860,6.846607208,-18.074260712,48.784889221,0.024825621,0.105535947,0.923095226
125.531239,7.220447540,-11.772380829,52.286781311,0.028243590,0.024725400,0.933715343
125.569766,8.174121857,21.072162628,54.682411194,0.018600035,-0.036187686,0.952636242
125.608235,5.297840118,25.237812042,50.554908752,0.066451602,-0.084527530,1.007445812
125.622519,2.787769318,22.537006378,51.905311584,0.094405703,-0.143609554,1.027465343
125.637843,-0.973522186,15.090717316,53.919471741,0.094405703,-0.049493350,1.011718273
125.676397,3.169239044,-14.274822235,48.082984924,0.070724063,0.014593564,1.005004406
125.714897,0.613391876,-8.285747528,51.920570374,0.035811950,0.044989072,0.986327648
125.729077,2.650440216,-4.806743622,51.699317932,0.033980895,0.033026181,0.993651867
125.744499,-0.759899139,2.601398468,53.721107483,0.040816832,-0.035821475,1.012328625
125.782984,-1.728832245,13.877643585,50.860084534,0.027999450,-0.038262881,1.036132336
125.783718,-1.728832245,13.877643585,50.860084534,0.027999450,-0.038262881,1.036132336
125.784330,-1.728832245,13.877643585,50.860084534,0.027999450,-0.038262881,1.036132336
125.822703,-5.154430389,13.465656281,52.584327698,0.088302188,-0.084039249,1.085326672
125.837009,-7.977306366,4.699481964,51.684059143,0.112594180,-0.109551944,1.097533703
125.852452,-6.810009003,-14.404521942,48.411048889,0.085860781,-0.064874209,1.083251476
125.890915,-8.808910370,-30.403362274,47.358192444,0.047408629,-0.067803897,1.026122570
125.929356,-4.322826385,-25.917278290,40.667213440,0.005050232,-0.083917178,0.973021984
125.943643,-0.172435760,-7.103191376,41.689552307,-0.009109925,-0.000176944,0.947753429
125.959104,-0.988780975,5.744709015,43.673194885,-0.002273987,-0.029229678,0.953612804
125.959963,-0.988780975,5.744709015,43.673194885,-0.002273987,-0.029229678,0.953612804
125.960557,-0.988780975,5.744709015,43.673194885,-0.002273987,-0.029229678,0.953612804
125.961158,-3.056346893,19.256366730,47.533668518,-0.001663635,-0.008843936,0.950927258
125.961782,-3.056346893,19.256366730,47.533668518,-0.001663635,-0.008843936,0.950927258
125.962376,-3.056346893,19.256366730,47.533668518,-0.001663635,-0.008843936,0.950927258
125.962999,-3.056346893,19.256366730,47.533668518,-0.001663635,-0.008843936,0.950927258
125.963589,-3.056346893,19.256366730,47.533668518,-0.001663635,-0.008843936,0.950927258
125.964224,-3.056346893,19.256366730,47.533668518,-0.001663635,-0.008843936,0.950927258
125.964816,-3.056346893,19.256366730,47.533668518,-0.001663635,-0.008843936,0.950927258
125.965454,-3.056346893,19.256366730,47.533668518,-0.001663635,-0.008843936,0.950927258
126.003721,0.567615509,42.632831573,49.814857483,0.042892028,-0.072076358,0.989867687
126.042209,1.872241974,18.920673370,47.320045471,0.059737731,-0.078301944,1.056518078
126.056377,1.033008575,8.781208038,47.640480042,0.063277774,-0.082086124,1.056884289
126.071833,1.879871368,-13.862834930,41.552223206,0.035201598,-0.050958194,1.040282726
126.120845,3.894031525,-29.594646454,37.447608948,-0.020706605,0.046575986,0.964110851
126.159399,5.625904083,-16.433940887,35.669960022,-0.021561097,0.026678525,0.988769054
126.173574,1.506031036,-0.084148407,40.812171936,-0.022903871,0.045599423,0.983153820
126.199550,-2.651988983,21.644367218,43.253578186,-0.009598206,-0.041558780,0.942748547
126.238124,1.856983185,26.107563019,38.057960510,0.024093200,-0.076715030,0.971190929
126.286944,-2.102672577,19.279254913,41.384376526,0.064010195,-0.029107608,0.989989758
126.302725,-3.674327850,6.797565460,37.317909241,0.074019961,0.026434384,1.010253429
126.317034,-3.903209686,-1.747356415,37.066139221,0.096358828,0.040228330,1.021605968
126.355394,-3.536998749,-29.106365204,38.164772034,0.053145934,-0.031304874,0.999877453
126.393861,-0.599681854,-32.516704559,35.578407288,0.014815857,0.108831845,1.021239758
126.408167,-3.308116913,-26.535259247,37.661231995,0.002852966,0.149725407,1.026610851
126.423514,-4.345714569,-10.208354950,42.330421448,-0.019974183,0.204779118,1.007201672
126.462053,-2.720653534,8.476032257,40.087379456,-0.006790589,0.070990048,1.037108898
126.500503,-7.031261444,20.530475616,35.395301819,-0.010086487,-0.035943545,1.040893078
126.514792,-6.153881073,23.338092804,35.578407288,0.017501403,-0.094171084,1.046752453
126.530295,-10.281383514,18.241657257,34.121192932,0.100265078,-0.158257991,1.058349133
126.568758,-2.041637421,-12.901531219,30.413307190,0.147140071,0.051092587,0.974853039
126.607256,8.822620392,-29.358135223,31.557716370,0.082809024,-0.024224795,0.941405773
126.621425,8.525074005,-28.793560028,30.283607483,0.068648867,-0.040582217,0.937987804
126.636915,10.707080841,-23.544536591,28.162635803,0.032882262,-0.020684756,0.928100109
126.675354,8.883655548,-3.013835907,30.588783264,-0.004471253,-0.017388858,0.898192883
126.713827,7.113636017,5.424274445,24.912513733,0.019576598,-0.148370296,0.940307140
126.728124,9.082019806,6.370319366,19.404090881,0.006026794,-0.149713069,0.958007336
126.743594,7.655323029,8.865131378,17.672218323,0.000289490,-0.131280452,0.968749523
126.782102,1.109302521,27.297748566,18.580116272,0.014693786,-0.159234554,0.991698742
126.820527,-4.948436737,26.962055206,14.368690491,0.051559020,-0.163140804,0.989135265
126.834855,-6.466686249,25.108112335,14.269508362,0.075851016,-0.194390804,0.990355968
126.850192,-9.724437714,16.494525909,15.055335999,0.155318782,-0.220147640,1.007323742
126.899204,-4.238903046,-37.521587372,11.652626038,0.171554133,-0.191461116,0.956298351
126.937827,-3.056346893,-22.392498016,17.550148010,0.083419375,-0.021417178,0.943969250
126.952012,-3.735363007,-15.579448700,19.182838440,0.075606875,-0.018243350,0.945434093
126.967464,-1.477062225,-2.411113739,19.068397522,0.065230899,-0.025323428,0.958983898
127.006005,-2.026378632,7.659687042,19.381202698,0.063033633,-0.051080264,0.999999523
127.044477,3.710926056,-1.915203094,8.417762756,0.003463318,-0.114556827,1.042602062
127.058779,3.398120880,-1.487957001,7.754005432,0.000777771,-0.129571468,1.051879406
127.074258,0.758350372,-1.243816376,8.074440002,0.015914489,-0.134820491,1.076049328
127.112710,0.857532501,-15.381084442,3.718055725,0.048018981,0.059027158,1.056029797
127.151188,11.218250275,-30.861125946,-0.104270935,0.014571716,0.048284970,1.034423351
127.165494,14.590442657,-24.322734833,-4.391990662,-0.027908754,0.053167783,1.047484875
127.181010,13.392627716,-17.120586395,-4.506431580,-0.025711488,0.007757626,1.063109875
127.219485,1.811206818,22.224201202,-2.065025330,-0.026565980,0.005316220,1.067992687
127.257961,-8.213817596,35.125507355,5.655921936,0.070846133,-0.031304874,1.049438000
127.272271,-6.916820526,28.182758331,5.030311584,0.086715274,-0.052667178,1.037230968
127.287750,-4.948436737,4.348529816,-1.668296814,0.106612734,-0.088189639,1.023681164
127.288473,-4.948436737,4.348529816,-1.668296814,0.106612734,-0.088189639,1.023681164
127.289082,-4.948436737,4.348529816,-1.668296814,0.106612734,-0.088189639,1.023681164
127.289705,-4.948436737,4.348529816,-1.668296814,0.106612734,-0.088189639,1.023681164
127.290316,-4.948436737,4.348529816,-1.668296814,0.106612734,-0.088189639,1.023681164
127.339153,-0.241100311,-25.543437958,-6.451927185,0.003829529,-0.060967959,0.990233898
127.377701,-7.717906952,-5.783306122,-4.254661560,-0.013870667,-0.132745296,0.974853039
127.391867,-10.411083221,1.678241730,-4.216514587,-0.015091370,-0.139459163,0.961181164
127.407326,-11.242687225,12.115253448,-6.429039001,0.000167419,-0.195855647,0.953856945
127.445775,-14.530956268,18.272174835,-10.083518982,0.060958434,-0.150079280,0.927855968
127.484269,-12.562572479,14.236225128,-7.825218201,0.120894961,-0.038140811,0.928588390
127.510320,-8.526622772,1.853717804,-11.533103943,0.153365657,0.023870908,0.954101086
127.524650,-7.527172089,-7.301555634,-6.200157166,0.116744570,0.029242001,0.955199718
127.563035,-3.765880585,-5.165325165,-5.757652283,0.083907656,-0.104791202,0.960326672
127.601505,-2.247631073,-26.771770477,-6.909690857,0.114181094,-0.046319522,1.015258312
127.615791,2.062976837,-31.669841766,-10.144554138,0.073287539,-0.023004092,1.018432140
127.631246,-0.653087616,-28.335796356,-12.654624939,0.042403746,-0.124322452,1.026977062
127.669712,0.460803986,-0.793682098,-10.480247498,0.033492614,-0.120538272,0.976439953
127.670443,-1.873790741,9.940876007,-7.565818787,0.057540465,-0.166314632,0.985717297
127.671033,-1.873790741,9.940876007,-7.565818787,0.057540465,-0.166314632,0.985717297
127.671645,-1.873790741,9.940876007,-7.565818787,0.057540465,-0.166314632,0.985717297
127.672244,-1.873790741,9.940876007,-7.565818787,0.057540465,-0.166314632,0.985717297
127.672858,-1.873790741,9.940876007,-7.565818787,0.057540465,-0.166314632,0.985717297
127.673446,-1.873790741,9.940876007,-7.565818787,0.057540465,-0.166314632,0.985717297
127.674189,-1.873790741,9.940876007,-7.565818787,0.057540465,-0.166314632,0.985717297
127.674791,-1.873790741,9.940876007,-7.565818787,0.057540465,-0.166314632,0.985717297
127.675391,-1.873790741,9.940876007,-7.565818787,0.057540465,-0.166314632,0.985717297
127.676004,-1.873790741,9.940876007,-7.565818787,0.057540465,-0.166314632,0.985717297
127.676598,-1.873790741,9.940876007,-7.565818787,0.057540465,-0.166314632,0.985717297
127.677220,-1.873790741,9.940876007,-7.565818787,0.057540465,-0.166314632,0.985717297
127.677819,-1.873790741,9.940876007,-7.565818787,0.057540465,-0.166314632,0.985717297
127.678437,-1.873790741,9.940876007,-7.565818787,0.057540465,-0.166314632,0.985717297
127.679032,-1.873790741,9.940876007,-7.565818787,0.057540465,-0.166314632,0.985717297
127.679648,-1.873790741,9.940876007,-7.565818787,0.057540465,-0.166314632,0.985717297
127.680255,-4.193126678,18.012775421,-6.322227478,0.072555117,-0.129083186,0.984740734
127.718578,-1.263439178,27.534259796,-3.873191833,0.107711367,0.058660947,0.977782726
127.732897,-0.660717010,28.976215363,-4.079185486,0.088668399,0.189398259,0.944091320
127.748211,4.161060333,29.540790558,-1.920066833,0.108321719,0.226263493,0.945556164
127.786772,13.621509552,17.295612335,0.895179749,0.074019961,-0.012017764,0.979979992
127.825268,13.987720490,9.246601105,-2.095542908,0.065352969,-0.204888850,1.048949718
127.839467,9.326160431,4.524005890,-1.424156189,0.069015078,-0.201348811,1.073485851
127.854942,6.846607208,1.006855011,-1.645408630,0.062789492,-0.167291194,1.067748547
127.893363,4.481494904,-7.652507782,-5.063377380,0.036422301,-0.073663272,1.030028820
127.931817,-1.492321014,-3.441082001,-5.223594666,0.032760192,-0.025079288,1.030395031
127.945993,-1.988231659,0.015033722,-2.972923279,0.040816832,-0.043756045,1.027221203
127.961460,-8.244335175,6.912006378,-0.729881287,0.040938903,-0.081353702,1.016356945
127.999956,-13.798534393,5.904926300,2.413429260,0.097823672,-0.137017757,1.032592297
128.000675,-13.798534393,5.904926300,2.413429260,0.097823672,-0.137017757,1.032592297
128.001294,-13.798534393,5.904926300,2.413429260,0.097823672,-0.137017757,1.032592297
128.001931,-13.798534393,5.904926300,2.413429260,0.097823672,-0.137017757,1.032592297
128.002533,-13.798534393,5.904926300,2.413429260,0.097823672,-0.137017757,1.032592297
128.003171,-13.798534393,5.904926300,2.413429260,0.097823672,-0.137017757,1.032592297
128.052028,-7.908641815,-23.834453583,-3.156028748,0.038497496,-0.092340030,0.993773937
128.066248,-6.825267792,-22.537456512,-4.170738220,0.011397888,-0.029717959,0.993041515
128.081737,-7.138072968,-12.642131805,-4.620872498,0.019820739,-0.073785342,1.016112804
128.120194,-11.929332733,19.370807648,0.574745178,0.000045349,-0.009576358,1.001952648
128.158654,-12.608348846,19.111408234,1.337684631,0.069625430,-0.163873225,1.037353039
128.172944,-11.189281464,10.551227570,1.230873108,0.084151797,-0.188409358,1.033446789
128.198922,-5.451976776,-19.516216278,-5.673728943,0.058883239,-0.109674014,1.009643078
128.237418,1.689136505,-27.382122040,-8.023582458,0.006637146,-0.049981631,0.957763195
128.275900,3.916919708,-8.056865692,-0.600181580,0.014449646,-0.102227725,0.979979992
128.290070,1.551807404,2.776874542,0.109352112,0.006393005,-0.121270694,0.973876476
128.305535,2.986133575,5.889667511,-1.141868591,0.009200622,-0.141656429,0.971068859
128.344027,2.688587189,12.992633820,-1.225791931,0.035079528,-0.060113467,0.970824718
128.382496,0.064075470,6.110919952,6.617225647,0.077315859,-0.024591006,0.942992687
128.396848,4.130542755,-9.506450653,1.597084045,0.071700625,-0.077935733,0.926391125
128.412190,6.884754181,-18.310771942,-0.157676697,0.072433047,-0.062676944,0.926513195
128.450714,8.830249786,-31.662212372,-5.025230408,0.003951599,-0.093194522,0.936767101
128.489124,1.963794708,-0.412212372,-1.347862244,0.002975036,-0.107720889,0.975341320
128.503447,-2.125560760,9.765399933,-0.722251892,0.005172302,-0.100152530,0.974486828
128.518921,-6.001293182,23.467792511,-0.485740662,0.044478942,-0.106622256,0.979247570
128.557380,-7.717906952,20.942462921,-1.454673767,0.143111750,-0.049981631,1.003173351
128.595859,-4.895030975,-15.709148407,-0.325523376,0.163131282,-0.082330264,0.993651867
128.610055,-4.010021210,-22.255168915,-0.783287048,0.138106868,-0.096734561,0.991454601
128.625495,-4.406749725,-23.819194794,1.406349182,0.128219172,-0.059503116,0.994994640
128.664011,-2.766429901,-21.217571259,4.297889709,0.146407649,0.014837705,0.994872570
128.664741,-1.103221893,-21.949993134,4.740394592,0.143233821,0.032293759,0.997313976
128.665357,-1.103221893,-21.949993134,4.740394592,0.143233821,0.032293759,0.997313976
128.665975,-1.103221893,-21.949993134,4.740394592,0.143233821,0.032293759,0.997313976
128.666571,-1.103221893,-21.949993134,4.740394592,0.143233821,0.032293759,0.997313976
128.667195,-1.103221893,-21.949993134,4.740394592,0.143233821,0.032293759,0.997313976
128.667795,-1.103221893,-21.949993134,4.740394592,0.143233821,0.032293759,0.997313976
128.668425,-1.103221893,-21.949993134,4.740394592,0.143233821,0.032293759,0.997313976
128.669027,-1.103221893,-21.949993134,4.740394592,0.143233821,0.032293759,0.997313976
128.707368,2.406299591,5.553974152,3.458656311,0.080489688,-0.079156436,0.990722179
128.721642,2.307117462,16.189350128,5.762733459,0.095992617,-0.137383968,0.999267101
128.737095,0.086963654,31.272663116,10.225929260,0.162887141,-0.146173030,1.031249523
128.775575,6.282032013,4.943622589,7.822669983,0.184737727,0.091253720,1.015258312
128.814067,12.568653107,13.419879913,10.073341370,0.128951594,0.107122861,1.055541515
128.828258,10.020435333,14.961017609,14.261878967,0.138961360,0.078680478,1.067992687
128.843767,8.387744904,10.017169952,15.917457581,0.141402766,0.003485166,1.059691906
128.892679,9.806812286,-22.690044403,11.820472717,0.105758242,-0.153253108,1.047362804
128.931236,8.097827911,-36.270366669,7.250465393,0.053756285,-0.135674983,1.032348156
128.945514,6.686389923,-31.563030243,2.352394104,0.020919371,-0.087579288,1.011474133
128.960973,4.679859161,-24.353252411,3.084815979,0.017623473,-0.064385928,1.001342297
128.999440,-5.993663788,18.028034210,8.539833069,0.027267028,-0.059747256,0.991454601
129.037908,-14.241039276,38.787616730,13.010658264,0.101851992,-0.122857608,0.964965343
129.052188,-14.195262909,27.900470734,9.859718323,0.139571711,-0.142999202,0.962768078
129.067647,-13.554393768,17.143024445,7.868446350,0.147384211,-0.143609554,0.958617687
129.106086,-8.274852753,-23.346172333,6.090797424,0.097335391,-0.138848811,0.919555187
129.155059,-3.704845428,-26.336894989,2.436317444,0.046676207,-0.096734561,0.927855968
129.169395,-2.598583221,-21.476970673,1.444496155,0.032638121,-0.059258975,0.924804211
129.184854,-1.080333710,-4.982219696,2.787269592,0.013961365,-0.032891788,0.921630383
129.223278,-2.163707733,39.481891632,8.845008850,0.030929137,-0.072442569,1.020141125
129.261797,-4.139720917,42.991413116,9.409584045,0.063155703,-0.158257991,1.056762218
129.276101,-3.025829315,33.859027863,9.707130432,0.069259219,-0.227105647,1.059569836
129.302078,4.969776154,-8.079753876,-5.994163513,0.092696719,-0.231622249,1.101073742
129.340621,4.435718536,-26.367412567,-10.342918396,0.018233825,-0.049493350,1.063476086
129.379090,3.047168732,-2.746807098,-5.467735291,0.038741637,-0.070977725,1.017089367
129.393383,4.054248810,12.756122589,-1.012168884,0.043624450,-0.034356631,1.028930187
129.408855,1.376331329,17.486347198,0.094093323,0.053145934,-0.072564639,1.036010265
129.447303,1.086414337,11.993183136,2.703346252,0.134688899,-0.036309756,1.048827648
129.485714,2.253711700,-32.005535126,4.000343323,0.085006289,-0.043023624,1.020385265
129.500006,3.855884552,-44.082866669,0.658668518,0.042159606,-0.084771670,0.992797375
129.515480,5.496204376,-46.592937469,-1.164756775,0.013351013,-0.062188663,0.997680187
129.553989,-5.886852264,-20.332561493,2.787269592,-0.012039612,-0.065972842,0.975463390
129.602964,-15.965282440,26.656879425,2.146400452,0.036910582,-0.112237491,0.911742687
129.617375,-16.163646698,31.768573761,1.413978577,0.046187926,-0.118585147,0.897826672
129.632725,-13.821422577,34.446491241,-1.797996521,0.076339297,-0.171197444,0.876220226
129.671251,-4.483043671,21.644367218,-7.771812439,0.128463313,-0.165948421,0.901000500
129.709712,-2.064525604,17.165912628,-0.958763123,0.087325625,-0.031426944,0.895995617
129.723999,-0.515758514,17.127765656,0.574745178,0.102096133,-0.015679874,0.907226086
129.739461,3.703296661,7.125629425,2.550758362,0.139693782,-0.103326358,0.953490734
129.777883,11.141956329,-21.072612762,-0.912986755,0.017745543,0.062445126,0.993163586
129.826916,10.409534454,-12.092815399,-2.789817810,-0.002884339,-0.179132015,1.082641125
129.842621,9.425342560,-8.224712372,-4.025779724,-0.011185120,-0.128839046,1.074096203
129.856881,10.241687775,0.617755890,-5.475364685,-0.015701722,-0.069024600,1.082763195
129.895213,6.236255646,8.483661652,-8.382164001,0.009566833,-0.020684756,1.099608898
129.933667,4.824817657,18.485797882,-11.342369080,0.035201598,0.094793759,1.039550304
129.947982,5.053699493,28.144611359,-8.054100037,0.081954531,0.009710751,1.060790539
129.963487,3.054798126,28.861774445,-2.934776306,0.114425234,-0.059381045,1.067626476
130.001953,1.719654083,-1.846538544,-5.391441345,0.150313899,-0.063653506,1.005126476
130.040409,8.738697052,-26.642070770,-8.443199158,0.088180117,-0.163384944,1.030883312
130.054681,7.495105743,-25.856243134,-8.847557068,0.080245547,-0.152032405,1.038329601
130.070140,0.613391876,-16.449199677,-6.490074158,0.070235781,-0.125543147,1.026732922
130.108598,-6.047069550,11.955036163,-1.904808044,0.079635195,-0.074517764,0.979247570
130.147022,-8.511363983,3.547443390,-3.651939392,0.218184993,-0.165826350,1.025390148
130.161362,-8.969127655,-3.463970184,-1.561485291,0.226485774,-0.150689632,1.017333508
130.176690,-8.511363983,-17.387615204,-1.653038025,0.219771907,-0.129937679,1.001952648
130.215180,-7.695018768,-29.312358856,1.566566467,0.165206477,-0.049981631,1.000121593
130.253680,-9.205638885,-15.114055634,6.762184143,0.116622500,-0.002862491,0.997313976
130.267858,-7.992565155,-2.136455536,7.952369690,0.089522891,0.029608212,0.991698742
130.283186,-6.718456268,3.776325226,7.250465393,0.085494570,0.006781064,1.000243664
130.332160,-9.594738007,18.699420929,8.295692444,0.106124453,-0.102471866,1.079467297
130.370730,-10.281383514,9.025348663,11.309303284,0.068038516,-0.068902530,1.010375500
130.385025,-6.176769257,-6.439434052,9.096778870,0.052169371,-0.116632022,0.982299328
130.400516,-3.536998749,-15.968547821,6.594337463,0.042403746,-0.137750179,0.973021984
130.449518,5.480945587,-33.714519501,-0.287376404,-0.010330628,-0.062921084,0.959105968
130.487978,1.879871368,-8.117900848,6.586708069,-0.036453675,-0.023858584,0.894896984
130.502297,3.901660919,-3.090129852,4.686988831,-0.039383363,-0.035943545,0.888061047
130.517614,5.381763458,5.271686554,2.405799866,-0.026199769,-0.106500186,0.901732922
130.518382,5.381763458,5.271686554,2.405799866,-0.026199769,-0.106500186,0.901732922
130.519028,5.381763458,5.271686554,2.405799866,-0.026199769,-0.106500186,0.901732922
130.519684,5.381763458,5.271686554,2.405799866,-0.026199769,-0.106500186,0.901732922
130.520303,5.381763458,5.271686554,2.405799866,-0.026199769,-0.106500186,0.901732922
130.520965,5.381763458,5.271686554,2.405799866,-0.026199769,-0.106500186,0.901732922
130.521572,5.381763458,5.271686554,2.405799866,-0.026199769,-0.106500186,0.901732922
130.522228,5.381763458,5.271686554,2.405799866,-0.026199769,-0.106500186,0.901732922
130.522855,4.824817657,8.994831085,1.978553772,-0.022537660,-0.116387881,0.909179211
130.523510,4.824817657,8.994831085,1.978553772,-0.022537660,-0.116387881,0.909179211
130.524129,4.824817657,8.994831085,1.978553772,-0.022537660,-0.116387881,0.909179211
130.524783,4.824817657,8.994831085,1.978553772,-0.022537660,-0.116387881,0.909179211
130.525412,4.824817657,8.994831085,1.978553772,-0.022537660,-0.116387881,0.909179211
130.563817,2.513111115,15.121234894,-2.629600525,0.002120544,-0.141900569,0.913207531
130.564546,2.513111115,15.121234894,-2.629600525,0.002120544,-0.141900569,0.913207531
130.602870,2.207935333,17.326129913,-4.170738220,0.037032653,-0.047418155,0.902831554
130.617049,3.039539337,17.928852081,-3.339134216,0.051192809,-0.069390811,0.913085461
130.632375,1.887500763,15.411151886,-1.874290466,0.078292422,-0.132623225,0.939818859
130.670903,-0.248729706,-1.159893036,-4.117332458,0.108077578,-0.226861507,0.956908703
130.709402,-0.569164276,-11.100994110,-3.545127869,0.090743594,-0.194268733,0.957763195
130.723556,-1.438915253,-4.326091766,-1.592002869,0.080123477,-0.154962093,0.968871593
130.739028,-1.370250702,0.404132843,-0.676475525,0.077437930,-0.152154475,0.977904797
130.777507,-3.468334198,17.211688995,2.215065002,0.096114688,-0.122369327,1.009887218
130.816005,0.964344025,10.070575714,4.877723694,0.120894961,-0.077569522,1.044799328
130.830168,2.444446564,5.111469269,6.334938049,0.109542422,-0.076959170,1.062621593
130.845706,3.565967560,-5.462871552,5.190528870,0.072677188,-0.105157413,1.092772961
130.846433,3.565967560,-5.462871552,5.190528870,0.072677188,-0.105157413,1.092772961
130.847055,3.565967560,-5.462871552,5.190528870,0.072677188,-0.105157413,1.092772961
130.847699,3.565967560,-5.462871552,5.190528870,0.072677188,-0.105157413,1.092772961
130.848317,3.565967560,-5.462871552,5.190528870,0.072677188,-0.105157413,1.092772961
130.848948,3.565967560,-5.462871552,5.190528870,0.072677188,-0.105157413,1.092772961
130.849560,3.565967560,-5.462871552,5.190528870,0.072677188,-0.105157413,1.092772961
130.850202,3.565967560,-5.462871552,5.190528870,0.072677188,-0.105157413,1.092772961
130.850808,4.176319122,-10.101543427,3.420509338,0.059737731,-0.086358584,1.103026867
130.851453,4.176319122,-10.101543427,3.420509338,0.059737731,-0.086358584,1.103026867
130.852076,4.176319122,-10.101543427,3.420509338,0.059737731,-0.086358584,1.103026867
130.852710,4.176319122,-10.101543427,3.420509338,0.059737731,-0.086358584,1.103026867
130.853336,4.176319122,-10.101543427,3.420509338,0.059737731,-0.086358584,1.103026867
130.853975,4.176319122,-10.101543427,3.420509338,0.059737731,-0.086358584,1.103026867
130.854589,4.176319122,-10.101543427,3.420509338,0.059737731,-0.086358584,1.103026867
130.855240,4.176319122,-10.101543427,3.420509338,0.059737731,-0.086358584,1.103026867
130.855868,4.176319122,-10.101543427,3.420509338,0.059737731,-0.086358584,1.103026867
130.856511,4.176319122,-10.101543427,3.420509338,0.059737731,-0.086358584,1.103026867
130.894865,-0.469982147,-12.703166962,4.442848206,0.014571716,-0.149102718,1.116210461
130.933323,-0.546276093,-9.941326141,0.788368225,-0.011795471,-0.124810733,1.076781750
130.959411,-0.096141815,-9.460674286,-2.843223572,-0.011917542,-0.080255069,1.068603039
130.973609,0.003040314,-4.020915985,-6.444297791,-0.014481018,0.037786923,1.049438000
131.022419,-4.124462128,34.286273956,-4.201255798,0.044845153,-0.051934756,1.044799328
131.060971,-10.594188690,37.055744171,-2.271018982,0.138839290,-0.091241397,0.988402843
131.075147,-9.297191620,29.449237823,-2.888999939,0.144332454,-0.064263858,0.959960461
131.090674,-2.796947479,11.161579132,-3.491722107,0.150558040,-0.046685733,0.924071789
131.128996,2.734363556,-12.588726044,-0.935874939,0.135665461,-0.062066592,0.943236828
131.167507,0.437915802,-6.721721649,6.586708069,0.085860781,-0.060723819,0.943480968
131.181800,0.659168243,-7.141338348,5.968727112,0.069381289,-0.067559756,0.945189953
131.197343,0.415027618,-8.934246063,4.702247620,0.070113711,-0.104913272,0.950438976
131.235791,-4.254161835,-10.208354950,3.901161194,0.057784606,-0.144586116,0.932982922
131.274202,-5.955516815,-9.887920380,3.901161194,0.026168395,-0.082330264,0.884887218
131.288580,-3.590404510,-10.406719208,4.198707581,0.011031677,-0.019219913,0.877807140
131.303927,-1.667797089,-10.795818329,5.602516174,-0.004715393,0.024359189,0.884643078
131.342434,1.071155548,-12.657390594,-0.798545837,-0.024002504,-0.111993350,0.995727062
131.380901,-0.935375214,-2.434001923,2.001441956,-0.054642152,-0.023370303,0.941527843
131.395202,3.100574493,-1.632915497,-1.523338318,-0.065994687,-0.043633975,0.944945812
131.410517,7.037342072,-0.435100555,-7.756553650,-0.055862855,-0.146050960,1.019652843
131.449012,1.765430450,19.492877960,-6.306968689,-0.005936096,-0.059625186,0.997191906
131.487520,7.197559357,15.823139191,-6.497703552,0.017379332,-0.234185725,1.161376476
131.501680,4.145801544,11.527790070,-6.505332947,0.024947692,-0.203179866,1.174193859
131.517000,-2.400218964,3.989948273,-2.507530212,0.014571716,-0.120416202,1.118285656
131.517750,-2.400218964,3.989948273,-2.507530212,0.014571716,-0.120416202,1.118285656
131.518395,-2.400218964,3.989948273,-2.507530212,0.014571716,-0.120416202,1.118285656
131.519041,-2.400218964,3.989948273,-2.507530212,0.014571716,-0.120416202,1.118285656
131.519665,-2.400218964,3.989948273,-2.507530212,0.014571716,-0.120416202,1.118285656
131.558045,4.565418243,-6.508098602,-7.840476990,-0.059647035,-0.109551944,1.122313976
131.596525,-22.259532928,20.065082550,-6.116233826,-0.034500550,-0.130548030,1.063964367
131.610678,-21.771251678,29.708637238,-5.811058044,-0.032791566,-0.081719913,1.011107922
131.626126,-17.178356171,45.722736359,-5.086265564,-0.029129457,-0.051202334,0.978148937
131.664550,-22.763072968,59.966815948,-5.505882263,0.008468200,-0.293878108,1.052611828
131.713487,-11.669933319,22.117389679,-4.132591248,0.117599063,-0.340020686,1.065429211
131.727851,-15.271007538,-12.161479950,-6.337486267,0.168502375,-0.058404483,0.973144054
131.743332,-8.183300018,-20.035015106,0.879920959,0.164107844,-0.038751163,0.974242687
131.781799,-15.362560272,-33.004985809,1.368202209,0.043502379,-0.026666202,0.965209484
131.820076,-5.238353729,-32.394634247,-4.330955505,0.030440856,-0.514581263,1.164794445
131.834437,-11.608898163,-16.967998505,8.913673401,0.056685973,-0.287042171,1.087157726
131.849812,-13.020336151,-3.677593231,21.883644104,0.027144957,-0.220513850,1.106200695
131.850582,-13.020336151,-3.677593231,21.883644104,0.027144957,-0.220513850,1.106200695
131.851260,-13.020336151,-3.677593231,21.883644104,0.027144957,-0.220513850,1.106200695
131.889672,-16.026317596,-2.060161591,11.248268127,-0.027176332,0.079046689,0.982787609
131.928168,-9.480297089,-9.956584930,8.791603088,-0.043899965,-0.113580264,0.979979992
131.942440,-7.717906952,-9.941326141,11.202491760,-0.060501527,-0.005792178,0.932860851
131.957752,4.283130646,-9.536968231,8.989967346,-0.051346254,-0.151788265,0.948729992
131.996264,2.787769318,-9.063945770,4.191078186,-0.035965394,-0.151299983,0.886229992
132.034783,2.505481720,8.468402863,3.084815979,-0.008377503,-0.267632991,0.907592297
132.048931,5.786121368,13.335956573,2.222694397,-0.014481018,-0.147515804,0.890136242
132.074962,6.205738068,23.383869171,1.597084045,0.062545352,-0.363946468,0.961913586
132.113443,2.749622345,12.756122589,5.785621643,0.047652770,0.016180478,0.810302258
132.151927,9.844959259,-7.057415009,2.894081116,0.073409609,-0.139337093,0.856811047
132.166198,10.310352325,-21.049724579,0.368751526,0.082809024,-0.191583186,0.857177258
132.181699,9.318531036,-24.498210907,0.322975159,0.085250430,-0.251885921,0.848510265
132.182436,6.884754181,-26.275859833,0.696815491,0.082686953,-0.262261897,0.824828625
132.183042,6.884754181,-26.275859833,0.696815491,0.082686953,-0.262261897,0.824828625
132.183669,6.884754181,-26.275859833,0.696815491,0.082686953,-0.262261897,0.824828625
132.221912,16.612232208,-13.870464325,4.107154846,0.012374450,-0.148492366,0.811522961
132.260343,6.594837189,2.647174835,2.833045959,0.032516051,-0.219049007,0.825072765
132.274671,10.058582306,11.146320343,2.352394104,0.051925231,-0.127496272,0.790038586
132.290149,14.018238068,14.442218781,2.886451721,0.064986758,-0.143731624,0.809325695
132.328620,14.369190216,13.076557159,5.037940979,0.079635195,-0.182672054,0.924926281
132.367026,19.282520294,-12.695537567,3.145851135,0.064498477,-0.066094913,0.950805187
132.393136,22.692859650,-16.525493622,6.930030823,0.020309020,-0.084771670,1.024413586
132.407357,20.968616486,-15.320049286,5.602516174,0.004684021,-0.076715030,1.043700695
132.445734,25.103748322,-6.744609833,8.112586975,0.007979919,-0.047662295,1.067260265
132.484225,11.988819122,0.388874054,6.655372620,-0.003616760,0.009222470,1.065429211
132.498380,15.772998810,1.342548370,5.388893127,-0.009842346,0.048284970,1.028197765
132.513842,22.982776642,-0.450359344,-0.020347595,-0.008377503,0.004095517,1.046386242
132.514541,22.982776642,-0.450359344,-0.020347595,-0.008377503,0.004095517,1.046386242
132.552868,24.462879181,5.637897491,-2.896629333,0.022628356,-0.011163272,1.025512218
132.591396,22.402942657,5.660785675,6.365455627,0.035811950,0.076971494,1.049804211
132.605672,27.415454865,-1.480327606,0.658668518,0.031173278,0.132635564,1.063231945
132.621019,27.842700958,-11.657939911,2.237953186,0.090987734,-0.113091983,1.130004406
132.659600,13.278186798,-15.640483856,8.623756409,0.000045349,0.103216611,1.063842297
132.698073,12.843311310,-11.718975067,-3.980003357,-0.032547425,0.001165830,1.070556164
132.712383,9.066761017,3.265155792,-3.819786072,0.006026794,-0.101739444,1.062621593
132.727912,4.985034943,12.649311066,-0.943504333,0.027877379,-0.167901546,1.065673351
132.766329,5.030811310,26.298297882,6.472267151,-0.015945863,0.260076970,0.982055187
132.804818,1.498401642,2.761615753,6.655372620,0.101119570,-0.068170108,1.085326672
132.818989,0.529468536,-15.159832001,1.558937073,0.077804141,-0.044366397,1.078246593
132.834500,-0.538646698,-18.684612274,4.816688538,0.061812926,-0.011773624,1.067992687
132.835217,-0.538646698,-18.684612274,4.816688538,0.061812926,-0.011773624,1.067992687
132.835848,-0.538646698,-18.684612274,4.816688538,0.061812926,-0.011773624,1.067992687
132.836493,-0.538646698,-18.684612274,4.816688538,0.061812926,-0.011773624,1.067992687
132.837116,-0.538646698,-18.684612274,4.816688538,0.061812926,-0.011773624,1.067992687
132.837756,-0.538646698,-18.684612274,4.816688538,0.061812926,-0.011773624,1.067992687
132.838383,-0.683605194,-22.117839813,7.197059631,0.032760192,0.030706845,1.066527843
132.839029,-0.683605194,-22.117839813,7.197059631,0.032760192,0.030706845,1.066527843
132.839649,-0.683605194,-22.117839813,7.197059631,0.032760192,0.030706845,1.066527843
132.840295,-0.683605194,-22.117839813,7.197059631,0.032760192,0.030706845,1.066527843
132.840926,-0.683605194,-22.117839813,7.197059631,0.032760192,0.030706845,1.066527843
132.841566,-0.683605194,-22.117839813,7.197059631,0.032760192,0.030706845,1.066527843
132.842193,-0.683605194,-22.117839813,7.197059631,0.032760192,0.030706845,1.066527843
132.842837,-0.683605194,-22.117839813,7.197059631,0.032760192,0.030706845,1.066527843
132.843462,-0.683605194,-22.117839813,7.197059631,0.032760192,0.030706845,1.066527843
132.844104,-0.683605194,-22.117839813,7.197059631,0.032760192,0.030706845,1.066527843
132.892985,-8.015453339,-20.187602997,7.784523010,0.019820739,-0.093438663,1.094726086
132.931495,-5.230724335,-9.308086395,6.495155334,0.000045349,0.063299619,1.030395031
132.945665,-6.253063202,-6.530986786,7.570899963,-0.005691956,0.058050595,1.038573742
132.961105,-5.261241913,-4.387126923,2.451576233,0.004439880,0.034368955,1.044677258
132.999602,-4.086315155,4.806293488,3.237403870,0.064132266,-0.133599788,1.114013195
133.048567,-5.741893768,4.806293488,2.901710510,0.057418395,0.035345517,1.047484875
133.062768,-6.375133514,2.799762726,3.183998108,0.057296325,0.038275205,1.033690929
133.078276,-4.978954315,-0.053630829,2.192176819,0.033614684,0.104193173,0.985473156
133.116736,1.155078888,0.053180695,-1.019798279,0.043746520,-0.029229678,0.968261242
133.155195,1.971424103,5.080951691,-0.470481873,0.056441832,-0.045709170,0.948729992
133.169527,0.765979767,7.743610382,-1.164756775,0.059005309,-0.061090030,0.946044445
133.184843,-0.630199432,8.964313507,-1.599632263,0.055831481,-0.047784366,0.934813976
133.223390,-0.279247284,15.220417023,-0.912986755,0.057906676,0.004705869,0.894652843
133.261801,5.221546173,17.722858429,-2.591453552,0.074386172,-0.038507022,0.912719250
133.276115,-1.431285858,21.796955109,2.810157776,0.095382266,-0.118829288,0.943358898
133.291585,-3.308116913,21.240009308,3.679908752,0.090865664,-0.087091006,0.928710461
133.330038,-1.133739471,12.557758331,4.480995178,0.079879336,-0.036675967,0.924193859
133.379126,-4.757701874,11.527790070,4.915870667,0.066329531,-0.131036311,0.945800304
133.394818,-4.856884003,12.290729523,0.307716370,0.037032653,-0.041436709,0.930663586
133.408974,-3.422557831,14.411701202,-0.470481873,0.045089293,-0.046685733,0.933959484
133.447349,-4.063426971,21.301044464,3.992713928,0.039107848,-0.035699405,0.987914562
133.485801,0.353992462,12.199176788,8.547462463,0.023726989,0.140325993,0.981688976
133.500095,3.436267853,7.415546417,6.045021057,0.028243590,0.099676572,1.001586437
133.515607,5.892932892,-2.166973114,6.678260803,0.043502379,0.051947080,1.038695812
133.554027,5.496204376,-24.986492157,9.005226135,0.055343200,-0.049981631,1.110473156
133.592513,6.991565704,-41.618572235,6.388343811,-0.000320862,0.040228330,1.047606945
133.606689,11.515796661,-42.701946259,-0.233970642,-0.029861879,-0.009088077,1.062255383
133.622172,9.669483185,-39.169536591,0.826515198,-0.031204652,-0.036431827,1.065429211
133.660593,11.492908478,-9.132610321,4.564918518,-0.079666562,0.108953916,1.061889172
133.709558,6.289661407,18.729938507,4.999794006,-0.017288636,-0.045953311,1.048095226
133.723967,2.192676544,22.811664581,6.365455627,-0.010696839,-0.030328311,1.026000500
133.739459,3.573596954,22.247089386,4.686988831,-0.010696839,0.012152158,1.006103039
133.777930,4.580677032,8.582843781,-0.005088806,0.042159606,-0.096734561,1.028441906
133.816414,7.754505157,-3.181682587,-0.211082458,-0.001175354,0.029852353,1.033813000
133.830578,6.365955353,-5.409465790,-2.911888123,0.003463318,-0.032037295,1.048217297
133.846023,-0.279247284,-7.034526825,-1.073204041,0.022872496,-0.072686709,1.055419445
133.884518,-4.475414276,-11.581645966,-3.812156677,-0.013504456,0.011419736,1.009032726
133.922971,-9.831249237,1.273883820,-3.300987244,-0.014114807,-0.057672061,1.005370617
133.937267,-10.182201385,6.026996613,-3.232322693,-0.010452698,-0.032769717,1.004516125
133.952612,-11.502086639,16.128314972,1.810707092,-0.004471253,-0.002374209,1.013671398
133.991209,-13.806163788,13.702167511,1.314796448,0.053268004,-0.061334170,1.036254406
134.029711,-9.129344940,-2.525554657,2.451576233,0.038497496,0.045965634,0.993407726
134.043883,0.025928497,-13.603435516,-0.371299744,0.022384215,0.049017392,0.998534679
134.059211,2.848804474,-17.288433075,-0.706993103,0.022018004,0.014593564,1.018920422
134.097756,-0.469982147,-17.570720673,3.245033264,0.026900817,-0.091729678,1.036864758
134.098484,-0.469982147,-17.570720673,3.245033264,0.026900817,-0.091729678,1.036864758
134.099106,-0.469982147,-17.570720673,3.245033264,0.026900817,-0.091729678,1.036864758
134.148053,-1.202404022,-4.646526337,0.940956116,-0.018509340,0.052191220,1.040282726
134.162367,-2.201854706,3.906024933,2.176918030,-0.023392152,0.109808408,1.026977062
134.177914,-1.866161346,7.118000031,1.650489807,-0.022781800,0.103949033,1.025390148
134.216353,-5.787670135,12.214435577,2.230323792,0.022872496,-0.007012881,1.009154797
134.254772,-7.725536346,-1.198040009,0.239051819,0.035323668,-0.002862491,0.940551281
134.269089,-2.430736542,-10.551677704,-2.057395935,0.018966246,0.069036923,0.888793468
134.284560,0.918567657,-14.038311005,-2.881370544,0.013106872,0.052923642,0.890258312
134.323013,1.597583771,-12.809978485,-6.535850525,-0.020706605,-0.009210147,0.873168468
134.371974,0.781238556,11.176837921,-3.980003357,-0.005325745,-0.074761905,0.922973156
134.386180,-1.332103729,13.915790558,-3.453575134,0.011764099,-0.102838077,0.936156750
134.401514,-4.864513397,15.754474640,-2.736412048,0.036056090,-0.120416202,0.945800304
134.440058,-8.229076385,8.949054718,-3.636680603,0.034713317,-0.075738467,0.929809093
134.478566,-3.666698456,3.547443390,-6.436668396,0.030807067,-0.063897647,0.949462414
134.492726,-4.208385468,4.531635284,-4.895530701,0.025924254,-0.040948428,0.956054211
134.508176,-3.544628143,4.173053741,-3.842674255,0.009078552,0.062445126,0.964477062
134.546606,0.117481232,-0.061260223,-4.910789490,-0.004837464,0.156561345,0.988646984
134.585094,2.925098419,-2.464519501,-5.254112244,0.002852966,0.078558408,1.036010265
134.599263,0.910938263,0.129474640,-3.568016052,0.024947692,-0.047906436,1.061522961
134.614804,-1.293956757,0.968708038,-2.621971130,0.039718200,-0.110040225,1.061400890
134.653055,0.491321564,-1.419292450,-4.086814880,0.038009215,-0.102471866,1.032470226
134.691569,2.108753204,2.357257843,2.047218323,0.001143982,0.129095525,0.981200695
134.705860,3.298938751,2.647174835,2.703346252,-0.011551331,0.183172673,0.968505383
134.721373,8.471668243,-0.908123016,1.215614319,-0.008499573,0.196112126,0.960937023
134.759856,10.111988068,-11.963115692,1.612342834,0.022750426,-0.069146670,0.984740734
134.760590,10.111988068,-11.963115692,1.612342834,0.022750426,-0.069146670,0.984740734
134.761200,10.111988068,-11.963115692,1.612342834,0.022750426,-0.069146670,0.984740734
134.761821,10.111988068,-11.963115692,1.612342834,0.022750426,-0.069146670,0.984740734
134.762426,10.111988068,-11.963115692,1.612342834,0.022750426,-0.069146670,0.984740734
134.763049,10.111988068,-11.963115692,1.612342834,0.022750426,-0.069146670,0.984740734
134.763638,10.111988068,-11.963115692,1.612342834,0.022750426,-0.069146670,0.984740734
134.764272,10.111988068,-11.963115692,1.612342834,0.022750426,-0.069146670,0.984740734
134.764868,10.111988068,-11.963115692,1.612342834,0.022750426,-0.069146670,0.984740734
134.765491,10.111988068,-11.963115692,1.612342834,0.022750426,-0.069146670,0.984740734
134.766091,10.478199005,-14.862285614,0.887550354,0.023360778,-0.090753116,0.976684093
134.766710,10.478199005,-14.862285614,0.887550354,0.023360778,-0.090753116,0.976684093
134.767307,10.478199005,-14.862285614,0.887550354,0.023360778,-0.090753116,0.976684093
134.805612,11.012256622,-14.496074677,2.276100159,-0.020096254,-0.045709170,0.942016125
134.819956,12.995899200,-13.740764618,0.582374573,-0.020462465,-0.050714053,0.949828625
134.835284,12.606800079,-11.848674774,0.918067932,-0.013016175,-0.093682803,0.963866711
134.836049,10.050952911,-9.590373993,2.077735901,-0.011307190,-0.110894717,0.973876476
134.874461,7.411182404,-5.180583954,0.223793030,-0.021316957,0.009222470,0.964477062
134.912947,1.811206818,-1.075969696,-2.431236267,-0.019241761,-0.010186709,0.976195812
134.927097,-0.119029999,4.356159210,-2.103172302,-0.003494690,-0.079278506,0.998290539
134.942402,-2.430736542,8.338703156,0.139869690,-0.003128479,-0.092095889,1.014770031
134.980941,-7.702648163,14.724506378,-0.302635193,-0.005081604,-0.015069522,1.004882336
135.019434,-8.969127655,9.116901398,-0.378929138,0.016402770,-0.040093936,1.060302258
135.033578,-9.251415253,6.866230011,-0.821434021,0.018233825,-0.026910342,1.058349133
135.059608,-7.504283905,-0.824199677,-0.981651306,0.003219177,0.034124814,1.059203625
135.108562,-3.887950897,-3.135906219,-2.438865662,-0.007645081,0.019476376,1.047973156
135.146847,-6.443798065,6.744159698,0.826515198,0.036666442,-0.113702334,1.080443859
135.161235,-6.100475311,8.018268585,1.291908264,0.033858825,-0.057427920,1.062743664
135.176608,-3.048717499,10.391010284,1.742042542,0.038375426,-0.028131045,1.060058117
135.215110,-8.358776093,12.695087433,2.115882874,0.026778746,0.043890439,1.031127453
135.253563,-4.002391815,8.758319855,4.595436096,0.028731871,0.070867978,0.969359875
135.267846,-2.117931366,4.646076202,3.748573303,0.043868590,0.038031064,0.964354992
135.283182,-1.591503143,-4.631267548,4.076637268,0.051559020,-0.019097842,0.950194836
135.321686,-0.248729706,-16.876445770,0.719703674,0.012008240,0.018621884,0.890258312
135.360191,0.727832794,-14.312969208,-1.775108337,-0.031448793,0.005438291,0.826903820
135.374361,6.243885040,-3.982769012,-2.194725037,-0.036209535,0.038641416,0.813964367
135.389697,7.899463654,2.540363312,-2.110801697,-0.026932191,-0.027886905,0.840331554
