time,gyro x,gyro y,gyro z,accel x,accel y,accel z
75.539169,-0.227905273,2.594985962,2.585895538,-0.000522397,0.048158020,1.023292542
75.577415,1.702331543,10.636367798,-1.892559052,-0.011997007,0.043397278,0.988746643
75.591655,0.809692383,9.247817993,-2.693645477,-0.042026304,0.030335754,0.972023010
75.622986,-1.692749023,-0.952682495,0.754840851,-0.066318296,0.045838684,0.977516174
75.661349,-0.548339844,-8.093795776,4.310138702,-0.048251890,0.096009582,1.001441956
75.699607,0.557922363,0.573196411,3.875263214,-0.021762632,0.070008606,0.990577698
75.713838,-0.143981934,3.251113892,3.638751984,-0.014926694,0.052918762,0.991920471
75.729161,-1.234985352,7.828750610,3.333576202,0.002407290,0.031190246,1.007057190
75.767397,-1.700378418,19.875564575,-2.075664520,0.035854556,0.034852356,1.034034729
75.768172,-1.700378418,19.875564575,-2.075664520,0.035854556,0.034852356,1.034034729
75.768775,-1.700378418,19.875564575,-2.075664520,0.035854556,0.034852356,1.034034729
75.769397,-1.700378418,19.875564575,-2.075664520,0.035854556,0.034852356,1.034034729
75.769990,-1.700378418,19.875564575,-2.075664520,0.035854556,0.034852356,1.034034729
75.770616,-1.700378418,19.875564575,-2.075664520,0.035854556,0.034852356,1.034034729
75.771196,-1.700378418,19.875564575,-2.075664520,0.035854556,0.034852356,1.034034729
75.771835,-1.700378418,19.875564575,-2.075664520,0.035854556,0.034852356,1.034034729
75.772413,-1.700378418,19.875564575,-2.075664520,0.035854556,0.034852356,1.034034729
75.810545,1.297973633,24.170913696,-6.920330048,0.012783267,0.045960754,1.019142151
75.824815,1.252197266,21.996536255,-7.194988251,0.000698306,0.039979309,1.010597229
75.840167,1.458190918,13.619461060,-7.217876434,-0.029575132,0.044129699,1.004127502
75.878421,1.976989746,-15.204391479,-1.923076630,-0.070590757,0.027528137,1.001197815
75.916668,2.701782227,-30.074081421,2.074726105,-0.039706968,-0.003843933,0.984840393
75.930913,2.251647949,-30.463180542,2.402790070,-0.032260679,-0.011046082,0.975196838
75.931613,2.251647949,-30.463180542,2.402790070,-0.032260679,-0.011046082,0.975196838
75.932225,2.251647949,-30.463180542,2.402790070,-0.032260679,-0.011046082,0.975196838
75.932864,2.251647949,-30.463180542,2.402790070,-0.032260679,-0.011046082,0.975196838
75.933460,2.251647949,-30.463180542,2.402790070,-0.032260679,-0.011046082,0.975196838
75.934096,2.251647949,-30.463180542,2.402790070,-0.032260679,-0.011046082,0.975196838
75.934698,2.251647949,-30.463180542,2.402790070,-0.032260679,-0.011046082,0.975196838
75.935348,2.251647949,-30.463180542,2.402790070,-0.032260679,-0.011046082,0.975196838
75.937128,1.320861816,-29.196701050,2.730854034,-0.018832944,-0.016295105,0.971900940
75.951365,0.161193848,-26.686630249,2.555377960,-0.006625913,-0.021055847,0.980812073
75.952059,0.161193848,-26.686630249,2.555377960,-0.006625913,-0.021055847,0.980812073
75.952650,0.161193848,-26.686630249,2.555377960,-0.006625913,-0.021055847,0.980812073
75.953287,0.161193848,-26.686630249,2.555377960,-0.006625913,-0.021055847,0.980812073
75.953892,0.161193848,-26.686630249,2.555377960,-0.006625913,-0.021055847,0.980812073
75.954519,0.161193848,-26.686630249,2.555377960,-0.006625913,-0.021055847,0.980812073
75.955115,0.161193848,-26.686630249,2.555377960,-0.006625913,-0.021055847,0.980812073
75.955758,0.161193848,-26.686630249,2.555377960,-0.006625913,-0.021055847,0.980812073
75.957535,-0.182128906,-22.711715698,1.693256378,0.005092837,-0.018858582,0.992774963
75.958302,-0.182128906,-22.711715698,1.693256378,0.005092837,-0.018858582,0.992774963
75.958903,-0.182128906,-22.711715698,1.693256378,0.005092837,-0.018858582,0.992774963
75.959554,-0.182128906,-22.711715698,1.693256378,0.005092837,-0.018858582,0.992774963
75.960153,-0.182128906,-22.711715698,1.693256378,0.005092837,-0.018858582,0.992774963
75.960788,-0.182128906,-22.711715698,1.693256378,0.005092837,-0.018858582,0.992774963
75.961383,-0.182128906,-22.711715698,1.693256378,0.005092837,-0.018858582,0.992774963
75.962035,-0.182128906,-22.711715698,1.693256378,0.005092837,-0.018858582,0.992774963
75.962629,-0.182128906,-22.711715698,1.693256378,0.005092837,-0.018858582,0.992774963
75.963265,-0.182128906,-22.711715698,1.693256378,0.005092837,-0.018858582,0.992774963
75.963873,-0.182128906,-22.711715698,1.693256378,0.005092837,-0.018858582,0.992774963
76.018225,-0.197387695,1.572647095,-4.417888641,-0.017612241,-0.064512879,1.000343323
76.056609,0.840209961,5.066909790,-3.189556122,-0.017734312,-0.028868347,0.952735901
76.070870,0.222229004,5.623855591,-3.342144012,-0.029086851,-0.017882019,0.933082581
76.086180,-2.127624512,6.226577759,-2.304546356,-0.037265562,0.003358215,0.922706604
76.124420,-4.477478027,3.029861450,-0.305644989,-0.053622983,0.009095520,0.951026917
76.162671,-3.973937988,-1.143417358,2.639301300,-0.049716733,0.019349426,0.994606018
76.176906,-4.721618652,-2.264938354,2.624042511,-0.051059507,0.009095520,0.998268127
76.192222,-4.843688965,-3.409347534,2.898700714,-0.057773374,0.006898254,1.011451721
76.230462,-1.738525391,-11.145553589,6.560810089,-0.070468687,0.019349426,1.033668518
76.268729,-0.739074707,-15.303573608,7.773883820,-0.080722593,0.016419739,1.004615784
76.282981,-1.189208984,-16.188583374,9.521015167,-0.083774351,0.015443176,1.006202698
76.298329,-1.616455078,-15.509567261,12.176044464,-0.069614194,0.034242004,1.013771057
76.336606,0.939392090,0.985183716,12.557514191,-0.017978452,0.048158020,0.998878479
76.337371,0.939392090,0.985183716,12.557514191,-0.017978452,0.048158020,0.998878479
76.337966,0.939392090,0.985183716,12.557514191,-0.017978452,0.048158020,0.998878479
76.338609,0.939392090,0.985183716,12.557514191,-0.017978452,0.048158020,0.998878479
76.339193,0.939392090,0.985183716,12.557514191,-0.017978452,0.048158020,0.998878479
76.339826,0.939392090,0.985183716,12.557514191,-0.017978452,0.048158020,0.998878479
76.340416,0.939392090,0.985183716,12.557514191,-0.017978452,0.048158020,0.998878479
76.341062,0.939392090,0.985183716,12.557514191,-0.017978452,0.048158020,0.998878479
76.341654,0.939392090,0.985183716,12.557514191,-0.017978452,0.048158020,0.998878479
76.342294,0.939392090,0.985183716,12.557514191,-0.017978452,0.048158020,0.998878479
76.342883,0.939392090,0.985183716,12.557514191,-0.017978452,0.048158020,0.998878479
76.343521,0.939392090,0.985183716,12.557514191,-0.017978452,0.048158020,0.998878479
76.344111,0.435852051,7.035293579,12.053974152,-0.006259702,0.035096496,0.987892151
76.344756,0.435852051,7.035293579,12.053974152,-0.006259702,0.035096496,0.987892151
76.345344,0.435852051,7.035293579,12.053974152,-0.006259702,0.035096496,0.987892151
76.345974,0.435852051,7.035293579,12.053974152,-0.006259702,0.035096496,0.987892151
76.346572,0.435852051,7.035293579,12.053974152,-0.006259702,0.035096496,0.987892151
76.347206,0.435852051,7.035293579,12.053974152,-0.006259702,0.035096496,0.987892151
76.347798,0.435852051,7.035293579,12.053974152,-0.006259702,0.035096496,0.987892151
76.348437,0.435852051,7.035293579,12.053974152,-0.006259702,0.035096496,0.987892151
76.349035,0.435852051,7.035293579,12.053974152,-0.006259702,0.035096496,0.987892151
76.349671,0.435852051,7.035293579,12.053974152,-0.006259702,0.035096496,0.987892151
76.350260,0.435852051,7.035293579,12.053974152,-0.006259702,0.035096496,0.987892151
76.350897,0.435852051,7.035293579,12.053974152,-0.006259702,0.035096496,0.987892151
76.351485,0.435852051,7.035293579,12.053974152,-0.006259702,0.035096496,0.987892151
76.352123,0.435852051,7.035293579,12.053974152,-0.006259702,0.035096496,0.987892151
76.352722,0.435852051,7.035293579,12.053974152,-0.006259702,0.035096496,0.987892151
76.353348,0.435852051,7.035293579,12.053974152,-0.006259702,0.035096496,0.987892151
76.353931,0.435852051,7.035293579,12.053974152,-0.006259702,0.035096496,0.987892151
76.354580,-0.540710449,12.444534302,11.596210480,0.002041079,0.021912903,0.983863831
76.355169,-0.540710449,12.444534302,11.596210480,0.002041079,0.021912903,0.983863831
76.357020,-0.540710449,12.444534302,11.596210480,0.002041079,0.021912903,0.983863831
76.357783,-0.540710449,12.444534302,11.596210480,0.002041079,0.021912903,0.983863831
76.358374,-0.540710449,12.444534302,11.596210480,0.002041079,0.021912903,0.983863831
76.359020,-0.540710449,12.444534302,11.596210480,0.002041079,0.021912903,0.983863831
76.359621,-0.540710449,12.444534302,11.596210480,0.002041079,0.021912903,0.983863831
76.360267,-0.540710449,12.444534302,11.596210480,0.002041079,0.021912903,0.983863831
76.409968,-3.569580078,39.811172485,8.445270538,0.052089907,0.019227356,0.994972229
76.424304,-3.783203125,50.126113892,4.966266632,0.061367251,0.034364074,1.011695862
76.439678,-3.226257324,54.413833618,3.524311066,0.061001040,0.036439270,1.014869690
76.477985,-2.074218750,58.442153931,-1.434795380,0.029018618,0.052674621,1.001564026
76.528095,-2.997375488,23.179092407,1.418598175,-0.029208921,0.045228332,1.015968323
76.542418,-2.539611816,12.871780396,2.357013702,-0.031528257,0.050965637,1.029273987
76.557793,0.374816895,-7.262191772,3.997333527,-0.031406187,0.052796692,1.041114807
76.558565,0.374816895,-7.262191772,3.997333527,-0.031406187,0.052796692,1.041114807
76.559173,0.374816895,-7.262191772,3.997333527,-0.031406187,0.052796692,1.041114807
76.559809,0.374816895,-7.262191772,3.997333527,-0.031406187,0.052796692,1.041114807
76.560390,0.374816895,-7.262191772,3.997333527,-0.031406187,0.052796692,1.041114807
76.561008,0.374816895,-7.262191772,3.997333527,-0.031406187,0.052796692,1.041114807
76.561595,0.374816895,-7.262191772,3.997333527,-0.031406187,0.052796692,1.041114807
76.562226,0.374816895,-7.262191772,3.997333527,-0.031406187,0.052796692,1.041114807
76.562810,1.885437012,-15.402755737,4.485614777,-0.027988218,0.042420715,1.036964417
76.563434,1.885437012,-15.402755737,4.485614777,-0.027988218,0.042420715,1.036964417
76.564044,1.885437012,-15.402755737,4.485614777,-0.027988218,0.042420715,1.036964417
76.564669,1.885437012,-15.402755737,4.485614777,-0.027988218,0.042420715,1.036964417
76.565273,1.885437012,-15.402755737,4.485614777,-0.027988218,0.042420715,1.036964417
76.565906,1.885437012,-15.402755737,4.485614777,-0.027988218,0.042420715,1.036964417
76.566497,1.885437012,-15.402755737,4.485614777,-0.027988218,0.042420715,1.036964417
76.567129,1.885437012,-15.402755737,4.485614777,-0.027988218,0.042420715,1.036964417
76.567728,1.885437012,-15.402755737,4.485614777,-0.027988218,0.042420715,1.036964417
76.568360,1.885437012,-15.402755737,4.485614777,-0.027988218,0.042420715,1.036964417
76.568954,1.885437012,-15.402755737,4.485614777,-0.027988218,0.042420715,1.036964417
76.607077,1.313232422,-32.477340698,3.371723175,-0.008579038,0.026063293,1.004859924
76.645381,0.779174805,-39.771041870,2.578266144,-0.010654233,0.012391418,1.048561096
76.659621,1.221679688,-39.999923706,1.952655792,-0.008945249,0.003724426,1.046485901
76.675078,-0.472045898,-38.229904175,0.869281769,-0.008579038,0.014588684,1.031715393
76.713393,1.275085449,-33.133468628,-2.525798798,-0.028964780,-0.037413269,1.083961487
76.751672,-0.739074707,-38.252792358,0.205524445,-0.082431577,-0.145079285,1.007301331
76.765912,-4.050231934,-39.015731812,2.318866730,-0.080966733,-0.142637879,1.016456604
76.781245,-6.125427246,-38.634262085,4.874713898,-0.074252866,-0.125792176,1.041603088
76.819498,-3.714538574,-13.358078003,1.388080597,0.019985415,-0.055723816,1.117286682
76.857811,2.831481934,14.374771118,-4.921428680,-0.018832944,-0.082945496,1.094825745
76.872063,3.975891113,16.869583130,-4.143230438,-0.042758726,-0.101744324,1.048683167
76.887408,3.899597168,16.129531860,-3.250591278,-0.048862241,-0.114439636,1.030250549
76.925679,2.350830078,9.606399536,-0.442974091,-0.044833921,-0.066832215,1.022193909
76.963994,5.677246094,5.112686157,1.227863312,-0.020175718,-0.015196472,1.028541565
76.978233,7.073425293,5.021133423,1.128681183,-0.014316343,-0.018614441,1.018653870
76.993561,9.110473633,6.508865356,0.731952667,0.003139712,-0.012022644,0.982643127
77.031824,6.798767090,11.147537231,-1.984111786,-0.002963804,-0.034971863,0.921119690
77.032598,6.798767090,11.147537231,-1.984111786,-0.002963804,-0.034971863,0.921119690
77.033213,6.798767090,11.147537231,-1.984111786,-0.002963804,-0.034971863,0.921119690
77.033844,6.798767090,11.147537231,-1.984111786,-0.002963804,-0.034971863,0.921119690
77.034428,6.798767090,11.147537231,-1.984111786,-0.002963804,-0.034971863,0.921119690
77.035061,6.798767090,11.147537231,-1.984111786,-0.002963804,-0.034971863,0.921119690
77.035658,6.798767090,11.147537231,-1.984111786,-0.002963804,-0.034971863,0.921119690
77.048321,5.883239746,11.719741821,-2.342693329,-0.002231382,-0.031675965,0.917823792
77.049115,5.883239746,11.719741821,-2.342693329,-0.002231382,-0.031675965,0.917823792
77.049770,5.883239746,11.719741821,-2.342693329,-0.002231382,-0.031675965,0.917823792
77.050421,5.486511230,11.834182739,-2.624980927,-0.001621030,-0.026671082,0.915138245
77.052279,5.486511230,11.834182739,-2.624980927,-0.001621030,-0.026671082,0.915138245
77.053060,5.486511230,11.834182739,-2.624980927,-0.001621030,-0.026671082,0.915138245
77.053699,5.486511230,11.834182739,-2.624980927,-0.001621030,-0.026671082,0.915138245
77.091855,3.800415039,10.964431763,-5.051128387,-0.009677671,0.003846496,0.866920471
77.106101,2.770446777,9.545364380,-5.486003876,-0.021640562,0.008363098,0.858985901
77.121439,0.824951172,3.632583618,-4.173748016,-0.045200132,0.001405090,0.857154846
77.159665,-2.058959961,-10.466537476,-1.694194794,-0.040439390,0.024964660,0.879981995
77.197966,-3.981567383,-13.510665894,-1.770488739,-0.043124937,-0.004942566,0.885108948
77.212197,-6.636596680,-12.679061890,-0.435344696,-0.031650327,-0.014952332,0.908424377
77.227550,-8.246398926,-11.099777222,-0.702373505,-0.017123960,-0.014341980,0.933204651
77.265785,-9.070373535,0.771560669,-5.966655731,0.010219790,0.001893371,1.027809143
77.304056,-7.254577637,1.259841919,-6.882183075,-0.018466733,0.017030090,1.080055237
77.318285,-7.269836426,-0.678024292,-6.493083954,-0.014926694,0.032166809,1.110450745
77.318975,-5.408264160,-2.371749878,-6.523601532,-0.009433530,0.049378723,1.137062073
77.319579,-5.408264160,-2.371749878,-6.523601532,-0.009433530,0.049378723,1.137062073
77.320218,-5.408264160,-2.371749878,-6.523601532,-0.009433530,0.049378723,1.137062073
77.320829,-5.408264160,-2.371749878,-6.523601532,-0.009433530,0.049378723,1.137062073
77.321461,-5.408264160,-2.371749878,-6.523601532,-0.009433530,0.049378723,1.137062073
77.322068,-5.408264160,-2.371749878,-6.523601532,-0.009433530,0.049378723,1.137062073
77.322720,-5.408264160,-2.371749878,-6.523601532,-0.009433530,0.049378723,1.137062073
77.324512,-5.408264160,-2.371749878,-6.523601532,-0.009433530,0.049378723,1.137062073
77.338748,-0.769592285,-4.546127319,-7.477275848,-0.007846616,0.037537903,1.162452698
77.339458,-0.769592285,-4.546127319,-7.477275848,-0.007846616,0.037537903,1.162452698
77.340089,-0.769592285,-4.546127319,-7.477275848,-0.007846616,0.037537903,1.162452698
77.340725,-0.769592285,-4.546127319,-7.477275848,-0.007846616,0.037537903,1.162452698
77.341330,-0.769592285,-4.546127319,-7.477275848,-0.007846616,0.037537903,1.162452698
77.341963,-0.769592285,-4.546127319,-7.477275848,-0.007846616,0.037537903,1.162452698
77.342576,-0.769592285,-4.546127319,-7.477275848,-0.007846616,0.037537903,1.162452698
77.343210,-0.769592285,-4.546127319,-7.477275848,-0.007846616,0.037537903,1.162452698
77.345018,-0.769592285,-4.546127319,-7.477275848,-0.007846616,0.037537903,1.162452698
77.345769,-0.769592285,-4.546127319,-7.477275848,-0.007846616,0.037537903,1.162452698
77.346371,-0.769592285,-4.546127319,-7.477275848,-0.007846616,0.037537903,1.162452698
77.347004,-0.769592285,-4.546127319,-7.477275848,-0.007846616,0.037537903,1.162452698
77.347620,-0.769592285,-4.546127319,-7.477275848,-0.007846616,0.037537903,1.162452698
77.348251,1.427673340,-5.377731323,-7.889263153,-0.016635679,0.030335754,1.157814026
77.348861,1.427673340,-5.377731323,-7.889263153,-0.016635679,0.030335754,1.157814026
77.349502,1.427673340,-5.377731323,-7.889263153,-0.016635679,0.030335754,1.157814026
77.350120,1.427673340,-5.377731323,-7.889263153,-0.016635679,0.030335754,1.157814026
77.350753,1.427673340,-5.377731323,-7.889263153,-0.016635679,0.030335754,1.157814026
77.351380,1.427673340,-5.377731323,-7.889263153,-0.016635679,0.030335754,1.157814026
77.352009,1.427673340,-5.377731323,-7.889263153,-0.016635679,0.030335754,1.157814026
77.352633,1.427673340,-5.377731323,-7.889263153,-0.016635679,0.030335754,1.157814026
77.353279,1.427673340,-5.377731323,-7.889263153,-0.016635679,0.030335754,1.157814026
77.353893,1.427673340,-5.377731323,-7.889263153,-0.016635679,0.030335754,1.157814026
77.404227,5.700134277,-4.240951538,-7.668010712,-0.014682554,-0.099791199,1.112525940
77.442606,7.508300781,6.623306274,-9.087078094,0.013515688,-0.160704285,1.024513245
77.456860,6.386779785,9.629287720,-9.628765106,0.013271548,-0.164732605,0.987037659
77.472200,2.106689453,14.878311157,-9.796611786,0.018520571,-0.129332215,0.941993713
77.523974,-2.036071777,27.131118774,-12.169353485,0.031215884,-0.035704285,0.912574768
77.562421,-4.622436523,27.710952759,-14.000408173,0.008999087,-0.078306824,0.939430237
77.576674,-4.012084961,24.369277954,-14.679424286,-0.009067319,-0.101378113,0.944679260
77.592016,-5.438781738,13.016738892,-12.947551727,-0.037509702,-0.148131043,0.949440002
77.630292,-7.468200684,-14.044723511,-9.003154755,-0.042392515,-0.076475769,1.002052307
77.631072,-7.468200684,-14.044723511,-9.003154755,-0.042392515,-0.076475769,1.002052307
77.631684,-7.468200684,-14.044723511,-9.003154755,-0.042392515,-0.076475769,1.002052307
77.632321,-7.468200684,-14.044723511,-9.003154755,-0.042392515,-0.076475769,1.002052307
77.632931,-7.468200684,-14.044723511,-9.003154755,-0.042392515,-0.076475769,1.002052307
77.633567,-7.468200684,-14.044723511,-9.003154755,-0.042392515,-0.076475769,1.002052307
77.634176,-7.468200684,-14.044723511,-9.003154755,-0.042392515,-0.076475769,1.002052307
77.634830,-7.468200684,-14.044723511,-9.003154755,-0.042392515,-0.076475769,1.002052307
77.635433,-7.468200684,-14.044723511,-9.003154755,-0.042392515,-0.076475769,1.002052307
77.636070,-7.468200684,-14.044723511,-9.003154755,-0.042392515,-0.076475769,1.002052307
77.636687,-6.247497559,-19.232711792,-8.743755341,-0.048129819,-0.051573426,1.011817932
77.637326,-6.247497559,-19.232711792,-8.743755341,-0.048129819,-0.051573426,1.011817932
77.637931,-6.247497559,-19.232711792,-8.743755341,-0.048129819,-0.051573426,1.011817932
77.638582,-6.247497559,-19.232711792,-8.743755341,-0.048129819,-0.051573426,1.011817932
77.639194,-6.247497559,-19.232711792,-8.743755341,-0.048129819,-0.051573426,1.011817932
77.639827,-6.247497559,-19.232711792,-8.743755341,-0.048129819,-0.051573426,1.011817932
77.640439,-6.247497559,-19.232711792,-8.743755341,-0.048129819,-0.051573426,1.011817932
77.641084,-6.247497559,-19.232711792,-8.743755341,-0.048129819,-0.051573426,1.011817932
77.641696,-6.247497559,-19.232711792,-8.743755341,-0.048129819,-0.051573426,1.011817932
77.642333,-6.247497559,-19.232711792,-8.743755341,-0.048129819,-0.051573426,1.011817932
77.642944,-6.247497559,-19.232711792,-8.743755341,-0.048129819,-0.051573426,1.011817932
77.643588,-6.247497559,-19.232711792,-8.743755341,-0.048129819,-0.051573426,1.011817932
77.644199,-6.247497559,-19.232711792,-8.743755341,-0.048129819,-0.051573426,1.011817932
77.682359,-1.975036621,-36.269149780,-3.914348602,-0.056796812,-0.026793152,0.978370667
77.696606,-2.104736328,-39.938888550,-1.709453583,-0.052158140,-0.041197449,0.978858948
77.711947,-1.814819336,-40.030441284,-0.435344696,-0.042392515,-0.049986511,0.981788635
77.750210,-3.569580078,-21.994552612,-1.694194794,0.012050845,-0.076964051,0.998756409
77.788476,-2.860046387,6.310501099,-6.111614227,0.003994204,-0.062559754,1.004615784
77.802718,-2.776123047,10.582962036,-6.279460907,-0.000766538,-0.051573426,0.998756409
77.818050,-3.157592773,15.297927856,-6.302349091,-0.004916929,-0.039488465,0.985328674
77.856304,-4.141784668,13.711013794,-6.073467255,-0.028232358,-0.001524597,0.999488831
77.894616,-2.127624512,5.478897095,-3.021709442,-0.027011655,0.010560364,1.023414612
77.908874,-0.151611328,-0.044784546,-2.159587860,-0.023715757,0.024842590,1.028785706
77.924188,0.618957520,-2.409896851,-1.846782684,-0.021030210,0.020570129,1.026466370
78.000337,0.748657227,-7.780990601,1.906879425,-0.030185483,-0.027769715,1.044532776
78.038782,5.898498535,5.219497681,0.945575714,0.026211001,0.032288879,1.052223206
78.053054,6.531738281,9.278335571,-0.877849579,0.028896548,0.023988098,1.036720276
78.068400,4.776977539,13.527908325,-2.739421844,0.006069399,0.001771301,1.018898010
78.106665,4.616760254,4.677810669,0.792987823,-0.030307554,-0.002989441,1.055519104
78.174052,7.905029297,-0.716171265,2.326496124,0.003627993,-0.000670105,1.007301331
78.188397,7.218383789,2.083816528,1.616962433,0.011318423,-0.025328308,0.996681213
78.203753,4.990600586,6.325759888,-0.000469208,0.013515688,-0.078184754,0.981666565
78.242023,2.373718262,8.126296997,-0.473491669,0.016323306,-0.072935730,0.989234924
78.280302,2.404235840,4.212417603,-4.463665009,-0.014560483,-0.060606629,0.953712463
78.294581,0.664733887,-5.347213745,-2.792827606,-0.063876890,-0.088194519,0.932838440
78.309925,-0.822998047,-11.603317261,-0.542156219,-0.077182554,-0.086729676,0.932716370
78.348170,-1.341796875,-29.578170776,6.370075226,-0.057895444,-0.039366394,1.003395081
78.386442,0.473999023,-25.137863159,5.958087921,-0.028720640,-0.090513855,1.013160706
78.400692,-0.243164062,-20.934066772,6.080158234,-0.023837827,-0.096373230,1.016456604
78.416159,-0.746704102,-9.261093140,5.897052765,-0.007480405,-0.073301941,1.026100159
78.454417,0.611328125,19.455947876,0.045307159,0.020595767,-0.093687683,1.011817932
78.508643,-3.134704590,26.154556274,-1.419536591,-0.027011655,-0.133726746,1.010597229
78.522992,-1.151062012,21.454849243,-0.351421356,-0.017123960,-0.059752136,1.014381409
78.538356,0.252746582,19.219436646,0.030048370,-0.015170835,-0.027037293,1.001319885
78.576621,3.220581055,9.537734985,-0.442974091,-0.020663999,0.024598449,0.938453674
78.614904,-0.166870117,-5.835494995,2.936847687,-0.028964780,-0.055113465,0.911354065
78.629162,-0.975585938,-7.819137573,3.432758331,-0.018588804,-0.051085144,0.910865784
78.644572,-3.165222168,-6.781539917,1.746662140,-0.004672788,-0.034483582,0.919776917
78.645352,-3.165222168,-6.781539917,1.746662140,-0.004672788,-0.034483582,0.919776917
78.645954,-3.165222168,-6.781539917,1.746662140,-0.004672788,-0.034483582,0.919776917
78.646587,-3.165222168,-6.781539917,1.746662140,-0.004672788,-0.034483582,0.919776917
78.647189,-3.165222168,-6.781539917,1.746662140,-0.004672788,-0.034483582,0.919776917
78.647810,-3.165222168,-6.781539917,1.746662140,-0.004672788,-0.034483582,0.919776917
78.648408,-3.165222168,-6.781539917,1.746662140,-0.004672788,-0.034483582,0.919776917
78.649045,-3.165222168,-6.781539917,1.746662140,-0.004672788,-0.034483582,0.919776917
78.649643,-3.165222168,-6.781539917,1.746662140,-0.004672788,-0.034483582,0.919776917
78.650267,-3.165222168,-6.781539917,1.746662140,-0.004672788,-0.034483582,0.919776917
78.650877,-4.080749512,-5.019149780,1.357563019,-0.000766538,-0.035093933,0.928443909
78.651491,-4.080749512,-5.019149780,1.357563019,-0.000766538,-0.035093933,0.928443909
78.689531,-6.018615723,-1.524887085,-1.007549286,-0.006137632,-0.003477722,0.965553284
78.727803,-4.858947754,-6.812057495,-0.832073212,-0.034335874,0.010438293,0.987281799
78.742038,-5.156494141,-10.146102905,0.548847198,-0.043857358,0.007142395,0.998268127
78.757348,-5.347229004,-11.496505737,1.487262726,-0.039584897,0.017518371,1.009620667
78.795601,-2.074218750,-11.931381226,1.952655792,-0.015292905,0.041810364,1.042457581
78.833857,0.092529297,-3.905258179,0.106342316,-0.014194272,0.025941223,1.000099182
78.848088,-0.853515625,-2.043685913,0.159748077,-0.013461851,0.013490051,0.996192932
78.863401,-1.982666016,1.587905884,0.899799347,-0.002353452,0.023988098,0.996192932
78.901636,-1.181579590,8.568801880,-2.899639130,0.026943423,0.021180481,1.006568909
78.902391,-1.181579590,8.568801880,-2.899639130,0.026943423,0.021180481,1.006568909
78.902989,-1.181579590,8.568801880,-2.899639130,0.026943423,0.021180481,1.006568909
78.903618,-1.181579590,8.568801880,-2.899639130,0.026943423,0.021180481,1.006568909
78.904208,-1.181579590,8.568801880,-2.899639130,0.026943423,0.021180481,1.006568909
78.904825,-1.181579590,8.568801880,-2.899639130,0.026943423,0.021180481,1.006568909
78.905420,-1.181579590,8.568801880,-2.899639130,0.026943423,0.021180481,1.006568909
78.906048,-1.181579590,8.568801880,-2.899639130,0.026943423,0.021180481,1.006568909
78.906650,-1.181579590,8.568801880,-2.899639130,0.026943423,0.021180481,1.006568909
78.907273,-1.181579590,8.568801880,-2.899639130,0.026943423,0.021180481,1.006568909
78.961625,-1.921630859,5.227127075,-6.172649384,-0.005161069,-0.027403504,1.033302307
78.975979,-0.792480469,1.816787720,-5.814067841,-0.010654233,-0.026060730,1.029029846
78.991332,-0.197387695,-4.164657593,-5.012981415,0.002041079,-0.016050965,1.028419495
79.029596,0.344299316,-7.140121460,-8.469097137,-0.006992124,-0.002745301,1.059791565
79.067847,3.678344727,-8.002243042,-7.652751923,-0.006625913,0.017762512,1.077491760
79.082088,6.440185547,-7.033309937,-9.766094208,-0.005283140,-0.018248230,1.050514221
79.097419,5.982421875,-6.461105347,-10.780803680,-0.012607358,-0.048765808,1.037330627
79.135660,4.662536621,-8.780441284,-9.979717255,-0.054599546,-0.122984558,1.014015198
79.173945,-4.271484375,-4.034957886,-5.981914520,-0.006625913,-0.163878113,0.979713440
79.188188,-6.781555176,8.050003052,-7.004253387,0.036709048,-0.081724793,1.026588440
79.203531,-4.683471680,14.260330200,-8.720867157,0.056240298,-0.055357605,1.037452698
79.241812,-0.815368652,30.518569946,-16.342632294,0.020717837,-0.064879090,0.963844299
79.280096,0.252746582,13.222732544,-11.627666473,-0.066440366,-0.225889832,0.940040588
79.294375,-0.670410156,5.883255005,-8.537761688,-0.069614194,-0.259703308,0.931861877
79.309733,-4.752136230,-5.103073120,-4.204265594,-0.050082944,-0.216002136,0.945167542
79.347996,-2.608276367,-3.020248413,-3.899089813,0.031826235,-0.033140808,0.981300354
79.386232,-1.097656250,5.906143188,-8.446208954,0.015224673,-0.075132996,0.923072815
79.413249,-3.569580078,-0.014266968,-7.652751923,-0.061923765,-0.163511902,0.929908752
79.427595,-4.317260742,-9.085617065,-2.403728485,-0.064853452,-0.167174011,0.948707581
79.465773,-5.209899902,-9.833297729,0.091083527,-0.002719663,-0.119322449,0.977760315
79.504039,-6.064392090,-0.304183960,-7.088176727,0.009731509,-0.105772644,0.975563049
79.518276,-5.270935059,-3.378829956,-7.980815887,-0.029208921,-0.138731629,0.981178284
79.533566,-5.049682617,-6.232223511,-6.721965790,-0.053134702,-0.149595886,0.979103088
79.534332,-5.049682617,-6.232223511,-6.721965790,-0.053134702,-0.149595886,0.979103088
79.534940,-5.049682617,-6.232223511,-6.721965790,-0.053134702,-0.149595886,0.979103088
79.535570,-4.736877441,-9.192428589,-5.234233856,-0.052646421,-0.153257996,0.971778870
79.536162,-4.736877441,-9.192428589,-5.234233856,-0.052646421,-0.153257996,0.971778870
79.536782,-4.736877441,-9.192428589,-5.234233856,-0.052646421,-0.153257996,0.971778870
79.537372,-4.736877441,-9.192428589,-5.234233856,-0.052646421,-0.153257996,0.971778870
79.538000,-4.736877441,-9.192428589,-5.234233856,-0.052646421,-0.153257996,0.971778870
79.538596,-4.736877441,-9.192428589,-5.234233856,-0.052646421,-0.153257996,0.971778870
79.539218,-4.736877441,-9.192428589,-5.234233856,-0.052646421,-0.153257996,0.971778870
79.539828,-4.736877441,-9.192428589,-5.234233856,-0.052646421,-0.153257996,0.971778870
79.540442,-4.736877441,-9.192428589,-5.234233856,-0.052646421,-0.153257996,0.971778870
79.541041,-4.736877441,-9.192428589,-5.234233856,-0.052646421,-0.153257996,0.971778870
79.541670,-4.736877441,-9.192428589,-5.234233856,-0.052646421,-0.153257996,0.971778870
79.542265,-4.736877441,-9.192428589,-5.234233856,-0.052646421,-0.153257996,0.971778870
79.542883,-4.736877441,-9.192428589,-5.234233856,-0.052646421,-0.153257996,0.971778870
79.543481,-4.736877441,-9.192428589,-5.234233856,-0.052646421,-0.153257996,0.971778870
79.544109,-4.736877441,-9.192428589,-5.234233856,-0.052646421,-0.153257996,0.971778870
79.582133,-6.018615723,-17.371139526,-1.663677216,-0.057407163,-0.175474793,0.972145081
79.620402,-7.208801270,-5.194625854,-1.068584442,0.028042056,-0.031431824,0.976051331
79.634652,-7.277465820,1.458206177,-4.059307098,0.042690493,-0.033751160,0.964942932
79.649973,-9.039855957,12.566604614,-9.941570282,0.031582095,-0.054625183,0.962013245
79.688228,-14.052368164,9.148635864,-10.185710907,-0.037997983,-0.119444519,1.046485901
79.689005,-14.052368164,9.148635864,-10.185710907,-0.037997983,-0.119444519,1.046485901
79.689608,-14.052368164,9.148635864,-10.185710907,-0.037997983,-0.119444519,1.046485901
79.702063,-13.800598145,4.570999146,-9.125225067,-0.038364194,-0.107359558,1.072486877
79.702871,-13.800598145,4.570999146,-9.125225067,-0.038364194,-0.107359558,1.072486877
79.703518,-13.800598145,4.570999146,-9.125225067,-0.038364194,-0.107359558,1.072486877
79.704181,-13.800598145,4.570999146,-9.125225067,-0.038364194,-0.107359558,1.072486877
79.704832,-12.724853516,-0.090560913,-8.362285614,-0.035068296,-0.093931824,1.094947815
79.705476,-12.724853516,-0.090560913,-8.362285614,-0.035068296,-0.093931824,1.094947815
79.706132,-12.724853516,-0.090560913,-8.362285614,-0.035068296,-0.093931824,1.094947815
79.706787,-12.724853516,-0.090560913,-8.362285614,-0.035068296,-0.093931824,1.094947815
79.708640,-12.724853516,-0.090560913,-8.362285614,-0.035068296,-0.093931824,1.094947815
79.709405,-12.724853516,-0.090560913,-8.362285614,-0.035068296,-0.093931824,1.094947815
79.710055,-12.724853516,-0.090560913,-8.362285614,-0.035068296,-0.093931824,1.094947815
79.710704,-12.724853516,-0.090560913,-8.362285614,-0.035068296,-0.093931824,1.094947815
79.748838,-4.492736816,-6.003341675,-8.408061981,0.003261782,-0.031798035,1.057716370
79.763090,-5.255676270,-3.157577515,-9.018413544,0.011928774,-0.030455261,1.034767151
79.778435,-8.177734375,2.419509888,-12.207500458,0.021816470,-0.018370301,1.029151917
79.816659,-5.438781738,3.472366333,-18.196575165,0.019863345,-0.052916199,1.083351135
79.854944,-1.250244141,1.626052856,-23.537151337,0.018276431,-0.006407410,1.047096252
79.869182,-0.662780762,1.603164673,-25.551311493,0.010341860,-0.007383972,1.041481018
79.884548,0.306152344,-1.410446167,-27.054302216,-0.020908140,-0.044371277,1.037330627
79.922776,2.518676758,-10.390243530,-25.421611786,-0.042270444,-0.082579285,1.060646057
79.961045,6.012939453,-8.238754272,-29.320232391,-0.005649351,-0.040342957,1.041725159
79.975280,6.699584961,-4.782638550,-30.724040985,-0.011142515,-0.043150574,1.033912659
79.990626,7.622741699,-3.004989624,-31.219951630,-0.013828062,-0.035460144,1.024513245
80.028841,7.180236816,1.519241333,-34.630290985,-0.008823179,-0.078550965,0.970436096
80.067109,2.778076172,-4.805526733,-31.082622528,-0.038486265,-0.147032410,0.997901917
80.081367,1.671813965,-4.691085815,-31.372539520,-0.026279233,-0.126890808,1.017189026
80.096728,0.916503906,-2.615890503,-32.654277802,-0.017978452,-0.095030457,1.048683167
80.134972,4.014038086,2.076187134,-32.394878387,-0.025913022,-0.096983582,1.043434143
80.173242,-4.149414062,6.775894165,-32.333843231,-0.026889585,-0.096495301,0.976173401
80.187574,-5.080200195,5.639114380,-31.342021942,-0.030551694,-0.093931824,0.991310120
80.203007,-4.584289551,2.503433228,-29.457561493,-0.037509702,-0.090757996,1.037330627
80.241236,-0.739074707,2.984085083,-25.803081512,-0.002353452,-0.059752136,0.999488831
80.279493,-3.233886719,18.242874146,-29.129497528,0.028774478,-0.061949402,0.938087463
80.293752,-3.775573730,23.980178833,-29.945842743,0.018642642,-0.061583191,0.926002502
80.309124,-4.317260742,25.307693481,-30.113689423,0.010586001,-0.059019715,0.913429260
80.309878,-4.317260742,25.307693481,-30.113689423,0.010586001,-0.059019715,0.913429260
80.310509,-4.317260742,25.307693481,-30.113689423,0.010586001,-0.059019715,0.913429260
80.311159,-5.164123535,25.918045044,-30.029766083,0.006191470,-0.055479676,0.903785706
80.311803,-5.164123535,25.918045044,-30.029766083,0.006191470,-0.055479676,0.903785706
80.312442,-5.164123535,25.918045044,-30.029766083,0.006191470,-0.055479676,0.903785706
80.313071,-5.164123535,25.918045044,-30.029766083,0.006191470,-0.055479676,0.903785706
80.313726,-5.164123535,25.918045044,-30.029766083,0.006191470,-0.055479676,0.903785706
80.314355,-5.164123535,25.918045044,-30.029766083,0.006191470,-0.055479676,0.903785706
80.314996,-5.164123535,25.918045044,-30.029766083,0.006191470,-0.055479676,0.903785706
80.315641,-5.164123535,25.918045044,-30.029766083,0.006191470,-0.055479676,0.903785706
80.316293,-5.164123535,25.918045044,-30.029766083,0.006191470,-0.055479676,0.903785706
80.316923,-5.164123535,25.918045044,-30.029766083,0.006191470,-0.055479676,0.903785706
80.330862,-5.629516602,25.490798950,-29.274456024,0.000454165,-0.055235535,0.897193909
80.331724,-6.361938477,25.239028931,-28.610698700,0.005459048,-0.054258972,0.892066956
80.332357,-6.361938477,25.239028931,-28.610698700,0.005459048,-0.054258972,0.892066956
80.333002,-6.361938477,25.239028931,-28.610698700,0.005459048,-0.054258972,0.892066956
80.333622,-6.361938477,25.239028931,-28.610698700,0.005459048,-0.054258972,0.892066956
80.334274,-6.361938477,25.239028931,-28.610698700,0.005459048,-0.054258972,0.892066956
80.334905,-6.361938477,25.239028931,-28.610698700,0.005459048,-0.054258972,0.892066956
80.335556,-6.361938477,25.239028931,-28.610698700,0.005459048,-0.054258972,0.892066956
80.336184,-6.361938477,25.239028931,-28.610698700,0.005459048,-0.054258972,0.892066956
80.336842,-6.361938477,25.239028931,-28.610698700,0.005459048,-0.054258972,0.892066956
80.337459,-6.361938477,25.239028931,-28.610698700,0.005459048,-0.054258972,0.892066956
80.375601,-8.467651367,24.956741333,-30.228130341,0.024746157,-0.078795105,0.906227112
80.426087,-10.069824219,1.084365845,-27.245037079,-0.031162046,-0.099180847,0.979103088
80.440415,-7.529235840,-10.603866577,-26.382915497,-0.017368101,-0.089049011,0.997169495
80.455786,-6.796813965,-14.075241089,-26.497356415,-0.008579038,-0.104674011,0.989234924
80.494071,-9.459472656,-20.041427612,-26.375286102,-0.012119077,-0.084654480,1.024147034
80.494850,-9.459472656,-20.041427612,-26.375286102,-0.012119077,-0.084654480,1.024147034
80.495470,-9.459472656,-20.041427612,-26.375286102,-0.012119077,-0.084654480,1.024147034
80.496117,-9.459472656,-20.041427612,-26.375286102,-0.012119077,-0.084654480,1.024147034
80.496734,-9.459472656,-20.041427612,-26.375286102,-0.012119077,-0.084654480,1.024147034
80.497379,-9.459472656,-20.041427612,-26.375286102,-0.012119077,-0.084654480,1.024147034
80.497991,-9.459472656,-20.041427612,-26.375286102,-0.012119077,-0.084654480,1.024147034
80.498629,-9.459472656,-20.041427612,-26.375286102,-0.012119077,-0.084654480,1.024147034
80.536738,-5.858398438,-17.867050171,-28.526775360,0.015468813,-0.025572449,1.076637268
80.551074,-2.730346680,-13.533554077,-31.952373505,0.003383853,-0.053282410,1.041725159
80.566457,-2.951599121,-11.649093628,-32.783977509,-0.007602476,-0.073546082,1.030372620
80.604724,-3.897644043,-8.772811890,-33.676616669,-0.036777280,-0.100035340,1.041969299
80.643002,-1.708007812,-7.574996948,-32.936565399,-0.023349546,-0.053648621,1.039649963
80.657312,-1.585937500,-5.568466187,-33.630840302,-0.007480405,-0.028013855,1.034156799
80.672721,-0.624633789,-1.242599487,-36.011211395,-0.013950132,-0.046324402,1.037574768
80.710988,-0.082946777,-1.097640991,-38.345806122,-0.064609312,-0.145567566,1.020240784
80.749252,-0.258422852,-15.112838745,-31.021587372,-0.075473569,-0.135924011,1.036109924
80.763509,0.252746582,-15.410385132,-29.518596649,-0.051303647,-0.097105652,1.034523010
80.778844,0.794433594,-8.521041870,-30.663005829,-0.004428647,-0.045225769,1.013404846
80.817103,-2.554870605,8.889236450,-36.201946259,-0.015659116,-0.091124207,0.988136292
80.855394,-6.255126953,16.060867310,-32.707683563,-0.027866147,-0.092344910,1.022315979
80.869659,-4.401184082,18.448867798,-32.944194794,0.006923892,-0.022276551,1.020851135
80.885014,-2.936340332,20.516433716,-34.157268524,0.012783267,-0.010313660,1.011817932
80.923295,-1.761413574,24.483718872,-37.079326630,-0.006625913,-0.060972840,0.932960510
80.961600,-6.514526367,10.750808716,-31.815044403,-0.030185483,-0.104918152,0.954444885
80.975871,-6.834960938,6.798782349,-30.968181610,-0.028476499,-0.095152527,0.972389221
80.991304,-5.133605957,0.359573364,-29.823772430,-0.012607358,-0.072203308,0.989112854
81.029611,-4.836059570,-4.050216675,-31.380168915,-0.020053647,-0.091734558,0.957008362
81.067890,-10.802246094,-9.276351929,-28.038494110,-0.032382749,-0.101866394,0.961158752
81.082167,-11.893249512,-9.551010132,-27.847759247,-0.028354429,-0.087706238,0.979347229
81.097533,-13.442016602,-8.002243042,-27.328960419,-0.013095640,-0.044371277,1.025856018
81.135811,-7.758117676,-4.523239136,-29.694072723,0.008022524,0.016297668,1.061012268
81.187659,-4.576660156,-12.282333374,-28.419963837,-0.062045835,-0.058775574,0.997169495
81.202011,-5.484558105,-14.815292358,-27.870647430,-0.060214780,-0.057432801,1.007423401
81.217374,-5.667663574,-19.858322144,-25.497905731,-0.066684507,-0.050596863,1.041481018
81.218149,-5.667663574,-19.858322144,-25.497905731,-0.066684507,-0.050596863,1.041481018
81.218753,-5.667663574,-19.858322144,-25.497905731,-0.066684507,-0.050596863,1.041481018
81.219402,-5.667663574,-19.858322144,-25.497905731,-0.066684507,-0.050596863,1.041481018
81.220024,-5.667663574,-19.858322144,-25.497905731,-0.066684507,-0.050596863,1.041481018
81.220666,-5.667663574,-19.858322144,-25.497905731,-0.066684507,-0.050596863,1.041481018
81.221271,-5.667663574,-19.858322144,-25.497905731,-0.066684507,-0.050596863,1.041481018
81.221927,-5.667663574,-19.858322144,-25.497905731,-0.066684507,-0.050596863,1.041481018
81.222524,-5.667663574,-19.858322144,-25.497905731,-0.066684507,-0.050596863,1.041481018
81.223172,-5.667663574,-19.858322144,-25.497905731,-0.066684507,-0.050596863,1.041481018
81.223795,-5.667663574,-19.858322144,-25.497905731,-0.066684507,-0.050596863,1.041481018
81.224433,-5.667663574,-19.858322144,-25.497905731,-0.066684507,-0.050596863,1.041481018
81.225037,-5.667663574,-19.858322144,-25.497905731,-0.066684507,-0.050596863,1.041481018
81.225691,-5.667663574,-19.858322144,-25.497905731,-0.066684507,-0.050596863,1.041481018
81.226298,-4.546142578,-21.117172241,-23.933879852,-0.056308530,-0.040342957,1.055763245
81.226937,-4.546142578,-21.117172241,-23.933879852,-0.056308530,-0.040342957,1.055763245
81.227552,-4.546142578,-21.117172241,-23.933879852,-0.056308530,-0.040342957,1.055763245
81.228198,-4.546142578,-21.117172241,-23.933879852,-0.056308530,-0.040342957,1.055763245
81.228805,-4.546142578,-21.117172241,-23.933879852,-0.056308530,-0.040342957,1.055763245
81.229453,-4.546142578,-21.117172241,-23.933879852,-0.056308530,-0.040342957,1.055763245
81.230066,-4.546142578,-21.117172241,-23.933879852,-0.056308530,-0.040342957,1.055763245
81.268202,-0.159240723,-12.915573120,-26.810161591,-0.011264585,-0.030943543,1.060157776
81.306460,-0.876403809,-5.965194702,-29.755107880,-0.076083921,-0.093443543,1.032569885
81.320723,-0.662780762,-7.101974487,-27.748577118,-0.091953062,-0.093687683,1.026222229
81.349834,0.802062988,-2.348861694,-22.324077606,-0.027133726,0.016785949,0.995094299
81.388225,-0.143981934,24.376907349,-31.776897430,0.041469790,-0.013609558,0.940284729
81.426535,-2.730346680,28.885879517,-31.647197723,-0.016147397,-0.183897644,0.956642151
81.440803,-3.821350098,27.619400024,-31.219951630,-0.003574155,-0.187559754,0.961036682
81.456146,-6.484008789,25.879898071,-33.607952118,0.014248110,-0.161680847,0.983985901
81.494430,-3.745056152,11.956253052,-35.110942841,-0.036166929,-0.121885926,1.036964417
81.532710,-1.486755371,-0.357589722,-34.988872528,-0.021152280,-0.096495301,1.009498596
81.546972,-2.104736328,-3.630599976,-35.843364716,-0.028964780,-0.125303894,0.987037659
81.562310,-3.264404297,-5.103073120,-36.430828094,-0.031284116,-0.144468933,0.985694885
81.600604,-4.851318359,-13.243637085,-30.922405243,-0.049472593,-0.168516785,1.018653870
81.638875,-3.333068848,-13.113937378,-28.259746552,-0.027988218,-0.170714051,1.023292542
81.653116,-3.218627930,-11.046371460,-27.946941376,-0.015659116,-0.163023621,1.019508362
81.668459,-3.134704590,-5.431137085,-29.518596649,-0.012851499,-0.164732605,1.014259338
81.706754,-3.859497070,3.968276978,-29.266826630,-0.012973569,-0.147764832,0.985328674
81.745037,-4.942871094,9.347000122,-28.923503876,0.003627993,-0.112608582,0.993019104
81.759295,-4.317260742,10.277786255,-29.053203583,0.005825259,-0.118467957,0.998390198
81.774618,-3.035522461,10.315933228,-29.503337860,-0.003940366,-0.147764832,0.994483948
81.812895,-3.973937988,-0.586471558,-28.084270477,-0.038120054,-0.165953308,0.980567932
81.851202,-3.561950684,-10.954818726,-25.574199677,-0.037143491,-0.121763855,0.999366760
81.865459,-2.028442383,-12.824020386,-25.398723602,-0.031284116,-0.083067566,0.996315002
81.894828,-1.410461426,-12.831649780,-24.887554169,-0.048129819,-0.104063660,0.972511292
81.933202,-3.867126465,-8.795700073,-22.148601532,-0.038486265,-0.117613465,0.962135315
81.971459,-6.438232422,5.639114380,-22.865764618,-0.025058530,-0.080626160,1.005470276
81.985703,-5.553222656,8.469619751,-23.102275848,-0.023471616,-0.079283386,1.018165588
81.986401,-5.553222656,8.469619751,-23.102275848,-0.023471616,-0.079283386,1.018165588
81.987021,-5.553222656,8.469619751,-23.102275848,-0.023471616,-0.079283386,1.018165588
81.987678,-5.553222656,8.469619751,-23.102275848,-0.023471616,-0.079283386,1.018165588
81.988290,-5.553222656,8.469619751,-23.102275848,-0.023471616,-0.079283386,1.018165588
81.988928,-5.553222656,8.469619751,-23.102275848,-0.023471616,-0.079283386,1.018165588
82.004177,-4.179931641,10.994949341,-22.972576141,-0.021396421,-0.086973816,1.020729065
82.004946,-4.179931641,10.994949341,-22.972576141,-0.021396421,-0.086973816,1.020729065
82.005582,-4.179931641,10.994949341,-22.972576141,-0.021396421,-0.086973816,1.020729065
82.006227,-4.179931641,10.994949341,-22.972576141,-0.021396421,-0.086973816,1.020729065
82.006852,-4.179931641,10.994949341,-22.972576141,-0.021396421,-0.086973816,1.020729065
82.007490,-4.179931641,10.994949341,-22.972576141,-0.021396421,-0.086973816,1.020729065
82.008117,-4.179931641,10.994949341,-22.972576141,-0.021396421,-0.086973816,1.020729065
82.008775,-4.179931641,10.994949341,-22.972576141,-0.021396421,-0.086973816,1.020729065
82.009399,-4.179931641,10.994949341,-22.972576141,-0.021396421,-0.086973816,1.020729065
82.010046,-4.179931641,10.994949341,-22.972576141,-0.021396421,-0.086973816,1.020729065
82.010686,-4.179931641,10.994949341,-22.972576141,-0.021396421,-0.086973816,1.020729065
82.011336,-4.027343750,11.445083618,-23.163311005,-0.020663999,-0.087095886,1.019142151
82.011958,-4.027343750,11.445083618,-23.163311005,-0.020663999,-0.087095886,1.019142151
82.012618,-4.027343750,11.445083618,-23.163311005,-0.020663999,-0.087095886,1.019142151
82.013252,-4.027343750,11.445083618,-23.163311005,-0.020663999,-0.087095886,1.019142151
82.013894,-4.027343750,11.445083618,-23.163311005,-0.020663999,-0.087095886,1.019142151
82.014542,-4.027343750,11.445083618,-23.163311005,-0.020663999,-0.087095886,1.019142151
82.015192,-4.027343750,11.445083618,-23.163311005,-0.020663999,-0.087095886,1.019142151
82.015826,-4.027343750,11.445083618,-23.163311005,-0.020663999,-0.087095886,1.019142151
82.016475,-4.027343750,11.445083618,-23.163311005,-0.020663999,-0.087095886,1.019142151
82.017117,-4.027343750,11.445083618,-23.163311005,-0.020663999,-0.087095886,1.019142151
82.017771,-4.027343750,11.445083618,-23.163311005,-0.020663999,-0.087095886,1.019142151
82.018397,-4.027343750,11.445083618,-23.163311005,-0.020663999,-0.087095886,1.019142151
82.019054,-4.027343750,11.445083618,-23.163311005,-0.020663999,-0.087095886,1.019142151
82.019686,-4.027343750,11.445083618,-23.163311005,-0.020663999,-0.087095886,1.019142151
82.020334,-4.027343750,11.445083618,-23.163311005,-0.020663999,-0.087095886,1.019142151
82.020969,-4.027343750,11.445083618,-23.163311005,-0.020663999,-0.087095886,1.019142151
82.021617,-3.851867676,11.460342407,-23.399822235,-0.021396421,-0.084776551,1.018775940
82.022250,-3.851867676,11.460342407,-23.399822235,-0.021396421,-0.084776551,1.018775940
82.022902,-3.851867676,11.460342407,-23.399822235,-0.021396421,-0.084776551,1.018775940
82.024727,-3.851867676,11.460342407,-23.399822235,-0.021396421,-0.084776551,1.018775940
82.063004,-4.004455566,4.448928833,-22.064678192,-0.050693296,-0.112242371,1.011695862
82.101287,-3.340698242,-1.814804077,-19.104473114,-0.029208921,-0.052305847,1.044654846
82.115553,-2.211547852,-0.395736694,-19.470684052,-0.017001890,-0.048033386,1.045631409
82.130879,-1.082397461,3.357925415,-22.018901825,-0.015414976,-0.067442566,1.046852112
82.169163,0.336669922,-0.792465210,-22.514812469,-0.062656187,-0.144468933,1.058570862
82.169933,0.336669922,-0.792465210,-22.514812469,-0.062656187,-0.144468933,1.058570862
82.170553,1.542114258,-3.912887573,-21.492473602,-0.073032163,-0.149473816,1.066017151
82.222865,2.289794922,-8.078536987,-16.739360809,-0.056186460,-0.086607605,1.016700745
82.237208,1.595520020,-6.300888062,-16.571514130,-0.052524351,-0.070494324,1.020118713
82.252564,3.014587402,-1.547775269,-16.182415009,-0.050327085,-0.086485535,1.023780823
82.306316,1.252197266,10.422744751,-13.870708466,-0.034457944,-0.110533386,0.990089417
82.344711,2.602600098,22.606887817,-13.977519989,0.020473696,-0.014097840,0.961769104
82.358972,2.343200684,26.604690552,-15.915386200,0.023647524,-0.034483582,0.946510315
82.374301,-1.585937500,30.839004517,-19.791118622,0.000820376,-0.104185730,0.947120667
82.412609,-3.806091309,12.665786743,-16.846172333,-0.075107358,-0.132872254,1.028297424
82.450891,3.037475586,-17.928085327,-6.569377899,-0.076816343,-0.055601746,1.012062073
82.465149,2.442382812,-20.155868530,-7.416240692,-0.055942319,-0.029600769,1.000221252
82.480583,1.580261230,-21.704635620,-6.088726044,-0.064975522,-0.014097840,0.952125549
82.518870,-6.049133301,-14.517745972,-1.373760223,-0.040195249,-0.071470886,0.974220276
82.557161,-4.416442871,1.771011353,-1.213542938,0.044765688,0.023255676,1.017799377
82.571401,-2.295471191,15.755691528,-7.149211884,0.053920962,0.039857239,1.007301331
82.586731,-1.006103516,20.615615845,-9.102336884,0.035244204,0.025452942,0.996437073
82.625020,-3.264404297,18.929519653,-7.126323700,-0.033603452,-0.071592957,0.955543518
82.663295,-5.415893555,5.570449829,-2.884380341,-0.006259702,-0.013731629,1.041236877
82.677539,-2.028442383,0.893630981,-3.075115204,0.008144595,0.013001770,1.066627502
82.692838,-0.388122559,-1.364669800,-3.586284637,0.007534243,0.013001770,1.070045471
82.693597,-0.388122559,-1.364669800,-3.586284637,0.007534243,0.013001770,1.070045471
82.694202,-0.388122559,-1.364669800,-3.586284637,0.007534243,0.013001770,1.070045471
82.694838,-0.388122559,-1.364669800,-3.586284637,0.007534243,0.013001770,1.070045471
82.695425,-0.388122559,-1.364669800,-3.586284637,0.007534243,0.013001770,1.070045471
82.696053,-0.388122559,-1.364669800,-3.586284637,0.007534243,0.013001770,1.070045471
82.696644,-0.388122559,-1.364669800,-3.586284637,0.007534243,0.013001770,1.070045471
82.697286,0.870727539,-3.645858765,-4.234783173,0.002529360,0.003968567,1.068092346
82.697875,0.870727539,-3.645858765,-4.234783173,0.002529360,0.003968567,1.068092346
82.698494,0.870727539,-3.645858765,-4.234783173,0.002529360,0.003968567,1.068092346
82.699101,0.870727539,-3.645858765,-4.234783173,0.002529360,0.003968567,1.068092346
82.699721,0.870727539,-3.645858765,-4.234783173,0.002529360,0.003968567,1.068092346
82.700312,0.870727539,-3.645858765,-4.234783173,0.002529360,0.003968567,1.068092346
82.700945,0.870727539,-3.645858765,-4.234783173,0.002529360,0.003968567,1.068092346
82.701536,0.870727539,-3.645858765,-4.234783173,0.002529360,0.003968567,1.068092346
82.702161,0.870727539,-3.645858765,-4.234783173,0.002529360,0.003968567,1.068092346
82.702770,0.870727539,-3.645858765,-4.234783173,0.002529360,0.003968567,1.068092346
82.703387,0.870727539,-3.645858765,-4.234783173,0.002529360,0.003968567,1.068092346
82.703976,0.870727539,-3.645858765,-4.234783173,0.002529360,0.003968567,1.068092346
82.704594,0.870727539,-3.645858765,-4.234783173,0.002529360,0.003968567,1.068092346
82.705202,0.870727539,-3.645858765,-4.234783173,0.002529360,0.003968567,1.068092346
82.705830,0.870727539,-3.645858765,-4.234783173,0.002529360,0.003968567,1.068092346
82.706419,0.870727539,-3.645858765,-4.234783173,0.002529360,0.003968567,1.068092346
82.707056,0.870727539,-3.645858765,-4.234783173,0.002529360,0.003968567,1.068092346
82.707647,1.412414551,-5.988082886,-4.539958954,-0.007114194,-0.008848816,1.059791565
82.708276,1.412414551,-5.988082886,-4.539958954,-0.007114194,-0.008848816,1.059791565
82.708878,1.412414551,-5.988082886,-4.539958954,-0.007114194,-0.008848816,1.059791565
82.709495,1.412414551,-5.988082886,-4.539958954,-0.007114194,-0.008848816,1.059791565
82.710092,1.412414551,-5.988082886,-4.539958954,-0.007114194,-0.008848816,1.059791565
82.710721,1.412414551,-5.988082886,-4.539958954,-0.007114194,-0.008848816,1.059791565
82.764592,3.930114746,-16.882858276,-2.846233368,-0.031528257,0.010926574,1.031959534
82.802979,5.486511230,-18.851242065,-1.564495087,-0.030917905,-0.000914246,0.989967346
82.817224,4.540466309,-17.264328003,-0.961772919,-0.025790952,-0.006407410,0.983497620
82.832554,4.426025391,-15.616378784,-0.938884735,-0.026035093,-0.010191590,0.987770081
82.870804,5.600952148,-2.509078979,-0.793926239,-0.000522397,-0.014097840,0.963600159
82.909064,-0.121093750,13.566055298,-2.754680634,0.019497134,-0.022520691,0.947120667
82.923321,-1.395202637,15.801467896,-3.777019501,0.023403384,-0.012999207,0.966041565
82.938657,-0.205017090,17.334976196,-5.005352020,0.006801821,-0.019957215,1.004737854
82.976925,1.702331543,17.495193481,-5.165569305,0.032192446,-0.024473816,0.983253479
83.015190,-2.654052734,10.972061157,-7.896892548,-0.008701108,-0.072691590,1.019996643
83.029442,-1.807189941,0.268020630,-4.951946259,-0.028232358,-0.087950379,1.060890198
83.044786,-0.678039551,-4.401168823,-2.884380341,-0.013950132,-0.072325379,1.068702698
83.083056,2.396606445,-1.707992554,-6.874553680,0.037197329,-0.055723816,1.036476135
83.121337,1.107238770,3.174819946,-7.568828583,-0.007724546,-0.062559754,1.030860901
83.135598,2.190612793,5.166091919,-6.119243622,0.017910220,-0.028380066,1.026100159
83.150954,2.762817383,7.699050903,-6.729595184,0.039028384,-0.023985535,1.015357971
83.189228,2.068542480,14.939346313,-12.810222626,0.032680728,-0.109923035,1.001686096
83.227503,1.336120605,-0.769577026,-10.673992157,-0.031039976,-0.127012879,1.011207581
83.258971,3.174804688,-17.928085327,-6.622783661,-0.034457944,-0.081236511,1.001441956
83.273403,3.258728027,-21.605453491,-5.997173309,-0.037753843,-0.069273621,0.992042542
83.311622,3.563903809,-26.915512085,-5.753032684,-0.025913022,-0.075987488,0.994483948
83.349904,6.562255859,-31.592330933,-0.992290497,-0.047885679,-0.055357605,0.970558167
83.364152,6.554626465,-28.395614624,0.091083527,-0.021152280,-0.046812683,0.931739807
83.379467,5.700134277,-24.344406128,-0.397197723,-0.009677671,-0.042296082,0.915382385
83.417772,-0.487304688,-4.988632202,-2.365581512,-0.025058530,-0.060728699,0.910133362
83.456138,-1.196838379,3.190078735,0.396259308,-0.010776304,-0.038023621,0.957374573
83.470400,-0.983215332,4.868545532,0.068195343,-0.000278257,-0.035216004,0.962257385
83.485727,-0.296569824,7.729568481,-0.488750458,0.000820376,-0.037779480,0.954689026
83.486490,-0.296569824,7.729568481,-0.488750458,0.000820376,-0.037779480,0.954689026
83.487103,-0.296569824,7.729568481,-0.488750458,0.000820376,-0.037779480,0.954689026
83.487733,-0.296569824,7.729568481,-0.488750458,0.000820376,-0.037779480,0.954689026
83.488337,-0.296569824,7.729568481,-0.488750458,0.000820376,-0.037779480,0.954689026
83.488961,-0.296569824,7.729568481,-0.488750458,0.000820376,-0.037779480,0.954689026
83.489572,-0.296569824,7.729568481,-0.488750458,0.000820376,-0.037779480,0.954689026
83.490199,-0.296569824,7.729568481,-0.488750458,0.000820376,-0.037779480,0.954689026
83.490804,-0.296569824,7.729568481,-0.488750458,0.000820376,-0.037779480,0.954689026
83.491435,-0.296569824,7.729568481,-0.488750458,0.000820376,-0.037779480,0.954689026
83.492045,-0.296569824,7.729568481,-0.488750458,0.000820376,-0.037779480,0.954689026
83.492676,-0.670410156,8.744277954,-0.839702606,-0.002231382,-0.042051941,0.949195862
83.493287,-0.670410156,8.744277954,-0.839702606,-0.002231382,-0.042051941,0.949195862
83.493915,-0.670410156,8.744277954,-0.839702606,-0.002231382,-0.042051941,0.949195862
83.494527,-0.670410156,8.744277954,-0.839702606,-0.002231382,-0.042051941,0.949195862
83.495159,-0.670410156,8.744277954,-0.839702606,-0.002231382,-0.042051941,0.949195862
83.495780,-0.670410156,8.744277954,-0.839702606,-0.002231382,-0.042051941,0.949195862
83.496402,-0.670410156,8.744277954,-0.839702606,-0.002231382,-0.042051941,0.949195862
83.497005,-0.670410156,8.744277954,-0.839702606,-0.002231382,-0.042051941,0.949195862
83.497640,-0.670410156,8.744277954,-0.839702606,-0.002231382,-0.042051941,0.949195862
83.498245,-0.670410156,8.744277954,-0.839702606,-0.002231382,-0.042051941,0.949195862
83.552538,-3.478027344,3.220596313,2.608783722,-0.004428647,-0.017515808,0.961647034
83.590887,-2.295471191,0.451126099,2.608783722,0.008999087,-0.023863465,0.984596252
83.605170,-1.997924805,-1.181564331,1.761920929,0.009487368,-0.038389832,0.986183167
83.620486,-2.814270020,-2.493820190,1.662738800,-0.000278257,-0.042662293,0.989601135
83.658794,-2.730346680,-7.376632690,3.615863800,-0.000034116,-0.008238465,1.046852112
83.697066,2.747558594,-5.202255249,2.959735870,0.013393618,-0.028380066,1.021827698
83.711313,2.701782227,-4.309616089,2.654560089,0.017055728,-0.034361511,1.001808167
83.726627,-0.128723145,-3.012619019,3.913410187,0.028774478,-0.054991394,0.984352112
83.764885,0.031494141,7.683792114,0.152118683,0.071377017,-0.032774597,1.042091370
83.803179,3.121398926,11.948623657,-3.143779755,0.029262759,-0.097838074,1.009132385
83.817429,2.434753418,10.521926880,-2.960674286,0.023159243,-0.116026551,0.992774963
83.832786,-0.769592285,5.562820435,-3.067485809,0.012172915,-0.132872254,0.988624573
83.871081,-2.104736328,-8.780441284,-0.229351044,-0.009555601,-0.100401551,1.049415588
83.909379,1.496337891,-13.464889526,0.884540558,0.000820376,-0.084288269,1.039527893
83.923629,1.687072754,-13.197860718,0.281818390,0.000332095,-0.115172058,1.012306213
83.938969,0.947021484,-12.816390991,0.251300812,-0.009311460,-0.131651551,0.999732971
83.977224,-0.647521973,-11.969528198,2.212055206,-0.014316343,-0.148131043,0.995094299
84.015502,-1.227355957,-6.209335327,2.532489777,0.006679751,-0.134581238,0.979347229
84.029773,-2.715087891,-1.196823120,2.051837921,0.022548892,-0.108336121,0.972633362
84.045089,-3.165222168,0.634231567,1.647480011,0.022304751,-0.098814636,0.974098206
84.083384,-2.776123047,4.654922485,1.586444855,0.038418032,-0.097593933,0.978736877
84.121667,-3.836608887,6.882705688,-0.862590790,0.038662173,-0.066099793,0.987892151
84.148644,-1.975036621,4.105606079,-1.228801727,0.022793032,-0.052672058,0.992774963
84.162970,-0.357604980,-0.815353394,-0.977031708,0.016201235,-0.062193543,0.984352112
84.201172,-0.967956543,-9.940109253,-0.618450165,0.013637759,-0.065855652,0.992164612
84.239439,-0.258422852,-12.373886108,-0.961772919,0.006679751,-0.069395691,1.015846252
84.253679,0.092529297,-12.610397339,-0.587932587,0.006191470,-0.063902527,1.017677307
84.268989,0.786804199,-11.427841187,-0.069133759,0.010219790,-0.067076355,1.013771057
84.307266,0.519775391,-6.201705933,-1.160137177,0.017910220,-0.082457215,0.998023987
84.345552,-2.470947266,1.687088013,-1.892559052,0.007900454,-0.075987488,1.012916565
84.359792,-2.631164551,3.930130005,-1.717082977,0.018764712,-0.048643738,1.038063049
84.375086,-2.020812988,4.456558228,-2.090923309,0.022304751,-0.030699402,1.050025940
84.375845,-2.020812988,4.456558228,-2.090923309,0.022304751,-0.030699402,1.050025940
84.376422,-2.020812988,4.456558228,-2.090923309,0.022304751,-0.030699402,1.050025940
84.377056,-2.020812988,4.456558228,-2.090923309,0.022304751,-0.030699402,1.050025940
84.377629,-1.082397461,4.426040649,-2.106182098,0.023769595,-0.020689636,1.059913635
84.378248,-1.082397461,4.426040649,-2.106182098,0.023769595,-0.020689636,1.059913635
84.378832,-1.082397461,4.426040649,-2.106182098,0.023769595,-0.020689636,1.059913635
84.379443,-1.082397461,4.426040649,-2.106182098,0.023769595,-0.020689636,1.059913635
84.380040,-1.082397461,4.426040649,-2.106182098,0.023769595,-0.020689636,1.059913635
84.380655,-1.082397461,4.426040649,-2.106182098,0.023769595,-0.020689636,1.059913635
84.381244,-1.082397461,4.426040649,-2.106182098,0.023769595,-0.020689636,1.059913635
84.381870,-1.082397461,4.426040649,-2.106182098,0.023769595,-0.020689636,1.059913635
84.382453,-1.082397461,4.426040649,-2.106182098,0.023769595,-0.020689636,1.059913635
84.383088,-1.082397461,4.426040649,-2.106182098,0.023769595,-0.020689636,1.059913635
84.383675,-1.082397461,4.426040649,-2.106182098,0.023769595,-0.020689636,1.059913635
84.384301,-1.082397461,4.426040649,-2.106182098,0.023769595,-0.020689636,1.059913635
84.384895,-1.082397461,4.426040649,-2.106182098,0.023769595,-0.020689636,1.059913635
84.398561,1.313232422,4.128494263,-2.724163055,0.030361392,-0.015806824,1.072975159
84.399401,1.313232422,4.128494263,-2.724163055,0.030361392,-0.015806824,1.072975159
84.400022,1.313232422,4.128494263,-2.724163055,0.030361392,-0.015806824,1.072975159
84.400645,1.313232422,4.128494263,-2.724163055,0.030361392,-0.015806824,1.072975159
84.401255,1.313232422,4.128494263,-2.724163055,0.030361392,-0.015806824,1.072975159
84.401883,1.313232422,4.128494263,-2.724163055,0.030361392,-0.015806824,1.072975159
84.402481,1.313232422,4.128494263,-2.724163055,0.030361392,-0.015806824,1.072975159
84.403122,1.313232422,4.128494263,-2.724163055,0.030361392,-0.015806824,1.072975159
84.441194,4.395507812,2.572097778,-3.662578583,0.027187563,-0.041075379,1.062232971
84.479610,8.103393555,3.136672974,-3.983013153,0.050502993,0.022889465,1.030738831
84.493885,8.523010254,4.509963989,-5.295269012,0.053554751,0.014832824,1.020851135
84.509222,8.034729004,6.547012329,-7.332317352,0.044765688,-0.030577332,1.005348206
84.547503,4.929565430,5.204238892,-5.814067841,0.035732485,-0.088194519,0.992286682
84.585805,3.853820801,6.722488403,-6.767742157,0.054531313,-0.086973816,1.010108948
84.586578,4.311584473,7.164993286,-7.545940399,0.052578188,-0.092222840,1.012916565
84.587182,4.311584473,7.164993286,-7.545940399,0.052578188,-0.092222840,1.012916565
84.587815,4.311584473,7.164993286,-7.545940399,0.052578188,-0.092222840,1.012916565
84.588398,4.311584473,7.164993286,-7.545940399,0.052578188,-0.092222840,1.012916565
84.589039,4.311584473,7.164993286,-7.545940399,0.052578188,-0.092222840,1.012916565
84.589638,4.311584473,7.164993286,-7.545940399,0.052578188,-0.092222840,1.012916565
84.603753,4.586242676,6.936111450,-8.209697723,0.044033267,-0.107725769,1.015357971
84.619086,4.334472656,4.868545532,-7.317058563,0.021938540,-0.126646668,1.004493713
84.657401,2.961181641,2.915420532,-4.379741669,0.052578188,-0.090147644,0.964942932
84.695679,-0.166870117,13.794937134,-8.644573212,0.068691470,-0.094298035,0.946998596
84.709927,-1.074768066,15.702285767,-9.644023895,0.067470767,-0.103819519,0.951393127
84.725243,-1.822448730,15.824356079,-10.902873993,0.050869204,-0.118223816,0.958351135
84.763538,-0.563598633,1.236953735,-7.874004364,0.005703188,-0.108824402,0.988502502
84.801822,0.489257812,-14.098129272,-6.302349091,-0.003696226,-0.094664246,0.961769104
84.816158,-0.296569824,-19.232711792,-4.517070770,-0.008212827,-0.094298035,0.964576721
84.831548,-0.632263184,-21.025619507,-3.983013153,-0.006870054,-0.101378113,0.971900940
84.869816,0.161193848,-21.140060425,-1.831523895,0.013759829,-0.084898621,0.991065979
84.908086,1.023315430,-7.369003296,-3.891460419,0.031460024,-0.074034363,0.955055237
84.922312,0.786804199,-3.523788452,-4.295818329,0.026699282,-0.080992371,0.948585510
84.937624,-1.524902344,1.900711060,-4.707805634,0.027797915,-0.097105652,0.942359924
84.975871,-1.547790527,3.823318481,-3.601543427,0.024013735,-0.085631043,0.989967346
85.014150,-1.158691406,-1.006088257,-4.036418915,0.012417056,-0.070494324,0.977149963
85.041589,-1.479125977,-7.338485718,-2.945415497,-0.009067319,-0.085508972,0.992042542
85.055904,-0.632263184,-13.739547729,-1.160137177,-0.020297788,-0.076109558,1.008522034
85.094100,0.542663574,-18.927536011,2.959735870,-0.006992124,-0.040220886,1.001930237
85.132407,1.099609375,-14.075241089,3.692157745,0.009975649,-0.049498230,1.010231018
85.146651,1.473449707,-5.934677124,2.631671906,0.032558657,-0.026793152,1.007545471
85.161967,1.618408203,-0.983200073,1.510150909,0.033901431,-0.031309754,1.000099182
85.200231,-1.379943848,11.086502075,1.449115753,0.019252993,-0.030455261,1.029029846
85.201001,-1.379943848,11.086502075,1.449115753,0.019252993,-0.030455261,1.029029846
85.201600,-1.379943848,11.086502075,1.449115753,0.019252993,-0.030455261,1.029029846
85.202228,-1.379943848,11.086502075,1.449115753,0.019252993,-0.030455261,1.029029846
85.202824,-0.121093750,11.796035767,1.967914581,0.024624087,-0.021055847,1.038307190
85.203442,-0.121093750,11.796035767,1.967914581,0.024624087,-0.021055847,1.038307190
85.216291,1.618408203,12.597122192,2.128131866,0.030971743,-0.019224793,1.038917542
85.217086,1.618408203,12.597122192,2.128131866,0.030971743,-0.019224793,1.038917542
85.217739,1.618408203,12.597122192,2.128131866,0.030971743,-0.019224793,1.038917542
85.218410,1.618408203,12.597122192,2.128131866,0.030971743,-0.019224793,1.038917542
85.220256,1.618408203,12.597122192,2.128131866,0.030971743,-0.019224793,1.038917542
85.221039,1.618408203,12.597122192,2.128131866,0.030971743,-0.019224793,1.038917542
85.221676,1.618408203,12.597122192,2.128131866,0.030971743,-0.019224793,1.038917542
85.222347,1.618408203,12.597122192,2.128131866,0.030971743,-0.019224793,1.038917542
85.222977,2.961181641,13.733901978,2.250202179,0.038051821,-0.022642761,1.027687073
85.223624,2.961181641,13.733901978,2.250202179,0.038051821,-0.022642761,1.027687073
85.224274,2.961181641,13.733901978,2.250202179,0.038051821,-0.022642761,1.027687073
85.224919,2.961181641,13.733901978,2.250202179,0.038051821,-0.022642761,1.027687073
85.225549,2.961181641,13.733901978,2.250202179,0.038051821,-0.022642761,1.027687073
85.263704,0.161193848,19.883193970,1.609333038,0.044399478,-0.035704285,0.981666565
85.277962,-0.990844727,20.867385864,1.456745148,0.049648501,-0.041929871,0.997657776
85.293326,-1.570678711,21.866836548,1.456745148,0.058803774,-0.047667176,1.034400940
85.294084,-1.570678711,21.866836548,1.456745148,0.058803774,-0.047667176,1.034400940
85.294715,-1.570678711,21.866836548,1.456745148,0.058803774,-0.047667176,1.034400940
85.295350,-1.570678711,21.866836548,1.456745148,0.058803774,-0.047667176,1.034400940
85.295975,-1.570678711,21.866836548,1.456745148,0.058803774,-0.047667176,1.034400940
85.334094,3.884338379,21.912612915,-3.029338837,0.064663149,-0.077696472,1.028785706
85.372382,0.954650879,3.663101196,-2.327434540,0.003750063,-0.108946472,1.019142151
85.386616,0.908874512,-2.951583862,-1.160137177,0.002041079,-0.099302918,1.024391174
85.401968,1.687072754,-12.488327026,0.579364777,0.012172915,-0.039732605,1.026954651
85.440220,3.579162598,-15.059432983,0.365741730,0.041103579,-0.023131043,0.999244690
85.478472,-1.326538086,-12.061080933,-3.853313446,0.009121157,-0.120176941,0.982032776
85.479243,-1.326538086,-12.061080933,-3.853313446,0.009121157,-0.120176941,0.982032776
85.479873,-1.326538086,-12.061080933,-3.853313446,0.009121157,-0.120176941,0.982032776
85.480521,-1.326538086,-12.061080933,-3.853313446,0.009121157,-0.120176941,0.982032776
85.481153,-2.402282715,-13.159713745,-3.281108856,-0.001132749,-0.122374207,0.996925354
85.481817,-2.402282715,-13.159713745,-3.281108856,-0.001132749,-0.122374207,0.996925354
85.482430,-2.402282715,-13.159713745,-3.281108856,-0.001132749,-0.122374207,0.996925354
85.483085,-2.402282715,-13.159713745,-3.281108856,-0.001132749,-0.122374207,0.996925354
85.483726,-2.402282715,-13.159713745,-3.281108856,-0.001132749,-0.122374207,0.996925354
85.484359,-2.402282715,-13.159713745,-3.281108856,-0.001132749,-0.122374207,0.996925354
85.484990,-2.402282715,-13.159713745,-3.281108856,-0.001132749,-0.122374207,0.996925354
85.500290,-3.134704590,-14.548263550,-2.304546356,-0.003085874,-0.110289246,1.018165588
85.514556,-1.769042969,-15.852890015,-0.198833466,0.010463931,-0.063536316,1.052711487
85.552750,2.617858887,-10.580978394,-3.983013153,0.019863345,-0.073790222,1.041725159
85.591021,0.229858398,-13.670883179,-0.427715302,-0.030429624,-0.136778504,1.011207581
85.605278,-0.319458008,-14.868698120,1.807697296,-0.026523374,-0.114317566,1.014869690
85.620606,0.596069336,-12.381515503,5.157001495,0.017055728,-0.054869324,1.010841370
85.658846,1.519226074,2.862014771,2.669818878,0.057583071,-0.019957215,0.993385315
85.697130,4.120849609,20.058670044,-2.686016083,0.062221743,-0.055723816,0.973854065
85.711387,3.953002930,22.706069946,-3.021709442,0.047695376,-0.092466980,0.945655823
85.726730,3.327392578,22.721328735,-2.869121552,0.045498110,-0.103941590,0.931373596
85.765010,-1.448608398,15.809097290,-1.816265106,0.036342837,-0.081236511,0.945167542
85.803296,1.778625488,4.685440063,-2.808086395,0.048794009,-0.027525574,0.970802307
85.832241,3.655456543,-4.584274292,-3.395549774,0.044521548,-0.030821472,0.938453674
85.846567,3.411315918,-7.201156616,-4.082195282,0.037563540,-0.038023621,0.922584534
85.884775,-0.708557129,-12.968978882,-3.990642548,0.024624087,-0.018736511,0.915382385
85.936807,-3.622985840,-13.976058960,-3.609172821,0.023159243,-0.033751160,0.978981018
85.951151,-1.410461426,-10.626754761,-2.968303680,0.060024478,0.004700989,1.026466370
85.966536,0.771545410,-7.628402710,-5.348674774,0.071621157,-0.002623230,1.037940979
86.004817,5.105041504,-5.858383179,-9.575359344,-0.012363218,-0.093077332,1.006324768
86.005589,5.105041504,-5.858383179,-9.575359344,-0.012363218,-0.093077332,1.006324768
86.006196,5.105041504,-5.858383179,-9.575359344,-0.012363218,-0.093077332,1.006324768
86.006814,5.105041504,-5.858383179,-9.575359344,-0.012363218,-0.093077332,1.006324768
86.007399,5.105041504,-5.858383179,-9.575359344,-0.012363218,-0.093077332,1.006324768
86.008025,5.105041504,-5.858383179,-9.575359344,-0.012363218,-0.093077332,1.006324768
86.008617,5.112670898,-9.131393433,-7.805339813,-0.024326108,-0.117613465,0.988258362
86.009248,5.112670898,-9.131393433,-7.805339813,-0.024326108,-0.117613465,0.988258362
86.009846,5.112670898,-9.131393433,-7.805339813,-0.024326108,-0.117613465,0.988258362
86.010464,5.112670898,-9.131393433,-7.805339813,-0.024326108,-0.117613465,0.988258362
86.011069,5.112670898,-9.131393433,-7.805339813,-0.024326108,-0.117613465,0.988258362
86.011690,5.112670898,-9.131393433,-7.805339813,-0.024326108,-0.117613465,0.988258362
86.012290,5.112670898,-9.131393433,-7.805339813,-0.024326108,-0.117613465,0.988258362
86.050412,-2.493835449,-9.436569214,-3.525249481,0.048183657,-0.101500183,0.976295471
86.064651,-3.813720703,-4.752120972,-5.798809052,0.066127993,-0.087462097,1.002540588
86.079948,-2.333618164,3.975906372,-10.887615204,0.041713931,-0.097227722,1.046241760
86.080718,-2.333618164,3.975906372,-10.887615204,0.041713931,-0.097227722,1.046241760
86.081326,-2.333618164,3.975906372,-10.887615204,0.041713931,-0.097227722,1.046241760
86.081963,-2.333618164,3.975906372,-10.887615204,0.041713931,-0.097227722,1.046241760
86.082567,-2.333618164,3.975906372,-10.887615204,0.041713931,-0.097227722,1.046241760
86.083199,-2.333618164,3.975906372,-10.887615204,0.041713931,-0.097227722,1.046241760
86.083810,-2.333618164,3.975906372,-10.887615204,0.041713931,-0.097227722,1.046241760
86.084431,-2.333618164,3.975906372,-10.887615204,0.041713931,-0.097227722,1.046241760
86.085037,-2.333618164,3.975906372,-10.887615204,0.041713931,-0.097227722,1.046241760
86.085661,-2.333618164,3.975906372,-10.887615204,0.041713931,-0.097227722,1.046241760
86.086283,-2.333618164,3.975906372,-10.887615204,0.041713931,-0.097227722,1.046241760
86.086906,-2.333618164,3.975906372,-10.887615204,0.041713931,-0.097227722,1.046241760
86.087509,-2.333618164,3.975906372,-10.887615204,0.041713931,-0.097227722,1.046241760
86.088155,-0.479675293,5.913772583,-10.742656708,0.017177798,-0.108091980,1.047462463
86.088769,-0.479675293,5.913772583,-10.742656708,0.017177798,-0.108091980,1.047462463
86.126878,0.893615723,5.646743774,-7.393352509,-0.005527280,-0.114927918,1.006446838
86.165192,-2.707458496,10.476150513,-4.555217743,0.042080142,-0.066588074,1.007789612
86.179429,-0.967956543,14.100112915,-5.814067841,0.048916079,-0.098936707,1.013648987
86.194753,-0.472045898,14.916458130,-5.745403290,0.043789126,-0.116758972,0.999855042
86.233039,-4.477478027,5.547561646,-2.449504852,0.004726626,-0.119810730,0.993873596
86.271306,-1.173950195,-4.752120972,-2.006999969,0.021328188,-0.102598816,1.004737854
86.285569,-1.288391113,-5.843124390,-2.121440887,0.005825259,-0.107969910,0.994239807
86.300861,-2.074218750,-7.445297241,-0.420085907,0.013149478,-0.086729676,0.982643127
86.339133,-0.311828613,-3.554306030,2.585895538,0.036709048,-0.092100769,0.962989807
86.377396,-5.957580566,9.263076782,1.517780304,0.036709048,-0.122740418,0.937721252
86.378162,-5.957580566,9.263076782,1.517780304,0.036709048,-0.122740418,0.937721252
86.378750,-5.957580566,9.263076782,1.517780304,0.036709048,-0.122740418,0.937721252
86.408085,-8.429504395,12.856521606,0.976093292,0.074428774,-0.098936707,0.997535706
86.422421,-7.864929199,13.703384399,-0.214092255,0.071621157,-0.083922058,1.020606995
86.460615,-1.448608398,13.955154419,-3.426067352,0.065761782,-0.079893738,0.998878479
86.498900,-6.445861816,4.822769165,-5.035869598,0.042324282,-0.121641785,0.972145081
86.513165,-7.407165527,0.672378540,-4.272930145,0.039394595,-0.116392761,0.993019104
86.528496,-6.415344238,-7.803878784,-3.777019501,0.045620181,-0.085142761,1.037452698
86.566803,-0.319458008,-14.883956909,-6.180278778,0.045986392,-0.104796082,1.039161682
86.605075,-2.257324219,-7.208786011,-7.965557098,0.072963931,-0.081114441,0.983253479
86.619325,-3.279663086,-2.806625366,-9.430400848,0.079555728,-0.075010926,0.982154846
86.634647,-3.714538574,4.517593384,-13.618938446,0.075893618,-0.088072449,0.984107971
86.672913,-4.027343750,5.448379517,-14.755718231,0.054531313,-0.089781433,0.987892151
86.711202,-6.300903320,-1.074752808,-16.968242645,0.060024478,-0.073301941,1.024391174
86.725457,-4.637695312,-7.132492065,-18.784038544,0.043422915,-0.083555847,1.057960510
86.755105,-0.632263184,-18.439254761,-19.455425262,0.004238345,-0.102354676,1.057960510
86.793522,0.802062988,-24.619064331,-16.006938934,0.035122134,-0.044127136,1.028907776
86.794319,0.802062988,-24.619064331,-16.006938934,0.035122134,-0.044127136,1.028907776
86.794934,0.802062988,-24.619064331,-16.006938934,0.035122134,-0.044127136,1.028907776
86.795577,0.802062988,-24.619064331,-16.006938934,0.035122134,-0.044127136,1.028907776
86.796197,0.802062988,-24.619064331,-16.006938934,0.035122134,-0.044127136,1.028907776
86.796828,0.802062988,-24.619064331,-16.006938934,0.035122134,-0.044127136,1.028907776
86.797442,0.802062988,-24.619064331,-16.006938934,0.035122134,-0.044127136,1.028907776
86.798084,0.802062988,-24.619064331,-16.006938934,0.035122134,-0.044127136,1.028907776
86.798705,0.802062988,-24.619064331,-16.006938934,0.035122134,-0.044127136,1.028907776
86.799346,0.802062988,-24.619064331,-16.006938934,0.035122134,-0.044127136,1.028907776
86.799956,0.802062988,-24.619064331,-16.006938934,0.035122134,-0.044127136,1.028907776
86.800594,0.802062988,-24.619064331,-16.006938934,0.035122134,-0.044127136,1.028907776
86.838655,-0.632263184,-10.230026245,-22.133342743,0.044887759,-0.117735535,1.044532776
86.852916,-0.945068359,-7.407150269,-22.293560028,0.026211001,-0.133482605,1.059547424
86.868242,-0.250793457,-2.661666870,-20.271770477,0.034755923,-0.092589051,1.088722229
86.869029,-0.250793457,-2.661666870,-20.271770477,0.034755923,-0.092589051,1.088722229
86.869635,-0.250793457,-2.661666870,-20.271770477,0.034755923,-0.092589051,1.088722229
86.870271,-0.250793457,-2.661666870,-20.271770477,0.034755923,-0.092589051,1.088722229
86.870885,-0.250793457,-2.661666870,-20.271770477,0.034755923,-0.092589051,1.088722229
86.871512,-0.250793457,-2.661666870,-20.271770477,0.034755923,-0.092589051,1.088722229
86.872122,-0.250793457,-2.661666870,-20.271770477,0.034755923,-0.092589051,1.088722229
86.872770,-0.250793457,-2.661666870,-20.271770477,0.034755923,-0.092589051,1.088722229
86.873373,1.961730957,0.710525513,-19.958965302,0.044521548,-0.062071472,1.092750549
86.874004,1.961730957,0.710525513,-19.958965302,0.044521548,-0.062071472,1.092750549
86.874621,1.961730957,0.710525513,-19.958965302,0.044521548,-0.062071472,1.092750549
86.875258,1.961730957,0.710525513,-19.958965302,0.044521548,-0.062071472,1.092750549
86.875868,1.961730957,0.710525513,-19.958965302,0.044521548,-0.062071472,1.092750549
86.876512,1.961730957,0.710525513,-19.958965302,0.044521548,-0.062071472,1.092750549
86.877123,1.961730957,0.710525513,-19.958965302,0.044521548,-0.062071472,1.092750549
86.877760,1.961730957,0.710525513,-19.958965302,0.044521548,-0.062071472,1.092750549
86.878369,1.961730957,0.710525513,-19.958965302,0.044521548,-0.062071472,1.092750549
86.879006,1.961730957,0.710525513,-19.958965302,0.044521548,-0.062071472,1.092750549
86.879618,1.961730957,0.710525513,-19.958965302,0.044521548,-0.062071472,1.092750549
86.935629,4.128479004,28.885879517,-30.739299774,0.063564517,-0.126890808,0.945289612
86.974032,-1.700378418,20.501174927,-27.290813446,0.023159243,-0.103331238,0.981788635
86.988298,-1.135803223,16.907730103,-26.535503387,0.030483462,-0.059874207,0.995460510
87.003644,2.831481934,11.063613892,-26.756755829,0.042080142,-0.012022644,0.989723206
87.041927,5.974792480,3.945388794,-26.810161591,0.025478579,-0.027159363,0.892433167
87.080222,-5.782104492,-1.593551636,-25.108806610,-0.000156187,-0.053770691,0.842628479
87.094472,-8.978820801,-4.393539429,-23.575298309,0.005336978,-0.031431824,0.911476135
87.109827,-8.231140137,-5.454025269,-23.285381317,0.009609438,-0.024840027,0.941261292
87.148094,-6.720520020,-9.482345581,-22.308818817,-0.006503843,-0.065733582,0.957130432
87.186392,-12.335754395,-9.108505249,-20.447246552,0.022426821,-0.030089051,0.975318909
87.200641,-13.197875977,-7.651290894,-20.813457489,0.023037173,-0.015562683,0.994850159
87.216006,-12.297607422,-5.873641968,-22.430889130,0.018154360,-0.008482605,1.040748596
87.254282,-7.147766113,-15.646896362,-19.348613739,-0.036044858,-0.044493347,1.052345276
87.292593,-6.247497559,-25.267562866,-14.641277313,-0.016513608,-0.050230652,1.036720276
87.306854,-5.850769043,-25.336227417,-13.664714813,-0.007602476,-0.038389832,1.037574768
87.322222,-4.736877441,-21.597824097,-12.451641083,0.014736392,-0.023863465,1.028907776
87.360473,-3.775573730,-0.937423706,-15.556804657,0.061855532,0.001771301,1.008766174
87.398777,-3.844238281,12.703933716,-18.959514618,0.052700259,-0.047545105,0.994728088
87.413035,-4.469848633,15.885391235,-19.844524384,0.029995181,-0.048033386,0.980201721
87.428387,-5.049682617,16.305007935,-19.196025848,0.026943423,-0.034605652,0.979835510
87.466669,-4.401184082,18.693008423,-18.272869110,0.058437563,-0.004088074,0.986915588
87.467443,-4.401184082,18.693008423,-18.272869110,0.058437563,-0.004088074,0.986915588
87.468061,-4.401184082,18.693008423,-18.272869110,0.058437563,-0.004088074,0.986915588
87.468705,-4.401184082,18.693008423,-18.272869110,0.058437563,-0.004088074,0.986915588
87.469300,-4.401184082,18.693008423,-18.272869110,0.058437563,-0.004088074,0.986915588
87.469933,-4.240966797,20.539321899,-19.241802216,0.067348696,-0.009825379,0.986305237
87.470538,-4.240966797,20.539321899,-19.241802216,0.067348696,-0.009825379,0.986305237
87.471172,-4.240966797,20.539321899,-19.241802216,0.067348696,-0.009825379,0.986305237
87.471778,-4.240966797,20.539321899,-19.241802216,0.067348696,-0.009825379,0.986305237
87.472421,-4.240966797,20.539321899,-19.241802216,0.067348696,-0.009825379,0.986305237
87.473036,-4.240966797,20.539321899,-19.241802216,0.067348696,-0.009825379,0.986305237
87.473669,-4.240966797,20.539321899,-19.241802216,0.067348696,-0.009825379,0.986305237
87.474271,-4.240966797,20.539321899,-19.241802216,0.067348696,-0.009825379,0.986305237
87.474918,-4.240966797,20.539321899,-19.241802216,0.067348696,-0.009825379,0.986305237
87.475512,-4.240966797,20.539321899,-19.241802216,0.067348696,-0.009825379,0.986305237
87.476155,-4.240966797,20.539321899,-19.241802216,0.067348696,-0.009825379,0.986305237
87.476772,-4.240966797,20.539321899,-19.241802216,0.067348696,-0.009825379,0.986305237
87.477403,-4.240966797,20.539321899,-19.241802216,0.067348696,-0.009825379,0.986305237
87.477999,-4.240966797,20.539321899,-19.241802216,0.067348696,-0.009825379,0.986305237
87.478646,-4.240966797,20.539321899,-19.241802216,0.067348696,-0.009825379,0.986305237
87.479246,-4.240966797,20.539321899,-19.241802216,0.067348696,-0.009825379,0.986305237
87.479883,-4.164672852,22.378005981,-20.653240204,0.069912173,-0.024351746,0.989601135
87.480489,-4.164672852,22.378005981,-20.653240204,0.069912173,-0.024351746,0.989601135
87.481129,-4.164672852,22.378005981,-20.653240204,0.069912173,-0.024351746,0.989601135
87.481739,-4.164672852,22.378005981,-20.653240204,0.069912173,-0.024351746,0.989601135
87.482373,-4.164672852,22.378005981,-20.653240204,0.069912173,-0.024351746,0.989601135
87.482971,-4.164672852,22.378005981,-20.653240204,0.069912173,-0.024351746,0.989601135
87.536873,-3.813720703,20.928421021,-21.370403290,0.057827212,-0.020201355,0.997535706
87.551206,-2.783752441,19.791641235,-22.522441864,0.076503970,0.018128723,0.983741760
87.566562,-2.394653320,19.959487915,-23.628704071,0.085537173,0.035096496,0.974708557
87.604858,-0.998474121,14.847793579,-29.411785126,0.040249087,-0.048765808,0.955543518
87.659097,-3.378845215,-15.006027222,-23.178569794,0.020717837,-0.085142761,0.962135315
87.673443,-3.951049805,-16.058883667,-23.300640106,0.028042056,-0.092711121,0.973487854
87.688820,-4.202819824,-15.379867554,-24.109355927,0.037929751,-0.098814636,0.984352112
87.727094,-5.377746582,-8.612594604,-26.581279755,0.045131899,-0.093199402,0.964576721
87.765393,-10.100341797,1.969375610,-29.068462372,0.024746157,-0.051329285,0.980934143
87.779638,-10.657287598,4.769363403,-29.716960907,0.021328188,-0.064512879,0.999855042
87.794980,-10.725952148,5.181350708,-30.228130341,0.014858462,-0.084288269,1.007423401
87.833269,-10.809875488,-4.103622437,-27.855388641,-0.021762632,-0.148008972,1.058815002
87.871594,-5.782104492,-19.728622437,-19.188396454,-0.026401304,-0.099791199,1.065650940
87.872363,-5.782104492,-19.728622437,-19.188396454,-0.026401304,-0.099791199,1.065650940
87.872965,-5.782104492,-19.728622437,-19.188396454,-0.026401304,-0.099791199,1.065650940
87.873599,-5.782104492,-19.728622437,-19.188396454,-0.026401304,-0.099791199,1.065650940
87.874209,-5.782104492,-19.728622437,-19.188396454,-0.026401304,-0.099791199,1.065650940
87.888300,-4.195190430,-18.858871460,-17.815105438,0.022548892,-0.084898621,1.035377502
87.903616,-4.111267090,-15.387496948,-18.745891571,0.035488345,-0.091612488,1.020606995
87.941884,-6.888366699,1.183547974,-20.386211395,0.023647524,-0.152647644,1.034645081
87.980187,-2.371765137,12.696304321,-19.066326141,0.068447329,-0.115172058,1.022438049
87.994433,-1.296020508,16.564407349,-19.997112274,0.066982485,-0.108946472,1.002052307
88.009758,-0.754333496,24.354019165,-22.110454559,0.068081118,-0.117247254,0.960914612
88.048050,-5.049682617,30.449905396,-23.621074677,0.048794009,-0.150938660,0.955421448
88.086350,-3.027893066,20.142593384,-22.453777313,0.038784243,-0.106871277,0.996070862
88.100607,-1.761413574,16.266860962,-22.720806122,0.036220767,-0.107359558,0.986793518
88.132074,-1.547790527,0.832595825,-22.919170380,0.002773501,-0.123350769,0.956398010
88.170479,-5.621887207,-22.780380249,-17.502300262,-0.027988218,-0.127867371,0.981300354
88.171295,-5.621887207,-22.780380249,-17.502300262,-0.027988218,-0.127867371,0.981300354
88.171940,-5.621887207,-22.780380249,-17.502300262,-0.027988218,-0.127867371,0.981300354
88.172602,-5.621887207,-22.780380249,-17.502300262,-0.027988218,-0.127867371,0.981300354
88.173235,-5.621887207,-22.780380249,-17.502300262,-0.027988218,-0.127867371,0.981300354
88.173881,-5.621887207,-22.780380249,-17.502300262,-0.027988218,-0.127867371,0.981300354
88.174527,-5.621887207,-22.780380249,-17.502300262,-0.027988218,-0.127867371,0.981300354
88.175182,-5.621887207,-22.780380249,-17.502300262,-0.027988218,-0.127867371,0.981300354
88.175827,-5.820251465,-27.007064819,-15.816204071,-0.018832944,-0.112852722,0.999855042
88.176469,-5.820251465,-27.007064819,-15.816204071,-0.018832944,-0.112852722,0.999855042
88.177109,-5.820251465,-27.007064819,-15.816204071,-0.018832944,-0.112852722,0.999855042
88.177778,-5.820251465,-27.007064819,-15.816204071,-0.018832944,-0.112852722,0.999855042
88.178413,-5.820251465,-27.007064819,-15.816204071,-0.018832944,-0.112852722,0.999855042
88.179067,-5.820251465,-27.007064819,-15.816204071,-0.018832944,-0.112852722,0.999855042
88.179711,-5.820251465,-27.007064819,-15.816204071,-0.018832944,-0.112852722,0.999855042
88.217855,-2.295471191,-30.142745972,-14.999858856,0.015346743,-0.111509949,1.006324768
88.232108,-2.638793945,-28.120956421,-14.969341278,0.017788149,-0.116026551,0.995338440
88.247468,-4.790283203,-21.658859253,-15.343181610,0.023403384,-0.110289246,0.982643127
88.285757,-7.109619141,-1.273117065,-17.998210907,0.050747134,-0.091246277,1.019142151
88.324067,-5.873657227,11.849441528,-21.126262665,0.038540103,-0.122496277,1.029273987
88.351013,-6.667114258,12.864151001,-19.989482880,0.019130923,-0.125670105,1.036842346
88.365369,-6.545043945,10.277786255,-19.394390106,0.022670962,-0.102965027,1.056495667
88.366083,-6.545043945,10.277786255,-19.394390106,0.022670962,-0.102965027,1.056495667
88.366682,-6.545043945,10.277786255,-19.394390106,0.022670962,-0.102965027,1.056495667
88.367322,-6.545043945,10.277786255,-19.394390106,0.022670962,-0.102965027,1.056495667
88.367930,-6.545043945,10.277786255,-19.394390106,0.022670962,-0.102965027,1.056495667
88.368571,-6.545043945,10.277786255,-19.394390106,0.022670962,-0.102965027,1.056495667
88.369180,-6.545043945,10.277786255,-19.394390106,0.022670962,-0.102965027,1.056495667
88.371038,-6.545043945,10.277786255,-19.394390106,0.022670962,-0.102965027,1.056495667
88.409345,-1.135803223,2.137222290,-22.842876434,0.015468813,-0.109923035,1.078834534
88.447620,2.625488281,-14.166793823,-20.218364716,-0.036533140,-0.131651551,1.037086487
88.461872,2.404235840,-16.943893433,-17.990581512,-0.036899351,-0.136412293,1.021461487
88.477229,1.999877930,-17.271957397,-14.976970673,-0.001376890,-0.109312683,1.008277893
88.515488,-0.029541016,0.290908813,-20.081035614,0.031215884,-0.119322449,0.967628479
88.553791,-3.691650391,13.588943481,-19.463054657,0.042202212,-0.064757019,0.982521057
88.580975,-1.242614746,18.464126587,-21.988384247,0.053920962,-0.052549988,0.976783752
88.595340,-0.678039551,21.721878052,-24.277202606,0.039760806,-0.071226746,0.945777893
88.633583,-5.286193848,14.344253540,-24.040691376,0.003872134,-0.074278504,0.938209534
88.671870,-5.469299316,-1.959762573,-21.271221161,-0.009677671,-0.057921082,0.962501526
88.686107,-3.661132812,-12.122116089,-19.279949188,-0.001132749,-0.041441590,0.967750549
88.701569,-3.165222168,-14.624557495,-19.348613739,0.004360415,-0.032530457,0.962745667
88.739879,-7.147766113,-12.106857300,-19.348613739,0.027065493,-0.061583191,0.942359924
88.778190,-10.298706055,-1.738510132,-21.400920868,0.043544985,-0.080626160,1.018043518
88.792444,-8.696533203,2.366104126,-23.560039520,0.044521548,-0.071837097,1.022926331
88.807781,-8.261657715,3.266372681,-24.063579559,0.039150454,-0.064024597,1.019264221
88.846078,-7.353759766,1.145401001,-22.675029755,0.027065493,-0.059752136,0.991920471
88.846860,-7.353759766,1.145401001,-22.675029755,0.027065493,-0.059752136,0.991920471
88.847473,-7.353759766,1.145401001,-22.675029755,0.027065493,-0.059752136,0.991920471
88.848113,-7.353759766,1.145401001,-22.675029755,0.027065493,-0.059752136,0.991920471
88.848724,-7.353759766,1.145401001,-22.675029755,0.027065493,-0.059752136,0.991920471
88.849357,-7.353759766,1.145401001,-22.675029755,0.027065493,-0.059752136,0.991920471
88.849963,-7.353759766,1.145401001,-22.675029755,0.027065493,-0.059752136,0.991920471
88.850596,-7.353759766,1.145401001,-22.675029755,0.027065493,-0.059752136,0.991920471
88.851221,-7.353759766,1.145401001,-22.675029755,0.027065493,-0.059752136,0.991920471
88.851855,-7.895446777,0.802078247,-22.148601532,0.035732485,-0.055967957,0.992286682
88.852471,-7.895446777,0.802078247,-22.148601532,0.035732485,-0.055967957,0.992286682
88.853120,-7.895446777,0.802078247,-22.148601532,0.035732485,-0.055967957,0.992286682
88.853734,-7.895446777,0.802078247,-22.148601532,0.035732485,-0.055967957,0.992286682
88.854379,-7.895446777,0.802078247,-22.148601532,0.035732485,-0.055967957,0.992286682
88.854998,-7.895446777,0.802078247,-22.148601532,0.035732485,-0.055967957,0.992286682
88.855633,-7.895446777,0.802078247,-22.148601532,0.035732485,-0.055967957,0.992286682
88.856257,-7.895446777,0.802078247,-22.148601532,0.035732485,-0.055967957,0.992286682
88.856904,-7.895446777,0.802078247,-22.148601532,0.035732485,-0.055967957,0.992286682
88.857516,-7.895446777,0.802078247,-22.148601532,0.035732485,-0.055967957,0.992286682
88.858162,-7.895446777,0.802078247,-22.148601532,0.035732485,-0.055967957,0.992286682
88.858794,-7.895446777,0.802078247,-22.148601532,0.035732485,-0.055967957,0.992286682
88.859428,-7.895446777,0.802078247,-22.148601532,0.035732485,-0.055967957,0.992286682
88.909615,-5.743957520,10.155715942,-26.115886688,0.078457095,-0.034727722,1.032691956
88.923975,-3.600097656,14.885940552,-27.504436493,0.082729556,-0.038389832,1.009376526
88.939336,-3.584838867,17.113723755,-28.946392059,0.088100649,-0.033995301,0.998146057
88.977616,-3.874755859,19.059219360,-32.356731415,0.063320376,-0.064024597,0.990821838
89.015897,-3.188110352,18.303909302,-33.462993622,0.093593813,-0.025450379,0.977882385
89.030167,-3.104187012,18.555679321,-35.095684052,0.093715884,-0.031798035,0.991798401
89.045513,-1.585937500,16.770401001,-38.132183075,0.083950259,-0.056456238,1.008888245
89.046291,-1.585937500,16.770401001,-38.132183075,0.083950259,-0.056456238,1.008888245
89.046901,-1.585937500,16.770401001,-38.132183075,0.083950259,-0.056456238,1.008888245
89.047547,-1.585937500,16.770401001,-38.132183075,0.083950259,-0.056456238,1.008888245
89.048155,-1.585937500,16.770401001,-38.132183075,0.083950259,-0.056456238,1.008888245
89.048792,-1.585937500,16.770401001,-38.132183075,0.083950259,-0.056456238,1.008888245
89.049397,-1.585937500,16.770401001,-38.132183075,0.083950259,-0.056456238,1.008888245
89.050044,-1.585937500,16.770401001,-38.132183075,0.083950259,-0.056456238,1.008888245
89.050646,-0.632263184,13.634719849,-39.497844696,0.066127993,-0.071837097,1.016334534
89.051294,-0.632263184,13.634719849,-39.497844696,0.066127993,-0.071837097,1.016334534
89.051912,-0.632263184,13.634719849,-39.497844696,0.066127993,-0.071837097,1.016334534
89.052548,-0.632263184,13.634719849,-39.497844696,0.066127993,-0.071837097,1.016334534
89.053172,-0.632263184,13.634719849,-39.497844696,0.066127993,-0.071837097,1.016334534
89.053828,-0.632263184,13.634719849,-39.497844696,0.066127993,-0.071837097,1.016334534
89.054439,-0.632263184,13.634719849,-39.497844696,0.066127993,-0.071837097,1.016334534
89.055084,-0.632263184,13.634719849,-39.497844696,0.066127993,-0.071837097,1.016334534
89.055710,-0.632263184,13.634719849,-39.497844696,0.066127993,-0.071837097,1.016334534
89.056348,-0.632263184,13.634719849,-39.497844696,0.066127993,-0.071837097,1.016334534
89.056964,-0.632263184,13.634719849,-39.497844696,0.066127993,-0.071837097,1.016334534
89.057614,-0.632263184,13.634719849,-39.497844696,0.066127993,-0.071837097,1.016334534
89.058232,-0.632263184,13.634719849,-39.497844696,0.066127993,-0.071837097,1.016334534
89.058869,-0.632263184,13.634719849,-39.497844696,0.066127993,-0.071837097,1.016334534
89.059494,-0.632263184,13.634719849,-39.497844696,0.066127993,-0.071837097,1.016334534
89.060138,-0.632263184,13.634719849,-39.497844696,0.066127993,-0.071837097,1.016334534
89.060774,0.679992676,8.736648560,-39.383403778,0.045376040,-0.088072449,1.018653870
89.061394,0.679992676,8.736648560,-39.383403778,0.045376040,-0.088072449,1.018653870
89.062000,0.679992676,8.736648560,-39.383403778,0.045376040,-0.088072449,1.018653870
89.062643,0.679992676,8.736648560,-39.383403778,0.045376040,-0.088072449,1.018653870
89.063255,0.679992676,8.736648560,-39.383403778,0.045376040,-0.088072449,1.018653870
89.063893,0.679992676,8.736648560,-39.383403778,0.045376040,-0.088072449,1.018653870
89.065701,0.679992676,8.736648560,-39.383403778,0.045376040,-0.088072449,1.018653870
89.103984,3.251098633,-11.282882690,-36.400310516,0.035366274,-0.110045105,0.966285706
89.142276,-3.165222168,-11.496505737,-38.696758270,0.047451235,-0.119688660,0.944557190
89.156525,-4.942871094,-10.100326538,-38.933269501,0.053066470,-0.118590027,0.958351135
89.171850,-6.842590332,-6.689987183,-41.077129364,0.055874087,-0.121885926,1.013771057
89.210110,-3.409362793,-3.653488159,-45.608989716,0.021084048,-0.165098816,1.053810120
89.248385,-4.622436523,-16.127548218,-42.480937958,-0.048129819,-0.224058777,1.050514221
89.262642,-6.064392090,-29.929122925,-35.942546844,-0.071689390,-0.249571472,1.070289612
89.277991,-6.407714844,-35.475692749,-32.196514130,-0.062656187,-0.252867371,1.101661682
89.316256,-1.715637207,-28.548202515,-27.046672821,0.040737368,-0.074156433,1.116065979
89.354540,4.593872070,4.670181274,-30.136577606,0.036709048,-0.084776551,0.925758362
89.382147,-5.362487793,25.780715942,-26.482097626,0.024135806,-0.125425965,0.872291565
89.396482,-8.086181641,31.006851196,-25.047771454,0.037441470,-0.129332215,0.879859924
89.434664,-10.550476074,47.532119751,-24.879924774,0.055874087,-0.103697449,0.980445862
89.472980,-7.544494629,48.554458618,-21.706096649,0.039272524,-0.112120301,0.984962463
89.487243,-8.284545898,46.128311157,-21.309368134,0.037807681,-0.102842957,0.982643127
89.502591,-8.948303223,36.568679810,-19.943706512,0.018642642,-0.068297058,0.982154846
89.554300,-4.012084961,-5.873641968,-10.368816376,0.020107485,-0.020323426,1.011817932
89.555168,-4.012084961,-5.873641968,-10.368816376,0.020107485,-0.020323426,1.011817932
89.555819,-4.012084961,-5.873641968,-10.368816376,0.020107485,-0.020323426,1.011817932
89.556485,-4.012084961,-5.873641968,-10.368816376,0.020107485,-0.020323426,1.011817932
89.557112,-4.012084961,-5.873641968,-10.368816376,0.020107485,-0.020323426,1.011817932
89.557779,-1.967407227,-13.403854370,-9.621135712,0.032436587,-0.025328308,1.012916565
89.595876,0.222229004,-24.390182495,-11.024944305,0.047329165,-0.067076355,0.988868713
89.610128,-0.998474121,-26.389083862,-8.774272919,0.035976626,-0.089171082,0.983009338
89.625464,-1.799560547,-25.275192261,-7.919780731,0.054287173,-0.069029480,0.996681213
89.663726,2.213500977,-3.569564819,-13.428203583,0.118984438,-0.045347840,1.011085510
89.701985,1.091979980,13.451614380,-21.080486298,0.025600649,-0.154600769,0.989723206
89.716230,0.374816895,9.804763794,-18.738262177,-0.002231382,-0.164854676,0.995826721
89.716922,0.527404785,4.845657349,-16.212932587,-0.010898374,-0.155577332,1.005592346
89.717541,0.527404785,4.845657349,-16.212932587,-0.010898374,-0.155577332,1.005592346
89.718178,0.527404785,4.845657349,-16.212932587,-0.010898374,-0.155577332,1.005592346
89.718810,0.527404785,4.845657349,-16.212932587,-0.010898374,-0.155577332,1.005592346
89.719437,0.527404785,4.845657349,-16.212932587,-0.010898374,-0.155577332,1.005592346
89.720056,0.527404785,4.845657349,-16.212932587,-0.010898374,-0.155577332,1.005592346
89.735353,1.267456055,-0.044784546,-13.748638153,-0.006870054,-0.138853699,1.005836487
89.736128,1.267456055,-0.044784546,-13.748638153,-0.006870054,-0.138853699,1.005836487
89.736755,1.633666992,-3.256759644,-12.093059540,0.009243228,-0.118101746,0.997291565
89.737402,1.633666992,-3.256759644,-12.093059540,0.009243228,-0.118101746,0.997291565
89.738027,1.633666992,-3.256759644,-12.093059540,0.009243228,-0.118101746,0.997291565
89.738666,1.633666992,-3.256759644,-12.093059540,0.009243228,-0.118101746,0.997291565
89.739295,1.633666992,-3.256759644,-12.093059540,0.009243228,-0.118101746,0.997291565
89.739946,1.633666992,-3.256759644,-12.093059540,0.009243228,-0.118101746,0.997291565
89.740571,1.633666992,-3.256759644,-12.093059540,0.009243228,-0.118101746,0.997291565
89.741216,1.633666992,-3.256759644,-12.093059540,0.009243228,-0.118101746,0.997291565
89.741849,1.633666992,-3.256759644,-12.093059540,0.009243228,-0.118101746,0.997291565
89.742486,1.633666992,-3.256759644,-12.093059540,0.009243228,-0.118101746,0.997291565
89.743112,1.633666992,-3.256759644,-12.093059540,0.009243228,-0.118101746,0.997291565
89.743770,1.633666992,-3.256759644,-12.093059540,0.009243228,-0.118101746,0.997291565
89.744388,1.633666992,-3.256759644,-12.093059540,0.009243228,-0.118101746,0.997291565
89.745034,1.633666992,-3.256759644,-12.093059540,0.009243228,-0.118101746,0.997291565
89.745666,1.633666992,-3.256759644,-12.093059540,0.009243228,-0.118101746,0.997291565
89.746311,1.633666992,-3.256759644,-12.093059540,0.009243228,-0.118101746,0.997291565
89.746929,1.618408203,-4.141769409,-11.688701630,0.031826235,-0.093931824,0.986793518
89.747590,1.618408203,-4.141769409,-11.688701630,0.031826235,-0.093931824,0.986793518
89.748215,1.618408203,-4.141769409,-11.688701630,0.031826235,-0.093931824,0.986793518
89.748856,1.618408203,-4.141769409,-11.688701630,0.031826235,-0.093931824,0.986793518
89.749484,1.618408203,-4.141769409,-11.688701630,0.031826235,-0.093931824,0.986793518
89.750137,1.618408203,-4.141769409,-11.688701630,0.031826235,-0.093931824,0.986793518
89.801997,-1.585937500,4.433670044,-15.366069794,0.032314517,-0.063902527,0.956764221
89.840359,-2.234436035,-5.743942261,-12.909404755,0.008877017,-0.073301941,0.937843323
89.854617,-3.066040039,-8.452377319,-12.291423798,0.000942446,-0.077208191,0.934425354
89.869970,-5.637145996,-13.060531616,-10.811321259,-0.012485288,-0.087706238,0.948951721
89.908210,-5.698181152,-22.231063843,-6.004802704,-0.011630796,-0.026915222,1.032081604
89.946452,-4.240966797,-23.741683960,-5.714885712,0.010097720,-0.009825379,1.078224182
89.960699,-3.432250977,-23.299179077,-5.699626923,0.004970767,-0.009825379,1.097267151
89.976055,0.779174805,-22.734603882,-5.402080536,-0.000400327,-0.006407410,1.112159729
90.014314,7.607482910,-19.423446655,-3.090373993,0.002407290,-0.036680847,1.038795471
90.052587,2.640747070,-1.494369507,-1.274578094,0.043300845,-0.049498230,0.983619690
90.066846,2.739929199,11.147537231,-2.815715790,0.077968813,-0.026060730,1.010231018
90.082168,3.945373535,17.807998657,-3.899089813,0.087978579,-0.036192566,1.015724182
90.120415,2.762817383,39.933242798,-11.368267059,0.088466860,-0.088682801,1.024513245
90.158669,2.053283691,38.590469360,-14.305583954,0.046352603,-0.058653504,1.096656799
90.159435,2.053283691,38.590469360,-14.305583954,0.046352603,-0.058653504,1.096656799
90.160069,2.053283691,38.590469360,-14.305583954,0.046352603,-0.058653504,1.096656799
90.160712,2.053283691,38.590469360,-14.305583954,0.046352603,-0.058653504,1.096656799
90.161340,2.053283691,38.590469360,-14.305583954,0.046352603,-0.058653504,1.096656799
90.161991,2.053283691,38.590469360,-14.305583954,0.046352603,-0.058653504,1.096656799
90.162618,2.053283691,38.590469360,-14.305583954,0.046352603,-0.058653504,1.096656799
90.163268,2.053283691,38.590469360,-14.305583954,0.046352603,-0.058653504,1.096656799
90.163891,2.053283691,38.590469360,-14.305583954,0.046352603,-0.058653504,1.096656799
90.164554,4.197143555,33.440628052,-14.114849091,0.032802798,-0.059630066,1.100440979
90.165172,4.197143555,33.440628052,-14.114849091,0.032802798,-0.059630066,1.100440979
90.180457,6.043457031,26.688613892,-13.229839325,0.021572329,-0.058165222,1.094947815
90.194700,9.766601562,10.216751099,-12.253276825,0.011440493,-0.066343933,1.066383362
90.232999,10.445617676,-16.531906128,-9.064189911,-0.039096616,-0.113829285,0.998878479
90.233823,9.659790039,-23.856124878,-6.309978485,-0.040439390,-0.109556824,0.981666565
90.234460,9.659790039,-23.856124878,-6.309978485,-0.040439390,-0.109556824,0.981666565
90.235115,9.659790039,-23.856124878,-6.309978485,-0.040439390,-0.109556824,0.981666565
90.235743,9.659790039,-23.856124878,-6.309978485,-0.040439390,-0.109556824,0.981666565
90.236393,9.659790039,-23.856124878,-6.309978485,-0.040439390,-0.109556824,0.981666565
90.237029,9.659790039,-23.856124878,-6.309978485,-0.040439390,-0.109556824,0.981666565
90.237667,9.659790039,-23.856124878,-6.309978485,-0.040439390,-0.109556824,0.981666565
90.238302,9.659790039,-23.856124878,-6.309978485,-0.040439390,-0.109556824,0.981666565
90.238946,9.659790039,-23.856124878,-6.309978485,-0.040439390,-0.109556824,0.981666565
90.239579,9.659790039,-23.856124878,-6.309978485,-0.040439390,-0.109556824,0.981666565
90.240231,9.659790039,-23.856124878,-6.309978485,-0.040439390,-0.109556824,0.981666565
90.240854,9.659790039,-23.856124878,-6.309978485,-0.040439390,-0.109556824,0.981666565
90.241500,9.659790039,-23.856124878,-6.309978485,-0.040439390,-0.109556824,0.981666565
90.242132,9.659790039,-23.856124878,-6.309978485,-0.040439390,-0.109556824,0.981666565
90.242785,9.659790039,-23.856124878,-6.309978485,-0.040439390,-0.109556824,0.981666565
90.243410,9.659790039,-23.856124878,-6.309978485,-0.040439390,-0.109556824,0.981666565
90.244062,9.522460938,-29.021224976,-3.220073700,-0.029697202,-0.110777527,0.964942932
90.244770,9.522460938,-29.021224976,-3.220073700,-0.029697202,-0.110777527,0.964942932
90.245477,9.522460938,-29.021224976,-3.220073700,-0.029697202,-0.110777527,0.964942932
90.246172,9.522460938,-29.021224976,-3.220073700,-0.029697202,-0.110777527,0.964942932
90.298317,-4.027343750,-22.482833862,-4.875652313,0.030483462,-0.147520691,0.955665588
90.312651,-5.728698730,-19.064865112,-4.883281708,0.026577212,-0.127867371,0.994972229
90.328012,-3.966308594,-11.450729370,-3.983013153,0.044887759,-0.062071472,1.045387268
90.366286,-0.914550781,8.591690063,-12.909404755,0.069423892,-0.071104676,1.006080627
90.404593,-3.951049805,-2.280197144,-12.642375946,-0.040073179,-0.159605652,1.065895081
90.418860,-2.867675781,-11.000595093,-9.972087860,-0.055576108,-0.149595886,1.081886292
90.434200,1.290344238,-27.762374878,-5.608074188,-0.065585874,-0.115782410,1.098854065
90.434973,1.290344238,-27.762374878,-5.608074188,-0.065585874,-0.115782410,1.098854065
90.435570,1.290344238,-27.762374878,-5.608074188,-0.065585874,-0.115782410,1.098854065
90.436214,1.290344238,-27.762374878,-5.608074188,-0.065585874,-0.115782410,1.098854065
90.436829,1.290344238,-27.762374878,-5.608074188,-0.065585874,-0.115782410,1.098854065
90.437463,1.290344238,-27.762374878,-5.608074188,-0.065585874,-0.115782410,1.098854065
90.438071,1.290344238,-27.762374878,-5.608074188,-0.065585874,-0.115782410,1.098854065
90.438718,1.290344238,-27.762374878,-5.608074188,-0.065585874,-0.115782410,1.098854065
90.439326,1.290344238,-27.762374878,-5.608074188,-0.065585874,-0.115782410,1.098854065
90.439965,1.290344238,-27.762374878,-5.608074188,-0.065585874,-0.115782410,1.098854065
90.440585,1.290344238,-27.762374878,-5.608074188,-0.065585874,-0.115782410,1.098854065
90.441227,1.290344238,-27.762374878,-5.608074188,-0.065585874,-0.115782410,1.098854065
90.441834,1.290344238,-27.762374878,-5.608074188,-0.065585874,-0.115782410,1.098854065
90.442486,3.357910156,-34.499130249,-3.311626434,-0.055698179,-0.098936707,1.098365784
90.443098,3.357910156,-34.499130249,-3.311626434,-0.055698179,-0.098936707,1.098365784
90.443745,3.357910156,-34.499130249,-3.311626434,-0.055698179,-0.098936707,1.098365784
90.444356,3.357910156,-34.499130249,-3.311626434,-0.055698179,-0.098936707,1.098365784
90.445000,3.357910156,-34.499130249,-3.311626434,-0.055698179,-0.098936707,1.098365784
90.445615,3.357910156,-34.499130249,-3.311626434,-0.055698179,-0.098936707,1.098365784
90.446259,3.357910156,-34.499130249,-3.311626434,-0.055698179,-0.098936707,1.098365784
90.446874,3.357910156,-34.499130249,-3.311626434,-0.055698179,-0.098936707,1.098365784
90.447520,3.357910156,-34.499130249,-3.311626434,-0.055698179,-0.098936707,1.098365784
90.448132,3.357910156,-34.499130249,-3.311626434,-0.055698179,-0.098936707,1.098365784
90.448793,3.357910156,-34.499130249,-3.311626434,-0.055698179,-0.098936707,1.098365784
90.449396,3.357910156,-34.499130249,-3.311626434,-0.055698179,-0.098936707,1.098365784
90.450041,3.357910156,-34.499130249,-3.311626434,-0.055698179,-0.098936707,1.098365784
90.450661,3.357910156,-34.499130249,-3.311626434,-0.055698179,-0.098936707,1.098365784
90.451305,3.357910156,-34.499130249,-3.311626434,-0.055698179,-0.098936707,1.098365784
90.451911,3.357910156,-34.499130249,-3.311626434,-0.055698179,-0.098936707,1.098365784
90.452568,5.280517578,-38.817367554,-1.213542938,-0.048007749,-0.082335144,1.089698792
90.454356,5.280517578,-38.817367554,-1.213542938,-0.048007749,-0.082335144,1.089698792
90.492593,8.347534180,-39.854965210,1.571186066,0.007168032,-0.042296082,1.030738831
90.530851,8.858703613,-27.007064819,-1.121990204,0.004970767,-0.074644715,0.995582581
90.545102,10.003112793,-15.997848511,0.152118683,0.010708071,-0.070738465,0.973121643
90.560450,9.942077637,-8.543930054,0.060565948,0.025112368,-0.085142761,0.952980042
90.612870,2.549194336,35.569229126,-4.539958954,0.048061587,-0.046812683,0.934791565
90.651259,2.411865234,47.059097290,-5.722515106,0.038418032,-0.062071472,0.909034729
90.665512,1.145385742,47.448196411,-6.256572723,0.033779360,-0.063170105,0.909889221
90.680843,0.382446289,46.517410278,-6.493083954,0.023891665,-0.060362488,0.908058167
90.719149,-1.639343262,29.633560181,-3.754131317,0.000454165,-0.019346863,0.937843323
90.719925,-1.639343262,29.633560181,-3.754131317,0.000454165,-0.019346863,0.937843323
90.735982,0.924133301,17.228164673,-1.808635712,0.010463931,0.003480285,0.932960510
90.736809,0.924133301,17.228164673,-1.808635712,0.010463931,0.003480285,0.932960510
90.737467,0.924133301,17.228164673,-1.808635712,0.010463931,0.003480285,0.932960510
90.739337,0.924133301,17.228164673,-1.808635712,0.010463931,0.003480285,0.932960510
90.740106,0.924133301,17.228164673,-1.808635712,0.010463931,0.003480285,0.932960510
90.778250,0.214599609,-4.645309448,-0.687114716,0.023647524,-0.027403504,0.909889221
90.792466,-0.678039551,-10.657272339,-0.359050751,0.026333071,-0.054258972,0.910865784
90.807819,-1.921630859,-11.755905151,-0.313274384,0.035122134,-0.058043152,0.917213440
90.846057,-4.118896484,-7.330856323,-3.891460419,0.060268618,-0.033873230,0.986427307
90.884319,-1.234985352,-1.059494019,-7.172100067,0.041958071,-0.029600769,1.021949768
90.898563,-0.555969238,0.351943970,-7.042400360,0.052334048,-0.021666199,1.019996643
90.913916,1.236938477,3.274002075,-9.376995087,0.069545962,-0.038756043,1.010963440
90.952167,0.359558105,-0.937423706,-14.793865204,0.016689517,-0.132139832,1.019020081
90.990411,1.519226074,-17.012557983,-9.216777802,-0.005038999,-0.099424988,1.032691956
91.004644,1.633666992,-18.530807495,-8.278362274,0.015957095,-0.093931824,1.031349182
91.005363,1.633666992,-18.530807495,-8.278362274,0.015957095,-0.093931824,1.031349182
91.005978,1.633666992,-18.530807495,-8.278362274,0.015957095,-0.093931824,1.031349182
91.006640,1.633666992,-18.530807495,-8.278362274,0.015957095,-0.093931824,1.031349182
91.007257,1.633666992,-18.530807495,-8.278362274,0.015957095,-0.093931824,1.031349182
91.022553,0.794433594,-15.830001831,-10.811321259,0.048305728,-0.098082215,1.029640198
91.023312,0.794433594,-15.830001831,-10.811321259,0.048305728,-0.098082215,1.029640198
91.023958,0.794433594,-15.830001831,-10.811321259,0.048305728,-0.098082215,1.029640198
91.024602,0.794433594,-15.830001831,-10.811321259,0.048305728,-0.098082215,1.029640198
91.025230,0.794433594,-15.830001831,-10.811321259,0.048305728,-0.098082215,1.029640198
91.025861,0.794433594,-15.830001831,-10.811321259,0.048305728,-0.098082215,1.029640198
91.026499,0.794433594,-15.830001831,-10.811321259,0.048305728,-0.098082215,1.029640198
91.027150,0.794433594,-15.830001831,-10.811321259,0.048305728,-0.098082215,1.029640198
91.027802,0.794433594,-15.830001831,-10.811321259,0.048305728,-0.098082215,1.029640198
91.028440,0.794433594,-15.830001831,-10.811321259,0.048305728,-0.098082215,1.029640198
91.029079,0.077270508,-13.220748901,-12.939922333,0.042934634,-0.103453308,1.028419495
91.029734,0.077270508,-13.220748901,-12.939922333,0.042934634,-0.103453308,1.028419495
91.030368,0.077270508,-13.220748901,-12.939922333,0.042934634,-0.103453308,1.028419495
91.031019,0.077270508,-13.220748901,-12.939922333,0.042934634,-0.103453308,1.028419495
91.031664,0.077270508,-13.220748901,-12.939922333,0.042934634,-0.103453308,1.028419495
91.032310,0.077270508,-13.220748901,-12.939922333,0.042934634,-0.103453308,1.028419495
91.032944,0.077270508,-13.220748901,-12.939922333,0.042934634,-0.103453308,1.028419495
91.033601,0.077270508,-13.220748901,-12.939922333,0.042934634,-0.103453308,1.028419495
91.034234,0.077270508,-13.220748901,-12.939922333,0.042934634,-0.103453308,1.028419495
91.034878,0.077270508,-13.220748901,-12.939922333,0.042934634,-0.103453308,1.028419495
91.035524,0.077270508,-13.220748901,-12.939922333,0.042934634,-0.103453308,1.028419495
91.036175,0.077270508,-13.220748901,-12.939922333,0.042934634,-0.103453308,1.028419495
91.036827,0.077270508,-13.220748901,-12.939922333,0.042934634,-0.103453308,1.028419495
91.037467,0.077270508,-13.220748901,-12.939922333,0.042934634,-0.103453308,1.028419495
91.038106,0.077270508,-13.220748901,-12.939922333,0.042934634,-0.103453308,1.028419495
91.038770,0.077270508,-13.220748901,-12.939922333,0.042934634,-0.103453308,1.028419495
91.039399,-0.540710449,-11.031112671,-14.252178192,0.026821353,-0.111754090,1.033668518
91.040052,-0.540710449,-11.031112671,-14.252178192,0.026821353,-0.111754090,1.033668518
91.040697,-0.540710449,-11.031112671,-14.252178192,0.026821353,-0.111754090,1.033668518
91.094617,-1.097656250,-7.727584839,-9.872905731,0.003994204,-0.090635926,1.029884338
91.133003,-1.028991699,9.202041626,-11.795513153,0.042324282,-0.075010926,0.999855042
91.147258,-1.578308105,13.588943481,-11.948101044,0.038662173,-0.080626160,0.997047424
91.162622,-1.868225098,18.097915649,-11.414043427,0.032192446,-0.083922058,1.003150940
91.200877,0.641845703,18.998184204,-11.604778290,0.035244204,-0.115294129,0.989723206
91.239184,-0.517822266,11.368789673,-11.467449188,0.016201235,-0.122984558,0.997901917
91.253429,0.283264160,7.737197876,-10.651103973,0.012661196,-0.115172058,1.005348206
91.268807,2.343200684,0.390090942,-8.369915009,0.014370181,-0.103941590,0.997169495
91.307061,1.908325195,-3.600082397,-7.301799774,0.033779360,-0.089659363,0.967018127
91.307832,1.267456055,-2.585372925,-7.553569794,0.039638735,-0.076841980,0.961158752
91.308441,1.267456055,-2.585372925,-7.553569794,0.039638735,-0.076841980,0.961158752
91.309086,1.267456055,-2.585372925,-7.553569794,0.039638735,-0.076841980,0.961158752
91.309692,1.267456055,-2.585372925,-7.553569794,0.039638735,-0.076841980,0.961158752
91.310327,1.267456055,-2.585372925,-7.553569794,0.039638735,-0.076841980,0.961158752
91.310933,1.267456055,-2.585372925,-7.553569794,0.039638735,-0.076841980,0.961158752
91.311563,1.267456055,-2.585372925,-7.553569794,0.039638735,-0.076841980,0.961158752
91.312178,1.267456055,-2.585372925,-7.553569794,0.039638735,-0.076841980,0.961158752
91.312808,1.267456055,-2.585372925,-7.553569794,0.039638735,-0.076841980,0.961158752
91.313414,1.267456055,-2.585372925,-7.553569794,0.039638735,-0.076841980,0.961158752
91.314052,1.267456055,-2.585372925,-7.553569794,0.039638735,-0.076841980,0.961158752
91.314656,1.267456055,-2.585372925,-7.553569794,0.039638735,-0.076841980,0.961158752
91.315296,1.267456055,-2.585372925,-7.553569794,0.039638735,-0.076841980,0.961158752
91.315903,1.267456055,-2.585372925,-7.553569794,0.039638735,-0.076841980,0.961158752
91.316528,1.267456055,-2.585372925,-7.553569794,0.039638735,-0.076841980,0.961158752
91.317145,1.267456055,-2.585372925,-7.553569794,0.039638735,-0.076841980,0.961158752
91.317783,0.893615723,-1.250228882,-8.369915009,0.041103579,-0.070494324,0.960548401
91.318389,0.893615723,-1.250228882,-8.369915009,0.041103579,-0.070494324,0.960548401
91.319020,0.893615723,-1.250228882,-8.369915009,0.041103579,-0.070494324,0.960548401
91.319623,0.893615723,-1.250228882,-8.369915009,0.041103579,-0.070494324,0.960548401
91.320256,0.893615723,-1.250228882,-8.369915009,0.041103579,-0.070494324,0.960548401
91.320865,0.893615723,-1.250228882,-8.369915009,0.041103579,-0.070494324,0.960548401
91.321489,0.893615723,-1.250228882,-8.369915009,0.041103579,-0.070494324,0.960548401
91.322106,0.893615723,-1.250228882,-8.369915009,0.041103579,-0.070494324,0.960548401
91.322730,0.893615723,-1.250228882,-8.369915009,0.041103579,-0.070494324,0.960548401
91.323338,0.893615723,-1.250228882,-8.369915009,0.041103579,-0.070494324,0.960548401
91.323963,0.893615723,-1.250228882,-8.369915009,0.041103579,-0.070494324,0.960548401
91.324571,0.893615723,-1.250228882,-8.369915009,0.041103579,-0.070494324,0.960548401
91.325203,0.893615723,-1.250228882,-8.369915009,0.041103579,-0.070494324,0.960548401
91.325817,0.893615723,-1.250228882,-8.369915009,0.041103579,-0.070494324,0.960548401
91.327632,0.710510254,-0.410995483,-9.094707489,0.031826235,-0.073912293,0.958351135
91.328362,0.710510254,-0.410995483,-9.094707489,0.031826235,-0.073912293,0.958351135
91.328977,0.710510254,-0.410995483,-9.094707489,0.031826235,-0.073912293,0.958351135
91.329603,0.710510254,-0.410995483,-9.094707489,0.031826235,-0.073912293,0.958351135
91.330220,0.710510254,-0.410995483,-9.094707489,0.031826235,-0.073912293,0.958351135
91.330844,0.710510254,-0.410995483,-9.094707489,0.031826235,-0.073912293,0.958351135
91.331444,0.710510254,-0.410995483,-9.094707489,0.031826235,-0.073912293,0.958351135
91.369590,-0.304199219,-3.508529663,-6.241313934,0.010097720,-0.072203308,0.928932190
91.383828,-1.318908691,-4.042587280,-5.684368134,0.015712954,-0.068907410,0.921119690
91.415162,-5.110717773,-3.615341187,-5.608074188,0.018398501,-0.061461121,0.941993713
91.453492,-5.827880859,-6.888351440,-4.784099579,0.004970767,-0.054258972,0.989112854
91.491799,-3.752685547,-13.647994995,-4.486553192,-0.003574155,0.000672668,1.027809143
91.506051,-2.402282715,-16.402206421,-4.463665009,-0.018832944,-0.003599793,1.037330627
91.521406,0.130676270,-23.352584839,-0.511638641,-0.043857358,-0.015440613,1.036231995
91.522178,0.130676270,-23.352584839,-0.511638641,-0.043857358,-0.015440613,1.036231995
91.522802,0.130676270,-23.352584839,-0.511638641,-0.043857358,-0.015440613,1.036231995
91.523448,0.130676270,-23.352584839,-0.511638641,-0.043857358,-0.015440613,1.036231995
91.524078,0.130676270,-23.352584839,-0.511638641,-0.043857358,-0.015440613,1.036231995
91.524717,0.130676270,-23.352584839,-0.511638641,-0.043857358,-0.015440613,1.036231995
91.525331,0.130676270,-23.352584839,-0.511638641,-0.043857358,-0.015440613,1.036231995
91.525984,0.130676270,-23.352584839,-0.511638641,-0.043857358,-0.015440613,1.036231995
91.526601,0.908874512,-25.237045288,1.983173370,-0.020297788,-0.001158386,1.026222229
91.527247,0.908874512,-25.237045288,1.983173370,-0.020297788,-0.001158386,1.026222229
91.527871,0.908874512,-25.237045288,1.983173370,-0.020297788,-0.001158386,1.026222229
91.528508,0.908874512,-25.237045288,1.983173370,-0.020297788,-0.001158386,1.026222229
91.529126,0.908874512,-25.237045288,1.983173370,-0.020297788,-0.001158386,1.026222229
91.529787,0.908874512,-25.237045288,1.983173370,-0.020297788,-0.001158386,1.026222229
91.530395,0.908874512,-25.237045288,1.983173370,-0.020297788,-0.001158386,1.026222229
91.531041,0.908874512,-25.237045288,1.983173370,-0.020297788,-0.001158386,1.026222229
91.531664,0.908874512,-25.237045288,1.983173370,-0.020297788,-0.001158386,1.026222229
91.532312,0.908874512,-25.237045288,1.983173370,-0.020297788,-0.001158386,1.026222229
91.532924,0.908874512,-25.237045288,1.983173370,-0.020297788,-0.001158386,1.026222229
91.533583,0.908874512,-25.237045288,1.983173370,-0.020297788,-0.001158386,1.026222229
91.534199,0.908874512,-25.237045288,1.983173370,-0.020297788,-0.001158386,1.026222229
91.534839,0.908874512,-25.237045288,1.983173370,-0.020297788,-0.001158386,1.026222229
91.535456,0.908874512,-25.237045288,1.983173370,-0.020297788,-0.001158386,1.026222229
91.536109,1.580261230,-26.404342651,1.975543976,-0.013339780,0.002503723,1.022071838
91.536730,1.580261230,-26.404342651,1.975543976,-0.013339780,0.002503723,1.022071838
91.537374,1.580261230,-26.404342651,1.975543976,-0.013339780,0.002503723,1.022071838
91.537990,1.580261230,-26.404342651,1.975543976,-0.013339780,0.002503723,1.022071838
91.538637,1.580261230,-26.404342651,1.975543976,-0.013339780,0.002503723,1.022071838
91.539252,1.580261230,-26.404342651,1.975543976,-0.013339780,0.002503723,1.022071838
91.539899,1.580261230,-26.404342651,1.975543976,-0.013339780,0.002503723,1.022071838
91.541689,1.580261230,-26.404342651,1.975543976,-0.013339780,0.002503723,1.022071838
91.542440,1.580261230,-26.404342651,1.975543976,-0.013339780,0.002503723,1.022071838
91.543062,1.580261230,-26.404342651,1.975543976,-0.013339780,0.002503723,1.022071838
91.543712,1.580261230,-26.404342651,1.975543976,-0.013339780,0.002503723,1.022071838
91.581773,-0.166870117,-18.576583862,3.325946808,0.018520571,-0.023008972,1.047950745
91.620063,4.677795410,2.991714478,1.868732452,0.053920962,-0.013487488,1.053565979
91.651672,4.838012695,18.158950806,-1.663677216,0.057583071,-0.027891785,1.014625549
91.665992,3.533386230,23.148574829,-3.517620087,0.043056704,-0.050963074,1.012794495
91.704197,2.717041016,24.086990356,-1.945964813,0.037929751,-0.081114441,1.032691956
91.742482,6.798767090,27.138748169,-2.663127899,0.085781313,-0.028502136,1.031349182
91.756739,8.004211426,28.847732544,-6.706707001,0.074184634,-0.064268738,0.981910706
91.772077,7.546447754,27.390518188,-7.957927704,0.053554751,-0.090757996,0.958106995
91.810365,0.817321777,8.240737915,-3.464214325,0.016323306,-0.109068543,0.903541565
91.822658,-1.242614746,3.495254517,-2.701274872,0.027675845,-0.093809754,0.909523010
91.823438,-1.242614746,3.495254517,-2.701274872,0.027675845,-0.093809754,0.909523010
91.824108,-1.242614746,3.495254517,-2.701274872,0.027675845,-0.093809754,0.909523010
91.862269,-3.973937988,-7.178268433,-3.494731903,0.032680728,-0.039854676,0.978614807
91.876493,-2.531982422,-10.695419312,-3.723613739,0.022304751,-0.049986511,0.991676331
91.891841,-2.509094238,-12.145004272,-3.342144012,0.021450259,-0.059141785,0.990211487
91.930059,-2.989746094,-12.846908569,-3.799907684,0.034389712,-0.101256043,0.975074768
91.968323,-5.522705078,-15.288314819,-4.127971649,-0.003330015,-0.106749207,1.015724182
91.982574,-5.232788086,-17.828903198,-3.250591278,-0.009189390,-0.109190613,1.025856018
91.997939,-5.095458984,-23.688278198,-1.556865692,-0.015048765,-0.098570496,1.055274963
92.036166,0.054382324,-32.683334351,1.510150909,-0.018710874,-0.091734558,1.071266174
92.074403,0.832580566,-22.879562378,5.294330597,0.044277407,-0.067686707,1.023414612
92.088643,0.252746582,-15.036544800,3.669269562,0.066494204,-0.051695496,1.020362854
92.103991,-0.014282227,2.022781372,-0.618450165,0.077114321,-0.044371277,1.027565002
92.142220,1.755737305,18.433609009,-4.211894989,0.049648501,-0.049009949,1.025978088
92.180469,2.717041016,17.136611938,-3.006450653,0.008266665,-0.024962097,1.010963440
92.194711,3.708862305,12.108840942,-1.709453583,0.007534243,-0.006773621,0.999732971
92.195412,3.708862305,12.108840942,-1.709453583,0.007534243,-0.006773621,0.999732971
92.196048,3.708862305,12.108840942,-1.709453583,0.007534243,-0.006773621,0.999732971
92.196707,3.708862305,12.108840942,-1.709453583,0.007534243,-0.006773621,0.999732971
92.197333,3.708862305,12.108840942,-1.709453583,0.007534243,-0.006773621,0.999732971
92.197975,3.708862305,12.108840942,-1.709453583,0.007534243,-0.006773621,0.999732971
92.213229,3.609680176,6.089248657,-0.183574677,0.005214907,-0.007139832,0.999855042
92.213988,3.609680176,6.089248657,-0.183574677,0.005214907,-0.007139832,0.999855042
92.214613,3.609680176,6.089248657,-0.183574677,0.005214907,-0.007139832,0.999855042
92.215252,3.609680176,6.089248657,-0.183574677,0.005214907,-0.007139832,0.999855042
92.215866,3.609680176,6.089248657,-0.183574677,0.005214907,-0.007139832,0.999855042
92.216488,3.609680176,6.089248657,-0.183574677,0.005214907,-0.007139832,0.999855042
92.217107,3.609680176,6.089248657,-0.183574677,0.005214907,-0.007139832,0.999855042
92.217739,3.609680176,6.089248657,-0.183574677,0.005214907,-0.007139832,0.999855042
92.218353,3.609680176,6.089248657,-0.183574677,0.005214907,-0.007139832,0.999855042
92.218986,3.609680176,6.089248657,-0.183574677,0.005214907,-0.007139832,0.999855042
92.219608,3.609680176,6.089248657,-0.183574677,0.005214907,-0.007139832,0.999855042
92.220248,3.609680176,6.089248657,-0.183574677,0.005214907,-0.007139832,0.999855042
92.220862,3.609680176,6.089248657,-0.183574677,0.005214907,-0.007139832,0.999855042
92.221495,3.609680176,6.089248657,-0.183574677,0.005214907,-0.007139832,0.999855042
92.222119,4.479431152,2.724685669,0.731952667,0.005336978,-0.011900574,1.004127502
92.222756,4.479431152,2.724685669,0.731952667,0.005336978,-0.011900574,1.004127502
92.223371,4.479431152,2.724685669,0.731952667,0.005336978,-0.011900574,1.004127502
92.224005,4.479431152,2.724685669,0.731952667,0.005336978,-0.011900574,1.004127502
92.224626,4.479431152,2.724685669,0.731952667,0.005336978,-0.011900574,1.004127502
92.225267,4.479431152,2.724685669,0.731952667,0.005336978,-0.011900574,1.004127502
92.225881,4.479431152,2.724685669,0.731952667,0.005336978,-0.011900574,1.004127502
92.226516,4.479431152,2.724685669,0.731952667,0.005336978,-0.011900574,1.004127502
92.227141,4.479431152,2.724685669,0.731952667,0.005336978,-0.011900574,1.004127502
92.227785,4.479431152,2.724685669,0.731952667,0.005336978,-0.011900574,1.004127502
92.228395,4.479431152,2.724685669,0.731952667,0.005336978,-0.011900574,1.004127502
92.229036,4.479431152,2.724685669,0.731952667,0.005336978,-0.011900574,1.004127502
92.229656,4.479431152,2.724685669,0.731952667,0.005336978,-0.011900574,1.004127502
92.279639,5.517028809,-7.185897827,3.058917999,0.045376040,0.003602356,0.973243713
92.318025,4.319213867,-2.402267456,0.426776886,0.049526431,0.005921692,0.928565979
92.332273,2.343200684,0.435867310,-0.236980438,0.051601626,-0.007628113,0.918678284
92.347603,0.771545410,1.641311646,-0.748149872,0.049404360,-0.012877136,0.923805237
92.385847,-2.165771484,2.495803833,-1.892559052,0.035976626,-0.016661316,0.989234924
92.424134,0.939392090,-3.340682983,-2.251140594,0.034755923,0.001527160,1.022926331
92.438398,1.481079102,-5.049667358,-2.304546356,0.036831118,0.003724426,1.015968323
92.453738,1.893066406,-7.101974487,-1.976482391,0.036464907,0.004456848,1.004493713
92.492002,2.244018555,-1.608810425,-1.587383270,0.082973696,0.011658996,0.988014221
92.492775,2.244018555,-1.608810425,-1.587383270,0.082973696,0.011658996,0.988014221
92.493376,2.244018555,-1.608810425,-1.587383270,0.082973696,0.011658996,0.988014221
