time,gyro x,gyro y,gyro z,accel x,accel y,accel z
36.037397,-0.716186523,-0.784835815,0.907428741,0.035854556,-0.035093933,1.013404846
36.075920,-0.456787109,-4.775009155,0.884540558,0.053798892,-0.004942566,1.010353088
36.090181,0.435852051,-2.516708374,0.281818390,0.054043032,-0.017149597,0.988136292
36.105517,-0.060058594,-1.242599487,-0.191204071,0.050258853,-0.018004090,0.979591370
36.143775,-0.510192871,-2.974472046,-0.374309540,0.034877993,-0.003355652,1.039039612
36.182075,3.052734375,-4.652938843,0.480182648,0.024990298,-0.011778504,0.974830627
36.196344,2.167724609,-3.775558472,0.625141144,0.027065493,-0.028746277,0.953468323
36.211668,-1.021362305,1.702346802,-0.610820770,0.024502017,-0.031431824,0.949684143
36.249903,-0.876403809,-1.372299194,1.281269073,0.046596743,0.000550598,1.036109924
36.288203,1.839660645,5.250015259,-1.144878387,0.041713931,-0.009337097,1.026344299
36.302446,1.984619141,7.836380005,-1.663677216,0.033535220,-0.009947449,1.023414612
36.303145,1.984619141,7.836380005,-1.663677216,0.033535220,-0.009947449,1.023414612
36.303752,1.984619141,7.836380005,-1.663677216,0.033535220,-0.009947449,1.023414612
36.304396,1.984619141,7.836380005,-1.663677216,0.033535220,-0.009947449,1.023414612
36.304999,1.984619141,7.836380005,-1.663677216,0.033535220,-0.009947449,1.023414612
36.320261,2.366088867,10.178604126,-1.656047821,0.030727603,-0.008360535,1.009864807
36.358537,1.732849121,5.578079224,-1.297466278,0.042080142,-0.017882019,0.962013245
36.396846,-0.067687988,-3.478012085,0.983722687,0.045131899,-0.036192566,1.017433167
36.411100,-0.151611328,-2.814254761,0.670917511,0.023281313,-0.005064636,1.001075745
36.426419,0.298522949,-0.349960327,0.030048370,0.030849673,-0.008970886,0.997291565
36.464637,-0.449157715,1.969375610,-0.587932587,0.009243228,-0.014464051,1.009620667
36.465402,-0.479675293,1.862564087,-0.183574677,0.011562563,-0.011046082,1.014747620
36.466040,-0.479675293,1.862564087,-0.183574677,0.011562563,-0.011046082,1.014747620
36.466683,-0.479675293,1.862564087,-0.183574677,0.011562563,-0.011046082,1.014747620
36.467311,-0.479675293,1.862564087,-0.183574677,0.011562563,-0.011046082,1.014747620
36.467948,-0.479675293,1.862564087,-0.183574677,0.011562563,-0.011046082,1.014747620
36.468573,-0.479675293,1.862564087,-0.183574677,0.011562563,-0.011046082,1.014747620
36.469217,-0.479675293,1.862564087,-0.183574677,0.011562563,-0.011046082,1.014747620
36.469834,-0.479675293,1.862564087,-0.183574677,0.011562563,-0.011046082,1.014747620
36.470480,-0.479675293,1.862564087,-0.183574677,0.011562563,-0.011046082,1.014747620
36.471108,-0.479675293,1.862564087,-0.183574677,0.011562563,-0.011046082,1.014747620
36.471749,-0.479675293,1.862564087,-0.183574677,0.011562563,-0.011046082,1.014747620
36.472377,-0.479675293,1.862564087,-0.183574677,0.011562563,-0.011046082,1.014747620
36.473022,-0.479675293,1.862564087,-0.183574677,0.011562563,-0.011046082,1.014747620
36.473644,-0.479675293,1.862564087,-0.183574677,0.011562563,-0.011046082,1.014747620
36.474291,-0.479675293,1.862564087,-0.183574677,0.011562563,-0.011046082,1.014747620
36.474905,-0.479675293,1.862564087,-0.183574677,0.011562563,-0.011046082,1.014747620
36.475556,-0.067687988,1.839675903,0.136859894,0.021084048,-0.003355652,1.020118713
36.476174,-0.067687988,1.839675903,0.136859894,0.021084048,-0.003355652,1.020118713
36.476808,-0.067687988,1.839675903,0.136859894,0.021084048,-0.003355652,1.020118713
36.477429,-0.067687988,1.839675903,0.136859894,0.021084048,-0.003355652,1.020118713
36.478080,-0.067687988,1.839675903,0.136859894,0.021084048,-0.003355652,1.020118713
36.478697,-0.067687988,1.839675903,0.136859894,0.021084048,-0.003355652,1.020118713
36.479341,-0.067687988,1.839675903,0.136859894,0.021084048,-0.003355652,1.020118713
36.479969,-0.067687988,1.839675903,0.136859894,0.021084048,-0.003355652,1.020118713
36.480599,-0.067687988,1.839675903,0.136859894,0.021084048,-0.003355652,1.020118713
36.481226,-0.067687988,1.839675903,0.136859894,0.021084048,-0.003355652,1.020118713
36.481863,-0.067687988,1.839675903,0.136859894,0.021084048,-0.003355652,1.020118713
36.482482,-0.067687988,1.839675903,0.136859894,0.021084048,-0.003355652,1.020118713
36.532241,0.809692383,3.624954224,-1.419536591,0.031948306,-0.016295105,0.967872620
36.546580,-1.105285645,0.229873657,-1.099102020,0.019008853,-0.015806824,0.971656799
36.561922,-2.066589355,-2.234420776,-0.778667450,0.019252993,-0.008970886,0.978248596
36.600185,-0.479675293,-4.836044312,-0.290386200,0.004116274,-0.002379090,1.010475159
36.638463,-0.800109863,8.156814575,-1.236431122,0.012539126,-0.015806824,0.981788635
36.652712,-1.654602051,8.683242798,-0.496379852,0.034145571,-0.018858582,1.014381409
36.668023,0.451110840,6.005325317,-1.533977509,0.030727603,0.009095520,1.033058167
36.706292,1.694702148,-2.028427124,0.175006866,0.039882876,-0.016539246,0.965187073
36.744621,-2.379394531,-5.110702515,-0.717632294,0.030971743,-0.023985535,0.981300354
36.758874,-3.302551270,-6.506881714,0.152118683,0.023647524,-0.017637879,0.999977112
36.774175,-1.898742676,-9.398422241,0.472553253,0.045620181,0.012879699,1.014625549
36.824195,-0.395751953,-14.059982300,-0.130168915,0.031215884,-0.025084168,1.003517151
36.862644,0.954650879,-17.996749878,1.594074249,0.036953188,0.007752746,0.983985901
36.876893,3.556274414,-16.570053101,1.113422394,0.031460024,0.000916809,0.942359924
36.892188,4.120849609,-13.701400757,1.235492706,0.025356509,-0.007139832,0.926856995
36.892949,-0.258422852,-9.909591675,0.609882355,0.041958071,-0.087095886,0.942726135
36.893552,-0.258422852,-9.909591675,0.609882355,0.041958071,-0.087095886,0.942726135
36.894192,-0.258422852,-9.909591675,0.609882355,0.041958071,-0.087095886,0.942726135
36.894794,-0.258422852,-9.909591675,0.609882355,0.041958071,-0.087095886,0.942726135
36.895406,-0.258422852,-9.909591675,0.609882355,0.041958071,-0.087095886,0.942726135
36.896004,-0.258422852,-9.909591675,0.609882355,0.041958071,-0.087095886,0.942726135
36.896626,-0.258422852,-9.909591675,0.609882355,0.041958071,-0.087095886,0.942726135
36.897224,-0.258422852,-9.909591675,0.609882355,0.041958071,-0.087095886,0.942726135
36.897845,-0.258422852,-9.909591675,0.609882355,0.041958071,-0.087095886,0.942726135
36.898448,-0.258422852,-9.909591675,0.609882355,0.041958071,-0.087095886,0.942726135
36.899081,-0.258422852,-9.909591675,0.609882355,0.041958071,-0.087095886,0.942726135
36.899685,-0.258422852,-9.909591675,0.609882355,0.041958071,-0.087095886,0.942726135
36.900310,-0.258422852,-9.909591675,0.609882355,0.041958071,-0.087095886,0.942726135
36.900915,-0.258422852,-9.909591675,0.609882355,0.041958071,-0.087095886,0.942726135
36.901546,-0.258422852,-9.909591675,0.609882355,0.041958071,-0.087095886,0.942726135
36.902154,-0.258422852,-9.909591675,0.609882355,0.041958071,-0.087095886,0.942726135
36.902783,-5.782104492,-6.224594116,0.365741730,0.031582095,-0.044615418,0.983619690
36.940804,-3.760314941,1.702346802,1.334674835,0.056850649,-0.062559754,1.099708557
36.979101,1.145385742,10.170974731,-0.397197723,0.026699282,0.003480285,1.019752502
36.993351,1.160644531,15.580215454,-0.748149872,0.026699282,-0.024595886,0.974830627
37.008671,-0.113464355,18.197097778,-1.106731415,0.017910220,-0.017515808,0.969581604
37.046957,-2.257324219,21.737136841,-0.809185028,0.016323306,-0.015318543,0.986793518
37.085267,-0.769592285,18.830337524,0.052936554,0.029628970,-0.008604676,1.031349182
37.099512,0.031494141,18.395462036,-0.168315887,0.036342837,-0.006163269,1.031227112
37.114830,1.114868164,17.724075317,-1.099102020,0.035488345,-0.009581238,1.013282776
37.153093,0.443481445,11.055984497,-1.556865692,0.011806704,-0.016539246,0.968482971
37.153862,0.443481445,11.055984497,-1.556865692,0.011806704,-0.016539246,0.968482971
37.154459,0.443481445,11.055984497,-1.556865692,0.011806704,-0.016539246,0.968482971
37.155101,0.443481445,11.055984497,-1.556865692,0.011806704,-0.016539246,0.968482971
37.155687,0.443481445,11.055984497,-1.556865692,0.011806704,-0.016539246,0.968482971
37.156324,0.443481445,11.055984497,-1.556865692,0.011806704,-0.016539246,0.968482971
37.156911,0.443481445,11.055984497,-1.556865692,0.011806704,-0.016539246,0.968482971
37.157544,0.443481445,11.055984497,-1.556865692,0.011806704,-0.016539246,0.968482971
37.170168,-0.098205566,7.699050903,-0.999919891,0.007045962,-0.016417176,0.966041565
37.170956,-0.098205566,7.699050903,-0.999919891,0.007045962,-0.016417176,0.966041565
37.171585,-0.639892578,4.181900024,-0.450603485,0.004482485,-0.015806824,0.969093323
37.173435,-0.639892578,4.181900024,-0.450603485,0.004482485,-0.015806824,0.969093323
37.174207,-0.639892578,4.181900024,-0.450603485,0.004482485,-0.015806824,0.969093323
37.174858,-0.639892578,4.181900024,-0.450603485,0.004482485,-0.015806824,0.969093323
37.175502,-0.639892578,4.181900024,-0.450603485,0.004482485,-0.015806824,0.969093323
37.176149,-0.639892578,4.181900024,-0.450603485,0.004482485,-0.015806824,0.969093323
37.176799,-0.639892578,4.181900024,-0.450603485,0.004482485,-0.015806824,0.969093323
37.177438,-0.639892578,4.181900024,-0.450603485,0.004482485,-0.015806824,0.969093323
37.178088,-0.639892578,4.181900024,-0.450603485,0.004482485,-0.015806824,0.969093323
37.216230,-1.059509277,-7.101974487,0.831134796,0.011806704,-0.014219910,1.007911682
37.230449,-0.700927734,-7.712326050,0.640399933,0.016933657,-0.011656433,1.016212463
37.245757,-0.021911621,-7.574996948,-0.252239227,0.018398501,-0.008726746,1.020851135
37.283988,1.015686035,-8.612594604,-0.664226532,-0.011264585,-0.010069519,0.997535706
37.322265,-0.227905273,-9.695968628,1.075275421,0.001552798,-0.018858582,0.979713440
37.336482,-0.670410156,-8.078536987,0.815876007,0.008632876,-0.019957215,0.984718323
37.351817,-1.341796875,-3.600082397,-0.465862274,0.011684634,-0.015806824,0.999855042
37.390041,-0.151611328,0.107803345,-0.366680145,-0.010776304,-0.006407410,1.026222229
37.428307,1.191162109,0.474014282,0.411518097,-0.005893491,-0.009459168,1.012550354
37.442534,1.297973633,1.603164673,0.670917511,0.003261782,-0.017027527,0.990699768
37.457841,0.893615723,2.022781372,0.770099640,0.010463931,-0.019713074,0.980934143
37.496047,-1.036621094,3.762283325,-0.092021942,0.022793032,-0.014464051,0.985694885
37.534314,-0.784851074,-0.006637573,-0.557415009,0.007900454,-0.006895691,1.012550354
37.548554,-0.227905273,-2.028427124,-0.114910126,0.005581118,-0.007017761,1.015846252
37.576078,1.160644531,-6.834945679,1.052387238,0.011928774,-0.009092957,1.009010315
37.614443,0.237487793,-1.524887085,-0.633708954,0.017055728,-0.017149597,0.981178284
37.652735,-1.120544434,-0.861129761,-0.206462860,-0.010043882,-0.014586121,0.996559143
37.666957,-0.937438965,-1.875839233,0.381000519,-0.010776304,-0.012632996,1.008033752
37.682239,-0.174499512,-2.501449585,1.159198761,0.003627993,-0.009092957,1.020362854
37.682988,-0.174499512,-2.501449585,1.159198761,0.003627993,-0.009092957,1.020362854
37.683580,-0.174499512,-2.501449585,1.159198761,0.003627993,-0.009092957,1.020362854
37.684207,-0.174499512,-2.501449585,1.159198761,0.003627993,-0.009092957,1.020362854
37.684802,-0.174499512,-2.501449585,1.159198761,0.003627993,-0.009092957,1.020362854
37.685405,-0.174499512,-2.501449585,1.159198761,0.003627993,-0.009092957,1.020362854
37.685996,-0.174499512,-2.501449585,1.159198761,0.003627993,-0.009092957,1.020362854
37.686606,-0.174499512,-2.501449585,1.159198761,0.003627993,-0.009092957,1.020362854
37.687196,-0.174499512,-2.501449585,1.159198761,0.003627993,-0.009092957,1.020362854
37.687805,-0.174499512,-2.501449585,1.159198761,0.003627993,-0.009092957,1.020362854
37.688406,0.191711426,-1.692733765,1.136310577,0.011562563,-0.008726746,1.022193909
37.689022,0.191711426,-1.692733765,1.136310577,0.011562563,-0.008726746,1.022193909
37.689617,0.191711426,-1.692733765,1.136310577,0.011562563,-0.008726746,1.022193909
37.690239,0.191711426,-1.692733765,1.136310577,0.011562563,-0.008726746,1.022193909
37.690826,0.191711426,-1.692733765,1.136310577,0.011562563,-0.008726746,1.022193909
37.691440,0.191711426,-1.692733765,1.136310577,0.011562563,-0.008726746,1.022193909
37.692043,0.191711426,-1.692733765,1.136310577,0.011562563,-0.008726746,1.022193909
37.692659,0.191711426,-1.692733765,1.136310577,0.011562563,-0.008726746,1.022193909
37.693251,0.191711426,-1.692733765,1.136310577,0.011562563,-0.008726746,1.022193909
37.744843,0.855468750,5.402603149,-0.740520477,0.020717837,-0.015074402,0.988136292
37.783242,-0.456787109,0.954666138,-0.542156219,-0.000156187,-0.016295105,0.983009338
37.797471,-0.586486816,-2.615890503,0.373371124,-0.005161069,-0.013365418,0.997169495
37.812780,-0.464416504,-3.691635132,0.930316925,-0.000156187,-0.012266785,1.004249573
37.851048,0.084899902,-0.243148804,0.007160187,0.023891665,-0.010191590,1.009376526
37.851805,0.084899902,-0.243148804,0.007160187,0.023891665,-0.010191590,1.009376526
37.852395,0.084899902,-0.243148804,0.007160187,0.023891665,-0.010191590,1.009376526
37.853019,0.084899902,-0.243148804,0.007160187,0.023891665,-0.010191590,1.009376526
37.853597,0.084899902,-0.243148804,0.007160187,0.023891665,-0.010191590,1.009376526
37.854209,0.084899902,-0.243148804,0.007160187,0.023891665,-0.010191590,1.009376526
37.854793,0.084899902,-0.243148804,0.007160187,0.023891665,-0.010191590,1.009376526
37.855408,0.084899902,-0.243148804,0.007160187,0.023891665,-0.010191590,1.009376526
37.855988,0.084899902,-0.243148804,0.007160187,0.023891665,-0.010191590,1.009376526
37.856591,0.084899902,-0.243148804,0.007160187,0.023891665,-0.010191590,1.009376526
37.857187,0.138305664,0.924148560,-0.496379852,0.023037173,-0.008970886,1.005714417
37.857802,0.138305664,0.924148560,-0.496379852,0.023037173,-0.008970886,1.005714417
37.858381,0.138305664,0.924148560,-0.496379852,0.023037173,-0.008970886,1.005714417
37.859002,0.138305664,0.924148560,-0.496379852,0.023037173,-0.008970886,1.005714417
37.859587,0.138305664,0.924148560,-0.496379852,0.023037173,-0.008970886,1.005714417
37.860206,0.138305664,0.924148560,-0.496379852,0.023037173,-0.008970886,1.005714417
37.860796,0.138305664,0.924148560,-0.496379852,0.023037173,-0.008970886,1.005714417
37.861417,0.138305664,0.924148560,-0.496379852,0.023037173,-0.008970886,1.005714417
37.861999,0.138305664,0.924148560,-0.496379852,0.023037173,-0.008970886,1.005714417
37.862612,0.138305664,0.924148560,-0.496379852,0.023037173,-0.008970886,1.005714417
37.863213,0.138305664,0.924148560,-0.496379852,0.023037173,-0.008970886,1.005714417
37.863826,0.138305664,0.924148560,-0.496379852,0.023037173,-0.008970886,1.005714417
37.864406,0.138305664,0.924148560,-0.496379852,0.023037173,-0.008970886,1.005714417
37.865034,0.138305664,0.924148560,-0.496379852,0.023037173,-0.008970886,1.005714417
37.865616,0.138305664,0.924148560,-0.496379852,0.023037173,-0.008970886,1.005714417
37.866233,0.138305664,0.924148560,-0.496379852,0.023037173,-0.008970886,1.005714417
37.866827,0.138305664,0.924148560,-0.496379852,0.023037173,-0.008970886,1.005714417
37.904973,0.275634766,-1.959762573,-0.130168915,-0.000156187,-0.015196472,0.994728088
37.919213,0.077270508,-4.034957886,0.625141144,0.002895571,-0.014097840,0.994483948
37.934532,-0.014282227,-3.783187866,0.602252960,0.007290103,-0.011534363,0.997779846
37.972795,0.252746582,0.466384888,-0.069133759,0.010463931,-0.011168152,1.008522034
38.011100,0.390075684,2.495803833,-0.343791962,0.008877017,-0.013365418,0.995826721
38.025364,0.321411133,2.121963501,-0.259868622,0.005336978,-0.013365418,0.993629456
38.040671,0.130676270,0.580825806,-0.183574677,0.005336978,-0.016783386,0.989601135
38.078877,-0.113464355,-2.821884155,0.640399933,0.011684634,-0.011534363,0.997657776
38.117172,-0.296569824,-0.815353394,-0.366680145,0.028408267,-0.011290222,0.999488831
38.131393,-0.281311035,-0.578842163,-1.022808075,0.024746157,-0.011534363,1.000221252
38.146690,-0.082946777,-1.631698608,-1.167766571,0.008999087,-0.012632996,1.001197815
38.184961,0.229858398,-4.218063354,0.381000519,-0.005771421,-0.013731629,1.004615784
38.223233,0.100158691,0.580825806,-0.275127411,0.012294985,-0.010679871,1.001197815
38.237472,0.184082031,3.449478149,-0.778667450,0.006069399,-0.011290222,1.001197815
38.252786,0.191711426,3.975906372,-0.359050751,0.001430728,-0.012388855,1.001441956
38.291052,0.260375977,2.785720825,0.068195343,0.005703188,-0.014708191,0.998390198
38.329326,0.206970215,0.710525513,0.289447784,0.009243228,-0.011656433,0.994483948
38.358421,0.077270508,0.504531860,0.258930206,0.018154360,-0.010557801,0.994728088
38.390691,-0.296569824,0.878372192,-0.679485321,0.013393618,-0.012388855,0.999977112
38.428985,0.176452637,-1.921615601,0.213153839,-0.008823179,-0.011900574,1.004005432
38.467248,0.123046875,0.649490356,0.327594757,0.007778384,-0.011290222,0.998146057
38.481470,-0.060058594,2.045669556,0.022418976,0.011196353,-0.011412293,0.997657776
38.482135,-0.060058594,2.045669556,0.022418976,0.011196353,-0.011412293,0.997657776
38.482732,-0.060058594,2.045669556,0.022418976,0.011196353,-0.011412293,0.997657776
38.483351,-0.060058594,2.045669556,0.022418976,0.011196353,-0.011412293,0.997657776
38.483921,-0.136352539,3.083267212,-0.282756805,0.010097720,-0.010069519,0.999366760
38.499195,-0.105834961,3.495254517,-0.359050751,0.008999087,-0.010679871,0.999122620
38.537415,0.008605957,0.168838501,-0.107280731,0.008266665,-0.015196472,0.999977112
38.538151,0.008605957,0.168838501,-0.107280731,0.008266665,-0.015196472,0.999977112
38.538707,0.008605957,0.168838501,-0.107280731,0.008266665,-0.015196472,0.999977112
38.539312,0.008605957,0.168838501,-0.107280731,0.008266665,-0.015196472,0.999977112
38.539857,0.008605957,0.168838501,-0.107280731,0.008266665,-0.015196472,0.999977112
38.540444,0.008605957,0.168838501,-0.107280731,0.008266665,-0.015196472,0.999977112
38.540990,0.008605957,0.168838501,-0.107280731,0.008266665,-0.015196472,0.999977112
38.541587,0.008605957,0.168838501,-0.107280731,0.008266665,-0.015196472,0.999977112
38.542140,0.008605957,0.168838501,-0.107280731,0.008266665,-0.015196472,0.999977112
38.542729,0.008605957,0.168838501,-0.107280731,0.008266665,-0.015196472,0.999977112
38.543284,-0.029541016,-0.746688843,-0.030986786,0.008144595,-0.013731629,1.000953674
38.543890,-0.029541016,-0.746688843,-0.030986786,0.008144595,-0.013731629,1.000953674
38.544470,-0.029541016,-0.746688843,-0.030986786,0.008144595,-0.013731629,1.000953674
38.545091,-0.029541016,-0.746688843,-0.030986786,0.008144595,-0.013731629,1.000953674
38.545662,-0.029541016,-0.746688843,-0.030986786,0.008144595,-0.013731629,1.000953674
38.546284,-0.029541016,-0.746688843,-0.030986786,0.008144595,-0.013731629,1.000953674
38.546860,-0.029541016,-0.746688843,-0.030986786,0.008144595,-0.013731629,1.000953674
38.547473,-0.029541016,-0.746688843,-0.030986786,0.008144595,-0.013731629,1.000953674
38.548050,-0.029541016,-0.746688843,-0.030986786,0.008144595,-0.013731629,1.000953674
38.548658,-0.029541016,-0.746688843,-0.030986786,0.008144595,-0.013731629,1.000953674
38.549249,-0.029541016,-0.746688843,-0.030986786,0.008144595,-0.013731629,1.000953674
38.549855,-0.029541016,-0.746688843,-0.030986786,0.008144595,-0.013731629,1.000953674
38.550430,-0.029541016,-0.746688843,-0.030986786,0.008144595,-0.013731629,1.000953674
38.551046,-0.029541016,-0.746688843,-0.030986786,0.008144595,-0.013731629,1.000953674
38.551619,-0.029541016,-0.746688843,-0.030986786,0.008144595,-0.013731629,1.000953674
38.552236,-0.029541016,-0.746688843,-0.030986786,0.008144595,-0.013731629,1.000953674
38.552823,-0.029541016,-0.746688843,-0.030986786,0.008144595,-0.013731629,1.000953674
38.553432,0.069641113,-1.395187378,-0.122539520,0.007290103,-0.011412293,1.001319885
38.554006,0.069641113,-1.395187378,-0.122539520,0.007290103,-0.011412293,1.001319885
38.554612,0.069641113,-1.395187378,-0.122539520,0.007290103,-0.011412293,1.001319885
38.555206,0.069641113,-1.395187378,-0.122539520,0.007290103,-0.011412293,1.001319885
38.555824,0.069641113,-1.395187378,-0.122539520,0.007290103,-0.011412293,1.001319885
38.593893,0.046752930,-1.265487671,0.167377472,-0.004184507,-0.009703308,1.003028870
38.608155,0.107788086,-0.929794312,0.243671417,-0.003818296,-0.012022644,1.001319885
38.623471,0.092529297,-0.082931519,0.381000519,0.000576235,-0.010801941,1.000587463
38.661696,0.023864746,1.549758911,-0.015727997,0.007168032,-0.011046082,1.001319885
38.700023,0.000976562,1.473464966,-0.305644989,0.003750063,-0.013121277,0.998512268
38.714375,0.069641113,-0.647506714,0.083454132,-0.000156187,-0.012510926,0.998390198
38.729758,0.092529297,-1.654586792,0.304706573,0.001430728,-0.013243347,0.997413635
38.782106,-0.182128906,0.741043091,-0.488750458,0.005825259,-0.009947449,1.000221252
38.820467,-0.037170410,-0.403366089,-0.160686493,-0.006870054,-0.013487488,1.002174377
38.834717,0.153564453,-1.517257690,0.617511749,-0.004550718,-0.011900574,1.002906799
38.850058,0.245117188,-1.418075562,0.686176300,-0.000400327,-0.013243347,1.001441956
38.888398,-0.029541016,1.450576782,-0.359050751,0.008510806,-0.010191590,0.998146057
38.926702,-0.006652832,0.199356079,-0.053874969,-0.003574155,-0.010191590,1.001319885
38.940958,0.107788086,-0.937423706,0.312335968,0.000210024,-0.013121277,1.002052307
38.956267,0.206970215,-1.143417358,0.342853546,0.002529360,-0.013853699,1.000099182
38.957028,0.206970215,-1.143417358,0.342853546,0.002529360,-0.013853699,1.000099182
38.957600,0.206970215,-1.143417358,0.342853546,0.002529360,-0.013853699,1.000099182
38.958227,0.206970215,-1.143417358,0.342853546,0.002529360,-0.013853699,1.000099182
38.958804,0.206970215,-1.143417358,0.342853546,0.002529360,-0.013853699,1.000099182
38.959422,0.206970215,-1.143417358,0.342853546,0.002529360,-0.013853699,1.000099182
38.959997,0.206970215,-1.143417358,0.342853546,0.002529360,-0.013853699,1.000099182
38.960616,0.206970215,-1.143417358,0.342853546,0.002529360,-0.013853699,1.000099182
38.961205,0.237487793,-1.006088257,0.213153839,0.005336978,-0.013121277,0.999000549
38.961826,0.237487793,-1.006088257,0.213153839,0.005336978,-0.013121277,0.999000549
38.962419,0.237487793,-1.006088257,0.213153839,0.005336978,-0.013121277,0.999000549
38.963042,0.237487793,-1.006088257,0.213153839,0.005336978,-0.013121277,0.999000549
38.963629,0.237487793,-1.006088257,0.213153839,0.005336978,-0.013121277,0.999000549
38.964258,0.237487793,-1.006088257,0.213153839,0.005336978,-0.013121277,0.999000549
38.964843,0.237487793,-1.006088257,0.213153839,0.005336978,-0.013121277,0.999000549
38.965474,0.237487793,-1.006088257,0.213153839,0.005336978,-0.013121277,0.999000549
38.966059,0.237487793,-1.006088257,0.213153839,0.005336978,-0.013121277,0.999000549
38.966684,0.237487793,-1.006088257,0.213153839,0.005336978,-0.013121277,0.999000549
38.967279,0.237487793,-1.006088257,0.213153839,0.005336978,-0.013121277,0.999000549
38.967896,0.237487793,-1.006088257,0.213153839,0.005336978,-0.013121277,0.999000549
38.968489,0.237487793,-1.006088257,0.213153839,0.005336978,-0.013121277,0.999000549
38.969112,0.237487793,-1.006088257,0.213153839,0.005336978,-0.013121277,0.999000549
38.969699,0.237487793,-1.006088257,0.213153839,0.005336978,-0.013121277,0.999000549
38.970329,0.237487793,-1.006088257,0.213153839,0.005336978,-0.013121277,0.999000549
38.970907,0.130676270,-0.746688843,0.060565948,0.004848696,-0.014097840,0.998634338
38.971520,0.130676270,-0.746688843,0.060565948,0.004848696,-0.014097840,0.998634338
38.972097,0.130676270,-0.746688843,0.060565948,0.004848696,-0.014097840,0.998634338
38.972708,0.130676270,-0.746688843,0.060565948,0.004848696,-0.014097840,0.998634338
38.973288,0.130676270,-0.746688843,0.060565948,0.004848696,-0.014097840,0.998634338
38.973890,0.130676270,-0.746688843,0.060565948,0.004848696,-0.014097840,0.998634338
38.974466,0.130676270,-0.746688843,0.060565948,0.004848696,-0.014097840,0.998634338
38.975076,0.130676270,-0.746688843,0.060565948,0.004848696,-0.014097840,0.998634338
38.976827,0.130676270,-0.746688843,0.060565948,0.004848696,-0.014097840,0.998634338
38.977521,0.130676270,-0.746688843,0.060565948,0.004848696,-0.014097840,0.998634338
38.978105,0.130676270,-0.746688843,0.060565948,0.004848696,-0.014097840,0.998634338
38.978710,0.130676270,-0.746688843,0.060565948,0.004848696,-0.014097840,0.998634338
38.979286,0.130676270,-0.746688843,0.060565948,0.004848696,-0.014097840,0.998634338
38.979884,0.130676270,-0.746688843,0.060565948,0.004848696,-0.014097840,0.998634338
38.980453,0.130676270,-0.746688843,0.060565948,0.004848696,-0.014097840,0.998634338
38.981067,0.062011719,-0.388107300,-0.000469208,0.004482485,-0.012266785,0.998878479
38.981635,0.062011719,-0.388107300,-0.000469208,0.004482485,-0.012266785,0.998878479
38.982243,0.062011719,-0.388107300,-0.000469208,0.004482485,-0.012266785,0.998878479
39.035772,-0.205017090,-0.235519409,-0.084392548,-0.000400327,-0.011778504,1.000221252
39.074141,0.115417480,-1.219711304,0.373371124,-0.002231382,-0.012144715,1.002540588
39.088400,0.153564453,-1.013717651,0.464923859,-0.000278257,-0.010924011,1.003150940
39.103726,0.168823242,0.016250610,0.327594757,0.006435610,-0.014341980,0.997535706
39.141969,-0.174499512,0.435867310,-0.526897430,0.000454165,-0.013121277,0.998146057
39.142691,-0.174499512,0.435867310,-0.526897430,0.000454165,-0.013121277,0.998146057
39.143268,-0.174499512,0.435867310,-0.526897430,0.000454165,-0.013121277,0.998146057
39.143874,-0.174499512,0.435867310,-0.526897430,0.000454165,-0.013121277,0.998146057
39.144438,-0.174499512,0.435867310,-0.526897430,0.000454165,-0.013121277,0.998146057
39.145051,-0.174499512,0.435867310,-0.526897430,0.000454165,-0.013121277,0.998146057
39.145619,-0.174499512,0.435867310,-0.526897430,0.000454165,-0.013121277,0.998146057
39.183756,0.023864746,-3.020248413,0.815876007,-0.001498960,-0.011900574,1.001441956
39.214873,-0.090576172,0.153579712,0.007160187,0.009731509,-0.010924011,1.000953674
39.229202,-0.128723145,1.740493774,-0.641338348,0.003383853,-0.012388855,0.999122620
39.267387,0.077270508,-0.380477905,0.022418976,-0.003940366,-0.012144715,1.000343323
39.305681,-0.159240723,-0.899276733,0.190265656,0.008144595,-0.012877136,0.995582581
39.319908,-0.288940430,-0.075302124,-0.389568329,0.002163149,-0.012388855,0.999610901
39.335168,-0.189758301,-0.082931519,-0.343791962,0.000332095,-0.012999207,1.000587463
39.373392,0.084899902,-0.380477905,0.251300812,0.002773501,-0.011656433,1.000221252
39.411681,-0.021911621,0.489273071,-0.442974091,-0.001498960,-0.012632996,0.999855042
39.425915,0.046752930,-0.189743042,-0.252239227,-0.005893491,-0.012755066,0.999122620
39.441174,0.237487793,-1.723251343,0.434406281,-0.005161069,-0.012755066,0.997657776
39.479398,-0.075317383,0.412979126,0.091083527,0.010097720,-0.012022644,0.997169495
39.517661,-0.151611328,0.710525513,-0.374309540,-0.004062437,-0.011168152,1.000465393
39.531910,-0.014282227,-0.288925171,-0.038616180,-0.006015562,-0.011656433,1.002296448
39.547216,0.321411133,-1.593551636,0.632770538,-0.002719663,-0.011412293,1.001930237
39.585454,0.199340820,-0.174484253,0.022418976,0.002651431,-0.012877136,0.997169495
39.623722,-0.212646484,0.710525513,0.030048370,-0.000766538,-0.011656433,0.994483948
39.637946,-0.250793457,-0.479660034,0.312335968,0.004360415,-0.012877136,1.000343323
39.653241,-0.174499512,-0.876388550,0.220783234,0.006435610,-0.013121277,1.000709534
39.653998,-0.174499512,-0.876388550,0.220783234,0.006435610,-0.013121277,1.000709534
39.654566,-0.174499512,-0.876388550,0.220783234,0.006435610,-0.013121277,1.000709534
39.655190,-0.174499512,-0.876388550,0.220783234,0.006435610,-0.013121277,1.000709534
39.655782,-0.174499512,-0.876388550,0.220783234,0.006435610,-0.013121277,1.000709534
39.656390,-0.174499512,-0.876388550,0.220783234,0.006435610,-0.013121277,1.000709534
39.656961,-0.121093750,-1.044235229,0.075824738,0.006557681,-0.013487488,1.002174377
39.657586,-0.121093750,-1.044235229,0.075824738,0.006557681,-0.013487488,1.002174377
39.658178,-0.121093750,-1.044235229,0.075824738,0.006557681,-0.013487488,1.002174377
39.658809,-0.121093750,-1.044235229,0.075824738,0.006557681,-0.013487488,1.002174377
39.659388,-0.121093750,-1.044235229,0.075824738,0.006557681,-0.013487488,1.002174377
39.660022,-0.121093750,-1.044235229,0.075824738,0.006557681,-0.013487488,1.002174377
39.660601,-0.121093750,-1.044235229,0.075824738,0.006557681,-0.013487488,1.002174377
39.661229,-0.121093750,-1.044235229,0.075824738,0.006557681,-0.013487488,1.002174377
39.661822,-0.121093750,-1.044235229,0.075824738,0.006557681,-0.013487488,1.002174377
39.662434,-0.121093750,-1.044235229,0.075824738,0.006557681,-0.013487488,1.002174377
39.663028,-0.121093750,-1.044235229,0.075824738,0.006557681,-0.013487488,1.002174377
39.663658,-0.121093750,-1.044235229,0.075824738,0.006557681,-0.013487488,1.002174377
39.664243,-0.121093750,-1.044235229,0.075824738,0.006557681,-0.013487488,1.002174377
39.718225,0.191711426,-0.609359741,0.060565948,-0.003696226,-0.012755066,0.997779846
39.756626,-0.174499512,0.229873657,-0.084392548,-0.002231382,-0.012877136,0.995216370
39.770838,-0.151611328,0.222244263,0.030048370,-0.002353452,-0.012877136,0.998634338
39.786128,-0.182128906,0.054397583,0.258930206,0.000210024,-0.011534363,1.000343323
39.824381,-0.021911621,-0.296554565,0.075824738,0.005825259,-0.010924011,1.003395081
39.825138,-0.021911621,-0.296554565,0.075824738,0.005825259,-0.010924011,1.003395081
39.825728,0.039123535,-0.327072144,-0.084392548,0.004604556,-0.010924011,1.003761292
39.826357,0.039123535,-0.327072144,-0.084392548,0.004604556,-0.010924011,1.003761292
39.826933,0.039123535,-0.327072144,-0.084392548,0.004604556,-0.010924011,1.003761292
39.827552,0.039123535,-0.327072144,-0.084392548,0.004604556,-0.010924011,1.003761292
39.828126,0.039123535,-0.327072144,-0.084392548,0.004604556,-0.010924011,1.003761292
39.828754,0.039123535,-0.327072144,-0.084392548,0.004604556,-0.010924011,1.003761292
39.829327,0.039123535,-0.327072144,-0.084392548,0.004604556,-0.010924011,1.003761292
39.829944,0.039123535,-0.327072144,-0.084392548,0.004604556,-0.010924011,1.003761292
39.830529,0.039123535,-0.327072144,-0.084392548,0.004604556,-0.010924011,1.003761292
39.831149,0.039123535,-0.327072144,-0.084392548,0.004604556,-0.010924011,1.003761292
39.831724,0.039123535,-0.327072144,-0.084392548,0.004604556,-0.010924011,1.003761292
39.832343,0.039123535,-0.327072144,-0.084392548,0.004604556,-0.010924011,1.003761292
39.832913,0.039123535,-0.327072144,-0.084392548,0.004604556,-0.010924011,1.003761292
39.833538,0.039123535,-0.327072144,-0.084392548,0.004604556,-0.010924011,1.003761292
39.834112,0.039123535,-0.327072144,-0.084392548,0.004604556,-0.010924011,1.003761292
39.834735,0.039123535,-0.327072144,-0.084392548,0.004604556,-0.010924011,1.003761292
39.835301,0.039123535,-0.327072144,-0.084392548,0.004604556,-0.010924011,1.003761292
39.873447,0.206970215,-0.678024292,0.144489288,-0.002597593,-0.011656433,0.999732971
39.887672,0.077270508,-0.220260620,0.159748077,-0.000156187,-0.012999207,0.995338440
39.902946,-0.006652832,0.123062134,0.075824738,0.001796938,-0.012877136,0.995460510
39.941165,-0.121093750,0.069656372,-0.015727997,-0.005038999,-0.011900574,1.003517151
39.995530,0.077270508,0.474014282,-0.168315887,0.005336978,-0.011412293,0.996681213
40.009839,0.016235352,0.580825806,-0.374309540,0.002041079,-0.012632996,0.997169495
40.025146,-0.021911621,0.054397583,-0.221721649,-0.004062437,-0.012999207,0.997169495
40.063375,-0.075317383,-0.708541870,0.251300812,-0.000400327,-0.012510926,0.999977112
40.101634,-0.105834961,-0.105819702,-0.191204071,-0.005161069,-0.011534363,1.001564026
40.115876,0.130676270,-0.678024292,0.335224152,-0.005893491,-0.012510926,1.001686096
40.131167,0.130676270,-0.639877319,0.358112335,-0.005649351,-0.010801941,1.000465393
40.169406,0.023864746,1.412429810,-0.221721649,0.003750063,-0.011900574,1.000099182
40.207689,0.031494141,-0.205001831,0.045307159,-0.006015562,-0.012388855,0.996803284
40.221918,0.031494141,-0.868759155,0.182636261,-0.004916929,-0.012144715,0.996925354
40.237187,-0.075317383,-1.074752808,0.335224152,-0.000400327,-0.011412293,0.997291565
40.275409,-0.075317383,0.130691528,-0.336162567,-0.005161069,-0.012266785,1.002540588
40.313695,0.199340820,-0.250778198,0.365741730,-0.000766538,-0.010801941,1.000343323
40.327960,0.229858398,0.130691528,0.274188995,0.001308657,-0.012266785,0.999122620
40.343239,0.054382324,0.924148560,-0.351421356,0.001919009,-0.013365418,0.996192932
40.381453,-0.113464355,-0.372848511,-0.168315887,-0.008090757,-0.012388855,0.995948792
40.419715,0.016235352,-0.792465210,0.365741730,0.000210024,-0.011534363,1.001319885
40.433967,-0.014282227,0.435867310,-0.320903778,0.001064517,-0.012388855,1.001441956
40.449269,-0.029541016,0.603713989,-0.511638641,-0.003085874,-0.012266785,1.001441956
40.450031,-0.029541016,0.603713989,-0.511638641,-0.003085874,-0.012266785,1.001441956
40.450606,-0.029541016,0.603713989,-0.511638641,-0.003085874,-0.012266785,1.001441956
40.462732,0.145935059,-0.113449097,-0.160686493,-0.010654233,-0.010435730,1.000709534
40.463556,0.145935059,-0.113449097,-0.160686493,-0.010654233,-0.010435730,1.000709534
40.464218,0.145935059,-0.113449097,-0.160686493,-0.010654233,-0.010435730,1.000709534
40.464850,0.145935059,-0.113449097,-0.160686493,-0.010654233,-0.010435730,1.000709534
40.465469,0.145935059,-0.113449097,-0.160686493,-0.010654233,-0.010435730,1.000709534
40.466101,0.145935059,-0.113449097,-0.160686493,-0.010654233,-0.010435730,1.000709534
40.466727,0.145935059,-0.113449097,-0.160686493,-0.010654233,-0.010435730,1.000709534
40.467357,0.145935059,-0.113449097,-0.160686493,-0.010654233,-0.010435730,1.000709534
40.467987,0.145935059,-0.113449097,-0.160686493,-0.010654233,-0.010435730,1.000709534
40.469820,0.145935059,-0.113449097,-0.160686493,-0.010654233,-0.010435730,1.000709534
40.470573,0.145935059,-0.113449097,-0.160686493,-0.010654233,-0.010435730,1.000709534
40.471223,0.145935059,-0.113449097,-0.160686493,-0.010654233,-0.010435730,1.000709534
40.471856,0.145935059,-0.113449097,-0.160686493,-0.010654233,-0.010435730,1.000709534
40.509950,0.115417480,-0.189743042,0.297077179,0.001919009,-0.012755066,0.996315002
40.548212,-0.174499512,0.351943970,-0.412456512,-0.007846616,-0.010924011,0.999855042
40.562399,0.046752930,-0.906906128,0.297077179,-0.009311460,-0.011290222,1.003517151
40.577731,0.145935059,-1.128158569,0.533588409,-0.005771421,-0.010435730,1.002052307
40.615962,0.008605957,0.542678833,-0.473491669,-0.001376890,-0.011412293,0.999610901
40.616711,0.008605957,0.542678833,-0.473491669,-0.001376890,-0.011412293,0.999610901
40.617326,0.008605957,0.542678833,-0.473491669,-0.001376890,-0.011412293,0.999610901
40.617941,0.008605957,0.542678833,-0.473491669,-0.001376890,-0.011412293,0.999610901
40.618533,0.008605957,0.542678833,-0.473491669,-0.001376890,-0.011412293,0.999610901
40.619155,0.008605957,0.542678833,-0.473491669,-0.001376890,-0.011412293,0.999610901
40.619752,0.008605957,0.542678833,-0.473491669,-0.001376890,-0.011412293,0.999610901
40.620367,0.008605957,0.542678833,-0.473491669,-0.001376890,-0.011412293,0.999610901
40.620963,0.008605957,0.542678833,-0.473491669,-0.001376890,-0.011412293,0.999610901
40.621576,-0.021911621,0.641860962,-0.565044403,-0.005283140,-0.011290222,0.999610901
40.622179,-0.021911621,0.641860962,-0.565044403,-0.005283140,-0.011290222,0.999610901
40.622806,-0.021911621,0.641860962,-0.565044403,-0.005283140,-0.011290222,0.999610901
40.660861,0.039123535,-0.540695190,0.480182648,-0.005405210,-0.012266785,0.999855042
40.675057,0.046752930,-0.372848511,0.373371124,-0.003207944,-0.012999207,0.999122620
40.690353,0.016235352,-0.098190308,0.197895050,-0.000034116,-0.012632996,0.997901917
40.728550,-0.052429199,0.260391235,-0.168315887,-0.006870054,-0.009703308,1.001075745
40.778548,0.016235352,-0.418624878,-0.145427704,-0.002597593,-0.015196472,0.997779846
40.792862,-0.021911621,-0.815353394,-0.267498016,-0.007724546,-0.012022644,0.998390198
40.808180,-0.014282227,-1.059494019,-0.053874969,-0.010532163,-0.010679871,0.997779846
40.846400,-0.006652832,0.672378540,-0.000469208,0.000210024,-0.010069519,1.002540588
40.884695,0.084899902,0.519790649,-0.473491669,-0.012607358,-0.013243347,0.999610901
40.898917,0.199340820,-0.258407593,-0.092021942,-0.013583921,-0.012755066,1.000099182
40.914201,0.298522949,-0.884017944,0.457294464,-0.007358335,-0.011412293,0.997291565
40.952405,-0.220275879,0.206985474,-0.542156219,-0.004306577,-0.011534363,0.997413635
40.990665,0.092529297,-0.975570679,0.495441437,-0.009311460,-0.009337097,1.002174377
40.991418,0.092529297,-0.975570679,0.495441437,-0.009311460,-0.009337097,1.002174377
40.991998,0.092529297,-0.975570679,0.495441437,-0.009311460,-0.009337097,1.002174377
40.992616,0.092529297,-0.975570679,0.495441437,-0.009311460,-0.009337097,1.002174377
40.993191,0.092529297,-0.975570679,0.495441437,-0.009311460,-0.009337097,1.002174377
40.993802,0.092529297,-0.975570679,0.495441437,-0.009311460,-0.009337097,1.002174377
40.994375,0.092529297,-0.975570679,0.495441437,-0.009311460,-0.009337097,1.002174377
41.021607,0.069641113,1.183547974,-0.267498016,0.006069399,-0.010801941,1.004493713
41.035935,0.062011719,1.709976196,-0.832073212,0.002041079,-0.013121277,1.000587463
41.074085,0.206970215,-1.021347046,0.159748077,-0.018710874,-0.012388855,0.996070862
41.112387,-0.090576172,-0.357589722,0.243671417,0.002651431,-0.011900574,0.997291565
41.126600,-0.227905273,0.344314575,-0.420085907,0.001674868,-0.012266785,0.998512268
41.141932,-0.220275879,0.664749146,-0.587932587,-0.007602476,-0.009947449,1.002174377
41.142677,-0.220275879,0.664749146,-0.587932587,-0.007602476,-0.009947449,1.002174377
41.143254,-0.220275879,0.664749146,-0.587932587,-0.007602476,-0.009947449,1.002174377
41.143880,-0.220275879,0.664749146,-0.587932587,-0.007602476,-0.009947449,1.002174377
41.144442,-0.220275879,0.664749146,-0.587932587,-0.007602476,-0.009947449,1.002174377
41.145064,-0.220275879,0.664749146,-0.587932587,-0.007602476,-0.009947449,1.002174377
41.145631,-0.220275879,0.664749146,-0.587932587,-0.007602476,-0.009947449,1.002174377
41.146249,-0.220275879,0.664749146,-0.587932587,-0.007602476,-0.009947449,1.002174377
41.146827,-0.220275879,0.664749146,-0.587932587,-0.007602476,-0.009947449,1.002174377
41.147437,-0.220275879,0.664749146,-0.587932587,-0.007602476,-0.009947449,1.002174377
41.148022,-0.029541016,0.313796997,-0.267498016,-0.012241147,-0.010069519,1.003883362
41.148634,-0.029541016,0.313796997,-0.267498016,-0.012241147,-0.010069519,1.003883362
41.149208,-0.029541016,0.313796997,-0.267498016,-0.012241147,-0.010069519,1.003883362
41.149825,-0.029541016,0.313796997,-0.267498016,-0.012241147,-0.010069519,1.003883362
41.150396,-0.029541016,0.313796997,-0.267498016,-0.012241147,-0.010069519,1.003883362
41.151017,-0.029541016,0.313796997,-0.267498016,-0.012241147,-0.010069519,1.003883362
41.151589,-0.029541016,0.313796997,-0.267498016,-0.012241147,-0.010069519,1.003883362
41.152216,-0.029541016,0.313796997,-0.267498016,-0.012241147,-0.010069519,1.003883362
41.152794,-0.029541016,0.313796997,-0.267498016,-0.012241147,-0.010069519,1.003883362
41.153403,-0.029541016,0.313796997,-0.267498016,-0.012241147,-0.010069519,1.003883362
41.153980,-0.029541016,0.313796997,-0.267498016,-0.012241147,-0.010069519,1.003883362
41.154592,-0.029541016,0.313796997,-0.267498016,-0.012241147,-0.010069519,1.003883362
41.155175,-0.029541016,0.313796997,-0.267498016,-0.012241147,-0.010069519,1.003883362
41.155792,-0.029541016,0.313796997,-0.267498016,-0.012241147,-0.010069519,1.003883362
41.156364,-0.029541016,0.313796997,-0.267498016,-0.012241147,-0.010069519,1.003883362
41.156983,-0.029541016,0.313796997,-0.267498016,-0.012241147,-0.010069519,1.003883362
41.157555,-0.029541016,0.313796997,-0.267498016,-0.012241147,-0.010069519,1.003883362
41.158186,0.138305664,-0.212631226,0.007160187,-0.012119077,-0.010801941,1.005470276
41.158755,0.138305664,-0.212631226,0.007160187,-0.012119077,-0.010801941,1.005470276
41.159367,0.138305664,-0.212631226,0.007160187,-0.012119077,-0.010801941,1.005470276
41.159946,0.138305664,-0.212631226,0.007160187,-0.012119077,-0.010801941,1.005470276
41.160559,0.138305664,-0.212631226,0.007160187,-0.012119077,-0.010801941,1.005470276
41.162307,0.138305664,-0.212631226,0.007160187,-0.012119077,-0.010801941,1.005470276
41.163048,0.138305664,-0.212631226,0.007160187,-0.012119077,-0.010801941,1.005470276
41.163612,0.138305664,-0.212631226,0.007160187,-0.012119077,-0.010801941,1.005470276
41.164234,0.138305664,-0.212631226,0.007160187,-0.012119077,-0.010801941,1.005470276
41.164801,0.138305664,-0.212631226,0.007160187,-0.012119077,-0.010801941,1.005470276
41.165411,0.138305664,-0.212631226,0.007160187,-0.012119077,-0.010801941,1.005470276
41.165970,0.138305664,-0.212631226,0.007160187,-0.012119077,-0.010801941,1.005470276
41.204058,0.229858398,-0.433883667,-0.107280731,-0.007114194,-0.013243347,0.997779846
41.242307,-0.075317383,-1.364669800,0.464923859,-0.014926694,-0.011656433,0.993263245
41.256518,-0.143981934,-1.540145874,0.777729034,-0.009555601,-0.009092957,0.996559143
41.271834,-0.220275879,-0.609359741,0.533588409,0.003261782,-0.009947449,1.000953674
41.322286,0.206970215,-0.273666382,-0.488750458,-0.014072202,-0.011168152,1.004615784
41.360669,0.153564453,-1.959762573,0.525959015,-0.007480405,-0.012144715,0.993873596
41.374913,-0.037170410,-1.494369507,0.327594757,-0.003452085,-0.011656433,0.992530823
41.390232,-0.395751953,-0.479660034,-0.145427704,-0.006870054,-0.012510926,0.995582581
41.428446,-0.113464355,-0.601730347,0.258930206,-0.004184507,-0.012144715,1.006813049
41.466722,0.199340820,-0.288925171,-0.328533173,-0.007480405,-0.011534363,1.001930237
41.480976,0.206970215,-0.632247925,-0.282756805,-0.011020444,-0.011534363,0.998390198
41.496276,0.145935059,-1.875839233,0.358112335,-0.012607358,-0.011778504,0.992530823
41.534535,-0.220275879,-1.234970093,0.480182648,-0.000522397,-0.012388855,0.995826721
41.586243,0.062011719,-0.792465210,-0.015727997,-0.008823179,-0.010679871,1.005104065
41.600564,0.161193848,-1.501998901,0.197895050,-0.009311460,-0.012022644,1.003883362
41.615929,0.237487793,-1.669845581,0.358112335,-0.002597593,-0.010191590,1.000953674
41.654182,0.184082031,0.428237915,-0.359050751,-0.003818296,-0.012266785,0.999366760
41.692446,-0.090576172,-0.426254272,0.068195343,-0.014316343,-0.012632996,0.996803284
41.693178,-0.090576172,-0.426254272,0.068195343,-0.014316343,-0.012632996,0.996803284
41.693746,-0.090576172,-0.426254272,0.068195343,-0.014316343,-0.012632996,0.996803284
41.694354,-0.090576172,-0.426254272,0.068195343,-0.014316343,-0.012632996,0.996803284
41.708357,-0.037170410,-1.433334351,0.609882355,-0.008456968,-0.012632996,0.999122620
41.723655,0.008605957,-1.433334351,0.586994171,-0.005038999,-0.013243347,0.997047424
41.761905,-0.044799805,-0.166854858,-0.092021942,0.000087954,-0.008970886,1.000709534
41.800208,0.138305664,-0.288925171,-0.175945282,-0.007480405,-0.011656433,1.000831604
41.814432,0.275634766,-1.013717651,0.022418976,-0.007358335,-0.016539246,0.996559143
41.829712,0.092529297,-1.189193726,0.037677765,-0.008823179,-0.016661316,0.995826721
41.867985,-0.090576172,-0.464401245,0.495441437,-0.004672788,-0.009825379,0.997535706
41.906232,-0.128723145,-0.121078491,-0.236980438,-0.000278257,-0.007506043,0.999855042
41.920429,-0.006652832,-0.861129761,-0.244609833,-0.001987241,-0.009459168,1.000343323
41.935715,0.107788086,-2.432785034,0.182636261,-0.001987241,-0.013365418,0.997901917
41.936475,0.107788086,-2.432785034,0.182636261,-0.001987241,-0.013365418,0.997901917
41.937072,0.107788086,-2.432785034,0.182636261,-0.001987241,-0.013365418,0.997901917
41.937696,0.107788086,-2.432785034,0.182636261,-0.001987241,-0.013365418,0.997901917
41.938285,0.107788086,-2.432785034,0.182636261,-0.001987241,-0.013365418,0.997901917
41.938894,0.107788086,-2.432785034,0.182636261,-0.001987241,-0.013365418,0.997901917
41.939483,0.107788086,-2.432785034,0.182636261,-0.001987241,-0.013365418,0.997901917
41.940110,0.107788086,-2.432785034,0.182636261,-0.001987241,-0.013365418,0.997901917
41.940700,0.107788086,-2.432785034,0.182636261,-0.001987241,-0.013365418,0.997901917
41.941322,0.107788086,-2.432785034,0.182636261,-0.001987241,-0.013365418,0.997901917
41.941911,0.107788086,-2.432785034,0.182636261,-0.001987241,-0.013365418,0.997901917
41.942540,0.107788086,-2.432785034,0.182636261,-0.001987241,-0.013365418,0.997901917
41.943131,0.107788086,-2.432785034,0.182636261,-0.001987241,-0.013365418,0.997901917
41.943753,0.229858398,-2.882919312,0.335224152,-0.000766538,-0.014219910,0.999122620
41.944343,0.229858398,-2.882919312,0.335224152,-0.000766538,-0.014219910,0.999122620
41.944966,0.229858398,-2.882919312,0.335224152,-0.000766538,-0.014219910,0.999122620
41.945559,0.229858398,-2.882919312,0.335224152,-0.000766538,-0.014219910,0.999122620
41.946180,0.229858398,-2.882919312,0.335224152,-0.000766538,-0.014219910,0.999122620
41.946780,0.229858398,-2.882919312,0.335224152,-0.000766538,-0.014219910,0.999122620
41.947395,0.229858398,-2.882919312,0.335224152,-0.000766538,-0.014219910,0.999122620
41.947982,0.229858398,-2.882919312,0.335224152,-0.000766538,-0.014219910,0.999122620
41.948609,0.229858398,-2.882919312,0.335224152,-0.000766538,-0.014219910,0.999122620
42.000454,-0.250793457,-0.891647339,-0.427715302,-0.010898374,-0.011656433,0.999244690
42.001299,-0.250793457,-0.891647339,-0.427715302,-0.010898374,-0.011656433,0.999244690
42.039385,-0.021911621,-2.051315308,0.510700226,-0.007236265,-0.006895691,0.999000549
42.053612,0.062011719,-1.929244995,0.548847198,0.000820376,-0.012999207,1.002296448
42.068950,0.000976562,-1.379928589,0.381000519,0.003505923,-0.015440613,1.001319885
42.107295,0.046752930,-0.006637573,-0.122539520,0.004116274,-0.011778504,0.999732971
42.145618,-0.212646484,-0.723800659,-0.282756805,-0.003207944,-0.009703308,0.994972229
42.159823,-0.273681641,-1.280746460,-0.198833466,-0.004916929,-0.009825379,0.997291565
42.175144,-0.212646484,-2.280197144,0.144489288,-0.008212827,-0.011046082,0.999977112
42.213381,0.054382324,-0.594100952,0.289447784,-0.003085874,-0.015928894,1.002296448
42.251669,-0.235534668,0.878372192,-0.008098602,0.003261782,-0.009459168,0.996559143
42.265885,-0.220275879,0.504531860,0.030048370,0.002529360,-0.008482605,0.996437073
42.281171,-0.220275879,0.107803345,0.052936554,0.002895571,-0.008238465,0.997413635
42.319376,-0.243164062,-1.509628296,0.068195343,0.002651431,-0.013975769,1.000343323
42.371758,0.123046875,-0.258407593,0.121601105,-0.006137632,-0.010801941,1.004005432
42.386109,0.252746582,-0.143966675,0.213153839,-0.003696226,-0.009825379,1.001319885
42.401438,0.145935059,0.474014282,0.220783234,0.001186587,-0.008970886,0.997413635
42.439657,0.016235352,0.580825806,-0.229351044,-0.000156187,-0.012877136,0.999732971
42.477908,0.062011719,-1.097640991,0.533588409,0.000698306,-0.015074402,0.996315002
42.492146,-0.075317383,-0.266036987,0.258930206,0.008144595,-0.013487488,0.996315002
42.507434,-0.159240723,0.329055786,-0.107280731,0.009121157,-0.011534363,0.996437073
42.545649,-0.121093750,-0.502548218,-0.389568329,-0.009433530,-0.010924011,1.001930237
42.583925,0.222229004,-2.387008667,0.487812042,-0.004550718,-0.014341980,1.000343323
42.584679,0.222229004,-2.387008667,0.487812042,-0.004550718,-0.014341980,1.000343323
42.585253,0.222229004,-2.387008667,0.487812042,-0.004550718,-0.014341980,1.000343323
42.585876,0.222229004,-2.387008667,0.487812042,-0.004550718,-0.014341980,1.000343323
42.586449,0.222229004,-2.387008667,0.487812042,-0.004550718,-0.014341980,1.000343323
42.587074,0.222229004,-2.387008667,0.487812042,-0.004550718,-0.014341980,1.000343323
42.587663,0.222229004,-2.387008667,0.487812042,-0.004550718,-0.014341980,1.000343323
42.588282,0.222229004,-2.387008667,0.487812042,-0.004550718,-0.014341980,1.000343323
42.588878,0.222229004,-2.387008667,0.487812042,-0.004550718,-0.014341980,1.000343323
42.589481,0.222229004,-2.387008667,0.487812042,-0.004550718,-0.014341980,1.000343323
42.590089,0.184082031,-2.158126831,0.487812042,-0.001987241,-0.015440613,0.999732971
42.605363,0.161193848,-1.860580444,0.335224152,0.001308657,-0.013853699,0.997291565
42.619600,0.046752930,-0.845870972,0.312335968,0.002285220,-0.012022644,0.993629456
42.657708,-0.197387695,0.573196411,0.167377472,0.008388735,-0.008604676,1.000709534
42.696026,0.138305664,0.725784302,-0.885478973,-0.004550718,-0.011290222,1.006690979
42.710265,0.443481445,-1.151046753,-0.099651337,-0.013095640,-0.015562683,0.999244690
42.725557,0.489257812,-1.898727417,0.381000519,-0.012119077,-0.015074402,0.996192932
42.726403,0.489257812,-1.898727417,0.381000519,-0.012119077,-0.015074402,0.996192932
42.727135,0.489257812,-1.898727417,0.381000519,-0.012119077,-0.015074402,0.996192932
42.727870,0.489257812,-1.898727417,0.381000519,-0.012119077,-0.015074402,0.996192932
42.728593,0.489257812,-1.898727417,0.381000519,-0.012119077,-0.015074402,0.996192932
42.729324,0.374816895,-2.058944702,0.739582062,-0.007358335,-0.015928894,0.994361877
42.729992,0.374816895,-2.058944702,0.739582062,-0.007358335,-0.015928894,0.994361877
42.730634,0.374816895,-2.058944702,0.739582062,-0.007358335,-0.015928894,0.994361877
42.731282,0.374816895,-2.058944702,0.739582062,-0.007358335,-0.015928894,0.994361877
42.731926,0.374816895,-2.058944702,0.739582062,-0.007358335,-0.015928894,0.994361877
42.748041,0.344299316,-1.646957397,0.815876007,-0.003207944,-0.014586121,0.991920471
42.748884,0.054382324,-0.678024292,0.640399933,0.003627993,-0.014708191,0.990821838
42.749489,0.054382324,-0.678024292,0.640399933,0.003627993,-0.014708191,0.990821838
42.750110,0.054382324,-0.678024292,0.640399933,0.003627993,-0.014708191,0.990821838
42.750698,0.054382324,-0.678024292,0.640399933,0.003627993,-0.014708191,0.990821838
42.751312,0.054382324,-0.678024292,0.640399933,0.003627993,-0.014708191,0.990821838
42.751903,0.054382324,-0.678024292,0.640399933,0.003627993,-0.014708191,0.990821838
42.789994,-0.578857422,0.748672485,-0.343791962,0.000210024,-0.010069519,0.999122620
42.828229,0.054382324,-2.417526245,0.373371124,0.006679751,-0.010557801,1.006446838
42.842411,0.206970215,-2.135238647,0.144489288,0.008877017,-0.013609558,1.005470276
42.857734,0.214599609,-1.509628296,-0.267498016,0.008144595,-0.012877136,1.003761292
42.895972,-0.044799805,-0.067672729,-0.236980438,-0.012241147,-0.013243347,0.999000549
42.934220,-0.121093750,0.634231567,0.312335968,-0.001254819,-0.010679871,1.001075745
42.948411,-0.159240723,1.145401001,-0.061504364,0.001430728,-0.009947449,1.001075745
42.963729,-0.205017090,0.893630981,-0.175945282,0.000332095,-0.011290222,1.001686096
43.001967,0.329040527,-1.830062866,0.655658722,0.004116274,-0.013487488,1.004615784
43.040223,-0.006652832,1.061477661,-0.656597137,0.008022524,-0.010679871,0.995460510
43.054436,-0.159240723,1.366653442,-0.877849579,0.001919009,-0.008970886,0.994728088
43.069755,-0.159240723,0.428237915,-0.587932587,-0.011386655,-0.011778504,0.997169495
43.107967,0.214599609,-0.784835815,0.724323273,-0.007480405,-0.015196472,1.007057190
43.161725,0.092529297,2.884902954,-0.298015594,0.002041079,-0.009825379,0.996925354
43.176051,0.023864746,2.503433228,-0.214092255,0.001186587,-0.009337097,0.997047424
43.191408,0.039123535,1.008071899,-0.053874969,-0.000034116,-0.010435730,0.995948792
43.229658,-0.082946777,-1.654586792,-0.030986786,-0.004062437,-0.015684754,0.999488831
43.267936,-0.075317383,-1.891098022,0.411518097,-0.005527280,-0.012877136,1.000953674
43.282163,-0.060058594,-0.960311890,0.365741730,-0.002963804,-0.011656433,1.001808167
43.297461,-0.082946777,1.214065552,-0.153057098,0.000820376,-0.010191590,1.000831604
43.335686,0.008605957,0.115432739,-0.137798309,-0.010776304,-0.011778504,1.000953674
43.373988,0.138305664,-1.875839233,0.808246613,-0.003207944,-0.015074402,0.999732971
43.388207,0.062011719,-0.441513062,0.175006866,0.004848696,-0.014464051,1.000343323
43.403532,-0.037170410,0.428237915,-0.145427704,0.004482485,-0.013731629,0.999122620
43.441777,0.077270508,-0.128707886,-0.145427704,-0.008945249,-0.009581238,0.999000549
43.480030,0.000976562,-0.517807007,0.052936554,-0.003085874,-0.013609558,0.998390198
43.480846,0.000976562,-0.517807007,0.052936554,-0.003085874,-0.013609558,0.998390198
43.481528,0.000976562,-0.517807007,0.052936554,-0.003085874,-0.013609558,0.998390198
43.482243,0.000976562,-0.517807007,0.052936554,-0.003085874,-0.013609558,0.998390198
43.482917,0.000976562,-0.517807007,0.052936554,-0.003085874,-0.013609558,0.998390198
43.483606,0.000976562,-0.517807007,0.052936554,-0.003085874,-0.013609558,0.998390198
43.484302,0.000976562,-0.517807007,0.052936554,-0.003085874,-0.013609558,0.998390198
43.484997,-0.090576172,-0.266036987,-0.168315887,-0.003574155,-0.014708191,0.999610901
43.485639,-0.090576172,-0.266036987,-0.168315887,-0.003574155,-0.014708191,0.999610901
43.486289,-0.090576172,-0.266036987,-0.168315887,-0.003574155,-0.014708191,0.999610901
43.501552,-0.128723145,-0.121078491,-0.259868622,-0.006992124,-0.015196472,0.999977112
43.515769,-0.105834961,-0.029525757,-0.008098602,-0.009921812,-0.013731629,0.999977112
43.553837,0.039123535,0.161209106,0.403888702,-0.001621030,-0.010924011,1.001441956
43.554587,0.092529297,0.451126099,0.197895050,0.001674868,-0.010435730,1.001564026
43.555230,0.092529297,0.451126099,0.197895050,0.001674868,-0.010435730,1.001564026
43.555859,0.092529297,0.451126099,0.197895050,0.001674868,-0.010435730,1.001564026
43.575769,0.039123535,0.763931274,-0.328533173,-0.000522397,-0.010069519,1.002906799
43.614153,0.107788086,-0.685653687,0.075824738,-0.006870054,-0.013731629,0.998023987
43.628361,0.084899902,-0.906906128,0.175006866,-0.006381772,-0.016173035,0.999244690
43.643628,0.000976562,-0.800094604,0.007160187,-0.005405210,-0.015318543,0.999855042
43.644439,0.000976562,-0.800094604,0.007160187,-0.005405210,-0.015318543,0.999855042
43.682572,-0.082946777,0.107803345,-0.008098602,-0.010043882,-0.011046082,0.999122620
43.720840,0.023864746,0.580825806,0.136859894,-0.002475522,-0.011046082,1.001930237
43.735060,0.115417480,0.374832153,-0.175945282,-0.002719663,-0.013609558,1.003028870
43.750390,0.046752930,0.107803345,-0.244609833,-0.004306577,-0.015074402,1.001686096
43.788635,0.046752930,-0.777206421,0.281818390,-0.006747983,-0.013487488,0.999977112
43.826879,-0.243164062,0.763931274,-0.267498016,-0.007602476,-0.008726746,1.000587463
43.841177,-0.235534668,0.550308228,-0.298015594,-0.008579038,-0.009215027,1.002662659
43.856556,-0.098205566,-0.372848511,0.167377472,-0.011874937,-0.011412293,1.003517151
43.912965,0.168823242,1.137771606,-0.320903778,-0.002719663,-0.013853699,0.999244690
43.951366,-0.189758301,-0.029525757,-0.099651337,-0.010898374,-0.009825379,0.994239807
43.965585,-0.212646484,-1.349411011,0.381000519,-0.009067319,-0.010313660,0.998512268
43.980877,-0.159240723,-1.509628296,0.396259308,-0.005893491,-0.011900574,1.002418518
44.019102,0.130676270,0.290908813,-0.313274384,-0.007602476,-0.013121277,1.008766174
44.057402,0.237487793,-0.151596069,0.213153839,-0.011508726,-0.012877136,0.996437073
44.071612,0.000976562,-0.594100952,0.258930206,-0.008334897,-0.012144715,0.993385315
44.087006,-0.105834961,-0.632247925,0.182636261,-0.006747983,-0.010801941,0.992774963
44.125249,-0.266052246,-0.060043335,0.091083527,-0.005161069,-0.012877136,1.007545471
44.163510,0.229858398,0.268020630,-0.244609833,-0.005893491,-0.013121277,1.002662659
44.177777,0.252746582,0.031509399,-0.221721649,-0.007724546,-0.012266785,1.000221252
44.193078,0.145935059,-0.624618530,-0.137798309,-0.011142515,-0.011900574,0.993629456
44.231316,-0.197387695,-1.364669800,0.258930206,-0.008579038,-0.013731629,0.998634338
44.269609,-0.220275879,-0.243148804,0.068195343,-0.006381772,-0.013853699,1.004371643
44.283854,-0.143981934,0.466384888,-0.046245575,-0.006503843,-0.012022644,1.006813049
44.299161,0.046752930,0.573196411,-0.053874969,-0.006992124,-0.011778504,1.006690979
44.337398,0.275634766,-0.151596069,-0.153057098,-0.007602476,-0.010679871,0.998268127
44.338144,0.275634766,-0.151596069,-0.153057098,-0.007602476,-0.010679871,0.998268127
44.338715,0.275634766,-0.151596069,-0.153057098,-0.007602476,-0.010679871,0.998268127
44.339321,0.275634766,-0.151596069,-0.153057098,-0.007602476,-0.010679871,0.998268127
44.339878,0.191711426,-0.487289429,-0.053874969,-0.008456968,-0.010924011,0.995948792
44.340476,0.191711426,-0.487289429,-0.053874969,-0.008456968,-0.010924011,0.995948792
44.341040,0.191711426,-0.487289429,-0.053874969,-0.008456968,-0.010924011,0.995948792
44.341646,0.191711426,-0.487289429,-0.053874969,-0.008456968,-0.010924011,0.995948792
44.342211,0.191711426,-0.487289429,-0.053874969,-0.008456968,-0.010924011,0.995948792
44.342812,0.191711426,-0.487289429,-0.053874969,-0.008456968,-0.010924011,0.995948792
44.343376,0.191711426,-0.487289429,-0.053874969,-0.008456968,-0.010924011,0.995948792
44.343974,0.191711426,-0.487289429,-0.053874969,-0.008456968,-0.010924011,0.995948792
44.344532,0.191711426,-0.487289429,-0.053874969,-0.008456968,-0.010924011,0.995948792
44.345138,0.191711426,-0.487289429,-0.053874969,-0.008456968,-0.010924011,0.995948792
44.345704,0.191711426,-0.487289429,-0.053874969,-0.008456968,-0.010924011,0.995948792
44.346311,0.191711426,-0.487289429,-0.053874969,-0.008456968,-0.010924011,0.995948792
44.346868,0.191711426,-0.487289429,-0.053874969,-0.008456968,-0.010924011,0.995948792
44.347473,0.191711426,-0.487289429,-0.053874969,-0.008456968,-0.010924011,0.995948792
44.348036,0.191711426,-0.487289429,-0.053874969,-0.008456968,-0.010924011,0.995948792
44.402395,-0.243164062,-0.662765503,0.159748077,-0.008823179,-0.013975769,1.001930237
44.416812,-0.082946777,-0.510177612,0.152118683,-0.007968687,-0.013365418,1.003639221
44.432182,-0.067687988,-0.182113647,0.037677765,-0.005771421,-0.010679871,1.005592346
44.470423,0.206970215,-0.266036987,-0.008098602,-0.010288022,-0.011290222,1.000221252
44.508690,0.077270508,-0.128707886,0.167377472,-0.008823179,-0.013853699,0.994606018
44.522915,-0.082946777,0.115432739,0.129230499,-0.007236265,-0.013365418,0.996803284
44.538203,-0.212646484,0.412979126,0.037677765,-0.006503843,-0.013243347,0.998878479
44.576386,-0.166870117,0.451126099,-0.175945282,-0.007114194,-0.011046082,1.007423401
44.614638,0.191711426,-1.273117065,0.121601105,-0.013217710,-0.010801941,1.003028870
44.628891,0.115417480,-1.296005249,0.274188995,-0.010776304,-0.013487488,0.999855042
44.644215,0.062011719,-1.044235229,0.236042023,-0.009921812,-0.013243347,0.998268127
44.695953,-0.227905273,0.374832153,-0.153057098,-0.007602476,-0.011534363,1.004005432
44.734342,0.153564453,-1.021347046,0.121601105,-0.009311460,-0.010924011,1.004859924
44.748596,0.229858398,-0.838241577,-0.000469208,-0.008212827,-0.013121277,1.001686096
44.763935,0.138305664,-0.525436401,-0.023357391,-0.009189390,-0.013243347,0.998634338
44.802167,-0.067687988,-0.189743042,0.098712921,-0.012485288,-0.013243347,0.999122620
44.840427,-0.174499512,-0.128707886,0.144489288,-0.005161069,-0.011534363,1.001319885
44.854655,-0.189758301,-0.052413940,-0.069133759,-0.005405210,-0.011656433,1.000953674
44.869966,-0.105834961,-0.029525757,-0.198833466,-0.007968687,-0.011656433,1.003517151
44.908195,0.351928711,-1.036605835,0.182636261,-0.012241147,-0.013609558,1.004859924
44.946470,0.054382324,0.527420044,-0.092021942,-0.006137632,-0.012266785,0.995826721
44.960683,-0.052429199,0.893630981,-0.305644989,-0.007358335,-0.011656433,0.994361877
44.975970,-0.319458008,0.260391235,-0.298015594,-0.012241147,-0.012022644,0.996559143
45.014175,-0.098205566,-1.860580444,0.487812042,-0.013217710,-0.012999207,1.005470276
45.052435,0.084899902,-0.266036987,-0.008098602,-0.002719663,-0.011412293,1.002174377
45.066672,0.039123535,0.962295532,-0.465862274,-0.007114194,-0.011656433,0.998023987
45.081967,0.084899902,0.908889771,-0.442974091,-0.010776304,-0.011534363,0.996070862
45.120178,-0.060058594,-0.876388550,0.167377472,-0.012363218,-0.012755066,1.001197815
45.158444,-0.044799805,-0.395736694,0.052936554,-0.009799741,-0.012755066,1.002174377
45.172686,0.039123535,-0.266036987,-0.008098602,-0.009433530,-0.013487488,1.001808167
45.188001,0.046752930,-0.105819702,0.037677765,-0.008334897,-0.012266785,1.001197815
45.226237,0.145935059,-0.273666382,0.007160187,-0.008212827,-0.011412293,1.000221252
45.226993,0.145935059,-0.273666382,0.007160187,-0.008212827,-0.011412293,1.000221252
45.227581,0.145935059,-0.273666382,0.007160187,-0.008212827,-0.011412293,1.000221252
45.228207,0.145935059,-0.273666382,0.007160187,-0.008212827,-0.011412293,1.000221252
45.228795,0.145935059,-0.273666382,0.007160187,-0.008212827,-0.011412293,1.000221252
45.229411,0.145935059,-0.273666382,0.007160187,-0.008212827,-0.011412293,1.000221252
45.229994,0.145935059,-0.273666382,0.007160187,-0.008212827,-0.011412293,1.000221252
45.230615,0.145935059,-0.273666382,0.007160187,-0.008212827,-0.011412293,1.000221252
45.231212,0.145935059,-0.273666382,0.007160187,-0.008212827,-0.011412293,1.000221252
45.231826,0.145935059,-0.273666382,0.007160187,-0.008212827,-0.011412293,1.000221252
45.232425,0.145935059,-0.273666382,0.007160187,-0.008212827,-0.011412293,1.000221252
45.233046,0.145935059,-0.273666382,0.007160187,-0.008212827,-0.011412293,1.000221252
45.233639,0.145935059,-0.273666382,0.007160187,-0.008212827,-0.011412293,1.000221252
45.234266,0.145935059,-0.273666382,0.007160187,-0.008212827,-0.011412293,1.000221252
45.234857,0.092529297,-0.349960327,-0.038616180,-0.007724546,-0.010679871,0.999000549
45.235474,0.092529297,-0.349960327,-0.038616180,-0.007724546,-0.010679871,0.999000549
45.236052,0.092529297,-0.349960327,-0.038616180,-0.007724546,-0.010679871,0.999000549
45.249626,0.008605957,-0.395736694,-0.038616180,-0.007358335,-0.011046082,0.999488831
45.287997,-0.037170410,-1.044235229,0.007160187,-0.012729429,-0.015196472,1.003273010
45.302251,0.016235352,-1.097640991,0.159748077,-0.012363218,-0.013487488,1.003150940
45.317574,0.130676270,-0.769577026,0.197895050,-0.011508726,-0.012999207,1.003150940
45.355814,0.016235352,-0.006637573,-0.053874969,-0.008823179,-0.009703308,0.999977112
45.394069,0.298522949,-0.647506714,0.113971710,-0.009311460,-0.012999207,1.002052307
45.408292,0.344299316,-0.609359741,0.129230499,-0.007236265,-0.013121277,1.000709534
45.408973,0.344299316,-0.609359741,0.129230499,-0.007236265,-0.013121277,1.000709534
45.409573,0.344299316,-0.609359741,0.129230499,-0.007236265,-0.013121277,1.000709534
45.410194,0.344299316,-0.609359741,0.129230499,-0.007236265,-0.013121277,1.000709534
45.410799,0.344299316,-0.609359741,0.129230499,-0.007236265,-0.013121277,1.000709534
45.411409,0.344299316,-0.609359741,0.129230499,-0.007236265,-0.013121277,1.000709534
45.440617,0.077270508,-0.212631226,-0.153057098,-0.007724546,-0.013365418,0.993995667
45.479005,-0.372863770,-0.807723999,0.075824738,-0.013461851,-0.010069519,1.001808167
45.517305,-0.052429199,-0.548324585,0.083454132,-0.007480405,-0.010801941,1.009864807
45.531562,0.130676270,-0.304183960,-0.023357391,-0.007602476,-0.012510926,1.008277893
45.546849,0.229858398,-0.288925171,-0.099651337,-0.009189390,-0.012510926,1.002296448
45.585099,0.016235352,-0.174484253,0.068195343,-0.006747983,-0.012022644,0.996681213
45.623379,-0.349975586,-0.327072144,-0.160686493,-0.011997007,-0.012144715,1.002906799
45.637611,-0.235534668,-0.739059448,-0.061504364,-0.012851499,-0.010924011,1.004737854
45.652937,-0.037170410,-1.074752808,0.220783234,-0.011264585,-0.011900574,1.005470276
45.691181,0.214599609,-0.143966675,0.113971710,-0.007236265,-0.012266785,1.006568909
45.729461,0.046752930,0.252761841,-0.160686493,-0.012729429,-0.012632996,0.996070862
45.743682,-0.090576172,-0.571212769,0.182636261,-0.009921812,-0.011900574,0.995704651
45.758959,-0.121093750,-0.899276733,0.251300812,-0.009189390,-0.012999207,0.996070862
45.797177,-0.121093750,-0.250778198,-0.236980438,-0.008701108,-0.011168152,1.006690979
45.835441,0.237487793,-0.433883667,0.144489288,-0.012973569,-0.011900574,1.001930237
45.849685,0.268005371,-0.426254272,0.236042023,-0.011020444,-0.011656433,0.999732971
45.864970,0.115417480,-0.006637573,0.075824738,-0.008945249,-0.013243347,0.993995667
45.903180,-0.250793457,0.214614868,-0.015727997,-0.011142515,-0.012266785,1.002418518
45.941443,-0.014282227,-1.135787964,0.159748077,-0.008579038,-0.013243347,1.003761292
45.955687,0.069641113,-1.173934937,0.220783234,-0.007358335,-0.012877136,1.004371643
45.970988,0.153564453,-0.853500366,0.052936554,-0.007846616,-0.010924011,1.001075745
46.009229,0.016235352,-0.128707886,-0.160686493,-0.010165952,-0.011534363,0.999977112
46.009959,-0.014282227,-0.143966675,-0.267498016,-0.011508726,-0.012144715,1.000099182
46.010546,-0.014282227,-0.143966675,-0.267498016,-0.011508726,-0.012144715,1.000099182
46.011174,-0.014282227,-0.143966675,-0.267498016,-0.011508726,-0.012144715,1.000099182
46.011779,-0.014282227,-0.143966675,-0.267498016,-0.011508726,-0.012144715,1.000099182
46.012393,-0.014282227,-0.143966675,-0.267498016,-0.011508726,-0.012144715,1.000099182
46.012984,-0.014282227,-0.143966675,-0.267498016,-0.011508726,-0.012144715,1.000099182
46.013608,-0.014282227,-0.143966675,-0.267498016,-0.011508726,-0.012144715,1.000099182
46.014206,-0.014282227,-0.143966675,-0.267498016,-0.011508726,-0.012144715,1.000099182
46.014832,-0.014282227,-0.143966675,-0.267498016,-0.011508726,-0.012144715,1.000099182
46.015420,-0.014282227,-0.143966675,-0.267498016,-0.011508726,-0.012144715,1.000099182
46.016047,-0.014282227,-0.143966675,-0.267498016,-0.011508726,-0.012144715,1.000099182
46.016630,-0.014282227,-0.143966675,-0.267498016,-0.011508726,-0.012144715,1.000099182
46.017256,-0.014282227,-0.143966675,-0.267498016,-0.011508726,-0.012144715,1.000099182
46.017849,-0.014282227,-0.143966675,-0.267498016,-0.011508726,-0.012144715,1.000099182
46.031898,-0.075317383,-0.792465210,-0.084392548,-0.013950132,-0.013487488,1.001930237
46.032737,-0.075317383,-0.792465210,-0.084392548,-0.013950132,-0.013487488,1.001930237
46.033344,-0.075317383,-0.792465210,-0.084392548,-0.013950132,-0.013487488,1.001930237
46.033960,-0.075317383,-0.792465210,-0.084392548,-0.013950132,-0.013487488,1.001930237
46.034551,-0.075317383,-0.792465210,-0.084392548,-0.013950132,-0.013487488,1.001930237
46.035180,-0.075317383,-0.792465210,-0.084392548,-0.013950132,-0.013487488,1.001930237
46.035773,-0.075317383,-0.792465210,-0.084392548,-0.013950132,-0.013487488,1.001930237
46.036402,-0.075317383,-0.792465210,-0.084392548,-0.013950132,-0.013487488,1.001930237
46.074477,-0.060058594,-0.990829468,0.358112335,-0.009799741,-0.012388855,1.002052307
46.088715,-0.037170410,-0.426254272,0.266559601,-0.007724546,-0.012144715,1.001930237
46.104038,0.016235352,0.771560669,-0.084392548,-0.005527280,-0.011656433,1.003028870
46.142281,0.092529297,-0.571212769,-0.053874969,-0.013339780,-0.010924011,0.999244690
46.180530,0.100158691,-0.914535522,0.365741730,-0.007480405,-0.013609558,1.000099182
46.194787,0.054382324,-0.205001831,0.121601105,-0.005893491,-0.013731629,1.000587463
46.223504,-0.075317383,0.733413696,-0.389568329,-0.010654233,-0.012266785,1.000953674
46.261857,0.077270508,-0.769577026,0.335224152,-0.010776304,-0.011534363,0.999122620
46.300176,-0.060058594,0.145950317,-0.366680145,-0.009555601,-0.012755066,0.999732971
46.314388,-0.067687988,0.046768188,-0.366680145,-0.013583921,-0.013731629,1.002418518
46.329712,-0.021911621,-0.616989136,0.091083527,-0.015903257,-0.013121277,1.001564026
46.367983,-0.014282227,0.092544556,0.060565948,-0.005527280,-0.010924011,1.004005432
46.406277,-0.098205566,0.130691528,-0.435344696,-0.011997007,-0.010557801,1.002540588
46.420519,0.062011719,-1.067123413,0.205524445,-0.015781187,-0.011534363,1.001075745
46.435833,0.107788086,-1.448593140,0.457294464,-0.013583921,-0.013121277,1.000465393
46.474088,-0.105834961,0.023880005,-0.298015594,-0.005405210,-0.012266785,1.002418518
46.512409,0.084899902,-0.441513062,0.068195343,-0.017001890,-0.011290222,1.003395081
46.526656,0.069641113,-0.502548218,0.251300812,-0.015292905,-0.010557801,1.001808167
46.541973,0.092529297,-0.304183960,0.205524445,-0.009189390,-0.012510926,0.999000549
46.580190,-0.067687988,-0.494918823,-0.015727997,-0.013583921,-0.013487488,1.003028870
46.618460,-0.021911621,-0.594100952,0.197895050,-0.005283140,-0.012144715,1.000709534
46.632705,-0.060058594,-0.281295776,-0.030986786,-0.005283140,-0.011168152,1.001686096
46.661665,0.016235352,-0.197372437,-0.351421356,-0.013828062,-0.010191590,0.999977112
46.700023,0.077270508,-1.105270386,0.342853546,-0.011264585,-0.014341980,1.001197815
46.738326,-0.143981934,0.039138794,-0.137798309,-0.011386655,-0.013609558,0.998756409
46.752561,-0.121093750,0.023880005,-0.099651337,-0.012607358,-0.012022644,0.999000549
46.767846,-0.060058594,-0.304183960,0.190265656,-0.011508726,-0.010924011,0.999977112
46.806057,0.016235352,-0.502548218,-0.061504364,-0.007724546,-0.012755066,1.003761292
46.806813,0.016235352,-0.502548218,-0.061504364,-0.007724546,-0.012755066,1.003761292
46.807431,0.016235352,-0.502548218,-0.061504364,-0.007724546,-0.012755066,1.003761292
46.808062,0.016235352,-0.502548218,-0.061504364,-0.007724546,-0.012755066,1.003761292
46.808660,0.016235352,-0.502548218,-0.061504364,-0.007724546,-0.012755066,1.003761292
46.809287,0.016235352,-0.502548218,-0.061504364,-0.007724546,-0.012755066,1.003761292
46.809895,0.016235352,-0.502548218,-0.061504364,-0.007724546,-0.012755066,1.003761292
46.810512,0.016235352,-0.502548218,-0.061504364,-0.007724546,-0.012755066,1.003761292
46.811126,0.016235352,-0.502548218,-0.061504364,-0.007724546,-0.012755066,1.003761292
46.811744,0.016235352,-0.502548218,-0.061504364,-0.007724546,-0.012755066,1.003761292
46.812352,0.016235352,-0.502548218,-0.061504364,-0.007724546,-0.012755066,1.003761292
46.812979,0.016235352,-0.502548218,-0.061504364,-0.007724546,-0.012755066,1.003761292
46.865115,0.039123535,-0.678024292,0.113971710,-0.013583921,-0.013365418,0.997779846
46.879415,0.023864746,-0.777206421,0.167377472,-0.012363218,-0.012388855,0.997047424
46.894720,-0.105834961,-0.800094604,0.220783234,-0.011630796,-0.009947449,1.001564026
46.932999,-0.060058594,-0.311813354,0.144489288,-0.008823179,-0.011656433,1.003028870
46.971298,0.153564453,-0.243148804,-0.122539520,-0.011142515,-0.015318543,1.000831604
47.000844,0.107788086,-0.517807007,0.098712921,-0.011142515,-0.012266785,1.000221252
47.015161,-0.052429199,-0.266036987,0.083454132,-0.010165952,-0.011412293,0.997657776
47.015853,-0.052429199,-0.266036987,0.083454132,-0.010165952,-0.011412293,0.997657776
47.016457,-0.052429199,-0.266036987,0.083454132,-0.010165952,-0.011412293,0.997657776
47.054574,-0.128723145,-0.578842163,-0.038616180,-0.013950132,-0.011412293,1.004859924
47.092864,0.100158691,-0.555953979,0.274188995,-0.010165952,-0.012022644,1.002906799
47.107096,0.123046875,-0.159225464,0.060565948,-0.006870054,-0.013487488,1.002418518
47.122406,0.084899902,0.077285767,-0.023357391,-0.007480405,-0.012877136,1.000953674
47.160661,-0.006652832,-0.983200073,0.037677765,-0.013583921,-0.010679871,1.001075745
47.198949,-0.014282227,-0.250778198,-0.069133759,-0.008334897,-0.012266785,1.002052307
47.213183,-0.159240723,0.031509399,-0.359050751,-0.012729429,-0.013365418,1.002052307
47.228510,-0.075317383,-0.227890015,-0.259868622,-0.016147397,-0.013487488,1.003150940
47.266787,0.161193848,-0.761947632,0.510700226,-0.007480405,-0.011046082,1.001930237
47.305081,-0.227905273,0.626602173,-0.641338348,-0.007724546,-0.012266785,0.996925354
47.319307,-0.212646484,-0.121078491,-0.534526825,-0.012851499,-0.012388855,0.997779846
47.334567,-0.098205566,-2.272567749,0.297077179,-0.017246030,-0.012266785,0.999122620
47.372806,-0.029541016,-1.204452515,0.220783234,-0.002109312,-0.011290222,1.006568909
47.411100,0.023864746,0.115432739,-0.557415009,-0.010776304,-0.012632996,1.002052307
47.425360,0.153564453,-0.662765503,-0.099651337,-0.019199155,-0.012022644,1.000343323
47.440664,0.153564453,-0.998458862,0.274188995,-0.016269468,-0.012144715,0.998878479
47.478886,-0.067687988,-0.113449097,0.022418976,-0.006259702,-0.013731629,1.002296448
47.517173,0.107788086,-0.105819702,0.220783234,-0.009555601,-0.010069519,1.001686096
47.531410,0.115417480,-0.060043335,0.266559601,-0.004428647,-0.011900574,0.999488831
47.546715,0.084899902,0.077285767,0.045307159,-0.002475522,-0.013121277,0.998268127
47.584962,0.008605957,-1.158676147,-0.145427704,-0.016513608,-0.013975769,1.000953674
47.585715,0.008605957,-1.158676147,-0.145427704,-0.016513608,-0.013975769,1.000953674
47.586338,0.008605957,-1.158676147,-0.145427704,-0.016513608,-0.013975769,1.000953674
47.586966,0.008605957,-1.158676147,-0.145427704,-0.016513608,-0.013975769,1.000953674
47.587572,0.008605957,-1.158676147,-0.145427704,-0.016513608,-0.013975769,1.000953674
47.588202,0.008605957,-1.158676147,-0.145427704,-0.016513608,-0.013975769,1.000953674
47.588809,0.008605957,-1.158676147,-0.145427704,-0.016513608,-0.013975769,1.000953674
47.589427,0.008605957,-1.158676147,-0.145427704,-0.016513608,-0.013975769,1.000953674
47.590036,0.008605957,-1.158676147,-0.145427704,-0.016513608,-0.013975769,1.000953674
47.590656,0.008605957,-1.158676147,-0.145427704,-0.016513608,-0.013975769,1.000953674
47.591269,-0.029541016,-1.692733765,0.220783234,-0.016757749,-0.012388855,1.001564026
47.591896,-0.029541016,-1.692733765,0.220783234,-0.016757749,-0.012388855,1.001564026
47.592492,-0.029541016,-1.692733765,0.220783234,-0.016757749,-0.012388855,1.001564026
47.593127,-0.029541016,-1.692733765,0.220783234,-0.016757749,-0.012388855,1.001564026
47.593733,-0.029541016,-1.692733765,0.220783234,-0.016757749,-0.012388855,1.001564026
47.594360,-0.029541016,-1.692733765,0.220783234,-0.016757749,-0.012388855,1.001564026
47.594964,-0.029541016,-1.692733765,0.220783234,-0.016757749,-0.012388855,1.001564026
47.595592,-0.029541016,-1.692733765,0.220783234,-0.016757749,-0.012388855,1.001564026
47.596196,-0.029541016,-1.692733765,0.220783234,-0.016757749,-0.012388855,1.001564026
47.649777,-0.243164062,0.725784302,-0.267498016,-0.003085874,-0.012877136,0.998756409
47.664171,-0.288940430,0.359573364,-0.549785614,-0.012485288,-0.011656433,1.000343323
47.679554,-0.159240723,-0.426254272,-0.282756805,-0.015903257,-0.012144715,1.001319885
47.717808,0.199340820,-1.151046753,0.533588409,-0.004428647,-0.012877136,1.002418518
47.756079,-0.090576172,0.489273071,-0.587932587,-0.012241147,-0.013243347,0.996681213
47.787262,0.046752930,-1.318893433,0.571735382,-0.014682554,-0.011900574,1.002662659
47.801587,0.077270508,-1.204452515,0.510700226,-0.004550718,-0.013975769,1.003639221
47.802302,0.077270508,-1.204452515,0.510700226,-0.004550718,-0.013975769,1.003639221
47.802919,0.077270508,-1.204452515,0.510700226,-0.004550718,-0.013975769,1.003639221
47.803550,0.077270508,-1.204452515,0.510700226,-0.004550718,-0.013975769,1.003639221
47.804171,0.077270508,-1.204452515,0.510700226,-0.004550718,-0.013975769,1.003639221
47.804808,0.077270508,-1.204452515,0.510700226,-0.004550718,-0.013975769,1.003639221
47.805415,0.077270508,-1.204452515,0.510700226,-0.004550718,-0.013975769,1.003639221
47.806057,0.077270508,-1.204452515,0.510700226,-0.004550718,-0.013975769,1.003639221
47.807878,0.077270508,-1.204452515,0.510700226,-0.004550718,-0.013975769,1.003639221
47.808625,0.077270508,-1.204452515,0.510700226,-0.004550718,-0.013975769,1.003639221
47.809245,0.077270508,-1.204452515,0.510700226,-0.004550718,-0.013975769,1.003639221
47.809867,0.016235352,-0.639877319,0.121601105,-0.003085874,-0.013121277,1.004249573
47.847946,0.008605957,0.130691528,-0.427715302,-0.014438413,-0.012266785,1.002052307
47.886241,0.069641113,-0.273666382,0.579364777,-0.006747983,-0.012877136,1.003639221
47.900451,-0.021911621,0.748672485,-0.046245575,-0.001132749,-0.012388855,1.002296448
47.915773,-0.052429199,1.008071899,-0.420085907,-0.003818296,-0.011656433,1.001197815
47.954007,0.100158691,-1.135787964,0.258930206,-0.015170835,-0.012266785,1.001808167
47.992295,-0.006652832,-0.388107300,-0.168315887,-0.006625913,-0.012999207,1.003273010
48.006510,-0.060058594,-0.136337280,-0.282756805,-0.010654233,-0.012632996,1.002052307
48.021801,-0.006652832,-0.128707886,-0.076763153,-0.015048765,-0.010924011,1.000221252
48.060058,0.008605957,0.245132446,0.129230499,-0.002963804,-0.013609558,1.002784729
48.098351,-0.014282227,-0.647506714,-0.236980438,-0.015781187,-0.012999207,1.000953674
48.112576,0.046752930,-1.280746460,0.152118683,-0.017001890,-0.011412293,1.000099182
48.127868,0.046752930,-1.509628296,0.625141144,-0.009433530,-0.011412293,0.997291565
48.166123,-0.174499512,0.382461548,-0.252239227,-0.004184507,-0.013365418,1.004249573
48.204421,0.138305664,-0.334701538,0.030048370,-0.017001890,-0.012388855,1.002418518
48.218644,0.115417480,-1.067123413,0.442035675,-0.010898374,-0.012877136,0.997901917
48.233950,0.168823242,-0.983200073,0.365741730,-0.007968687,-0.013243347,0.996681213
48.272182,-0.105834961,-0.311813354,-0.198833466,-0.013095640,-0.012388855,1.002174377
48.310458,-0.067687988,-0.266036987,0.258930206,-0.005893491,-0.011656433,1.001197815
48.324680,-0.113464355,0.092544556,0.014789581,-0.005038999,-0.012144715,1.001441956
48.339986,-0.052429199,0.290908813,-0.412456512,-0.009433530,-0.011900574,1.002296448
48.378224,0.268005371,-1.425704956,0.442035675,-0.013828062,-0.012755066,1.001441956
48.378983,0.268005371,-1.425704956,0.442035675,-0.013828062,-0.012755066,1.001441956
48.379574,0.268005371,-1.425704956,0.442035675,-0.013828062,-0.012755066,1.001441956
48.380204,0.268005371,-1.425704956,0.442035675,-0.013828062,-0.012755066,1.001441956
48.380804,0.268005371,-1.425704956,0.442035675,-0.013828062,-0.012755066,1.001441956
48.381417,0.268005371,-1.425704956,0.442035675,-0.013828062,-0.012755066,1.001441956
48.382020,0.268005371,-1.425704956,0.442035675,-0.013828062,-0.012755066,1.001441956
48.382643,0.268005371,-1.425704956,0.442035675,-0.013828062,-0.012755066,1.001441956
48.383242,0.268005371,-1.425704956,0.442035675,-0.013828062,-0.012755066,1.001441956
48.383855,0.268005371,-1.425704956,0.442035675,-0.013828062,-0.012755066,1.001441956
48.438008,-0.281311035,0.405349731,-0.465862274,-0.011752866,-0.012999207,0.999732971
48.452299,-0.174499512,-0.258407593,-0.275127411,-0.016269468,-0.011778504,1.002052307
48.467619,0.084899902,-1.471481323,0.442035675,-0.013461851,-0.011534363,1.003883362
48.505856,0.054382324,0.504531860,-0.305644989,-0.004794858,-0.012999207,1.000099182
48.560341,-0.037170410,-0.960311890,0.358112335,-0.013950132,-0.012999207,0.997901917
48.574655,-0.060058594,-1.219711304,0.503070831,-0.009311460,-0.012388855,0.999977112
48.590016,-0.105834961,-0.861129761,0.144489288,-0.004672788,-0.011290222,1.005104065
48.628265,0.214599609,0.000991821,-0.137798309,-0.014316343,-0.012022644,1.002174377
48.666538,0.130676270,0.077285767,0.075824738,-0.007724546,-0.014464051,0.995704651
48.680769,-0.006652832,0.214614868,-0.046245575,-0.008090757,-0.014219910,0.997169495
48.696020,-0.151611328,-0.151596069,-0.221721649,-0.013217710,-0.013487488,0.997535706
48.696749,-0.151611328,-0.151596069,-0.221721649,-0.013217710,-0.013487488,0.997535706
48.697330,-0.151611328,-0.151596069,-0.221721649,-0.013217710,-0.013487488,0.997535706
48.697935,-0.151611328,-0.151596069,-0.221721649,-0.013217710,-0.013487488,0.997535706
48.698503,-0.151611328,-0.151596069,-0.221721649,-0.013217710,-0.013487488,0.997535706
48.699112,-0.151611328,-0.151596069,-0.221721649,-0.013217710,-0.013487488,0.997535706
48.699688,-0.151611328,-0.151596069,-0.221721649,-0.013217710,-0.013487488,0.997535706
48.700292,-0.151611328,-0.151596069,-0.221721649,-0.013217710,-0.013487488,0.997535706
48.700867,-0.151611328,-0.151596069,-0.221721649,-0.013217710,-0.013487488,0.997535706
48.701462,-0.151611328,-0.151596069,-0.221721649,-0.013217710,-0.013487488,0.997535706
48.702043,-0.151611328,-0.151596069,-0.221721649,-0.013217710,-0.013487488,0.997535706
48.740141,-0.044799805,-1.013717651,0.464923859,-0.009433530,-0.010557801,1.005836487
48.778418,0.176452637,0.847854614,-0.412456512,-0.007236265,-0.010924011,1.006324768
48.792648,0.206970215,0.863113403,-0.488750458,-0.011264585,-0.012266785,1.004005432
48.807942,0.275634766,0.145950317,-0.145427704,-0.016391538,-0.013121277,0.995704651
48.846181,-0.143981934,-0.655136108,0.152118683,-0.011020444,-0.013243347,0.998268127
48.884438,-0.052429199,0.199356079,0.083454132,-0.012241147,-0.011168152,1.007423401
48.898680,0.008605957,0.290908813,0.083454132,-0.011874937,-0.011534363,1.006935120
48.913964,0.206970215,0.252761841,-0.023357391,-0.008456968,-0.013243347,1.001319885
48.952196,0.145935059,-0.479660034,-0.168315887,-0.012729429,-0.013243347,0.998512268
48.990435,-0.182128906,-0.937423706,0.228412628,-0.013461851,-0.012510926,0.998512268
49.004651,-0.296569824,-0.334701538,0.113971710,-0.011142515,-0.011778504,1.001686096
49.019945,-0.258422852,-0.067672729,-0.076763153,-0.009921812,-0.011656433,1.003273010
49.058184,0.245117188,-0.395736694,0.213153839,-0.012485288,-0.011778504,1.006446838
49.096593,0.123046875,-0.166854858,-0.130168915,-0.009189390,-0.013975769,0.996803284
49.110844,-0.014282227,-0.082931519,-0.236980438,-0.011020444,-0.013365418,0.995704651
49.126122,-0.174499512,-0.311813354,-0.069133759,-0.014682554,-0.012266785,0.996559143
49.164346,-0.113464355,-0.235519409,0.098712921,-0.011508726,-0.012877136,1.005470276
49.165095,-0.113464355,-0.235519409,0.098712921,-0.011508726,-0.012877136,1.005470276
49.165693,-0.113464355,-0.235519409,0.098712921,-0.011508726,-0.012877136,1.005470276
49.166320,-0.113464355,-0.235519409,0.098712921,-0.011508726,-0.012877136,1.005470276
49.166905,-0.113464355,-0.235519409,0.098712921,-0.011508726,-0.012877136,1.005470276
49.167515,-0.113464355,-0.235519409,0.098712921,-0.011508726,-0.012877136,1.005470276
49.168107,-0.113464355,-0.235519409,0.098712921,-0.011508726,-0.012877136,1.005470276
49.168735,-0.113464355,-0.235519409,0.098712921,-0.011508726,-0.012877136,1.005470276
49.169320,-0.113464355,-0.235519409,0.098712921,-0.011508726,-0.012877136,1.005470276
49.169932,-0.113464355,-0.235519409,0.098712921,-0.011508726,-0.012877136,1.005470276
49.170538,-0.113464355,-0.235519409,0.098712921,-0.011508726,-0.012877136,1.005470276
49.182792,0.008605957,0.069656372,-0.084392548,-0.012851499,-0.011778504,1.007179260
49.184841,0.008605957,0.069656372,-0.084392548,-0.012851499,-0.011778504,1.007179260
49.185608,0.008605957,0.069656372,-0.084392548,-0.012851499,-0.011778504,1.007179260
49.186271,0.008605957,0.069656372,-0.084392548,-0.012851499,-0.011778504,1.007179260
49.186917,0.008605957,0.069656372,-0.084392548,-0.012851499,-0.011778504,1.007179260
49.225067,0.260375977,-0.266036987,0.274188995,-0.014194272,-0.011900574,0.998268127
49.239283,0.191711426,-0.159225464,0.297077179,-0.011997007,-0.011534363,0.995948792
49.254562,-0.044799805,0.374832153,0.007160187,-0.008090757,-0.012999207,0.995338440
49.292756,-0.151611328,-0.494918823,-0.092021942,-0.015414976,-0.014097840,1.002418518
49.342863,0.260375977,-0.357589722,0.030048370,-0.010043882,-0.011656433,1.001197815
49.357174,0.153564453,-0.121078491,-0.061504364,-0.009311460,-0.012144715,1.001319885
49.372556,0.046752930,-0.006637573,-0.183574677,-0.014438413,-0.011778504,0.999732971
49.410791,0.016235352,-0.426254272,0.190265656,-0.013950132,-0.013243347,0.998756409
49.449041,-0.121093750,0.138320923,-0.153057098,-0.012363218,-0.012877136,1.001441956
49.449809,-0.121093750,0.138320923,-0.153057098,-0.012363218,-0.012877136,1.001441956
49.450397,-0.052429199,0.138320923,-0.168315887,-0.014560483,-0.012388855,1.004127502
49.451036,-0.052429199,0.138320923,-0.168315887,-0.014560483,-0.012388855,1.004127502
49.451618,-0.052429199,0.138320923,-0.168315887,-0.014560483,-0.012388855,1.004127502
49.452236,-0.052429199,0.138320923,-0.168315887,-0.014560483,-0.012388855,1.004127502
49.452840,-0.052429199,0.138320923,-0.168315887,-0.014560483,-0.012388855,1.004127502
49.453441,-0.052429199,0.138320923,-0.168315887,-0.014560483,-0.012388855,1.004127502
49.454047,-0.052429199,0.138320923,-0.168315887,-0.014560483,-0.012388855,1.004127502
49.454659,-0.052429199,0.138320923,-0.168315887,-0.014560483,-0.012388855,1.004127502
49.455250,-0.052429199,0.138320923,-0.168315887,-0.014560483,-0.012388855,1.004127502
49.470549,0.092529297,-0.258407593,0.075824738,-0.017123960,-0.010924011,1.005592346
49.484777,0.145935059,-0.426254272,0.228412628,-0.015781187,-0.010069519,1.002418518
49.485429,0.145935059,-0.426254272,0.228412628,-0.015781187,-0.010069519,1.002418518
49.486034,0.145935059,-0.426254272,0.228412628,-0.015781187,-0.010069519,1.002418518
49.486653,0.145935059,-0.426254272,0.228412628,-0.015781187,-0.010069519,1.002418518
49.487243,0.145935059,-0.426254272,0.228412628,-0.015781187,-0.010069519,1.002418518
49.487862,0.145935059,-0.426254272,0.228412628,-0.015781187,-0.010069519,1.002418518
49.488450,0.145935059,-0.426254272,0.228412628,-0.015781187,-0.010069519,1.002418518
49.489067,0.145935059,-0.426254272,0.228412628,-0.015781187,-0.010069519,1.002418518
49.490865,0.214599609,-0.441513062,0.335224152,-0.012973569,-0.010801941,1.001075745
49.491603,0.214599609,-0.441513062,0.335224152,-0.012973569,-0.010801941,1.001075745
49.492205,0.214599609,-0.441513062,0.335224152,-0.012973569,-0.010801941,1.001075745
49.492814,0.214599609,-0.441513062,0.335224152,-0.012973569,-0.010801941,1.001075745
49.493418,0.214599609,-0.441513062,0.335224152,-0.012973569,-0.010801941,1.001075745
49.494040,0.214599609,-0.441513062,0.335224152,-0.012973569,-0.010801941,1.001075745
49.494639,0.214599609,-0.441513062,0.335224152,-0.012973569,-0.010801941,1.001075745
49.495259,0.214599609,-0.441513062,0.335224152,-0.012973569,-0.010801941,1.001075745
49.533318,-0.021911621,0.336685181,-0.259868622,-0.013461851,-0.013365418,1.001564026
49.571619,-0.105834961,-0.655136108,0.167377472,-0.015659116,-0.012877136,1.003517151
49.585862,-0.067687988,-0.800094604,0.213153839,-0.013950132,-0.012632996,1.003761292
49.601178,0.039123535,-0.693283081,0.075824738,-0.013095640,-0.012144715,1.002296448
49.639414,0.206970215,-0.266036987,0.045307159,-0.012851499,-0.010679871,1.001564026
49.677704,-0.014282227,-0.014266968,-0.015727997,-0.011752866,-0.012388855,0.999610901
49.705151,-0.113464355,-0.410995483,-0.153057098,-0.016269468,-0.013853699,1.002052307
49.719456,-0.082946777,-1.128158569,0.243671417,-0.018832944,-0.012144715,1.002418518
49.757597,0.100158691,-0.784835815,0.327594757,-0.008090757,-0.009581238,1.006935120
49.795892,0.084899902,0.527420044,-0.572673798,-0.012241147,-0.012022644,0.998634338
49.810111,0.054382324,-0.533065796,-0.168315887,-0.021030210,-0.014952332,0.997657776
49.825409,0.016235352,-1.166305542,0.045307159,-0.021640562,-0.013731629,0.996803284
49.863623,-0.128723145,-1.181564331,0.319965363,-0.009555601,-0.011656433,1.002906799
49.864388,-0.128723145,-1.181564331,0.319965363,-0.009555601,-0.011656433,1.002906799
49.864967,-0.128723145,-1.181564331,0.319965363,-0.009555601,-0.011656433,1.002906799
49.865595,-0.128723145,-1.181564331,0.319965363,-0.009555601,-0.011656433,1.002906799
49.866170,-0.128723145,-1.181564331,0.319965363,-0.009555601,-0.011656433,1.002906799
49.866789,-0.128723145,-1.181564331,0.319965363,-0.009555601,-0.011656433,1.002906799
49.867360,-0.128723145,-1.181564331,0.319965363,-0.009555601,-0.011656433,1.002906799
49.867992,-0.197387695,-0.624618530,0.060565948,-0.007846616,-0.010679871,1.004737854
49.868568,-0.197387695,-0.624618530,0.060565948,-0.007846616,-0.010679871,1.004737854
49.869187,-0.197387695,-0.624618530,0.060565948,-0.007846616,-0.010679871,1.004737854
49.869784,-0.197387695,-0.624618530,0.060565948,-0.007846616,-0.010679871,1.004737854
49.870396,-0.197387695,-0.624618530,0.060565948,-0.007846616,-0.010679871,1.004737854
49.870967,-0.197387695,-0.624618530,0.060565948,-0.007846616,-0.010679871,1.004737854
49.871597,-0.197387695,-0.624618530,0.060565948,-0.007846616,-0.010679871,1.004737854
49.872175,-0.197387695,-0.624618530,0.060565948,-0.007846616,-0.010679871,1.004737854
49.872797,-0.197387695,-0.624618530,0.060565948,-0.007846616,-0.010679871,1.004737854
49.873371,-0.197387695,-0.624618530,0.060565948,-0.007846616,-0.010679871,1.004737854
49.873996,-0.197387695,-0.624618530,0.060565948,-0.007846616,-0.010679871,1.004737854
49.874568,-0.197387695,-0.624618530,0.060565948,-0.007846616,-0.010679871,1.004737854
49.875192,-0.197387695,-0.624618530,0.060565948,-0.007846616,-0.010679871,1.004737854
49.875786,-0.197387695,-0.624618530,0.060565948,-0.007846616,-0.010679871,1.004737854
49.876396,-0.197387695,-0.624618530,0.060565948,-0.007846616,-0.010679871,1.004737854
49.914466,0.092529297,-0.098190308,-0.099651337,-0.014682554,-0.012510926,1.002662659
49.928698,0.138305664,-0.739059448,0.014789581,-0.013828062,-0.014830261,0.998390198
49.944001,0.138305664,-1.067123413,0.037677765,-0.013339780,-0.013975769,0.997413635
49.982241,-0.067687988,-0.845870972,-0.046245575,-0.014316343,-0.011534363,1.000953674
50.020520,0.062011719,0.107803345,-0.061504364,-0.014072202,-0.010679871,1.004005432
50.034772,0.123046875,0.069656372,-0.130168915,-0.014072202,-0.013121277,1.002052307
50.050076,0.062011719,-0.510177612,-0.038616180,-0.017246030,-0.013853699,0.998756409
50.088280,-0.105834961,-1.296005249,0.487812042,-0.011752866,-0.012144715,0.998634338
50.138819,-0.075317383,0.474014282,-0.381938934,-0.011508726,-0.012022644,1.002906799
50.153153,0.000976562,0.145950317,-0.290386200,-0.014804624,-0.011412293,1.004981995
50.168618,0.214599609,-0.800094604,0.144489288,-0.017490171,-0.013609558,1.005226135
50.206893,-0.052429199,-0.220260620,-0.099651337,-0.012485288,-0.012510926,0.996315002
50.245191,-0.182128906,0.260391235,-0.046245575,-0.018710874,-0.012632996,0.997535706
50.259399,-0.166870117,-0.121078491,0.327594757,-0.015414976,-0.011046082,1.002174377
50.260092,-0.166870117,-0.121078491,0.327594757,-0.015414976,-0.011046082,1.002174377
50.260697,-0.166870117,-0.121078491,0.327594757,-0.015414976,-0.011046082,1.002174377
50.261335,-0.166870117,-0.121078491,0.327594757,-0.015414976,-0.011046082,1.002174377
50.261921,-0.166870117,-0.121078491,0.327594757,-0.015414976,-0.011046082,1.002174377
50.262557,-0.166870117,-0.121078491,0.327594757,-0.015414976,-0.011046082,1.002174377
50.263149,-0.166870117,-0.121078491,0.327594757,-0.015414976,-0.011046082,1.002174377
50.291906,-0.098205566,-0.128707886,0.175006866,-0.006747983,-0.012510926,1.006446838
50.330225,0.145935059,-0.403366089,-0.198833466,-0.014926694,-0.012510926,1.003273010
50.368533,-0.037170410,-0.410995483,0.190265656,-0.012119077,-0.011290222,0.999000549
50.382780,-0.075317383,-0.029525757,0.030048370,-0.011264585,-0.011168152,0.997901917
50.398059,-0.258422852,0.542678833,-0.221721649,-0.013461851,-0.013609558,0.999732971
50.436276,-0.075317383,-0.609359741,0.106342316,-0.015537046,-0.012510926,1.006690979
50.474549,0.145935059,0.000991821,-0.076763153,-0.012729429,-0.010924011,1.002418518
50.488808,0.130676270,0.138320923,-0.153057098,-0.014682554,-0.011290222,1.000099182
50.504129,0.069641113,-0.197372437,-0.053874969,-0.018710874,-0.011046082,0.996925354
50.542379,-0.113464355,-0.502548218,0.304706573,-0.012729429,-0.012510926,0.999855042
50.543103,-0.113464355,-0.502548218,0.304706573,-0.012729429,-0.012510926,0.999855042
50.543661,-0.151611328,-0.281295776,0.159748077,-0.010776304,-0.013121277,1.001319885
50.544296,-0.151611328,-0.281295776,0.159748077,-0.010776304,-0.013121277,1.001319885
50.544892,-0.151611328,-0.281295776,0.159748077,-0.010776304,-0.013121277,1.001319885
50.545518,-0.151611328,-0.281295776,0.159748077,-0.010776304,-0.013121277,1.001319885
50.546107,-0.151611328,-0.281295776,0.159748077,-0.010776304,-0.013121277,1.001319885
50.546735,-0.151611328,-0.281295776,0.159748077,-0.010776304,-0.013121277,1.001319885
50.547324,-0.151611328,-0.281295776,0.159748077,-0.010776304,-0.013121277,1.001319885
50.547944,-0.151611328,-0.281295776,0.159748077,-0.010776304,-0.013121277,1.001319885
50.548536,-0.151611328,-0.281295776,0.159748077,-0.010776304,-0.013121277,1.001319885
50.549168,-0.151611328,-0.281295776,0.159748077,-0.010776304,-0.013121277,1.001319885
50.549752,-0.151611328,-0.281295776,0.159748077,-0.010776304,-0.013121277,1.001319885
50.550386,-0.151611328,-0.281295776,0.159748077,-0.010776304,-0.013121277,1.001319885
50.550975,-0.151611328,-0.281295776,0.159748077,-0.010776304,-0.013121277,1.001319885
50.551592,-0.151611328,-0.281295776,0.159748077,-0.010776304,-0.013121277,1.001319885
50.552182,-0.151611328,-0.281295776,0.159748077,-0.010776304,-0.013121277,1.001319885
50.552809,-0.151611328,-0.281295776,0.159748077,-0.010776304,-0.013121277,1.001319885
50.553396,-0.151611328,-0.281295776,0.159748077,-0.010776304,-0.013121277,1.001319885
50.554022,-0.151611328,0.016250610,-0.000469208,-0.010288022,-0.014219910,1.002662659
50.554611,-0.151611328,0.016250610,-0.000469208,-0.010288022,-0.014219910,1.002662659
50.555237,-0.151611328,0.016250610,-0.000469208,-0.010288022,-0.014219910,1.002662659
50.555821,-0.151611328,0.016250610,-0.000469208,-0.010288022,-0.014219910,1.002662659
50.556443,-0.151611328,0.016250610,-0.000469208,-0.010288022,-0.014219910,1.002662659
50.557033,-0.151611328,0.016250610,-0.000469208,-0.010288022,-0.014219910,1.002662659
50.557648,-0.151611328,0.016250610,-0.000469208,-0.010288022,-0.014219910,1.002662659
50.558241,-0.151611328,0.016250610,-0.000469208,-0.010288022,-0.014219910,1.002662659
50.558861,-0.151611328,0.016250610,-0.000469208,-0.010288022,-0.014219910,1.002662659
50.559444,-0.151611328,0.016250610,-0.000469208,-0.010288022,-0.014219910,1.002662659
50.560065,-0.151611328,0.016250610,-0.000469208,-0.010288022,-0.014219910,1.002662659
50.560642,-0.151611328,0.016250610,-0.000469208,-0.010288022,-0.014219910,1.002662659
50.562477,-0.151611328,0.016250610,-0.000469208,-0.010288022,-0.014219910,1.002662659
50.563207,-0.151611328,0.016250610,-0.000469208,-0.010288022,-0.014219910,1.002662659
50.563805,-0.235534668,0.084915161,-0.244609833,-0.010898374,-0.013609558,1.004737854
50.564445,-0.235534668,0.084915161,-0.244609833,-0.010898374,-0.013609558,1.004737854
50.565037,-0.235534668,0.084915161,-0.244609833,-0.010898374,-0.013609558,1.004737854
50.603191,0.107788086,-1.501998901,0.205524445,-0.016269468,-0.012144715,1.002540588
50.617421,0.153564453,-1.723251343,0.411518097,-0.015414976,-0.010924011,1.001808167
50.632748,0.176452637,-1.501998901,0.411518097,-0.011142515,-0.008848816,1.001197815
50.684803,-0.090576172,-0.006637573,-0.244609833,-0.020786069,-0.015562683,0.997535706
50.723129,-0.044799805,-1.456222534,0.670917511,-0.013095640,-0.011900574,1.002174377
50.737373,-0.029541016,-0.990829468,0.487812042,-0.009433530,-0.010435730,1.002662659
50.752721,-0.014282227,0.191726685,-0.153057098,-0.008456968,-0.010801941,1.004249573
50.790977,0.062011719,-0.166854858,-0.198833466,-0.017978452,-0.012877136,1.001319885
50.829241,0.031494141,-1.547775269,0.525959015,-0.013950132,-0.015684754,0.997657776
50.843470,-0.098205566,-0.578842163,0.243671417,-0.011264585,-0.012266785,0.999366760
50.858790,-0.182128906,0.054397583,0.129230499,-0.010043882,-0.011046082,1.002174377
50.859537,-0.182128906,0.054397583,0.129230499,-0.010043882,-0.011046082,1.002174377
50.860125,-0.182128906,0.054397583,0.129230499,-0.010043882,-0.011046082,1.002174377
50.860752,-0.182128906,0.054397583,0.129230499,-0.010043882,-0.011046082,1.002174377
50.861335,-0.182128906,0.054397583,0.129230499,-0.010043882,-0.011046082,1.002174377
50.861954,-0.212646484,0.573196411,-0.015727997,-0.011386655,-0.010801941,1.004371643
50.862549,-0.212646484,0.573196411,-0.015727997,-0.011386655,-0.010801941,1.004371643
50.863175,-0.212646484,0.573196411,-0.015727997,-0.011386655,-0.010801941,1.004371643
50.863757,-0.212646484,0.573196411,-0.015727997,-0.011386655,-0.010801941,1.004371643
50.864385,-0.212646484,0.573196411,-0.015727997,-0.011386655,-0.010801941,1.004371643
50.864977,-0.212646484,0.573196411,-0.015727997,-0.011386655,-0.010801941,1.004371643
50.865596,-0.212646484,0.573196411,-0.015727997,-0.011386655,-0.010801941,1.004371643
50.866183,-0.212646484,0.573196411,-0.015727997,-0.011386655,-0.010801941,1.004371643
50.866824,-0.212646484,0.573196411,-0.015727997,-0.011386655,-0.010801941,1.004371643
50.867402,-0.212646484,0.573196411,-0.015727997,-0.011386655,-0.010801941,1.004371643
50.868031,-0.212646484,0.573196411,-0.015727997,-0.011386655,-0.010801941,1.004371643
50.868624,-0.212646484,0.573196411,-0.015727997,-0.011386655,-0.010801941,1.004371643
50.869249,-0.212646484,0.573196411,-0.015727997,-0.011386655,-0.010801941,1.004371643
50.869831,-0.212646484,0.573196411,-0.015727997,-0.011386655,-0.010801941,1.004371643
50.870458,-0.212646484,0.573196411,-0.015727997,-0.011386655,-0.010801941,1.004371643
50.871049,-0.212646484,0.573196411,-0.015727997,-0.011386655,-0.010801941,1.004371643
50.871678,-0.121093750,0.939407349,-0.084392548,-0.011874937,-0.010069519,1.004859924
50.872262,-0.121093750,0.939407349,-0.084392548,-0.011874937,-0.010069519,1.004859924
50.872886,-0.121093750,0.939407349,-0.084392548,-0.011874937,-0.010069519,1.004859924
50.873471,-0.121093750,0.939407349,-0.084392548,-0.011874937,-0.010069519,1.004859924
50.874096,-0.121093750,0.939407349,-0.084392548,-0.011874937,-0.010069519,1.004859924
50.874687,-0.121093750,0.939407349,-0.084392548,-0.011874937,-0.010069519,1.004859924
50.875313,-0.121093750,0.939407349,-0.084392548,-0.011874937,-0.010069519,1.004859924
50.875890,-0.121093750,0.939407349,-0.084392548,-0.011874937,-0.010069519,1.004859924
50.876523,-0.121093750,0.939407349,-0.084392548,-0.011874937,-0.010069519,1.004859924
50.877108,-0.121093750,0.939407349,-0.084392548,-0.011874937,-0.010069519,1.004859924
50.878934,-0.121093750,0.939407349,-0.084392548,-0.011874937,-0.010069519,1.004859924
50.879678,-0.121093750,0.939407349,-0.084392548,-0.011874937,-0.010069519,1.004859924
50.880265,-0.121093750,0.939407349,-0.084392548,-0.011874937,-0.010069519,1.004859924
50.880889,-0.121093750,0.939407349,-0.084392548,-0.011874937,-0.010069519,1.004859924
50.881481,-0.121093750,0.939407349,-0.084392548,-0.011874937,-0.010069519,1.004859924
50.882103,-0.121093750,1.008071899,-0.130168915,-0.011752866,-0.010924011,1.006324768
50.882693,-0.121093750,1.008071899,-0.130168915,-0.011752866,-0.010924011,1.006324768
50.883328,-0.121093750,1.008071899,-0.130168915,-0.011752866,-0.010924011,1.006324768
50.883916,-0.121093750,1.008071899,-0.130168915,-0.011752866,-0.010924011,1.006324768
50.922020,0.336669922,0.145950317,0.022418976,-0.017246030,-0.015318543,1.002906799
50.988459,-0.205017090,0.588455200,-0.023357391,-0.010165952,-0.012266785,0.994972229
51.002758,-0.327087402,0.374832153,-0.214092255,-0.011997007,-0.011900574,0.997901917
51.018084,-0.349975586,-0.029525757,-0.229351044,-0.013339780,-0.012388855,1.001319885
51.056338,0.161193848,-1.143417358,0.091083527,-0.015292905,-0.013121277,1.009742737
51.057097,0.161193848,-1.143417358,0.091083527,-0.015292905,-0.013121277,1.009742737
51.057712,0.161193848,-1.143417358,0.091083527,-0.015292905,-0.013121277,1.009742737
51.095857,0.298522949,-0.449142456,-0.099651337,-0.016269468,-0.012999207,0.999244690
51.110066,0.321411133,-0.418624878,0.030048370,-0.016147397,-0.011412293,0.997901917
51.125333,0.069641113,-0.266036987,0.098712921,-0.016025327,-0.011290222,0.994483948
51.163557,-0.182128906,-0.075302124,-0.214092255,-0.017246030,-0.013853699,1.005592346
51.201837,0.344299316,-0.998458862,0.548847198,-0.017246030,-0.012266785,1.004249573
51.216073,0.329040527,-0.662765503,0.548847198,-0.011508726,-0.011168152,1.000831604
51.231370,0.092529297,0.832595825,-0.137798309,-0.006503843,-0.010435730,0.996437073
51.269584,-0.197387695,-0.616989136,-0.397197723,-0.024448179,-0.012510926,0.998756409
51.307838,0.031494141,-2.959213257,0.915058136,-0.018832944,-0.013975769,1.001930237
51.322071,0.000976562,-1.769027710,0.571735382,-0.004672788,-0.012755066,1.003761292
51.337538,-0.014282227,-0.739059448,0.075824738,-0.003940366,-0.011900574,1.002418518
51.375804,0.176452637,-2.119979858,0.899799347,-0.022983335,-0.011412293,1.001319885
51.414090,-0.250793457,4.273452759,-1.991741180,0.002651431,-0.013487488,1.000465393
51.428364,-0.349975586,5.410232544,-2.609722137,-0.005893491,-0.013487488,1.002418518
51.443715,-0.205017090,2.877273560,-1.694194794,-0.041904233,-0.016050965,1.000587463
51.481983,0.283264160,-5.263290405,1.807697296,-0.028598569,-0.011656433,0.999244690
51.520279,-0.243164062,-1.631698608,0.266559601,-0.004794858,-0.010435730,0.999244690
51.534597,-0.304199219,-0.662765503,-0.130168915,-0.009555601,-0.012755066,1.001930237
51.549981,-0.296569824,0.161209106,-0.137798309,-0.013095640,-0.013609558,1.008766174
51.550751,-0.296569824,0.161209106,-0.137798309,-0.013095640,-0.013609558,1.008766174
51.551376,-0.296569824,0.161209106,-0.137798309,-0.013095640,-0.013609558,1.008766174
51.552026,-0.296569824,0.161209106,-0.137798309,-0.013095640,-0.013609558,1.008766174
51.552632,-0.296569824,0.161209106,-0.137798309,-0.013095640,-0.013609558,1.008766174
51.553265,-0.296569824,0.161209106,-0.137798309,-0.013095640,-0.013609558,1.008766174
51.553874,-0.296569824,0.161209106,-0.137798309,-0.013095640,-0.013609558,1.008766174
51.554498,-0.296569824,0.161209106,-0.137798309,-0.013095640,-0.013609558,1.008766174
51.555110,-0.296569824,0.161209106,-0.137798309,-0.013095640,-0.013609558,1.008766174
51.555738,-0.296569824,0.161209106,-0.137798309,-0.013095640,-0.013609558,1.008766174
51.556352,-0.296569824,0.161209106,-0.137798309,-0.013095640,-0.013609558,1.008766174
51.556982,-0.296569824,0.161209106,-0.137798309,-0.013095640,-0.013609558,1.008766174
51.557589,-0.296569824,0.161209106,-0.137798309,-0.013095640,-0.013609558,1.008766174
51.558228,-0.105834961,0.176467896,-0.076763153,-0.013339780,-0.012999207,1.010963440
51.558833,-0.105834961,0.176467896,-0.076763153,-0.013339780,-0.012999207,1.010963440
51.559457,-0.105834961,0.176467896,-0.076763153,-0.013339780,-0.012999207,1.010963440
51.560071,-0.105834961,0.176467896,-0.076763153,-0.013339780,-0.012999207,1.010963440
51.560699,-0.105834961,0.176467896,-0.076763153,-0.013339780,-0.012999207,1.010963440
51.561309,-0.105834961,0.176467896,-0.076763153,-0.013339780,-0.012999207,1.010963440
51.561939,-0.105834961,0.176467896,-0.076763153,-0.013339780,-0.012999207,1.010963440
51.562545,-0.105834961,0.176467896,-0.076763153,-0.013339780,-0.012999207,1.010963440
51.563178,-0.105834961,0.176467896,-0.076763153,-0.013339780,-0.012999207,1.010963440
51.563789,-0.105834961,0.176467896,-0.076763153,-0.013339780,-0.012999207,1.010963440
51.617408,0.275634766,-1.257858276,0.075824738,-0.015414976,-0.010313660,0.995948792
51.655760,-0.037170410,-0.975570679,0.213153839,-0.012729429,-0.013121277,0.998268127
51.669986,-0.197387695,-0.578842163,-0.153057098,-0.014194272,-0.015196472,1.000709534
51.685314,-0.136352539,-0.578842163,-0.107280731,-0.016513608,-0.015318543,1.002662659
51.723572,0.214599609,-1.227340698,0.617511749,-0.014072202,-0.010435730,1.006080627
51.724319,0.214599609,-1.227340698,0.617511749,-0.014072202,-0.010435730,1.006080627
51.724913,0.214599609,-1.227340698,0.617511749,-0.014072202,-0.010435730,1.006080627
51.725541,0.214599609,-1.227340698,0.617511749,-0.014072202,-0.010435730,1.006080627
51.726130,0.214599609,-1.227340698,0.617511749,-0.014072202,-0.010435730,1.006080627
51.726740,0.138305664,-0.800094604,0.495441437,-0.009189390,-0.009459168,1.004493713
51.727330,0.138305664,-0.800094604,0.495441437,-0.009189390,-0.009459168,1.004493713
51.727952,0.138305664,-0.800094604,0.495441437,-0.009189390,-0.009459168,1.004493713
51.728540,0.138305664,-0.800094604,0.495441437,-0.009189390,-0.009459168,1.004493713
51.729158,0.138305664,-0.800094604,0.495441437,-0.009189390,-0.009459168,1.004493713
51.729756,0.138305664,-0.800094604,0.495441437,-0.009189390,-0.009459168,1.004493713
51.730371,0.138305664,-0.800094604,0.495441437,-0.009189390,-0.009459168,1.004493713
51.730955,0.138305664,-0.800094604,0.495441437,-0.009189390,-0.009459168,1.004493713
51.731584,0.138305664,-0.800094604,0.495441437,-0.009189390,-0.009459168,1.004493713
51.732175,0.138305664,-0.800094604,0.495441437,-0.009189390,-0.009459168,1.004493713
51.732793,0.138305664,-0.800094604,0.495441437,-0.009189390,-0.009459168,1.004493713
51.733377,0.138305664,-0.800094604,0.495441437,-0.009189390,-0.009459168,1.004493713
51.734000,0.138305664,-0.800094604,0.495441437,-0.009189390,-0.009459168,1.004493713
51.734584,0.138305664,-0.800094604,0.495441437,-0.009189390,-0.009459168,1.004493713
51.735203,0.138305664,-0.800094604,0.495441437,-0.009189390,-0.009459168,1.004493713
51.735809,0.138305664,-0.800094604,0.495441437,-0.009189390,-0.009459168,1.004493713
51.736417,0.138305664,-0.800094604,0.495441437,-0.009189390,-0.009459168,1.004493713
51.737001,0.176452637,-0.136337280,0.381000519,-0.006992124,-0.007872254,1.004127502
51.737624,0.176452637,-0.136337280,0.381000519,-0.006992124,-0.007872254,1.004127502
51.738212,0.176452637,-0.136337280,0.381000519,-0.006992124,-0.007872254,1.004127502
51.738832,0.176452637,-0.136337280,0.381000519,-0.006992124,-0.007872254,1.004127502
51.739426,0.176452637,-0.136337280,0.381000519,-0.006992124,-0.007872254,1.004127502
51.740046,0.176452637,-0.136337280,0.381000519,-0.006992124,-0.007872254,1.004127502
51.740639,0.176452637,-0.136337280,0.381000519,-0.006992124,-0.007872254,1.004127502
51.741256,0.176452637,-0.136337280,0.381000519,-0.006992124,-0.007872254,1.004127502
51.741844,0.176452637,-0.136337280,0.381000519,-0.006992124,-0.007872254,1.004127502
51.743661,0.176452637,-0.136337280,0.381000519,-0.006992124,-0.007872254,1.004127502
51.744390,0.176452637,-0.136337280,0.381000519,-0.006992124,-0.007872254,1.004127502
51.744973,0.176452637,-0.136337280,0.381000519,-0.006992124,-0.007872254,1.004127502
51.745601,0.176452637,-0.136337280,0.381000519,-0.006992124,-0.007872254,1.004127502
51.746188,0.176452637,-0.136337280,0.381000519,-0.006992124,-0.007872254,1.004127502
51.746810,0.130676270,0.573196411,-0.076763153,-0.004794858,-0.008116394,1.002418518
51.800681,0.031494141,-0.327072144,-0.069133759,-0.020786069,-0.014586121,1.000099182
51.815005,0.153564453,-0.868759155,0.243671417,-0.018100522,-0.014586121,1.000343323
51.830376,0.092529297,-0.685653687,0.442035675,-0.013217710,-0.013365418,1.000465393
51.868624,-0.105834961,1.389541626,-0.481121063,-0.012607358,-0.009581238,1.000831604
51.906894,0.184082031,-1.112899780,0.213153839,-0.019931577,-0.012266785,1.001441956
51.921110,0.229858398,-1.471481323,0.403888702,-0.017123960,-0.013975769,1.002540588
51.936422,0.206970215,-1.059494019,0.258930206,-0.013705991,-0.013609558,1.000831604
51.990620,-0.090576172,1.061477661,-0.305644989,-0.017490171,-0.010435730,0.997169495
52.029001,0.069641113,-1.311264038,0.335224152,-0.019077085,-0.012877136,1.002906799
52.043263,0.161193848,-1.410446167,0.464923859,-0.017246030,-0.012755066,1.004615784
52.058596,0.206970215,-0.647506714,0.426776886,-0.010043882,-0.012144715,1.003395081
52.059356,0.206970215,-0.647506714,0.426776886,-0.010043882,-0.012144715,1.003395081
52.059933,0.206970215,-0.647506714,0.426776886,-0.010043882,-0.012144715,1.003395081
52.060560,0.206970215,-0.647506714,0.426776886,-0.010043882,-0.012144715,1.003395081
52.061138,0.206970215,-0.647506714,0.426776886,-0.010043882,-0.012144715,1.003395081
52.061750,0.206970215,-0.647506714,0.426776886,-0.010043882,-0.012144715,1.003395081
52.062325,0.206970215,-0.647506714,0.426776886,-0.010043882,-0.012144715,1.003395081
52.062955,0.206970215,-0.647506714,0.426776886,-0.010043882,-0.012144715,1.003395081
52.063528,0.206970215,-0.647506714,0.426776886,-0.010043882,-0.012144715,1.003395081
52.064158,0.206970215,-0.647506714,0.426776886,-0.010043882,-0.012144715,1.003395081
52.064739,0.130676270,0.084915161,0.190265656,-0.007480405,-0.012022644,1.000953674
52.065365,0.130676270,0.084915161,0.190265656,-0.007480405,-0.012022644,1.000953674
52.065942,0.130676270,0.084915161,0.190265656,-0.007480405,-0.012022644,1.000953674
52.066572,0.130676270,0.084915161,0.190265656,-0.007480405,-0.012022644,1.000953674
52.067154,0.130676270,0.084915161,0.190265656,-0.007480405,-0.012022644,1.000953674
52.067779,0.130676270,0.084915161,0.190265656,-0.007480405,-0.012022644,1.000953674
52.068348,0.130676270,0.084915161,0.190265656,-0.007480405,-0.012022644,1.000953674
52.068977,0.130676270,0.084915161,0.190265656,-0.007480405,-0.012022644,1.000953674
52.069552,0.130676270,0.084915161,0.190265656,-0.007480405,-0.012022644,1.000953674
52.070181,0.130676270,0.084915161,0.190265656,-0.007480405,-0.012022644,1.000953674
52.070769,0.130676270,0.084915161,0.190265656,-0.007480405,-0.012022644,1.000953674
52.071383,0.130676270,0.084915161,0.190265656,-0.007480405,-0.012022644,1.000953674
52.071959,0.130676270,0.084915161,0.190265656,-0.007480405,-0.012022644,1.000953674
52.072587,0.130676270,0.084915161,0.190265656,-0.007480405,-0.012022644,1.000953674
52.073170,0.130676270,0.084915161,0.190265656,-0.007480405,-0.012022644,1.000953674
52.073795,0.130676270,0.084915161,0.190265656,-0.007480405,-0.012022644,1.000953674
52.111801,-0.060058594,0.855484009,-0.488750458,-0.011874937,-0.010679871,0.998023987
52.150059,0.046752930,-1.898727417,-0.053874969,-0.020297788,-0.013975769,1.001441956
52.164273,0.000976562,-2.448043823,0.098712921,-0.020908140,-0.012755066,0.999977112
52.179734,0.023864746,-2.211532593,0.213153839,-0.020541929,-0.013609558,1.001075745
52.217996,0.039123535,-0.616989136,0.213153839,-0.012729429,-0.011168152,1.004493713
52.218769,0.039123535,-0.616989136,0.213153839,-0.012729429,-0.011168152,1.004493713
52.219366,0.039123535,-0.616989136,0.213153839,-0.012729429,-0.011168152,1.004493713
52.220003,0.039123535,-0.616989136,0.213153839,-0.012729429,-0.011168152,1.004493713
52.220594,0.039123535,-0.616989136,0.213153839,-0.012729429,-0.011168152,1.004493713
52.221223,0.039123535,-0.616989136,0.213153839,-0.012729429,-0.011168152,1.004493713
52.221809,0.039123535,-0.616989136,0.213153839,-0.012729429,-0.011168152,1.004493713
52.222442,0.039123535,-0.616989136,0.213153839,-0.012729429,-0.011168152,1.004493713
52.223037,0.039123535,-0.616989136,0.213153839,-0.012729429,-0.011168152,1.004493713
52.223658,0.039123535,-0.616989136,0.213153839,-0.012729429,-0.011168152,1.004493713
52.224264,0.062011719,-0.136337280,-0.000469208,-0.011997007,-0.010313660,1.004859924
52.224885,0.062011719,-0.136337280,-0.000469208,-0.011997007,-0.010313660,1.004859924
52.225465,0.062011719,-0.136337280,-0.000469208,-0.011997007,-0.010313660,1.004859924
52.226101,0.062011719,-0.136337280,-0.000469208,-0.011997007,-0.010313660,1.004859924
52.226686,0.062011719,-0.136337280,-0.000469208,-0.011997007,-0.010313660,1.004859924
52.227312,0.062011719,-0.136337280,-0.000469208,-0.011997007,-0.010313660,1.004859924
52.281670,0.062011719,-0.166854858,-0.107280731,-0.017856382,-0.012144715,1.001930237
52.295985,0.153564453,-0.990829468,0.304706573,-0.015903257,-0.014586121,0.999488831
52.311326,0.176452637,-1.196823120,0.327594757,-0.014316343,-0.013731629,0.998756409
52.349580,-0.121093750,-0.441513062,-0.198833466,-0.011508726,-0.012022644,0.999244690
52.387850,-0.189758301,-0.822982788,-0.130168915,-0.016635679,-0.012022644,1.003028870
52.402075,-0.098205566,-1.067123413,-0.069133759,-0.018710874,-0.012510926,1.003273010
52.417400,0.138305664,-1.540145874,0.129230499,-0.018222593,-0.013365418,1.003639221
52.455638,0.100158691,-0.525436401,0.213153839,-0.012241147,-0.012755066,0.999244690
52.493910,-0.266052246,0.420608521,-0.290386200,-0.011752866,-0.011656433,0.997413635
52.508116,-0.227905273,-0.014266968,-0.252239227,-0.013217710,-0.011412293,1.000343323
52.523433,-0.060058594,-1.028976440,0.121601105,-0.015781187,-0.011778504,1.003150940
52.561668,0.054382324,-1.021347046,0.213153839,-0.011142515,-0.012755066,1.004249573
52.611515,0.008605957,-0.632247925,-0.145427704,-0.018710874,-0.011778504,0.997291565
52.625810,0.016235352,-1.326522827,0.373371124,-0.018466733,-0.011778504,0.997779846
52.641155,-0.098205566,-1.143417358,0.449665070,-0.014438413,-0.011900574,0.999488831
52.679395,-0.098205566,0.756301880,-0.351421356,-0.011020444,-0.012144715,1.004127502
52.717666,0.283264160,-0.998458862,0.274188995,-0.017612241,-0.012755066,1.001930237
52.731909,0.260375977,-0.670394897,0.281818390,-0.010532163,-0.010924011,0.998512268
52.747186,0.123046875,-0.113449097,0.052936554,-0.010043882,-0.011412293,0.998146057
52.747918,0.123046875,-0.113449097,0.052936554,-0.010043882,-0.011412293,0.998146057
52.748484,0.123046875,-0.113449097,0.052936554,-0.010043882,-0.011412293,0.998146057
52.749093,0.123046875,-0.113449097,0.052936554,-0.010043882,-0.011412293,0.998146057
52.749664,0.123046875,-0.113449097,0.052936554,-0.010043882,-0.011412293,0.998146057
52.750266,0.123046875,-0.113449097,0.052936554,-0.010043882,-0.011412293,0.998146057
52.750845,0.023864746,0.329055786,-0.206462860,-0.009555601,-0.010679871,0.997779846
52.751440,0.023864746,0.329055786,-0.206462860,-0.009555601,-0.010679871,0.997779846
52.752024,0.023864746,0.329055786,-0.206462860,-0.009555601,-0.010679871,0.997779846
52.752623,0.023864746,0.329055786,-0.206462860,-0.009555601,-0.010679871,0.997779846
52.753204,0.023864746,0.329055786,-0.206462860,-0.009555601,-0.010679871,0.997779846
52.753808,0.023864746,0.329055786,-0.206462860,-0.009555601,-0.010679871,0.997779846
52.754378,0.023864746,0.329055786,-0.206462860,-0.009555601,-0.010679871,0.997779846
52.754980,0.023864746,0.329055786,-0.206462860,-0.009555601,-0.010679871,0.997779846
52.755557,0.023864746,0.329055786,-0.206462860,-0.009555601,-0.010679871,0.997779846
52.756167,0.023864746,0.329055786,-0.206462860,-0.009555601,-0.010679871,0.997779846
52.756747,0.023864746,0.329055786,-0.206462860,-0.009555601,-0.010679871,0.997779846
52.757350,0.023864746,0.329055786,-0.206462860,-0.009555601,-0.010679871,0.997779846
52.757928,0.023864746,0.329055786,-0.206462860,-0.009555601,-0.010679871,0.997779846
52.758526,0.023864746,0.329055786,-0.206462860,-0.009555601,-0.010679871,0.997779846
52.759111,0.023864746,0.329055786,-0.206462860,-0.009555601,-0.010679871,0.997779846
52.759716,0.023864746,0.329055786,-0.206462860,-0.009555601,-0.010679871,0.997779846
52.760296,0.023864746,0.329055786,-0.206462860,-0.009555601,-0.010679871,0.997779846
52.760897,-0.105834961,0.535049438,-0.374309540,-0.013217710,-0.011290222,0.997779846
52.761469,-0.105834961,0.535049438,-0.374309540,-0.013217710,-0.011290222,0.997779846
52.762081,-0.105834961,0.535049438,-0.374309540,-0.013217710,-0.011290222,0.997779846
52.762661,-0.105834961,0.535049438,-0.374309540,-0.013217710,-0.011290222,0.997779846
52.763265,-0.105834961,0.535049438,-0.374309540,-0.013217710,-0.011290222,0.997779846
52.763846,-0.105834961,0.535049438,-0.374309540,-0.013217710,-0.011290222,0.997779846
52.764443,-0.105834961,0.535049438,-0.374309540,-0.013217710,-0.011290222,0.997779846
52.814399,-0.014282227,-1.593551636,0.586994171,-0.012851499,-0.013121277,1.003150940
52.852781,-0.014282227,0.718154907,-0.534526825,-0.009311460,-0.010557801,1.005104065
52.867013,0.084899902,0.733413696,-0.648967743,-0.013950132,-0.010924011,1.002052307
52.882335,0.184082031,-0.266036987,-0.153057098,-0.022006772,-0.011778504,0.998390198
52.920568,-0.060058594,-0.929794312,0.411518097,-0.009799741,-0.013487488,0.998634338
52.921297,-0.060058594,-0.929794312,0.411518097,-0.009799741,-0.013487488,0.998634338
52.921869,-0.060058594,-0.929794312,0.411518097,-0.009799741,-0.013487488,0.998634338
52.922476,-0.060058594,-0.929794312,0.411518097,-0.009799741,-0.013487488,0.998634338
52.923045,-0.060058594,-0.929794312,0.411518097,-0.009799741,-0.013487488,0.998634338
52.923646,-0.060058594,-0.929794312,0.411518097,-0.009799741,-0.013487488,0.998634338
52.924227,-0.060058594,-0.929794312,0.411518097,-0.009799741,-0.013487488,0.998634338
52.924834,-0.060058594,-0.929794312,0.411518097,-0.009799741,-0.013487488,0.998634338
52.925407,-0.060058594,-0.929794312,0.411518097,-0.009799741,-0.013487488,0.998634338
52.926017,-0.060058594,-0.929794312,0.411518097,-0.009799741,-0.013487488,0.998634338
52.926597,-0.060058594,-0.929794312,0.411518097,-0.009799741,-0.013487488,0.998634338
52.927205,-0.060058594,-0.929794312,0.411518097,-0.009799741,-0.013487488,0.998634338
52.927785,-0.060058594,-0.929794312,0.411518097,-0.009799741,-0.013487488,0.998634338
52.928386,-0.060058594,-0.929794312,0.411518097,-0.009799741,-0.013487488,0.998634338
52.966456,-0.220275879,0.145950317,-0.214092255,-0.013461851,-0.012022644,1.004127502
52.980685,0.054382324,-0.464401245,0.091083527,-0.013095640,-0.011168152,1.003395081
52.996014,0.077270508,-0.655136108,0.175006866,-0.012363218,-0.010313660,1.001686096
53.034244,0.115417480,-0.746688843,-0.290386200,-0.015170835,-0.012266785,0.999977112
53.072494,-0.105834961,-1.250228882,0.426776886,-0.017734312,-0.014219910,0.999244690
53.086709,-0.182128906,-0.853500366,0.449665070,-0.013828062,-0.013243347,1.001319885
53.102046,-0.166870117,0.359573364,0.091083527,-0.009189390,-0.011412293,1.004493713
53.140268,0.084899902,0.145950317,-0.145427704,-0.015048765,-0.010313660,1.002784729
53.178553,-0.006652832,-0.861129761,0.197895050,-0.010165952,-0.014219910,0.996192932
53.192778,-0.052429199,-0.540695190,0.014789581,-0.010043882,-0.015196472,0.996925354
53.208065,-0.159240723,-0.342330933,-0.221721649,-0.011264585,-0.014097840,0.997291565
53.246264,-0.090576172,-0.945053101,0.228412628,-0.018344663,-0.010191590,1.005348206
53.284518,0.077270508,-0.334701538,0.129230499,-0.008823179,-0.011046082,1.002052307
53.298772,0.062011719,0.313796997,-0.275127411,-0.010288022,-0.013243347,0.999366760
53.314077,0.031494141,0.298538208,-0.267498016,-0.011508726,-0.013853699,0.997779846
53.364288,-0.113464355,-1.707992554,0.304706573,-0.011874937,-0.012999207,0.999610901
53.402661,-0.136352539,-0.525436401,-0.191204071,-0.014194272,-0.009825379,1.003395081
53.416919,0.031494141,-0.380477905,0.068195343,-0.017612241,-0.011412293,1.003883362
53.432222,0.077270508,-0.205001831,0.121601105,-0.015537046,-0.013365418,1.003517151
53.470455,0.084899902,0.298538208,-0.015727997,-0.009189390,-0.013243347,0.998878479
53.508727,-0.105834961,-0.479660034,-0.114910126,-0.014438413,-0.010557801,0.998878479
53.522961,-0.128723145,-0.708541870,-0.038616180,-0.014560483,-0.010435730,0.998756409
53.538232,-0.113464355,-0.822982788,0.136859894,-0.015781187,-0.011290222,1.003273010
53.538975,-0.113464355,-0.822982788,0.136859894,-0.015781187,-0.011290222,1.003273010
53.539571,-0.113464355,-0.822982788,0.136859894,-0.015781187,-0.011290222,1.003273010
53.540206,-0.113464355,-0.822982788,0.136859894,-0.015781187,-0.011290222,1.003273010
53.540798,-0.113464355,-0.822982788,0.136859894,-0.015781187,-0.011290222,1.003273010
53.541410,-0.113464355,-0.822982788,0.136859894,-0.015781187,-0.011290222,1.003273010
53.541999,-0.113464355,-0.822982788,0.136859894,-0.015781187,-0.011290222,1.003273010
53.554832,-0.044799805,-0.685653687,0.075824738,-0.015048765,-0.012266785,1.004859924
53.555624,-0.044799805,-0.685653687,0.075824738,-0.015048765,-0.012266785,1.004859924
53.556300,-0.052429199,-0.639877319,0.091083527,-0.014560483,-0.014097840,1.005348206
53.556932,-0.052429199,-0.639877319,0.091083527,-0.014560483,-0.014097840,1.005348206
53.558777,-0.052429199,-0.639877319,0.091083527,-0.014560483,-0.014097840,1.005348206
53.559535,-0.052429199,-0.639877319,0.091083527,-0.014560483,-0.014097840,1.005348206
53.560182,-0.052429199,-0.639877319,0.091083527,-0.014560483,-0.014097840,1.005348206
53.560825,-0.052429199,-0.639877319,0.091083527,-0.014560483,-0.014097840,1.005348206
53.561443,-0.052429199,-0.639877319,0.091083527,-0.014560483,-0.014097840,1.005348206
53.599557,0.084899902,0.512161255,-0.000469208,-0.014316343,-0.011778504,1.001808167
53.637824,0.077270508,0.176467896,0.014789581,-0.012119077,-0.010557801,1.002296448
53.652028,0.069641113,-0.189743042,-0.038616180,-0.012241147,-0.011046082,1.001441956
53.667377,0.107788086,-0.845870972,0.068195343,-0.012607358,-0.012144715,0.997657776
