time,gyro x,gyro y,gyro z,accel x,accel y,accel z
13.457250,3.677398682,0.677345276,-0.143806458,0.040909424,-0.063745119,0.907308221
13.466864,1.785308838,-1.085044861,-0.006477363,-0.034407958,-0.012353515,0.987996697
13.467491,1.953155518,-0.825645447,0.008781426,-0.016585693,-0.000512695,0.983846307
13.468116,2.121002197,-0.467063904,0.222404480,0.015640870,-0.000634765,0.987264276
13.468741,2.639801025,-0.238182068,0.199516296,0.033951417,0.008520508,1.009725213
13.469367,2.967864990,-0.261070251,0.451286316,0.043839112,0.012182618,1.019246697
13.469994,2.807647705,0.128028870,0.428398132,0.044327393,0.014990235,1.031819940
13.470620,2.372772217,0.395057678,0.535209656,0.031998292,0.013525391,1.053182244
13.471246,1.800567627,0.524757385,0.359733582,0.022476807,0.019750977,1.063680291
13.471872,1.091033936,1.287696838,0.397880554,0.018570557,0.029150391,1.072591424
13.472497,0.198394775,1.920936584,0.153739929,0.020767823,0.033056639,1.072347283
13.473123,-0.137298584,2.363441467,0.275810242,0.013443604,0.029760743,1.090657830
13.473748,0.015289307,2.149818420,0.436027527,0.004044190,0.016699219,1.115682244
13.474373,0.694305420,1.562355042,0.558097839,0.000260010,0.000341797,1.129598260
13.474999,0.663787842,0.761268616,0.466545105,0.002335206,-0.014672851,1.132894158
13.476704,-2.502410889,1.699684143,0.046928398,0.032974854,0.045263670,1.068441033
13.477330,-3.799407959,2.714393616,0.100334160,0.034561768,0.057348631,1.047078729
13.477957,-4.112213135,3.568885803,0.138481140,0.037857667,0.042822264,1.026448846
13.478583,-4.295318604,3.683326721,0.565727234,0.019791260,0.009741211,1.024984002
13.479208,-3.349273682,3.401039124,0.527580261,-0.005111083,-0.022729492,1.019734979
13.479835,-3.036468506,2.882240295,0.344474792,-0.020614013,-0.035546876,1.006551385
13.480462,-3.181427002,2.081153870,0.504692078,-0.029036865,-0.035058595,0.990682244
13.481089,-2.738922119,1.699684143,0.176628113,-0.033431396,-0.032739259,0.986409783
13.481714,-1.846282959,1.203773499,0.252922058,-0.025374755,-0.024072265,0.969442010
13.482341,-1.174896240,1.173255920,0.535209656,-0.014998779,-0.026513672,0.960042596
13.482966,-0.434844971,0.929115295,0.558097839,-0.007918701,-0.041040041,0.960897088
13.483591,0.282318115,0.791786194,0.382621765,-0.008406982,-0.043115236,0.963582635
13.484217,0.877410889,0.456092834,0.596244812,-0.006209716,-0.039453126,0.969808221
13.484843,1.106292725,-0.261070251,0.626762390,-0.014022216,-0.019311523,0.966024041
13.485469,0.999481201,-0.360252380,0.504692078,-0.012923583,-0.001489257,0.953084588
13.487071,-0.434844971,0.204322815,0.474174500,-0.006331787,0.018652344,0.938558221
13.487697,-0.190704346,0.509498596,0.893791199,0.001114503,0.015234375,0.940145135
13.488322,0.022918701,0.959632874,0.809867859,0.006485596,0.004980469,0.940511346
13.488947,-0.198333740,1.013038635,0.619132996,0.018692628,-0.006250000,0.940755486
13.489572,-0.617950439,1.432655334,0.642021179,0.015640870,-0.017602539,0.950521111
13.490198,-0.411956787,1.882789612,0.924308777,0.008316651,-0.025537109,0.965535760
13.490824,0.724822998,1.501319885,1.031120300,-0.004256591,-0.034204103,0.984578729
13.491449,1.876861572,0.639198303,1.054008484,-0.011336669,-0.036767580,1.002034783
13.492074,2.700836182,0.272987366,0.954826355,-0.023665771,-0.032128908,1.020955682
13.492701,3.051788330,-0.062705994,0.863273621,-0.022322997,-0.024072265,1.044759393
13.493328,3.517181396,-0.550987244,1.061637878,-0.018538818,-0.013818359,1.058431268
13.493953,2.952606201,-0.756980896,0.878532410,-0.005965576,0.012060547,1.070150018
13.494580,2.372772217,-0.680686951,0.809867859,0.001480713,0.033789061,1.079671502
13.495205,1.388580322,-0.756980896,0.733573914,0.028702393,0.048925780,1.071248651
13.495831,-0.167816162,-0.047447205,0.565727234,0.060806885,0.066870116,1.044149041
13.497483,-4.386871338,4.301307678,0.733573914,0.044571534,0.024755860,1.005818963
13.498109,-4.226654053,4.690406799,0.733573914,0.023575440,-0.012109375,1.000936151
13.498735,-3.463714600,4.888771057,0.909049988,0.000992432,-0.039819337,0.999959588
13.499360,-2.395599365,4.591224670,1.099784851,-0.023909912,-0.053125001,1.002645135
13.519489,-0.671356201,0.562904358,1.458366394,-0.019271240,-0.040917970,0.979940057
13.520169,-0.671356201,0.562904358,1.458366394,-0.019271240,-0.040917970,0.979940057
13.520796,-0.266998291,-0.001670837,1.534660339,-0.011702880,-0.037622072,0.979085565
13.521422,0.473052979,-0.062705994,1.412590027,-0.008284912,-0.032495119,0.978597283
13.522047,0.892669678,-0.398399353,1.443107605,-0.007186279,-0.027001953,0.978475213
13.522672,0.930816650,-0.062705994,1.527030945,-0.005843505,-0.011865234,0.978719354
13.523298,1.312286377,-0.352622986,1.374443054,-0.006820068,-0.001611328,0.976522088
13.523924,1.327545166,-0.177146912,1.260002136,-0.008773193,0.008398438,0.980428338
13.524549,1.426727295,-0.329734802,1.313407898,-0.007308349,0.013769532,0.988240838
13.525174,1.426727295,-0.329734802,1.313407898,-0.007308349,0.013769532,0.988240838
13.525799,0.625640869,-0.444175720,1.336296082,-0.004012451,0.013403321,0.994344354
13.526424,0.312835693,-0.474693298,1.359184265,-0.001448974,0.010839844,0.997884393
13.527049,0.068695068,-0.322105408,1.427848816,0.000260010,0.013037110,1.002889276
13.527674,0.213653564,-0.245811462,1.389701843,0.000504151,0.010229493,1.004598260
13.528300,0.350982666,-0.383140564,1.435478210,0.004532471,0.009130860,1.003011346
13.529959,0.068695068,-0.062705994,1.321037292,0.005997315,0.001806641,1.005330682
13.530584,-0.122039795,-0.062705994,1.321037292,0.004532471,-0.002099609,1.004720330
13.531210,0.061065674,0.120399475,1.221855164,0.003067628,0.005102539,1.003987908
13.531835,-0.068634033,0.440834045,1.343925476,0.008560792,0.009619141,1.002156854
13.532461,0.030548096,0.486610413,1.366813660,0.005631104,0.017309571,1.001546502
13.533087,-0.030487061,0.524757385,1.336296082,0.004044190,0.018774414,1.002645135
13.533712,-0.465362549,0.646827698,1.191337585,0.004532471,0.015844727,1.004232049
13.534337,-0.411956787,0.974891663,1.313407898,0.005753174,0.017187500,1.002400994
13.534962,-0.762908936,1.074073792,1.176078796,0.003311768,0.016455078,1.006673455
13.535588,-0.946014404,1.081703186,1.092155457,0.002213135,0.019140625,1.004598260
13.536214,-0.968902588,0.967262268,1.084526062,0.005631104,0.020239258,1.005818963
13.536841,-1.403778076,1.127479553,0.954826355,0.001114503,0.021704102,1.008504510
13.537467,-1.388519287,1.081703186,0.970085144,-0.001326904,0.017797852,1.007894158
13.538094,-1.708953857,1.035926819,1.137931824,-0.003524169,0.014379883,1.008748651
13.538720,-1.678436279,1.089332581,0.992973328,-0.005843505,0.011328125,1.008992791
13.540409,-2.098052979,0.723121643,1.130302429,-0.005843505,0.010229493,1.000203729
13.541034,-1.586883545,0.227210999,0.817497253,-0.007064208,0.010839844,1.001302361
13.541659,-1.914947510,0.517127991,0.741203308,-0.003768310,0.012548828,0.999105096
13.542284,-1.853912354,0.265357971,0.741203308,-0.001937255,0.007666016,0.995931268
13.542911,-1.808135986,0.234840393,0.695426941,-0.000838622,0.010473633,0.991292596
13.543537,-1.899688721,0.272987366,0.725944519,0.005020753,0.014746094,0.994100213
13.544164,-1.655548096,0.211952209,0.718315125,0.003433838,0.013769532,0.994710565
13.544791,-1.518218994,0.227210999,0.458915710,0.007950440,0.008886719,0.999105096
13.545417,-1.228302002,0.448463440,0.489433289,0.007950440,0.000463868,0.998128533
13.546042,-1.014678955,0.631568909,0.558097839,0.003555909,0.007543946,0.998860955
13.546668,-0.877349854,0.334022522,0.565727234,0.003189698,0.011572266,1.002645135
13.547293,-0.869720459,0.509498596,0.573356628,-0.001571044,0.013769532,1.006307244
13.547919,-0.595062256,0.562904358,0.558097839,-0.000716552,0.017675782,1.009969354
13.548544,-1.037567139,0.478981018,0.306327820,-0.002791747,0.018774414,1.012532830
13.549170,-1.075714111,0.303504944,0.374992371,0.000137940,0.019873047,1.017537713
13.550835,-1.487701416,0.318763733,0.222404480,0.001724854,0.015722657,1.025594354
13.551462,-1.594512939,0.501869202,0.024040215,0.000504151,0.009741211,1.022054315
13.552089,-1.754730225,0.334022522,0.252922058,0.000260010,0.008886719,1.019124627
13.552716,-1.647918701,0.372169495,0.077445976,0.000382081,0.003637696,1.014363885
13.571454,0.808746338,-0.207664490,0.069816582,-0.009261474,0.004492188,0.996175408
13.572100,0.907928467,-0.344993591,-0.044624336,-0.007918701,0.007666016,0.993978143
13.572727,0.701934814,-0.406028748,0.176628113,-0.005965576,0.009985352,0.991780877
13.573353,0.495941162,-0.505210876,0.199516296,-0.005111083,0.004370118,0.992757440
13.573978,0.541717529,-0.558616638,0.275810242,-0.004622802,-0.001611328,0.993245721
13.574604,0.732452393,-0.650169373,0.214775085,-0.002913818,-0.003320312,0.991536736
13.575230,0.671417236,-0.718833923,0.184257507,0.001968995,-0.007592773,0.993367791
13.575857,0.831634521,-0.352622986,0.260551453,-0.000960693,-0.010522461,0.991414666
13.576482,1.007110596,-0.360252380,0.291069031,0.001358643,-0.008691406,0.992513299
13.577107,1.220733643,-0.558616638,0.268180847,0.002091065,-0.006494140,0.992513299
13.577732,1.480133057,-0.009300232,0.107963555,0.004288331,-0.006738281,0.998983026
13.578358,1.373321533,-0.268699646,0.413139343,0.002091065,-0.006127929,0.999715447
13.578983,1.373321533,-0.222923279,0.374992371,0.000626221,-0.002465820,0.998494744
13.579609,1.342803955,-0.131370544,0.161369324,-0.003035888,0.000219727,1.002156854
13.581395,1.464874268,-0.253440857,0.291069031,-0.001326904,0.001074219,1.003621697
13.582022,1.243621826,-0.329734802,0.237663269,-0.000716552,0.000585938,1.004232049
13.582649,1.243621826,0.097511292,0.382621765,0.001358643,-0.003320312,1.004842401
13.583274,1.266510010,-0.276329041,0.283439636,-0.002059326,-0.005029297,1.003621697
13.583899,1.106292725,-0.207664490,0.222404480,0.001236573,-0.006494140,1.005574822
13.584524,1.342803955,-0.070335388,0.313957214,-0.001937255,-0.003808593,1.005452752
13.585151,1.228363037,-0.131370544,0.230033875,-0.003646240,-0.002587890,1.004720330
13.585778,1.480133057,-0.085594177,0.573356628,-0.000838622,-0.003564453,1.000692010
13.586404,1.220733643,-0.032188416,0.359733582,-0.002547607,-0.006982422,1.002523065
13.587031,1.426727295,-0.261070251,0.458915710,-0.002547607,-0.004907226,1.001668572
13.587658,1.457244873,-0.039817810,0.428398132,-0.004378662,-0.006982422,0.998738885
13.588284,1.319915771,-0.222923279,0.405509949,-0.006942138,-0.006250000,0.995687127
13.588910,1.228363037,-0.276329041,0.405509949,-0.006697997,-0.010522461,0.994344354
13.589536,1.472503662,-0.451805115,0.558097839,-0.001448974,-0.008203125,0.993001580
13.590162,1.670867920,-0.421287537,0.512321472,-0.004012451,-0.010400390,0.997274041
13.591790,1.991302490,-0.291587830,0.580986023,-0.003157958,-0.008081054,0.997274041
13.592417,2.006561279,-0.322105408,0.588615417,-0.002059326,-0.009179687,0.995320916
13.593042,1.785308838,-0.474693298,0.611503601,-0.000106201,-0.007592773,0.998372674
13.593668,1.747161865,-0.375511169,0.642021179,-0.002669677,-0.005517578,1.000447869
13.594295,1.625091553,-0.215293884,0.535209656,-0.000838622,-0.005273437,1.000692010
13.594921,1.853973389,-0.116111755,0.580986023,-0.003035888,-0.004541015,1.003743768
13.595546,1.686126709,-0.085594177,0.848014832,-0.000106201,-0.005517578,1.000936151
13.596173,1.457244873,-0.222923279,0.771720886,-0.001571044,-0.005151367,1.007527947
13.596800,1.449615479,-0.222923279,0.779350281,-0.000716552,-0.005029297,1.005086541
13.597427,1.091033936,0.036476135,0.710685730,-0.001326904,-0.006250000,1.006063104
13.598052,1.281768799,-0.062705994,0.733573914,-0.001693115,0.000341797,1.009359002
13.598679,0.846893311,-0.024559021,0.909049988,0.000748292,0.006689453,1.008870721
13.599305,0.511199951,0.128028870,0.786979675,-0.003157958,0.008886719,1.009114861
13.599932,-0.045745850,-0.146629333,0.893791199,-0.002547607,0.000341797,1.007650018
13.600557,0.076324463,-0.016929626,0.977714539,0.001114503,-0.006005859,1.008138299
13.602224,0.343353271,0.028846741,1.023490906,0.000382081,-0.027490234,1.001180291
13.602850,0.701934814,0.028846741,1.115043640,0.000137940,-0.026025390,0.997396111
13.603476,1.091033936,0.173805237,1.084526062,-0.003280029,-0.022851562,0.996907830
13.604101,1.525909424,-0.200035095,1.076896667,-0.004134521,-0.021264648,0.992757440
13.604727,1.564056396,-0.146629333,1.160820007,-0.001204833,-0.019433593,0.996663690
13.621786,-1.838653564,-0.314476013,2.198417664,-0.009383544,0.006933594,0.997151971
13.622463,-1.838653564,-0.314476013,2.198417664,-0.009383544,0.006933594,0.997151971
13.623088,-2.067535400,-0.200035095,2.099235535,-0.001815185,0.003149414,0.994100213
13.623715,-2.311676025,-0.245811462,2.091606140,0.001724854,-0.002221679,0.986409783
13.624341,-1.930206299,-0.146629333,2.206047058,0.006973878,-0.015161132,0.988851190
13.624966,-1.930206299,-0.146629333,2.206047058,0.006973878,-0.015161132,0.988851190
13.625593,-1.068084717,-0.100852966,2.373893738,0.000748292,-0.017236328,0.992391229
13.626219,-0.480621338,-0.116111755,2.221305847,0.000137940,-0.006860351,0.993245721
13.626845,-0.518768311,0.066993713,2.175529480,0.003800049,-0.001367187,0.991292596
13.627471,-0.747650146,0.410316467,2.282341003,0.006485596,0.007299805,0.995198846
13.628096,-0.740020752,0.692604065,2.167900085,0.008316651,0.009130860,0.995320916
13.628721,-0.801055908,0.944374084,2.106864929,0.009659424,0.014624024,1.001058221
13.629347,-1.014678955,1.226661682,2.106864929,0.009903565,0.017065430,1.006795526
13.629972,-0.877349854,1.028297424,2.129753113,0.007462159,0.012915039,1.009725213
13.630599,-1.037567139,0.959632874,2.183158875,0.000382081,0.008520508,1.012776971
13.632286,-0.915496826,0.471351624,1.939018250,-0.012679443,0.000463868,1.024129510
13.632913,-0.923126221,0.364540100,2.030570984,-0.011824951,0.005712891,1.021321893
13.633538,-0.961273193,0.211952209,1.931388855,-0.007308349,0.007177735,1.019734979
13.634164,-0.892608643,0.204322815,1.763542175,-0.001571044,0.010351563,1.019002557
13.634790,-1.159637451,-0.047447205,2.145011902,0.004044190,0.013525391,1.017171502
13.635416,-1.106231689,-0.032188416,1.855094910,0.004776612,0.012548828,1.013143182
13.636041,-1.083343506,0.120399475,1.626213074,0.000870362,0.007177735,1.013509393
13.636666,-1.335113525,0.082252502,1.908500671,0.003922120,0.009985352,1.014974236
13.637291,-1.266448975,0.089881897,1.771171570,0.002091065,0.015112305,1.008138299
13.637917,-1.281707764,-0.055076599,1.519401550,-0.001693115,0.014135743,1.006307244
13.638544,-1.060455322,-0.085594177,1.496513367,-0.004500732,0.011450196,1.008382440
13.639170,-0.976531982,-0.230552673,1.527030945,-0.003646240,0.014257813,1.004354119
13.639795,-0.785797119,0.013587952,1.382072449,0.001480713,0.010351563,0.999837518
13.640420,-0.900238037,-0.184776306,1.443107605,-0.001571044,0.001928711,1.004842401
13.641047,-0.633209229,-0.512840271,1.351554871,0.005753174,0.021093750,1.005452752
13.642710,-1.518218994,0.120399475,1.038749695,0.014298096,0.019750977,0.993001580
13.643337,-1.480072021,0.486610413,1.122673035,0.007706299,0.012060547,0.988240838
13.643962,-1.434295654,0.707862854,1.084526062,0.001968995,0.008276368,0.988729119
13.644587,-0.823944092,0.471351624,1.198966980,0.000382081,0.001440430,0.986531854
13.645213,-0.289886475,0.204322815,0.947196960,-0.006453857,-0.001489257,0.986165643
13.645839,0.152618408,-0.039817810,1.076896667,-0.010848388,-0.001000976,0.991414666
13.646465,0.442535400,-0.245811462,1.137931824,-0.005355224,0.003881836,0.989339471
13.647090,0.038177490,0.150917053,0.786979675,0.005509034,0.012304688,0.971517205
13.647716,-0.717132568,0.654457092,0.527580261,0.021134034,0.023779297,0.959432244
13.648342,-1.358001709,1.508949280,0.756462097,0.026383057,0.024633789,0.950521111
13.648968,-1.220672607,2.249000549,0.703056335,0.021988526,0.018774414,0.951497674
13.649593,-0.740020752,2.378700256,0.870903015,0.014420167,0.004370118,0.952962518
13.650218,-0.030487061,2.012489319,0.878532410,0.000992432,-0.012231445,0.953206658
13.650843,0.457794189,2.035377502,0.725944519,-0.013411865,-0.021142578,0.955525994
13.651469,0.907928467,1.821754456,0.619132996,-0.019881591,-0.026025390,0.959676385
13.653090,1.747161865,1.371620178,0.710685730,-0.010726318,-0.000878906,0.978597283
13.653716,2.105743408,1.585243225,0.710685730,-0.001693115,0.005224610,0.983602166
13.654341,1.884490967,1.707313538,0.542839050,0.007340088,-0.000512695,0.987874627
13.654967,1.571685791,1.508949280,0.649650574,0.002457276,-0.001977539,0.995442986
13.668671,-1.121490479,2.546546936,0.832756042,-0.009139404,-0.031274416,0.987020135
13.669371,-0.854461670,2.454994202,0.863273621,-0.009139404,-0.037622072,0.985311151
13.669996,-0.328033447,2.622840881,0.825126648,-0.000228271,-0.036035158,0.985189080
13.670622,0.343353271,2.454994202,1.000602722,-0.002303466,-0.021386718,0.982869744
13.671247,0.701934814,2.378700256,1.237113953,-0.006453857,-0.005883789,0.987386346
13.671874,0.747711182,2.149818420,1.176078796,-0.003768310,0.002905274,0.988607049
13.672500,0.282318115,2.111671448,1.054008484,0.001114503,0.005590821,0.986165643
13.673125,-0.251739502,2.516029358,0.985343933,0.006119385,0.005590821,0.982259393
13.673751,-0.999420166,3.027198792,1.076896667,0.007462159,0.004858399,0.976644158
13.674378,-1.831024170,3.393409729,1.229484558,0.011978760,-0.001367187,0.967122674
13.675005,-1.991241455,3.919837952,1.107414246,0.013199463,-0.006616211,0.961629510
13.675630,-1.586883545,4.415748596,1.343925476,0.006485596,-0.013085937,0.962484002
13.676255,-1.266448975,4.461524963,1.397331238,-0.001204833,-0.025781250,0.969686151
13.676882,-0.602691650,4.049537659,1.588066101,-0.012069091,-0.030664062,0.972371697
13.678638,0.312835693,2.935646057,1.687248230,-0.023787841,-0.018945312,1.003377557
13.679264,0.198394775,2.683876038,1.549919128,-0.017073974,-0.011010742,1.015218377
13.679891,0.144989014,2.577064514,1.610954285,-0.001815185,-0.004418945,1.013753533
13.680518,-0.465362549,3.019569397,1.603324890,0.010269776,0.005712891,1.012532830
13.681143,-0.999420166,3.233192444,1.450737000,0.011612549,0.006933594,1.015218377
13.681769,-1.228302002,3.118751526,1.847465515,0.011978760,0.002172852,1.018270135
13.682394,-1.350372314,3.515480042,1.923759460,0.007950440,0.000463868,1.018758416
13.683019,-1.449554443,3.385780334,1.633842468,-0.001693115,0.001440430,1.021932244
13.683646,-1.563995361,2.950904846,2.022941589,-0.007308349,-0.007836914,1.030110955
13.684271,-1.663177490,2.851722717,1.809318542,-0.012069091,-0.014062500,1.028035760
13.684898,-1.419036865,3.065345764,1.763542175,-0.007918701,-0.019311523,1.029622674
13.685523,-1.075714111,2.912757874,1.954277039,-0.002669677,-0.023461914,1.030721307
13.686149,-0.831573486,3.103492737,2.053459167,0.001724854,-0.021142578,1.031942010
13.686774,-0.854461670,3.019569397,2.015312195,0.008438721,-0.012353515,1.024617791
13.687399,-1.190155029,3.309486389,1.877983093,0.012100831,-0.005273437,1.022420526
13.689101,-2.082794189,3.835914612,2.083976746,0.007706299,0.000830078,1.024373651
13.689728,-2.128570557,3.713844299,2.221305847,0.000382081,0.011450196,1.021932244
13.690354,-2.532928467,3.980873108,2.152641296,0.007340088,-0.001367187,1.003377557
13.690980,-2.998321533,4.408119202,2.076347351,-0.000106201,0.003393555,0.987264276
13.691607,-3.265350342,4.766700745,1.870353699,0.002823487,0.001440430,0.978353143
13.692233,-3.288238525,5.087135315,2.587516785,0.002701417,-0.016625976,0.969686151
13.692858,-2.838104248,5.369422913,2.221305847,-0.002669677,-0.028344726,0.971761346
13.693483,-2.067535400,5.270240784,2.236564636,-0.000228271,-0.042260744,0.972493768
13.694109,-1.113861084,5.018470764,2.335746765,-0.010238037,-0.055932619,0.978719354
13.694734,-0.152557373,4.438636780,2.480705261,-0.021102294,-0.054589845,0.991658807
13.695359,0.801116943,3.851173401,2.457817078,-0.030135497,-0.047631837,1.001058221
13.695984,1.503021240,2.874610901,2.618034363,-0.036116943,-0.036157228,1.007039666
13.696610,1.724273682,2.714393616,2.442558289,-0.025008544,-0.017968750,0.998983026
13.697236,0.869781494,3.072975159,2.366264343,-0.007064208,0.002172852,0.985311151
13.697861,-0.061004639,3.500221252,2.389152527,0.010635987,0.012670899,0.984944940
13.699524,-1.083343506,5.041358948,2.587516785,0.021744385,0.013769532,0.981404901
13.700151,-1.533477783,4.980323792,2.694328308,0.016007081,-0.002709961,0.981282830
13.700776,-1.838653564,5.239723206,2.839286804,-0.000106201,-0.010278320,0.988240838
13.701402,-2.044647217,5.537269592,2.946098328,-0.013289794,-0.016870117,0.995076776
13.702031,-1.998870850,5.247352600,2.976615906,-0.023421630,-0.027490234,1.005330682
13.722388,-6.515472412,23.092506409,4.807670593,-0.025740966,-0.105737306,0.913045526
13.723124,-4.417388916,23.435829163,3.480155945,-0.045028076,-0.097924806,0.943318963
13.723749,-2.746551514,24.114845276,3.663261414,-0.056380615,-0.071679689,0.964925408
13.724375,-1.869171143,24.336097717,4.906852722,-0.059188232,-0.033227541,0.983602166
13.725001,-2.441375732,23.702857971,5.311210632,-0.041610107,-0.013208007,1.005086541
13.725626,-2.754180908,22.619483948,4.937370300,-0.021956787,-0.030664062,1.038289666
13.726251,-1.502960205,21.131752014,4.693229675,-0.047347412,-0.057031251,1.113607049
13.726876,1.121551514,17.309425354,5.883415222,-0.132552490,-0.089746095,1.221761346
13.727503,4.562408447,11.900184631,7.012565613,-0.114119872,-0.021630859,1.213582635
13.728128,-2.235382080,12.319801331,4.914482117,-0.020614013,0.080053709,1.045613885
13.728754,-11.009185791,15.997169495,3.510673523,0.016007081,0.110693358,1.005696893
13.729380,-15.060394287,19.216773987,3.838737488,0.021622315,0.099707030,1.029256463
13.730005,-12.290924072,18.690345764,5.692680359,-0.047591552,0.011816407,1.109334588
13.730631,-4.898040771,13.578651428,7.249076843,-0.148787841,-0.093774416,1.214437127
13.732359,-3.852813721,-1.840354919,5.990226746,-0.048201904,0.102514647,1.197835565
13.732984,-15.212982178,3.622291565,4.426200867,0.031632081,0.201147467,1.150960565
13.733611,-19.775360107,7.551429749,4.464347839,0.063980713,0.235693365,1.164510369
13.734238,-18.600433350,8.352516174,5.440910339,0.122208253,0.225561529,1.122396111
13.734864,-19.180267334,9.634254456,5.395133972,0.171890870,0.140722662,1.014852166
13.735490,-22.186248779,12.441871643,5.303581238,0.149552003,0.026098633,0.956624627
13.736116,-22.483795166,13.578651428,5.944450378,0.087296143,-0.043847658,0.994222283
13.736741,-21.354644775,14.883277893,5.013664246,0.048233643,-0.069482423,0.917195916
13.737368,-17.051666260,13.838050842,4.563529968,-0.146224365,-0.184960932,1.032308221
13.737993,-4.615753174,7.017372131,5.334098816,-0.277327895,-0.253808588,1.114827752
13.738620,7.392913818,-1.954795837,6.097038269,-0.317611098,-0.190454096,1.187947869
13.739245,9.285003662,-7.119895935,6.135185242,-0.198348388,-0.052148439,1.129476190
13.739870,10.284454346,-10.003807068,5.303581238,-0.273787856,-0.220605463,1.358113885
13.740496,17.662078857,-16.488792419,4.449089050,-0.231795654,-0.102807619,1.417928338
13.741122,15.663177490,-20.036460876,3.342826843,-0.098006591,0.119238280,1.271443963
13.742812,1.159698486,-17.175437927,2.007682800,0.137344971,0.270727545,1.150350213
13.743437,-10.253875732,-10.011436462,0.336845398,0.441544175,0.514746070,0.703450799
13.744064,-26.786773682,4.575965881,-0.441352844,0.461929917,0.445043951,0.594686151
13.744690,-24.871795654,12.312171936,1.847465515,0.199112549,0.223852545,0.767415643
13.745315,-12.153594971,9.718177795,4.899223328,0.037369385,0.077856444,0.737264276
13.745940,-5.042999268,5.407569885,4.494865417,-0.114608154,-0.129296869,0.780965447
13.746566,-0.122039795,1.257179260,3.724296570,-0.166732177,-0.169824213,0.857381463
13.747192,-0.297515869,0.562904358,2.503593445,-0.168441162,-0.167260736,0.919393182
13.747817,2.182037354,0.128028870,1.908500671,-0.179305419,-0.160058588,1.049275994
13.748442,9.262115479,-3.068687439,1.687248230,-0.188826904,-0.133325189,1.131795526
13.749067,16.899139404,-8.668663025,1.275260925,-0.160018310,-0.043725587,1.199056268
13.749694,17.814666748,-13.353111267,1.641471863,-0.079818115,0.015600586,1.157308221
13.750321,13.435394287,-14.001609802,1.191337585,0.039200440,0.048559569,1.203817010
13.750947,10.978729248,-13.490440369,-0.113288887,0.057388917,0.127539068,1.229207635
13.751572,7.080108643,-11.644126892,-1.715461731,0.088028565,0.245336920,1.142171502
13.753273,3.196746826,-16.969444275,-0.311653137,-0.080672607,0.433813483,1.161580682
13.753898,-5.790679932,-15.718223572,-0.662605286,0.000748292,0.442236334,1.044149041
13.754523,-15.563934326,-11.750938416,-1.120368958,0.048843995,0.272436529,1.104451776
13.768340,1.060516357,9.771583557,1.877983093,-0.150863037,0.474951178,1.198934197
13.769059,-0.862091064,12.464759827,1.832206726,0.028946534,0.385107428,1.264363885
13.769685,-3.410308838,18.179176331,2.206047058,0.173233643,0.272436529,1.349446893
13.770310,-7.163970947,23.847816467,3.297050476,0.308243394,0.088964842,1.439900994
13.770936,-10.795562744,29.630897522,3.983695984,0.399307847,-0.045922853,1.529012322
13.771561,-14.411895752,35.459754944,3.014762878,0.406876206,-0.060205080,1.548177361
13.772187,-18.272369385,39.922950745,0.909049988,0.301895738,-0.081201173,1.528035760
13.772813,-20.454376221,42.661903381,-0.578681946,0.176773682,-0.069360353,1.500447869
13.773440,-21.202056885,45.774696350,-0.914375305,0.072159424,0.018408203,1.455281854
13.774065,-21.347015381,48.193214417,-1.211921692,-0.023177490,0.112402342,1.415609002
13.774690,-21.461456299,49.276588440,-0.601570129,-0.091292724,0.136206061,1.383016229
13.775316,-21.270721436,48.780677795,0.443656921,-0.105697021,0.125341803,1.368856072
13.775941,-21.514862061,47.323463440,1.427848816,-0.101302490,0.086401366,1.332357049
13.776566,-23.498504639,44.576881409,1.465995789,-0.138533935,0.070043944,1.289022088
13.778320,-29.457061768,33.743141174,1.015861511,-0.210189208,0.033300780,1.190511346
13.778945,-30.853240967,28.936622620,1.389701843,-0.219588622,-0.023706054,1.118489861
13.779571,-30.464141846,25.327919006,1.954277039,-0.214461669,-0.077783205,1.031209588
13.780196,-29.388397217,22.650001526,1.702507019,-0.204573974,-0.117578126,0.931111932
13.780821,-28.762786865,20.513771057,1.244743347,-0.167098388,-0.137231439,0.853719354
13.781447,-26.374786377,17.835853577,1.321037292,-0.171004638,-0.205346674,0.845662713
13.782072,-21.743743896,14.860389709,1.618583679,-0.119002685,-0.226464838,0.813069940
13.782697,-17.349212646,11.869667053,1.740653992,-0.136947021,-0.177758783,0.748006463
13.783324,-12.298553467,7.894752502,0.870903015,-0.127181396,-0.257226557,0.734456658
13.783950,-5.828826904,5.361793518,1.557548523,-0.115096435,-0.300561517,0.753377557
13.784575,0.480682373,4.263160706,2.869804382,-0.078353271,-0.260156244,0.770955682
13.785201,4.882843018,4.774330139,2.640922546,-0.031356201,-0.167749017,0.777181268
13.785828,7.652313232,4.514930725,1.214225769,-0.008284912,-0.078759767,0.809163690
13.786453,9.750396729,5.354164124,1.198966980,0.065567628,0.007910157,0.883382440
13.787078,9.399444580,7.047889709,1.855094910,0.082291260,0.059667967,0.998860955
13.788744,-5.134552002,9.374855042,2.030570984,-0.039779052,0.175634772,1.238484979
13.789371,-10.116546631,9.634254456,1.778800964,-0.020003662,0.174780279,1.242147088
13.789996,-14.015167236,10.343788147,1.862724304,0.005631104,0.169042975,1.213216424
13.790623,-17.555206299,11.244056702,2.068717957,0.019058838,0.135595709,1.193807244
13.791250,-20.805328369,11.762855530,2.938468933,0.007340088,0.073706053,1.182698846
13.791875,-22.811859131,12.701271057,2.999504089,0.010391846,-0.006494140,1.159261346
13.792500,-23.483245850,13.548133850,2.381523132,0.004410401,-0.045190431,1.129109979
13.793126,-22.987335205,14.044044495,2.434928894,0.013809815,-0.044824220,1.091634393
13.793753,-22.102325439,15.043495178,2.587516785,0.035904542,-0.027368164,1.068929315
13.794380,-21.949737549,16.439674377,2.770622253,0.029556885,0.006933594,1.072347283
13.795007,-21.987884521,16.500709534,2.801139832,-0.018905029,0.030371094,1.057820916
13.795632,-22.613494873,15.798805237,2.862174988,-0.043319091,-0.065942384,1.019612908
13.796258,-21.041839600,15.730140686,1.954277039,-0.052596435,-0.131249994,0.991902947
13.796885,-17.715423584,15.302894592,1.801689148,-0.056136474,-0.138330072,0.993489861
13.797511,-14.175384521,14.425514221,2.404411316,-0.046737060,-0.109643556,1.013143182
13.799211,-11.947601318,10.153053284,2.267082214,-0.133162841,-0.035180666,1.040364861
13.799836,-12.092559814,8.009193420,2.305229187,-0.115706787,-0.049218751,1.021321893
13.800462,-11.932342529,6.254432678,2.572257996,-0.103011474,-0.022241211,1.005208611
13.801088,-12.550323486,4.408119202,2.755363464,-0.094832763,0.004736328,0.971761346
13.814758,1.953155518,2.897499084,2.312858582,-0.059310302,0.027441407,1.046712518
13.815466,0.518829346,2.500770569,2.068717957,-0.071517333,0.005712891,1.033284783
13.816091,-0.335662842,1.730201721,2.137382507,-0.062362060,-0.022607422,1.015218377
13.816716,-1.144378662,1.272438049,2.335746765,-0.028548583,-0.040551759,0.990193963
13.817341,-0.900238037,1.608131409,2.427299500,-0.014754638,-0.045678712,0.961629510
13.817967,-0.709503174,1.905677795,2.701957703,-0.018294677,-0.037988283,0.943074822
13.818593,-0.205963135,1.989601135,2.976615906,-0.051741943,-0.032495119,0.945027947
13.819219,0.305206299,1.028297424,2.701957703,-0.061629638,-0.025292968,0.948079705
13.819844,0.679046631,0.486610413,2.991874695,-0.048690185,-0.020043945,0.955770135
13.820471,0.679046631,0.570533752,2.938468933,-0.046004638,-0.029931640,0.973958611
13.821097,0.869781494,0.013587952,2.923210144,-0.049666747,-0.034204103,0.993245721
13.821723,0.755340576,-0.268699646,3.220756531,-0.043685302,-0.016137695,0.999959588
13.822350,0.312835693,-0.261070251,3.289421082,-0.030013427,0.006933594,0.998860955
13.822976,-0.610321045,-0.169517517,2.976615906,-0.036727294,-0.002465820,1.008260369
13.824747,-1.831024170,-0.100852966,3.136833191,-0.022322997,0.006323243,0.993734002
13.825373,-2.059906006,0.143287659,2.808769226,-0.031844482,0.007055664,0.991902947
13.825999,-2.082794189,-0.169517517,3.091056824,-0.048201904,0.005957032,0.992025018
13.826625,-1.892059326,-0.612022400,2.839286804,-0.041488037,0.011816407,0.987874627
13.827250,-1.869171143,-0.711204529,2.755363464,-0.032210693,0.001928711,1.000203729
13.827876,-1.991241455,-0.604393005,2.740104675,-0.019271240,-0.002709961,1.011922479
13.828503,-2.052276611,-0.467063904,2.694328308,-0.009261474,-0.016625976,1.029500604
13.829128,-1.922576904,-0.123741150,2.572257996,-0.019881591,-0.024560547,1.041951776
13.829754,-1.823394775,0.265357971,2.663810730,-0.028182372,-0.026025390,1.045735955
13.830379,-1.403778076,0.196693420,2.671440125,-0.033187255,-0.018212890,1.048543572
13.831005,-0.801055908,0.044105530,2.541740417,-0.020614013,-0.014916992,1.042684197
13.831630,-0.541656494,0.387428284,2.259452820,-0.030867919,-0.021875000,1.037679315
13.832256,-0.228851318,-0.138999939,2.549369812,-0.032332763,-0.020898437,1.028035760
13.832883,0.114471436,0.005958557,2.587516785,-0.015731201,-0.019555664,1.021199822
13.833510,0.740081787,0.402687073,2.396781921,-0.002791747,-0.011254882,1.010579705
13.835185,2.342254639,0.883338928,2.076347351,-0.031600341,0.008276368,1.015950799
13.835811,2.594024658,0.784156799,2.030570984,-0.030867919,0.016821289,1.021077752
13.836437,1.968414307,0.746009827,1.862724304,-0.030623779,0.010107422,1.030477166
13.837063,1.617462158,0.723121643,1.748283386,-0.025496826,0.008398438,1.032796502
13.837690,1.220733643,0.997779846,1.603324890,-0.021468505,0.014624024,1.028768182
13.838316,1.045257568,1.234291077,1.603324890,-0.032088622,0.013891602,1.020345330
13.838941,0.694305420,1.119850159,1.473625183,-0.046126708,0.010595703,1.009359002
13.839566,0.602752686,0.471351624,1.298149109,-0.040023193,0.003515625,0.991780877
13.840191,0.785858154,0.425575256,1.374443054,-0.030867919,-0.002832031,0.976155877
13.840818,1.083404541,0.364540100,1.374443054,-0.033675537,-0.010034179,0.966756463
13.841445,1.319915771,0.372169495,1.198966980,-0.037215576,-0.009545898,0.968343377
13.842070,1.991302490,0.082252502,0.870903015,-0.034407958,-0.003442382,0.968343377
13.842697,2.235443115,-0.009300232,1.115043640,-0.028670654,0.000585938,0.974568963
13.843322,2.738983154,0.036476135,1.122673035,-0.028060302,0.000463868,0.988851190
13.843948,2.822906494,0.120399475,0.764091492,-0.034163818,0.001684571,1.000203729
13.845598,2.502471924,-0.055076599,1.084526062,-0.030379638,0.006811524,1.019979119
13.846224,1.823455811,-0.100852966,0.710685730,-0.032576904,0.008154297,1.025960565
13.846851,1.724273682,0.005958557,0.733573914,-0.026961669,0.006811524,1.025838494
13.847478,1.411468506,-0.062705994,0.733573914,-0.020003662,-0.001489257,1.027913690
13.848104,1.098663330,0.036476135,0.580986023,-0.024031982,-0.012475586,1.025716424
13.861814,1.922637939,0.379798889,0.542839050,-0.035506591,-0.014428711,0.978109002
13.862494,1.579315186,0.578163147,0.573356628,-0.040877685,-0.014916992,0.977498651
13.863121,1.579315186,0.227210999,0.611503601,-0.044539794,-0.016381836,0.979207635
13.863747,1.335174561,-0.009300232,0.680168152,-0.041732177,-0.016870117,0.977376580
13.864374,1.373321533,-0.062705994,0.611503601,-0.039901122,-0.012963867,0.972859979
13.865000,1.136810303,-0.283958435,0.710685730,-0.040633544,-0.015893554,0.974080682
13.865627,1.197845459,-0.383140564,0.550468445,-0.039290771,-0.020532226,0.972982049
13.866252,1.144439697,-0.306846619,0.970085144,-0.039046630,-0.023095703,0.976155877
13.866879,1.503021240,-0.520469666,0.664909363,-0.034774169,-0.021752929,0.979940057
13.867504,1.510650635,-0.703575134,0.710685730,-0.034041747,-0.018090820,0.985555291
13.868130,1.823455811,-0.528099060,0.657279968,-0.031722412,-0.015893554,0.991536736
13.868755,1.815826416,-0.627281189,0.672538757,-0.032698974,-0.018212890,0.999959588
13.869381,1.457244873,-0.612022400,0.573356628,-0.032088622,-0.015771484,1.007161736
13.870008,1.472503662,-0.695945740,0.611503601,-0.029769287,-0.009790039,1.014119744
13.871781,0.663787842,-0.665428162,0.390251160,-0.032576904,-0.004052734,1.013387322
13.872407,0.656158447,-0.566246033,0.619132996,-0.029525146,-0.004052734,1.008748651
13.873034,0.297576904,-0.604393005,0.786979675,-0.032576904,-0.007226562,1.008260369
13.873659,0.175506592,-0.398399353,0.634391785,-0.029647216,0.002539063,1.008748651
13.874285,-0.480621338,-0.314476013,0.939567566,-0.012069091,0.032934569,1.014119744
13.874910,-1.152008057,-0.787498474,0.710685730,-0.059432372,-0.007958984,1.035604119
13.875536,-1.144378662,-0.726463318,0.451286316,-0.033431396,-0.020410156,0.999349236
13.876162,-1.068084717,-0.283958435,0.603874207,-0.010115966,-0.011621093,0.994710565
13.876788,-0.617950439,-0.726463318,0.817497253,-0.025985107,-0.043603517,0.995198846
13.877414,0.236541748,-0.413658142,0.619132996,-0.035872802,-0.047143556,0.980428338
13.878039,0.831634521,-0.451805115,0.397880554,-0.038314208,-0.030297851,0.983968377
13.878666,1.014739990,-0.810386658,0.725944519,-0.044661865,-0.029809570,0.983358026
13.879293,1.350433350,-0.711204529,0.603874207,-0.040633544,-0.023095703,0.978719354
13.879920,1.586944580,-0.795127869,0.535209656,-0.035994872,-0.009667968,0.981526971
13.880547,1.533538818,-1.352073669,0.489433289,-0.043074951,-0.006005859,0.979573846
13.882204,1.075775146,-1.451255798,0.420768738,-0.039656982,-0.015161132,0.985311151
13.882830,0.976593018,-1.527549744,0.558097839,-0.040755615,-0.013818359,0.983602166
13.883455,0.816375732,-1.672508240,0.489433289,-0.036971435,-0.018945312,0.987386346
13.884081,1.297027588,-1.367332458,0.497062683,-0.034285888,-0.020288086,0.988607049
13.884707,1.098663330,-1.420738220,0.550468445,-0.036605224,-0.021752929,0.994710565
13.885333,1.197845459,-1.359703064,0.512321472,-0.034652099,-0.021386718,0.998006463
13.885960,1.174957275,-1.558067322,0.550468445,-0.034774169,-0.018945312,1.005330682
13.886586,1.396209717,-1.497032166,0.779350281,-0.032576904,-0.017602539,1.009847283
13.887211,1.388580322,-1.703025818,0.580986023,-0.033065185,-0.011499023,1.011556268
13.887837,1.319915771,-1.451255798,0.535209656,-0.031966552,-0.011376953,1.017415643
13.888464,0.984222412,-1.878501892,0.481803894,-0.031722412,-0.011132812,1.019490838
13.889090,1.022369385,-1.352073669,0.634391785,-0.030989990,-0.005883789,1.023885369
13.889715,0.740081787,-1.611473083,0.558097839,-0.033675537,-0.005395507,1.026326776
13.890340,0.526458740,-1.245262146,0.519950867,-0.030257568,-0.011743164,1.026448846
13.890965,0.404388428,-1.329185486,0.489433289,-0.027938232,-0.014062500,1.029622674
13.892635,0.350982666,-1.001121521,0.565727234,-0.029769287,-0.018945312,1.032552361
13.893260,0.175506592,-1.222373962,0.741203308,-0.027938232,-0.019433593,1.033040643
13.893885,0.221282959,-1.046897888,0.703056335,-0.029036865,-0.014916992,1.030233026
13.894511,0.160247803,-0.894309998,0.733573914,-0.028060302,-0.018701172,1.028646111
13.908117,0.091583252,-0.924827576,1.420219421,-0.026229247,-0.021997070,1.006307244
13.908809,0.114471436,-0.734092712,1.221855164,-0.027083740,-0.019921875,1.003743768
13.909435,-0.114410400,-0.657798767,1.588066101,-0.028548583,-0.023950195,1.009725213
13.910060,-0.343292236,-0.711204529,1.282890320,-0.029891357,-0.019921875,1.009725213
13.910686,-0.343292236,-0.695945740,1.328666687,-0.029891357,-0.021630859,1.010579705
13.911311,-0.419586182,-0.619651794,1.702507019,-0.026351318,-0.019311523,1.007039666
13.911938,-0.358551025,-0.779869080,1.366813660,-0.025740966,-0.023950195,1.002400994
13.912563,-0.404327393,-0.543357849,1.435478210,-0.029281005,-0.023706054,1.002767205
13.913194,-0.541656494,-0.505210876,1.618583679,-0.028670654,-0.026879882,1.001058221
13.913820,-0.534027100,-0.756980896,1.633842468,-0.028792724,-0.023583984,1.005574822
13.914445,-0.480621338,-0.360252380,1.656730652,-0.031234130,-0.025292968,1.007039666
13.915072,-0.671356201,-0.505210876,1.809318542,-0.026107177,-0.025659179,1.008626580
13.915697,-0.839202881,-0.528099060,1.870353699,-0.026595458,-0.027734375,1.007650018
13.916323,-1.083343506,-0.238182068,1.801689148,-0.027327880,-0.026757812,1.005818963
13.918089,-1.174896240,-0.421287537,2.030570984,-0.029891357,-0.026635742,1.004354119
13.918715,-1.213043213,-0.467063904,2.106864929,-0.030867919,-0.027490234,0.999471307
13.919342,-1.251190186,-0.314476013,2.076347351,-0.031356201,-0.028466797,1.000814080
13.919968,-1.434295654,-0.360252380,2.297599792,-0.027327880,-0.026025390,0.994954705
13.920594,-1.434295654,-0.360252380,2.297599792,-0.027327880,-0.026025390,0.994954705
13.921219,-1.358001709,-0.253440857,2.305229187,-0.029647216,-0.024438476,0.993978143
13.921844,-1.266448975,-0.306846619,2.503593445,-0.031234130,-0.024560547,0.992269158
13.922470,-1.251190186,-0.352622986,2.236564636,-0.027938232,-0.022485351,0.993734002
13.923096,-1.190155029,-0.421287537,2.343376160,-0.025374755,-0.020532226,0.992635369
13.923722,-1.007049561,-0.299217224,2.427299500,-0.025863037,-0.012109375,0.988973260
13.924347,-1.129119873,-0.543357849,2.213676453,-0.031112060,-0.012841797,0.986653924
13.924973,-1.174896240,-0.283958435,2.244194031,-0.031356201,-0.010400390,0.988118768
13.925599,-1.083343506,-0.375511169,2.412040710,-0.031112060,-0.015405273,0.990926385
13.926225,-0.999420166,-0.276329041,2.320487976,-0.032576904,-0.015161132,0.990804315
13.926850,-1.129119873,-0.383140564,2.251823425,-0.032454833,-0.018334961,0.990682244
13.928520,-0.762908936,-0.703575134,2.274711609,-0.034041747,-0.016381836,0.987142205
13.929145,-0.709503174,-0.650169373,2.183158875,-0.031356201,-0.016503906,0.984090447
13.929772,-0.366180420,-0.726463318,2.259452820,-0.034163818,-0.015161132,0.985799432
13.930397,-0.335662842,-0.787498474,2.137382507,-0.030013427,-0.008935547,0.989461541
13.931023,-0.083892822,-0.711204529,2.328117371,-0.030013427,-0.008813476,0.995320916
13.931648,-0.099151611,-0.818016052,2.244194031,-0.029647216,-0.007104492,1.000081658
13.932274,0.076324463,-0.741722107,2.007682800,-0.027449951,-0.009423828,1.008992791
13.932901,0.366241455,-1.077415466,2.221305847,-0.032332763,-0.016870117,1.025960565
13.933526,0.755340576,-1.237632751,1.961906433,-0.017562255,-0.009301757,1.020345330
13.934152,0.755340576,-0.749351501,1.809318542,-0.006697997,0.005346680,1.014852166
13.934777,0.732452393,-0.230552673,1.710136414,-0.007186279,0.010839844,1.012288690
13.935402,0.213653564,0.051734924,1.755912781,-0.019881591,0.015966797,1.021199822
13.936033,-0.114410400,0.112770081,1.633842468,-0.035994872,0.022802735,1.020711541
13.936660,-0.587432861,-0.100852966,1.542289734,-0.045516357,0.025244141,1.020711541
13.937285,-0.701873779,-0.268699646,1.374443054,-0.041610107,0.023046875,1.017171502
13.938957,-1.022308350,-0.390769958,1.290519714,-0.025985107,-0.007836914,0.999593377
13.939584,-0.678985596,-0.276329041,1.237113953,-0.032576904,-0.012597656,0.999349236
13.940210,-0.534027100,-0.596763611,1.038749695,-0.034163818,-0.016870117,0.996785760
13.940835,0.091583252,-0.505210876,1.115043640,-0.033309326,-0.015893554,0.998128533
13.954506,1.205474854,0.242469788,0.275810242,-0.032332763,-0.018212890,1.002889276
13.955190,1.220733643,0.425575256,0.199516296,-0.035994872,-0.018701172,1.001424432
13.955815,1.235992432,0.440834045,0.153739929,-0.034407958,-0.016992187,1.000692010
13.956440,1.548797607,0.204322815,0.100334160,-0.032698974,-0.019189453,0.999349236
13.957065,1.655609131,0.227210999,0.069816582,-0.031722412,-0.019677734,1.004598260
13.957690,1.579315186,0.265357971,0.306327820,-0.033919677,-0.017602539,1.001912713
13.958316,1.579315186,0.028846741,0.146110535,-0.033309326,-0.015405273,1.001424432
13.958942,1.411468506,0.082252502,0.016410820,-0.030745849,-0.013452148,1.001790643
13.959569,1.396209717,0.166175842,0.077445976,-0.029647216,-0.013085937,1.004964471
13.960196,1.472503662,0.120399475,0.161369324,-0.030257568,-0.021386718,1.000692010
13.960822,1.350433350,0.120399475,-0.036994942,-0.028914794,-0.018701172,1.001790643
13.961448,1.686126709,0.074623108,0.245292664,-0.032210693,-0.022119140,1.001912713
13.962074,1.892120361,0.219581604,0.130851746,-0.032943115,-0.021142578,1.002034783
13.962701,2.304107666,0.066993713,-0.082771309,-0.028426513,-0.022485351,1.008992791
13.964478,2.449066162,0.158546448,0.031669609,-0.029647216,-0.011865234,1.009114861
13.971671,1.281768799,-0.093223572,-0.036994942,-0.034774169,-0.012109375,0.984578729
13.972297,1.289398193,-0.161888123,-0.014106758,-0.037093505,-0.012475586,0.987630486
13.972923,1.297027588,-0.245811462,-0.181953430,-0.036116943,-0.011376953,0.991658807
13.974565,1.174957275,-0.596763611,-0.105659492,-0.017318115,0.001196289,0.988851190
13.975190,0.770599365,-0.062705994,-0.281135559,-0.010238037,0.010595703,0.986287713
13.975815,0.358612061,0.196693420,-0.304023743,-0.013533935,0.005102539,0.986165643
13.976441,0.106842041,0.410316467,-0.159065247,-0.022200927,-0.001855468,0.996541619
13.977068,-0.190704346,0.349281311,-0.166694641,-0.033553466,-0.008203125,0.998860955
13.977693,-0.106781006,0.349281311,-0.159065247,-0.036605224,-0.007470703,0.998860955
13.978320,-0.038116455,0.234840393,-0.319282532,-0.035140380,-0.012841797,1.001302361
13.978947,-0.312774658,0.044105530,-0.235359192,-0.029647216,-0.017358398,1.000325799
13.979573,-0.144927979,0.021217346,-0.334541321,-0.031356201,-0.020898437,0.998860955
13.980198,-0.152557373,-0.039817810,-0.189582825,-0.031234130,-0.020410156,0.996053338
13.980824,-0.099151611,0.028846741,-0.304023743,-0.030135497,-0.022973632,1.000936151
13.981449,0.282318115,-0.077964783,-0.265876770,-0.030257568,-0.027124023,1.005452752
13.982076,0.526458740,-0.222923279,-0.174324036,-0.030623779,-0.025903320,1.008138299
13.982702,0.640899658,-0.116111755,-0.204841614,-0.028304443,-0.017114257,1.005818963
13.983327,0.442535400,-0.192405701,-0.220100403,-0.025130615,-0.018701172,1.007772088
13.984967,0.923187256,-0.245811462,-0.342170715,-0.025496826,-0.008203125,1.023763299
13.985594,0.946075439,-0.390769958,-0.021736152,-0.023299560,-0.008081054,1.030721307
13.986220,0.801116943,-0.421287537,-0.227729797,-0.016341552,-0.006372070,1.030721307
13.986846,0.618011475,-0.001670837,-0.166694641,-0.016585693,-0.005883789,1.034627557
13.987473,0.450164795,-0.001670837,-0.136177063,-0.019515380,-0.002343750,1.038289666
13.988098,0.350982666,-0.138999939,-0.304023743,-0.019637451,0.001074219,1.037068963
13.988724,-0.167816162,0.326393127,-0.418464661,-0.015120849,-0.000634765,1.030110955
13.989351,-0.740020752,0.540016174,-0.098030098,-0.019759521,0.004858399,1.020955682
13.989977,-1.068084717,0.974891663,-0.227729797,-0.020858154,-0.000756836,1.016439080
13.990602,-1.373260498,0.974891663,-0.136177063,-0.025618896,-0.011010742,1.013143182
13.991227,-1.327484131,0.715492249,-0.159065247,-0.030623779,-0.016381836,1.009359002
13.991854,-1.403778076,0.715492249,-0.082771309,-0.036849365,-0.023095703,1.007772088
13.992480,-1.388519287,0.501869202,-0.166694641,-0.034896240,-0.016870117,0.997518182
13.993105,-1.220672607,0.616310120,-0.319282532,-0.027205810,-0.019433593,0.987264276
13.993730,-1.190155029,0.906227112,-0.197212219,-0.025496826,-0.020043945,0.986898065
14.007394,-1.182525635,0.982521057,-0.311653137,-0.021712646,-0.006250000,1.038045526
14.008071,-1.365631104,0.990150452,-0.410835266,-0.023909912,-0.018701172,1.036946893
14.008697,-1.083343506,0.829933167,-0.510017395,-0.024154052,-0.025537109,1.023641229
14.009323,-0.801055908,1.257179260,-0.754158020,-0.024031982,-0.029321289,1.013509393
14.009948,-0.511138916,1.157997131,-0.586311340,-0.022567138,-0.021630859,1.006063104
14.010573,-0.602691650,1.539466858,-0.479499817,-0.021590576,-0.011987304,0.995198846
14.011199,-0.923126221,1.707313538,-0.525276184,-0.022200927,-0.000756836,0.995687127
14.011824,-1.090972900,1.966712952,-0.426094055,-0.028426513,0.003149414,0.996419549
14.012449,-1.274078369,1.966712952,-0.677864075,-0.037947997,0.001196289,0.997029901
14.013075,-1.258819580,1.325843811,-0.464241028,-0.041610107,-0.005517578,0.997884393
14.013702,-1.609771729,1.310585022,-0.662605286,-0.040267333,-0.006372070,0.991414666
14.014328,-1.556365967,1.028297424,-0.555793762,-0.041610107,-0.007470703,0.989217401
14.014955,-1.518218994,0.669715881,-0.624458313,-0.043319091,-0.021875000,0.983602166
14.015580,-1.144378662,0.425575256,-0.731269836,-0.034530029,-0.027246093,0.975789666
14.016206,-0.869720459,0.250099182,-0.586311340,-0.035384521,-0.033349611,0.970052361
14.017800,0.373870850,-0.100852966,-0.716011047,-0.039168701,-0.038720705,0.971273065
14.018426,0.946075439,-0.703575134,-0.441352844,-0.043685302,-0.037377931,0.973226190
14.019051,1.434356689,-0.856163025,-0.662605286,-0.047103271,-0.036889650,0.975911736
14.019678,2.151519775,-1.367332458,-0.792304993,-0.048812255,-0.035058595,0.982747674
14.020304,2.586395264,-1.886131287,-0.647346497,-0.046737060,-0.038232423,0.987874627
14.020930,3.364593506,-1.970054626,-0.738899231,-0.038802490,-0.028955078,0.988729119
14.021555,3.486663818,-2.198936462,-0.906745911,-0.052230224,-0.037255861,0.992269158
14.022181,3.616363525,-2.435447693,-0.700752258,-0.044173583,-0.047265626,0.995198846
14.022807,4.165679932,-3.106834412,-0.746528625,-0.028792724,-0.042260744,1.014241815
14.023433,5.065948486,-3.419639587,-0.700752258,-0.026351318,-0.027490234,1.016072869
14.024060,5.432159424,-3.412010193,-0.578681946,-0.014754638,-0.009545898,1.016927361
14.024685,4.852325439,-3.297569275,-0.532905579,-0.041610107,-0.001855468,1.023030877
14.025310,4.417449951,-3.526451111,-0.853340149,-0.043197021,0.001806641,1.023030877
14.025935,4.005462646,-3.144981384,-0.525276184,-0.028304443,0.003881836,1.021688104
14.026562,3.601104736,-2.862693787,-0.510017395,-0.021102294,-0.004418945,1.024495721
14.028245,3.898651123,-3.061058044,-0.685493469,-0.012801513,-0.024072265,1.020833611
14.028872,3.913909912,-2.694847107,-0.731269836,-0.037215576,-0.032739259,1.026692986
14.029497,4.692108154,-3.350975037,-0.540534973,-0.063704833,-0.041284181,1.043538690
14.030124,5.630523682,-4.480125427,-0.372688293,-0.083480224,-0.053857423,1.052205682
14.030750,6.584197998,-5.632164001,-0.395576477,-0.083846435,-0.059106447,1.054769158
14.031376,7.339508057,-6.562950134,-0.601570129,-0.082381591,-0.059228517,1.064778924
14.032002,8.651763916,-7.684471130,-0.441352844,-0.070174560,-0.052026369,1.079305291
14.032628,9.513885498,-8.767845154,-0.754158020,-0.033309326,-0.032983400,1.074666619
14.033254,9.468109131,-8.737327576,-0.937263489,0.011856690,-0.009423828,1.056600213
14.033881,8.735687256,-7.508995056,-0.487129211,-0.021346435,0.008886719,1.040975213
14.034507,8.125335693,-6.898643494,-0.220100403,-0.038558349,0.023657227,1.028401971
14.035134,7.057220459,-6.456138611,-0.860969543,-0.016829833,0.020727539,1.001058221
14.035761,6.752044678,-6.234886169,-0.777046204,-0.018538818,0.000708008,1.004842401
14.036387,7.156402588,-6.768943787,-0.700752258,-0.015731201,-0.024560547,1.008748651
14.037013,8.163482666,-7.318260193,-0.593940735,-0.032576904,-0.053979494,1.018148065
14.038696,9.269744873,-8.462669373,-1.173774719,-0.030745849,-0.020898437,1.010457635
14.039323,10.566741943,-8.867027283,-0.601570129,-0.098128662,-0.075952150,1.056722283
14.039950,12.901336670,-11.049034119,-0.662605286,-0.104476318,-0.074365236,1.051839471
14.053670,6.988555908,-17.198326111,-1.608650208,0.013077393,0.090795897,1.080403924
14.054430,7.240325928,-16.618492126,-2.524177551,-0.006453857,0.033300780,1.081868768
14.055056,5.195648193,-15.657188416,-1.677314758,-0.027572021,0.066870116,1.073201776
14.055681,1.571685791,-14.283897400,-0.792304993,0.007706299,0.009375000,1.066976190
14.056306,0.648529053,-12.140037537,-1.791755676,0.021866456,-0.041162111,1.057942986
14.056932,1.693756104,-11.506797791,-2.745429993,-0.002669677,-0.018212890,1.015462518
14.057557,1.953155518,-12.254478455,-2.066413879,0.003067628,-0.032739259,0.981771111
14.058182,3.036529541,-11.155845642,-1.707832336,0.053848878,-0.042626955,0.973104119
14.058808,3.669769287,-8.783103943,-1.959602356,0.038101807,0.025854493,0.961751580
14.059435,2.754241943,-7.737876892,-2.676765442,-0.009871826,0.066625975,0.937703729
14.060060,2.418548584,-8.271934509,-2.737800598,-0.026229247,0.034643553,0.906087518
14.060686,3.852874756,-8.920433044,-2.653877258,-0.049422607,-0.002465820,0.887410760
14.061311,5.928070068,-10.034324646,-2.692024231,-0.060775146,-0.034082033,0.869710565
14.061937,8.247406006,-10.659934998,-2.737800598,-0.049544677,-0.053247072,0.877645135
14.063641,11.413604736,-13.322593689,-2.257148743,-0.114608154,-0.003076172,0.909261346
14.064267,13.053924561,-15.741111755,-2.219001770,-0.119002685,-0.011621093,0.942952752
14.064894,14.320404053,-18.174888611,-1.860420227,-0.130111083,0.005102539,0.984334588
14.065520,14.862091064,-20.890953064,-2.066413879,-0.136947021,0.019750977,1.017415643
14.066147,13.664276123,-22.851707458,-2.493659973,-0.107039794,0.056738280,1.012166619
14.066772,10.284454346,-23.362876892,-3.226081848,-0.073226318,0.091040038,0.978597283
14.067397,6.851226807,-23.256065369,-3.767768860,-0.026717529,0.113989256,0.927205682
14.068031,4.097015381,-22.493125916,-3.454963684,0.022476807,0.108374022,0.886922479
14.068657,2.365142822,-20.349266052,-3.393928528,0.063126221,0.098852538,0.846150994
14.069282,0.686676025,-18.838645935,-2.661506653,0.065445557,0.078466795,0.831136346
14.069909,-0.488250732,-18.083335876,-2.516548157,0.015030518,0.001562500,0.795003533
14.070535,0.312835693,-17.465354919,-3.401557922,-0.011947021,-0.035424806,0.770833611
14.071161,1.785308838,-16.114952087,-3.737251282,-0.000350341,-0.030297851,0.795125604
14.071787,3.288299561,-14.322044373,-3.180305481,-0.012191162,0.011328125,0.811116815
14.072413,3.509552002,-13.444664001,-3.172676086,-0.007064208,0.003515625,0.829549432
14.074101,4.203826904,-10.331871033,-3.432075500,0.041153565,0.006811524,0.925984979
14.074726,3.028900146,-9.225608826,-3.569404602,0.035904542,-0.006738281,0.960652947
14.075352,2.548248291,-7.974388123,-3.706733704,0.008194581,0.012792969,0.978353143
14.075977,1.670867920,-7.577659607,-4.156867981,-0.024398193,0.018286133,0.987386346
14.076603,1.510650635,-7.524253845,-3.989021301,-0.023543701,-0.006127929,0.997518182
14.077228,1.853973389,-6.807090759,-3.897468567,-0.021590576,-0.005761718,1.015950799
14.077854,1.548797607,-6.906272888,-3.950874329,-0.034163818,0.008886719,1.014119744
14.078481,1.319915771,-7.341148376,-4.195014954,-0.022567138,-0.003442382,1.020711541
14.079106,1.029998779,-7.287742615,-3.966133118,-0.015487060,-0.002099609,1.027425408
14.079732,1.136810303,-7.386924744,-3.859321594,-0.014998779,0.004736328,1.027913690
14.080357,0.595123291,-7.539512634,-3.889839172,-0.008284912,-0.005273437,1.029134393
14.080982,0.236541748,-6.868125916,-3.821174622,0.003067628,-0.011621093,1.035237908
14.081607,0.015289307,-6.326438904,-3.943244934,-0.000106201,-0.016870117,1.034993768
14.082232,0.007659912,-6.105186462,-3.897468567,-0.001937255,-0.028222656,1.025472283
14.082859,0.541717529,-5.807640076,-3.874580383,-0.003768310,-0.038598634,1.022664666
14.084559,1.480133057,-5.784751892,-3.836433411,-0.017684326,-0.037866212,1.015828729
14.085185,1.586944580,-5.853416443,-3.653327942,-0.016707763,-0.038354494,1.016194940
14.085810,2.021820068,-5.616905212,-3.599922180,-0.020247802,-0.032861330,1.017293572
14.099589,1.129180908,-4.335166931,-2.112190247,-0.015731201,-0.030541992,0.983358026
14.100290,1.121551514,-3.930809021,-1.929084778,-0.014144287,-0.028222656,0.993856072
14.100917,1.029998779,-4.075767517,-1.860420227,-0.012313232,-0.027978515,0.997884393
14.101543,0.579864502,-3.930809021,-1.669685364,-0.014632568,-0.029809570,1.001668572
14.102169,0.785858154,-4.007102966,-1.692573547,-0.014632568,-0.027978515,1.004842401
14.102796,0.671417236,-3.762962341,-1.715461731,-0.011458740,-0.035424806,1.010457635
14.103422,0.297576904,-3.511192322,-1.677314758,-0.013045654,-0.034326173,1.018025994
14.104047,0.732452393,-3.434898376,-1.425544739,-0.011336669,-0.034814455,1.021932244
14.104672,0.625640869,-3.228904724,-1.379768372,-0.008162841,-0.035546876,1.027791619
14.105297,0.808746338,-3.267051697,-1.364509583,-0.004378662,-0.032983400,1.036214471
14.105922,0.808746338,-2.984764099,-1.089851379,-0.001693115,-0.033837892,1.042440057
14.106548,1.014739990,-2.778770447,-1.059333801,0.000382081,-0.033837892,1.046834588
14.107173,1.045257568,-2.420188904,-0.929634094,0.000382081,-0.036157228,1.055135369
14.107799,0.968963623,-2.115013123,-0.967781067,0.002213135,-0.035791017,1.061605096
14.109563,1.190216064,-1.672508240,-0.716011047,0.000382081,-0.030297851,1.070882440
14.110188,0.915557861,-1.664878845,-0.525276184,-0.001082763,-0.029321289,1.074056268
14.110814,1.098663330,-1.619102478,-0.654975891,0.000870362,-0.024194336,1.074422479
14.111439,0.999481201,-1.367332458,-0.586311340,-0.004134521,-0.021752929,1.076863885
14.112065,0.778228760,-1.367332458,-0.403205872,0.001846924,-0.021264648,1.080159783
14.112690,0.907928467,-1.100303650,-0.242988586,0.002335206,-0.020043945,1.075399041
14.113317,0.946075439,-0.695945740,-0.281135559,0.002091065,-0.019677734,1.074178338
14.113944,0.740081787,-0.467063904,-0.334541321,0.001846924,-0.020532226,1.074178338
14.114570,0.602752686,-0.306846619,-0.067512520,0.002091065,-0.018823242,1.068685174
14.115197,0.282318115,-0.016929626,-0.098030098,0.000382081,-0.019555664,1.064778924
14.115823,0.694305420,-0.085594177,-0.342170715,-0.000228271,-0.016381836,1.062215447
14.116448,0.480682373,0.341651917,-0.220100403,-0.001448974,-0.018579101,1.056600213
14.117074,0.457794189,0.265357971,0.001152031,-0.007186279,-0.015893554,1.047811151
14.117699,0.434906006,0.242469788,-0.273506165,-0.009383544,-0.012231445,1.042562127
14.118325,0.541717529,0.318763733,-0.021736152,-0.014388427,-0.010034179,1.033528924
14.119979,0.373870850,0.036476135,0.001152031,-0.016341552,-0.003686523,1.019979119
14.120604,0.297576904,0.128028870,-0.082771309,-0.014632568,-0.000512695,1.006429315
14.121229,0.358612061,0.105140686,-0.258247375,-0.013533935,0.002050782,1.002278924
14.121856,0.282318115,0.013587952,-0.113288887,-0.013289794,0.002783203,0.994100213
14.122481,0.282318115,0.257728577,-0.159065247,-0.013656005,0.003149414,0.982625604
14.123108,0.007659912,0.280616760,-0.235359192,-0.013289794,0.001562500,0.974568963
14.123734,0.129730225,0.219581604,-0.151435852,-0.014754638,-0.000024414,0.966756463
14.124359,-0.030487061,0.562904358,-0.319282532,-0.015487060,-0.000512695,0.961141229
14.124985,0.106842041,0.425575256,-0.082771309,-0.021590576,-0.000024414,0.956624627
14.125611,-0.061004639,0.219581604,-0.242988586,-0.024031982,-0.002221679,0.949178338
14.126237,0.160247803,0.143287659,-0.418464661,-0.027816162,-0.002832031,0.941121697
14.126863,0.167877197,-0.123741150,-0.418464661,-0.029403076,-0.003564453,0.938558221
14.127489,0.412017822,-0.146629333,-0.311653137,-0.029525146,0.000097657,0.932698846
14.128115,0.648529053,-0.451805115,-0.448982239,-0.031356201,-0.000756836,0.930989861
14.128741,0.412017822,-0.581504822,-0.304023743,-0.030379638,-0.001123047,0.926961541
14.130312,0.518829346,-0.947715759,-0.311653137,-0.027327880,0.000463868,0.920125604
14.130937,0.465423584,-0.962974548,-0.258247375,-0.028304443,-0.005517578,0.926229119
14.131563,0.663787842,-1.367332458,-0.517646790,-0.026595458,-0.003930664,0.925984979
14.132189,0.618011475,-1.313926697,-0.593940735,-0.027327880,-0.006372070,0.930501580
14.145879,0.968963623,-2.923728943,-0.113288887,-0.015731201,-0.014916992,1.031819940
14.146548,0.679046631,-2.992393494,-0.265876770,-0.015242919,-0.014916992,1.029744744
14.147173,0.869781494,-2.923728943,-0.113288887,-0.011336669,-0.014184570,1.029500604
14.147799,0.907928467,-2.801658630,-0.380317688,-0.009017333,-0.010400390,1.031575799
14.148425,0.648529053,-2.610923767,-0.395576477,-0.013900146,-0.016259765,1.033895135
14.149052,0.701934814,-2.778770447,-0.456611633,-0.012435302,-0.016015625,1.035359979
14.149679,0.595123291,-2.618553162,-0.189582825,-0.013900146,-0.015527343,1.031453729
14.150305,0.762969971,-2.794029236,-0.235359192,-0.015487060,-0.016625976,1.028524041
14.150932,0.869781494,-2.740623474,-0.105659492,-0.014510497,-0.019555664,1.025594354
14.151559,0.495941162,-2.290489197,-0.120918281,-0.016341552,-0.022241211,1.021321893
14.152186,0.854522705,-2.527000427,-0.288764954,-0.013289794,-0.016625976,1.021810174
14.152812,0.915557861,-2.664329529,-0.166694641,-0.015853271,-0.018701172,1.014852166
14.153439,0.938446045,-2.382041931,-0.204841614,-0.017440185,-0.016503906,1.015706658
14.154065,1.007110596,-2.641441345,-0.212471008,-0.010115966,-0.016381836,1.009359002
14.154691,0.923187256,-2.527000427,-0.090400703,-0.012435302,-0.016137695,1.009114861
14.156379,1.083404541,-2.427818298,0.100334160,-0.014144287,-0.012475586,1.001790643
14.157006,0.762969971,-2.198936462,0.123222344,-0.015609130,-0.010034179,0.999837518
14.157633,0.755340576,-2.343894958,0.115592949,-0.016097412,-0.011132812,0.999105096
14.158259,0.801116943,-2.343894958,-0.151435852,-0.016829833,-0.011865234,0.995198846
14.158884,0.679046631,-2.252342224,-0.098030098,-0.018538818,-0.012475586,0.996175408
14.159509,0.701934814,-2.397300720,0.138481140,-0.018050537,-0.011865234,0.995076776
14.160135,0.831634521,-2.153160095,0.176628113,-0.017318115,-0.011010742,0.992025018
14.160760,0.885040283,-2.183677673,0.069816582,-0.016463622,-0.010522461,0.992391229
14.161385,0.755340576,-2.527000427,0.153739929,-0.011702880,-0.007104492,0.991292596
14.162012,0.907928467,-2.321006775,0.207145691,-0.012923583,-0.006494140,0.994100213
14.162638,0.839263916,-2.038719177,0.153739929,-0.013289794,-0.004541015,0.993245721
14.163263,0.778228760,-2.008201599,0.199516296,-0.010970458,-0.005273437,0.997762322
14.163890,0.831634521,-2.076866150,0.207145691,-0.013045654,-0.003564453,1.002034783
14.164517,0.724822998,-1.725914001,0.138481140,-0.011336669,-0.003076172,0.999715447
14.165143,0.587493896,-1.802207947,0.069816582,-0.010482177,-0.000512695,1.004232049
14.166799,0.640899658,-1.558067322,0.222404480,-0.009261474,-0.000024414,1.011190057
14.167424,0.740081787,-1.413108826,0.245292664,-0.007918701,0.000097657,1.013143182
14.168049,0.633270264,-1.519920349,0.245292664,-0.006331787,0.000830078,1.019124627
14.168675,0.488311768,-1.313926697,0.230033875,-0.004134521,0.002050782,1.021199822
14.169301,0.305206299,-1.214744568,0.046928398,-0.007674560,-0.000634765,1.028524041
14.169927,0.686676025,-1.138450623,0.138481140,-0.005721435,-0.001489257,1.032064080
14.170552,0.465423584,-0.932456970,-0.029365547,-0.002913818,-0.000878906,1.038777947
14.171178,0.412017822,-0.779869080,-0.052253731,-0.003035888,-0.002465820,1.041219354
14.171804,0.160247803,-0.749351501,0.046928398,-0.003157958,-0.001489257,1.041463494
14.172431,0.312835693,-0.543357849,0.115592949,-0.003280029,-0.003686523,1.042806268
14.173057,0.366241455,-0.543357849,0.008781426,-0.002547607,-0.003076172,1.044759393
14.173682,0.091583252,-0.520469666,-0.006477363,-0.001693115,-0.003808593,1.048787713
14.174307,0.206024170,-0.398399353,0.230033875,-0.004378662,-0.004296875,1.047444940
14.174933,-0.129669189,-0.200035095,-0.098030098,-0.001082763,-0.001000976,1.049398065
14.175560,0.267059326,-0.138999939,0.085075371,-0.006209716,-0.002465820,1.047567010
14.177221,0.007659912,0.204322815,-0.021736152,-0.002425537,-0.003320312,1.047078729
14.177846,-0.091522217,0.013587952,0.046928398,-0.003402099,-0.001489257,1.041951776
14.178472,-0.068634033,0.509498596,-0.128547668,-0.002303466,-0.001367187,1.045003533
14.192148,0.434906006,-1.001121521,-0.235359192,-0.026229247,-0.004296875,0.941243768
14.192795,0.534088135,-1.069786072,-0.189582825,-0.023787841,-0.005517578,0.941243768
14.193422,0.503570557,-1.046897888,-0.136177063,-0.023665771,-0.009912109,0.945150018
14.194047,0.328094482,-1.275779724,0.024040215,-0.021712646,-0.007836914,0.944783807
14.194673,0.434906006,-1.230003357,-0.120918281,-0.025130615,-0.009545898,0.949666619
14.195300,0.396759033,-1.252891541,-0.029365547,-0.020736083,-0.008325195,0.955892205
14.195925,0.488311768,-1.283409119,-0.159065247,-0.021346435,-0.010034179,0.961751580
14.196550,0.427276611,-1.535179138,-0.174324036,-0.023055419,-0.009179687,0.965535760
14.197175,0.442535400,-1.336814880,-0.044624336,-0.020614013,-0.010888672,0.973714471
14.197801,0.633270264,-1.748802185,-0.128547668,-0.023543701,-0.008569336,0.979451776
14.198427,0.465423584,-1.764060974,-0.036994942,-0.020980224,-0.007958984,0.983235955
14.199052,0.610382080,-1.687767029,0.016410820,-0.019149169,-0.008203125,0.986653924
14.199678,0.572235107,-1.794578552,-0.006477363,-0.020858154,-0.007470703,0.991902947
14.200304,0.526458740,-1.977684021,-0.052253731,-0.018172607,-0.006005859,0.993489861
14.200930,0.564605713,-1.931907654,0.184257507,-0.018660888,-0.006738281,0.996175408
14.202554,0.549346924,-1.970054626,0.092704765,-0.014144287,-0.004418945,1.008504510
14.203180,0.427276611,-1.802207947,-0.006477363,-0.010238037,-0.005151367,1.013387322
14.203805,0.404388428,-1.779319763,-0.014106758,-0.010238037,-0.005761718,1.014241815
14.204430,0.541717529,-1.634361267,0.001152031,-0.011336669,-0.006738281,1.016439080
14.205056,0.625640869,-1.703025818,0.077445976,-0.010604247,-0.009179687,1.019246697
14.205683,0.404388428,-1.725914001,0.062187187,-0.009505615,-0.005761718,1.022054315
14.206310,0.549346924,-1.710655212,0.191886902,-0.008773193,-0.008081054,1.023519158
14.206935,0.595123291,-1.619102478,-0.067512520,-0.008529052,-0.005029297,1.023641229
14.207561,0.625640869,-1.641990662,-0.113288887,-0.010726318,-0.003076172,1.025960565
14.208188,0.602752686,-1.710655212,0.115592949,-0.011336669,-0.001977539,1.026570916
14.208815,0.701934814,-1.558067322,0.046928398,-0.010238037,-0.002465820,1.027059197
14.209442,0.785858154,-1.741172791,0.107963555,-0.011214599,-0.001977539,1.025228143
14.210069,0.579864502,-1.710655212,-0.044624336,-0.007796630,-0.003564453,1.022908807
14.210694,0.495941162,-1.641990662,-0.044624336,-0.010970458,-0.002587890,1.021688104
14.211321,0.602752686,-1.641990662,0.077445976,-0.009139404,-0.003076172,1.022298455
14.212994,0.488311768,-1.329185486,0.107963555,-0.011824951,-0.002343750,1.016317010
14.213619,0.457794189,-1.542808533,-0.029365547,-0.011092529,-0.002587890,1.017781854
14.214245,0.450164795,-1.458885193,-0.036994942,-0.015242919,-0.004663086,1.013387322
14.214872,0.526458740,-1.336814880,-0.296394348,-0.012923583,-0.003198242,1.012288690
14.223219,0.213653564,-0.726463318,-0.128547668,-0.016829833,-0.009057617,1.000936151
14.223845,0.221282959,-0.772239685,0.123222344,-0.015487060,-0.008081054,1.002767205
14.224471,0.198394775,-0.856163025,-0.136177063,-0.013045654,-0.007348632,1.005818963
14.225097,-0.007598877,-0.726463318,-0.075141914,-0.012435302,-0.007226562,1.005086541
14.225722,0.228912354,-0.680686951,0.046928398,-0.010604247,-0.006250000,1.006307244
14.226348,0.297576904,-0.764610291,-0.067512520,-0.009139404,-0.005639648,1.007650018
14.226974,0.206024170,-0.665428162,0.008781426,-0.011092529,-0.005151367,1.005696893
14.227600,0.099212646,-0.528099060,-0.227729797,-0.012069091,-0.006860351,1.007405877
14.228227,0.152618408,-0.337364197,0.069816582,-0.011336669,-0.006005859,1.011067986
14.228853,0.419647217,-0.589134216,0.046928398,-0.012801513,-0.005151367,1.012532830
14.229478,0.328094482,-0.268699646,-0.197212219,-0.015120849,-0.005639648,1.011800408
14.230103,0.099212646,-0.383140564,0.085075371,-0.014510497,-0.003808593,1.008748651
14.230730,0.122100830,-0.482322693,-0.021736152,-0.012069091,-0.004296875,1.014974236
14.231355,0.167877197,-0.352622986,0.077445976,-0.010604247,-0.006738281,1.014852166
14.245155,0.137359619,-0.062705994,-0.159065247,-0.016951904,-0.007104492,0.990926385
14.245834,0.305206299,-0.390769958,0.039299004,-0.018294677,-0.007470703,0.989949822
14.246459,0.312835693,-0.406028748,0.039299004,-0.017806396,-0.011010742,0.988851190
14.247086,0.320465088,-0.528099060,0.199516296,-0.018782958,-0.007714843,0.983358026
14.247713,0.183135986,-0.642539978,-0.044624336,-0.018538818,-0.005517578,0.985067010
14.248339,0.404388428,-0.543357849,-0.014106758,-0.020125732,-0.005761718,0.979940057
14.248966,0.289947510,-0.688316345,-0.044624336,-0.019759521,-0.009912109,0.977986932
14.249593,0.282318115,-0.756980896,0.085075371,-0.019637451,-0.007714843,0.975179315
14.250218,0.335723877,-0.985862732,-0.212471008,-0.022445068,-0.011010742,0.976277947
14.250843,0.358612061,-0.917198181,0.153739929,-0.019637451,-0.008691406,0.972493768
14.251468,0.373870850,-0.932456970,-0.059883125,-0.016829833,-0.010400390,0.967610955
14.252094,0.389129639,-0.886680603,-0.273506165,-0.018416747,-0.008081054,0.969319940
14.252720,0.389129639,-1.115562439,0.268180847,-0.020736083,-0.008325195,0.968953729
14.253345,0.366241455,-1.153709412,0.024040215,-0.020736083,-0.007592773,0.971273065
14.255118,0.602752686,-1.268150330,0.054557793,-0.019637451,-0.006127929,0.968465447
14.255745,0.457794189,-1.397850037,-0.021736152,-0.020980224,-0.008569336,0.970418572
14.256370,0.526458740,-1.550437927,-0.006477363,-0.017806396,-0.006494140,0.971395135
14.256996,0.640899658,-1.481773376,0.123222344,-0.017440185,-0.008569336,0.974935174
14.257623,0.816375732,-1.489402771,-0.151435852,-0.018660888,-0.010644531,0.976033807
14.258249,0.625640869,-1.527549744,-0.014106758,-0.017318115,-0.005639648,0.978597283
14.258874,0.579864502,-1.718284607,-0.098030098,-0.013778076,-0.007470703,0.978597283
14.259499,0.602752686,-1.596214294,0.138481140,-0.015242919,-0.006127929,0.983480096
14.260125,0.595123291,-1.680137634,-0.136177063,-0.015731201,-0.004663086,0.987020135
14.260752,0.618011475,-1.649620056,-0.006477363,-0.014876708,-0.005639648,0.983968377
14.261377,0.648529053,-1.695396423,0.138481140,-0.014510497,-0.003686523,0.991292596
14.262002,0.663787842,-1.664878845,0.336845398,-0.014266357,-0.005273437,0.991658807
14.262629,0.656158447,-1.649620056,0.077445976,-0.011702880,-0.006860351,0.997884393
14.263254,0.450164795,-1.901390076,0.222404480,-0.011824951,-0.007348632,1.001302361
14.263880,0.633270264,-1.893760681,0.123222344,-0.012435302,-0.004174804,1.004720330
14.265555,0.259429932,-1.443626404,-0.090400703,-0.008284912,-0.003564453,1.013387322
14.266181,0.412017822,-1.580955505,0.115592949,-0.008040771,-0.005761718,1.018880486
14.266806,0.679046631,-1.512290955,-0.036994942,-0.008773193,-0.007226562,1.021932244
14.267431,0.282318115,-1.489402771,0.161369324,-0.007064208,-0.005395507,1.023152947
14.268057,0.740081787,-1.428367615,0.008781426,-0.007918701,-0.004907226,1.022542596
14.268683,0.404388428,-1.405479431,0.016410820,-0.004012451,-0.006250000,1.026815057
14.269308,0.297576904,-1.512290955,-0.151435852,-0.006820068,-0.003442382,1.028768182
14.269933,0.419647217,-1.352073669,0.153739929,-0.003402099,-0.006127929,1.029622674
14.270559,0.595123291,-1.306297302,0.016410820,-0.003646240,-0.003808593,1.030599236
14.271184,0.312835693,-1.107933044,0.130851746,-0.005843505,-0.003808593,1.033406854
14.271809,0.358612061,-1.291038513,0.138481140,-0.001326904,0.001318360,1.031453729
14.272435,0.389129639,-1.100303650,-0.067512520,-0.001571044,-0.002954101,1.028890252
14.273060,0.450164795,-0.909568787,0.138481140,-0.001204833,-0.001977539,1.033406854
14.273686,0.038177490,-0.947715759,0.054557793,-0.004134521,-0.003686523,1.028768182
14.274312,0.404388428,-0.909568787,-0.105659492,-0.001815185,-0.004296875,1.031209588
14.275929,0.289947510,-0.848533630,0.016410820,-0.003280029,-0.002587890,1.029866815
14.276554,0.137359619,-0.528099060,0.024040215,-0.005599365,-0.003686523,1.027669549
14.277181,0.206024170,-0.520469666,-0.090400703,-0.005843505,-0.003808593,1.026692986
14.277807,0.213653564,-0.489952087,0.077445976,-0.002303466,-0.002343750,1.024984002
14.291486,-0.015228271,0.166175842,-0.014106758,-0.013900146,-0.007958984,0.999715447
14.292148,0.007659912,0.196693420,0.069816582,-0.012435302,-0.007592773,0.998006463
14.292774,-0.045745850,0.173805237,0.207145691,-0.012069091,-0.007226562,0.996053338
14.293399,-0.061004639,0.265357971,0.031669609,-0.012679443,-0.007226562,0.998738885
14.294031,-0.022857666,0.334022522,-0.204841614,-0.011824951,-0.004541015,1.003011346
14.294657,0.152618408,0.196693420,0.161369324,-0.011580810,-0.007958984,1.000936151
14.295283,0.175506592,0.105140686,0.069816582,-0.010360107,-0.007836914,1.002645135
14.295909,-0.083892822,0.120399475,0.046928398,-0.015242919,-0.008569336,1.002767205
14.296536,-0.030487061,0.143287659,0.069816582,-0.011824951,-0.004907226,1.003987908
14.297161,-0.007598877,0.150917053,-0.021736152,-0.014022216,-0.007714843,1.006429315
14.297787,0.068695068,-0.009300232,0.085075371,-0.010115966,-0.007714843,1.003133416
14.298413,0.206024170,0.097511292,-0.006477363,-0.011702880,-0.006127929,1.003621697
14.299039,0.221282959,0.173805237,-0.014106758,-0.012923583,-0.005761718,1.005452752
14.299665,-0.015228271,-0.016929626,-0.006477363,-0.011580810,-0.004174804,1.004598260
14.300290,-0.030487061,0.120399475,0.069816582,-0.011336669,-0.006250000,1.008382440
14.301972,0.000030518,0.082252502,0.016410820,-0.013778076,-0.004785156,1.002156854
14.302598,0.030548096,0.005958557,0.024040215,-0.013656005,-0.007348632,0.999959588
14.303225,-0.068634033,0.051734924,-0.036994942,-0.010848388,-0.005273437,0.997762322
14.303852,-0.122039795,0.036476135,0.146110535,-0.013045654,-0.007226562,0.998250604
14.304477,-0.030487061,-0.093223572,0.077445976,-0.015487060,-0.007714843,0.997762322
14.305103,-0.137298584,-0.177146912,-0.159065247,-0.013533935,-0.009057617,0.996785760
14.305728,0.114471436,-0.070335388,0.031669609,-0.014510497,-0.009667968,0.996175408
14.306354,0.030548096,-0.108482361,0.069816582,-0.014876708,-0.011743164,0.991658807
14.306980,0.251800537,-0.032188416,-0.036994942,-0.015731201,-0.009057617,0.988362908
14.307605,0.076324463,-0.314476013,0.100334160,-0.016707763,-0.010766601,0.986775994
14.308231,0.015289307,-0.329734802,-0.029365547,-0.017562255,-0.011010742,0.985921502
14.308857,-0.007598877,-0.535728455,-0.021736152,-0.019759521,-0.010644531,0.985311151
14.309483,0.091583252,-0.406028748,0.077445976,-0.018294677,-0.011621093,0.984944940
14.310109,0.206024170,-0.444175720,0.107963555,-0.021102294,-0.009545898,0.985067010
14.310735,0.190765381,-0.383140564,0.024040215,-0.017928466,-0.010156250,0.983235955
14.312352,0.434906006,-0.848533630,0.046928398,-0.021590576,-0.011987304,0.977986932
14.312978,0.488311768,-0.825645447,0.001152031,-0.017562255,-0.012109375,0.978597283
14.313604,0.221282959,-0.642539978,0.214775085,-0.016707763,-0.010400390,0.977620721
14.314230,0.335723877,-0.810386658,0.031669609,-0.017928466,-0.010034179,0.975545526
14.314857,0.396759033,-1.001121521,-0.044624336,-0.015975341,-0.012963867,0.978109002
14.315483,0.328094482,-1.100303650,0.046928398,-0.016219482,-0.010034179,0.981160760
14.316109,0.457794189,-0.840904236,0.001152031,-0.012801513,-0.009301757,0.977376580
14.316735,0.732452393,-1.092674255,0.001152031,-0.017440185,-0.009790039,0.980550408
14.317362,0.602752686,-1.077415466,-0.036994942,-0.015242919,-0.008325195,0.981038690
14.317988,0.595123291,-1.230003357,0.161369324,-0.013900146,-0.006738281,0.984090447
14.318613,0.503570557,-1.046897888,0.252922058,-0.015487060,-0.008813476,0.987142205
14.319239,0.854522705,-1.252891541,-0.029365547,-0.013900146,-0.007470703,0.987874627
14.319864,0.694305420,-1.382591248,0.138481140,-0.010115966,-0.007714843,0.990682244
14.320489,0.366241455,-1.069786072,0.077445976,-0.011458740,-0.009179687,0.992391229
14.321116,0.450164795,-1.191856384,0.046928398,-0.012679443,-0.004907226,0.993734002
14.322764,0.541717529,-1.214744568,0.161369324,-0.013533935,-0.004418945,0.999349236
14.323389,0.335723877,-1.313926697,0.039299004,-0.010238037,-0.007348632,1.000203729
14.324016,0.434906006,-1.359703064,0.123222344,-0.009627685,-0.002099609,0.999959588
14.337801,0.053436279,-0.268699646,-0.181953430,-0.004012451,-0.002587890,1.025472283
14.338483,0.022918701,-0.413658142,0.039299004,-0.005233154,-0.003198242,1.022786736
14.339109,-0.007598877,-0.367881775,-0.235359192,-0.002669677,-0.004663086,1.024617791
14.339734,0.160247803,-0.215293884,-0.075141914,-0.005721435,-0.004296875,1.022420526
14.340361,0.251800537,0.120399475,0.001152031,-0.004256591,-0.006250000,1.020101190
14.340987,0.366241455,0.005958557,-0.220100403,-0.003524169,-0.001611328,1.016317010
14.341613,0.335723877,-0.123741150,-0.044624336,-0.004378662,-0.003686523,1.017171502
14.342239,0.312835693,0.318763733,0.001152031,-0.002791747,-0.003808593,1.018025994
14.342866,0.274688721,0.234840393,-0.029365547,-0.005599365,-0.001977539,1.020589471
14.343493,0.244171143,0.196693420,-0.105659492,-0.007186279,-0.002099609,1.019979119
14.344118,0.144989014,0.334022522,0.069816582,-0.008406982,-0.001123047,1.017293572
14.344744,0.244171143,0.524757385,0.130851746,-0.009017333,-0.000146484,1.016683221
14.345371,0.007659912,0.585792542,0.161369324,-0.008040771,-0.001123047,1.012166619
14.345997,-0.114410400,0.723121643,0.031669609,-0.010604247,-0.005395507,1.015218377
14.347775,-0.213592529,0.448463440,-0.014106758,-0.009017333,-0.003808593,1.007772088
14.348401,-0.289886475,0.555274963,-0.059883125,-0.008406982,-0.007226562,1.007283807
14.349032,-0.259368896,0.379798889,-0.052253731,-0.008406982,-0.006250000,1.003743768
14.349657,-0.190704346,0.463722229,-0.021736152,-0.012191162,-0.005273437,1.003987908
14.350283,-0.289886475,0.463722229,-0.006477363,-0.013045654,-0.004174804,0.996907830
14.350908,-0.167816162,0.540016174,-0.052253731,-0.011702880,-0.007226562,0.996907830
14.351534,-0.137298584,0.478981018,-0.044624336,-0.011947021,-0.006860351,0.996785760
14.352161,-0.144927979,0.456092834,-0.113288887,-0.010970458,-0.007226562,0.997518182
14.352788,-0.244110107,0.486610413,0.046928398,-0.012923583,-0.005029297,0.993611932
14.353414,-0.213592529,0.578163147,0.039299004,-0.014510497,-0.006127929,0.993245721
14.354040,-0.244110107,0.662086487,-0.075141914,-0.015975341,-0.007226562,0.989339471
14.354665,-0.244110107,0.463722229,-0.181953430,-0.017196044,-0.006372070,0.988851190
14.355290,-0.152557373,0.280616760,-0.120918281,-0.017562255,-0.005883789,0.988973260
14.355915,0.038177490,0.715492249,0.016410820,-0.016341552,-0.004296875,0.989461541
14.356540,-0.015228271,0.341651917,-0.044624336,-0.015731201,-0.007226562,0.991902947
14.358161,-0.061004639,0.257728577,0.077445976,-0.015120849,-0.007714843,0.990193963
14.358788,-0.144927979,0.166175842,0.001152031,-0.013900146,-0.008935547,0.991170526
14.359413,0.000030518,0.349281311,-0.082771309,-0.015242919,-0.008203125,0.991536736
14.360038,-0.068634033,0.150917053,-0.029365547,-0.013900146,-0.010644531,0.991292596
14.360665,-0.122039795,0.311134338,-0.052253731,-0.014388427,-0.009912109,0.993123651
14.361291,-0.038116455,0.173805237,-0.113288887,-0.016097412,-0.009179687,0.991170526
14.361917,0.030548096,-0.016929626,-0.029365547,-0.019271240,-0.010522461,0.992025018
14.362542,0.091583252,0.089881897,-0.082771309,-0.017440185,-0.006494140,0.993734002
14.363168,0.076324463,0.005958557,-0.052253731,-0.017073974,-0.006982422,0.994832635
14.363793,0.289947510,-0.077964783,0.138481140,-0.014144287,-0.007836914,0.995931268
14.364418,0.206024170,-0.077964783,0.100334160,-0.014632568,-0.007104492,0.999471307
14.365044,0.129730225,-0.207664490,-0.052253731,-0.014754638,-0.006250000,0.998006463
14.365670,0.007659912,-0.116111755,-0.059883125,-0.013656005,-0.007348632,0.998250604
14.366297,0.221282959,-0.329734802,-0.036994942,-0.014022216,-0.008813476,0.995198846
14.366924,0.076324463,-0.215293884,0.107963555,-0.016829833,-0.004296875,0.995198846
14.368541,0.152618408,-0.062705994,0.092704765,-0.014144287,-0.005151367,0.998983026
14.369166,0.137359619,-0.436546326,-0.021736152,-0.014754638,-0.005883789,0.998860955
14.369792,0.137359619,-0.344993591,0.031669609,-0.015487060,-0.005761718,0.999227166
14.370417,0.091583252,-0.276329041,-0.113288887,-0.015975341,-0.004907226,0.995198846
14.384366,0.465423584,-1.062156677,0.069816582,-0.009871826,-0.002709961,0.996663690
14.385021,0.518829346,-0.909568787,-0.006477363,-0.009261474,-0.002832031,0.997884393
14.385646,0.373870850,-0.856163025,0.008781426,-0.008773193,-0.004418945,1.000447869
14.386273,0.465423584,-0.917198181,0.001152031,-0.009749755,-0.004174804,0.999227166
14.386898,0.282318115,-0.756980896,0.016410820,-0.009993896,-0.004296875,1.003499627
14.387523,0.358612061,-0.779869080,-0.052253731,-0.009017333,-0.001977539,1.003743768
14.388148,0.427276611,-0.764610291,-0.052253731,-0.010238037,-0.005029297,1.004354119
14.388775,0.549346924,-0.612022400,0.146110535,-0.010848388,-0.004174804,1.003987908
14.389401,0.495941162,-0.734092712,0.069816582,-0.013045654,-0.003198242,1.008382440
14.390033,0.579864502,-0.756980896,-0.044624336,-0.010482177,-0.004418945,1.010945916
14.390658,0.427276611,-0.695945740,0.123222344,-0.009871826,-0.003808593,1.009114861
14.391285,0.480682373,-0.688316345,-0.052253731,-0.010604247,-0.006005859,1.009969354
14.391911,0.503570557,-0.734092712,0.046928398,-0.008773193,-0.002587890,1.013021111
14.392536,0.412017822,-0.581504822,0.069816582,-0.009993896,-0.002587890,1.011190057
14.393162,0.526458740,-0.627281189,0.031669609,-0.009627685,-0.003808593,1.011434197
14.394806,0.213653564,-0.550987244,0.146110535,-0.010726318,-0.002099609,1.012654901
14.395431,0.358612061,-0.383140564,0.031669609,-0.011336669,-0.003076172,1.014241815
14.396057,0.312835693,-0.421287537,0.138481140,-0.009749755,-0.003320312,1.012899041
14.396682,0.305206299,-0.299217224,-0.151435852,-0.009627685,-0.005395507,1.010701776
14.397307,0.488311768,-0.390769958,-0.296394348,-0.010482177,-0.006738281,1.012899041
14.397932,0.488311768,-0.222923279,0.214775085,-0.010238037,-0.005761718,1.016561151
14.398559,0.320465088,-0.390769958,-0.021736152,-0.009993896,-0.003198242,1.013265252
14.399186,0.289947510,-0.230552673,0.130851746,-0.007552490,-0.005639648,1.013265252
14.399812,0.488311768,-0.207664490,0.008781426,-0.012923583,-0.005517578,1.014974236
14.400438,0.343353271,-0.245811462,-0.166694641,-0.008773193,-0.004174804,1.015706658
14.401064,0.335723877,-0.169517517,-0.021736152,-0.009505615,-0.005395507,1.014119744
14.401691,0.061065674,-0.093223572,0.146110535,-0.011702880,-0.004541015,1.013021111
14.402318,0.343353271,-0.268699646,-0.052253731,-0.011092529,-0.004296875,1.013631463
14.402944,0.350982666,-0.108482361,-0.105659492,-0.013167724,-0.003686523,1.012410760
14.403571,0.198394775,-0.093223572,-0.075141914,-0.010360107,-0.001489257,1.012654901
14.405245,0.289947510,-0.085594177,0.046928398,-0.012313232,-0.003564453,1.010335565
14.405870,0.144989014,-0.093223572,-0.120918281,-0.010238037,-0.002954101,1.007772088
14.406495,0.427276611,0.211952209,-0.082771309,-0.010848388,-0.005517578,1.004232049
14.407121,0.274688721,0.013587952,-0.098030098,-0.010360107,-0.003808593,1.005086541
14.407746,0.289947510,-0.016929626,0.008781426,-0.011947021,-0.003564453,1.005941033
14.408372,0.328094482,-0.100852966,-0.090400703,-0.012313232,-0.003808593,1.007039666
14.408998,0.358612061,0.135658264,-0.235359192,-0.014754638,-0.003442382,1.004598260
14.409624,0.350982666,0.120399475,-0.036994942,-0.010238037,-0.002954101,1.004109979
14.410251,0.434906006,-0.001670837,0.062187187,-0.013045654,-0.003564453,1.004598260
14.410876,0.488311768,0.066993713,-0.136177063,-0.014266357,-0.002099609,1.006063104
14.411502,0.503570557,-0.032188416,-0.036994942,-0.014510497,-0.005883789,1.006307244
14.412127,0.259429932,-0.070335388,0.100334160,-0.011092529,-0.007104492,1.003987908
14.412754,0.427276611,0.311134338,-0.136177063,-0.013656005,-0.003808593,1.007039666
14.413379,0.366241455,0.303504944,-0.235359192,-0.012191162,-0.002465820,1.008992791
14.414004,0.198394775,0.204322815,-0.090400703,-0.017196044,-0.001367187,1.005086541
14.415659,0.206024170,0.005958557,-0.036994942,-0.015364990,-0.002832031,1.002034783
14.416285,0.038177490,0.242469788,-0.220100403,-0.014510497,-0.003808593,0.998250604
14.416910,0.122100830,0.135658264,-0.128547668,-0.013900146,-0.005639648,0.999349236
14.430585,0.358612061,-0.436546326,0.107963555,-0.013045654,-0.005029297,0.990316033
14.431210,0.412017822,-0.360252380,0.199516296,-0.009261474,-0.006250000,0.990071893
14.431835,0.244171143,-0.756980896,0.024040215,-0.009505615,-0.003320312,0.994588494
14.432462,0.640899658,-0.573875427,0.031669609,-0.010238037,-0.006372070,0.994222283
14.433088,0.259429932,-0.390769958,0.260551453,-0.010238037,-0.005029297,0.998006463
14.433715,0.267059326,-0.413658142,0.031669609,-0.009749755,-0.001855468,0.996541619
14.434341,0.267059326,-0.467063904,0.054557793,-0.011214599,-0.005151367,1.000325799
14.434967,0.358612061,-0.261070251,-0.120918281,-0.007796630,-0.002465820,1.003621697
14.435594,0.038177490,-0.215293884,0.237663269,-0.007552490,-0.004541015,1.005086541
14.436220,0.450164795,-0.406028748,-0.120918281,-0.012557372,-0.003808593,1.005208611
14.436846,0.297576904,-0.337364197,-0.036994942,-0.010604247,-0.001977539,1.004476190
14.437472,0.312835693,-0.322105408,-0.082771309,-0.006209716,-0.004418945,1.007161736
14.438099,0.045806885,-0.375511169,-0.242988586,-0.009139404,-0.003320312,1.009847283
14.438725,0.167877197,-0.474693298,0.191886902,-0.012923583,-0.002587890,1.008992791
14.439350,0.312835693,-0.497581482,0.039299004,-0.013045654,-0.001611328,1.009725213
14.440997,0.221282959,-0.642539978,-0.029365547,-0.006209716,0.004125977,1.002645135
14.441624,0.396759033,-0.520469666,-0.052253731,-0.006820068,0.001440430,1.002034783
14.442250,0.343353271,-0.406028748,-0.075141914,-0.008284912,-0.000390625,1.006551385
14.442877,0.022918701,-0.535728455,0.024040215,-0.003768310,-0.000390625,1.005574822
14.443503,0.190765381,-0.451805115,0.054557793,-0.004012451,-0.003442382,1.006429315
14.444129,0.030548096,-0.123741150,0.008781426,-0.005111083,-0.000390625,1.003255486
14.444754,0.045806885,-0.451805115,-0.006477363,-0.007064208,-0.001611328,1.005696893
14.445380,0.083953857,-0.077964783,-0.098030098,-0.008162841,-0.002954101,1.004232049
14.446005,0.198394775,0.120399475,0.062187187,-0.009627685,-0.004785156,1.007894158
14.446630,0.068695068,-0.192405701,-0.036994942,-0.010604247,-0.003930664,1.007772088
14.447256,-0.061004639,-0.032188416,0.001152031,-0.008773193,-0.008447265,1.006185174
14.447882,0.091583252,0.021217346,-0.189582825,-0.007430419,-0.003198242,1.004842401
14.448507,0.038177490,-0.131370544,0.268180847,-0.010360107,-0.003198242,1.008382440
14.449134,0.137359619,-0.093223572,0.069816582,-0.007186279,-0.003808593,1.000814080
14.449759,-0.038116455,-0.070335388,0.008781426,-0.011336669,-0.001977539,1.002645135
14.451436,0.015289307,-0.291587830,0.069816582,-0.009627685,-0.001977539,1.000325799
14.452062,-0.167816162,-0.238182068,0.024040215,-0.005721435,-0.004174804,1.001424432
14.452689,-0.045745850,-0.276329041,0.008781426,-0.008651122,-0.003686523,1.001058221
14.453315,-0.221221924,-0.093223572,-0.105659492,-0.007186279,-0.002954101,1.006307244
14.453941,0.045806885,-0.016929626,0.077445976,-0.005355224,-0.003076172,1.003133416
14.454566,-0.015228271,0.013587952,0.100334160,-0.006209716,-0.006250000,1.006063104
14.455192,-0.114410400,-0.024559021,-0.090400703,-0.008529052,-0.005517578,1.003255486
14.455819,0.190765381,-0.024559021,-0.021736152,-0.008284912,-0.004296875,1.004964471
14.456445,-0.137298584,0.097511292,0.176628113,-0.012069091,-0.005273437,1.007283807
14.457070,0.038177490,0.051734924,0.092704765,-0.008529052,-0.006494140,1.007650018
14.457696,0.030548096,0.028846741,-0.082771309,-0.007918701,-0.002343750,1.008382440
14.458321,0.053436279,0.120399475,-0.113288887,-0.006453857,-0.001611328,1.008504510
14.458946,0.015289307,0.166175842,-0.044624336,-0.006942138,-0.002343750,1.009725213
14.459572,0.183135986,0.166175842,-0.059883125,-0.006575927,-0.004418945,1.011312127
14.460197,0.106842041,0.242469788,-0.189582825,-0.007430419,-0.003320312,1.009481072
14.461828,-0.091522217,0.364540100,-0.036994942,-0.009749755,-0.004296875,1.008870721
14.462453,-0.122039795,0.242469788,0.008781426,-0.004378662,-0.006127929,1.011800408
14.463078,-0.282257080,0.295875549,-0.036994942,-0.005721435,-0.003320312,1.012654901
14.483425,0.228912354,-0.375511169,-0.265876770,-0.015975341,-0.000878906,0.992025018
14.484072,0.305206299,-0.322105408,-0.471870422,-0.013411865,-0.004663086,0.994832635
14.484697,0.335723877,-0.177146912,-0.357429504,-0.014144287,-0.003198242,0.997396111
14.485322,0.312835693,-0.314476013,-0.342170715,-0.012313232,-0.005883789,0.993734002
14.485948,0.206024170,-0.512840271,-0.380317688,-0.012435302,-0.004052734,0.993245721
14.486574,0.213653564,-0.306846619,-0.448982239,-0.015609130,-0.007226562,0.994466424
14.487200,0.442535400,-0.261070251,-0.387947083,-0.013778076,-0.009179687,0.993978143
14.487826,0.534088135,-0.390769958,-0.510017395,-0.011702880,-0.007226562,0.991536736
14.488451,0.610382080,-0.451805115,-0.502388000,-0.010360107,-0.004174804,0.995442986
14.489078,0.755340576,-0.146629333,-0.624458313,-0.010848388,-0.004663086,0.996419549
14.489704,0.732452393,-0.657798767,-0.487129211,-0.009871826,-0.004663086,1.001790643
14.490330,0.869781494,-0.451805115,-0.418464661,-0.012435302,-0.005517578,1.002767205
14.490955,1.113922119,-0.367881775,-0.479499817,-0.015731201,-0.001367187,1.001668572
14.491581,0.755340576,-0.520469666,-0.708381653,-0.012923583,-0.003686523,1.006673455
14.492207,1.182586670,-0.314476013,-0.632087708,-0.011947021,0.000097657,1.007405877
14.493851,0.846893311,-0.436546326,-0.845710754,-0.013656005,0.002172852,1.010091424
14.494478,0.747711182,-0.634910583,-0.998298645,-0.010115966,0.005834961,1.010945916
14.495104,0.808746338,-0.711204529,-0.792304993,-0.010604247,0.002539063,1.012899041
14.495730,0.785858154,-0.619651794,-0.815193176,-0.009993896,0.001440430,1.012654901
14.496355,1.022369385,-0.695945740,-0.830451965,-0.010726318,0.003759766,1.009847283
14.496982,0.869781494,-0.566246033,-0.937263489,-0.009261474,0.001806641,1.009236932
14.497607,0.892669678,-0.642539978,-0.967781067,-0.007430419,0.004248047,1.010823846
14.498233,0.785858154,-0.535728455,-1.036445618,-0.008284912,0.002172852,1.012166619
14.498859,0.862152100,-0.787498474,-1.112739563,-0.011702880,0.001562500,1.006795526
14.499484,0.877410889,-0.474693298,-0.967781067,-0.008529052,0.001928711,1.008138299
14.500110,0.885040283,-0.604393005,-1.074592590,-0.007186279,0.004370118,1.003499627
14.500735,0.816375732,-0.657798767,-1.028816223,-0.009261474,0.004492188,1.009603143
14.501362,0.946075439,-0.718833923,-1.196662903,-0.010238037,0.003027344,1.007772088
14.501988,0.831634521,-0.604393005,-1.265327454,-0.005233154,0.007055664,1.006307244
14.502613,0.762969971,-0.535728455,-1.166145325,-0.004500732,0.008764649,1.005086541
14.504289,0.602752686,-0.467063904,-1.417915344,-0.007186279,0.004248047,1.007405877
14.504914,0.618011475,-0.390769958,-1.326362610,-0.007552490,0.008398438,1.005208611
14.505539,0.717193604,-0.497581482,-1.295845032,-0.008284912,0.005834961,1.005574822
14.506165,0.595123291,-0.604393005,-1.509468079,-0.009993896,0.004125977,1.003743768
14.506790,0.625640869,-0.558616638,-1.677314758,-0.011214599,0.005346680,1.002889276
14.507416,0.366241455,-0.550987244,-1.509468079,-0.009139404,0.003881836,1.001058221
14.508043,0.694305420,-0.512840271,-1.639167786,-0.009993896,0.002294922,0.999715447
14.508669,0.297576904,-0.520469666,-1.539985657,-0.009871826,0.003759766,0.999959588
14.509295,0.633270264,-0.596763611,-1.791755676,-0.008773193,0.003393555,0.999227166
14.509922,0.686676025,-0.604393005,-1.662055969,-0.007796630,0.002294922,1.003011346
14.510547,0.785858154,-0.467063904,-1.684944153,-0.004134521,0.002905274,1.000325799
14.511172,0.587493896,-0.634910583,-1.761238098,-0.003890380,0.004858399,1.003377557
14.511798,0.740081787,-0.383140564,-1.692573547,-0.005721435,0.005102539,1.000692010
14.512425,0.549346924,-0.436546326,-1.730720520,-0.002791747,0.002172852,1.003255486
14.513050,0.648529053,-0.520469666,-1.845161438,-0.005721435,0.004492188,1.002889276
14.514700,0.495941162,-0.276329041,-1.883308411,-0.010604247,0.003515625,1.001180291
14.515326,0.488311768,-0.283958435,-1.814643860,-0.005721435,0.007299805,1.001912713
14.515952,0.694305420,-0.337364197,-2.051155090,-0.008162841,0.006201172,1.007283807
14.529777,0.122100830,0.288246155,-2.447883606,-0.007552490,-0.003076172,1.009603143
14.530494,0.114471436,0.448463440,-2.402107239,-0.010115966,-0.004052734,1.011312127
14.531121,-0.122039795,0.448463440,-2.409736633,-0.007064208,-0.004663086,1.011434197
14.531747,0.015289307,0.433204651,-2.539436340,-0.010848388,-0.005761718,1.011678338
14.532372,-0.045745850,0.349281311,-2.394477844,-0.009139404,-0.007714843,1.008870721
14.532998,0.022918701,0.334022522,-2.394477844,-0.009627685,-0.007592773,1.010701776
14.533625,0.007659912,0.334022522,-2.371589661,-0.010970458,-0.006982422,1.008626580
14.534250,0.137359619,0.440834045,-2.112190247,-0.011824951,-0.007958984,1.010213494
14.534877,-0.076263428,0.341651917,-2.379219055,-0.009261474,-0.003564453,1.006185174
14.535502,0.068695068,0.295875549,-2.524177551,-0.007918701,-0.005151367,1.006185174
14.536127,0.213653564,0.250099182,-2.379219055,-0.011458740,-0.004663086,1.004232049
14.536752,0.305206299,0.349281311,-2.348701477,-0.012191162,-0.002465820,1.005696893
14.537379,0.129730225,0.326393127,-2.264778137,-0.010238037,-0.005029297,1.002523065
14.538005,0.122100830,0.150917053,-2.226631165,-0.009993896,-0.009179687,1.003011346
14.539745,0.030548096,0.623939514,-2.135078430,-0.011458740,-0.004052734,0.999105096
14.540371,0.091583252,0.395057678,-2.432624817,-0.013778076,-0.004418945,0.999227166
14.540997,0.213653564,0.341651917,-2.333442688,-0.010970458,-0.006005859,1.001912713
14.541622,0.267059326,0.387428284,-1.906196594,-0.013656005,-0.007226562,1.000325799
14.542248,0.312835693,0.425575256,-2.226631165,-0.014754638,-0.007226562,1.001546502
14.542874,0.144989014,0.288246155,-2.226631165,-0.012313232,-0.004785156,1.000325799
14.543499,0.152618408,0.532386780,-2.142707825,-0.010482177,-0.006494140,1.001668572
14.544125,0.297576904,0.646827698,-2.051155090,-0.013045654,0.003027344,1.003011346
14.544752,0.083953857,0.349281311,-2.188484192,-0.014388427,0.006689453,0.999349236
14.545377,0.076324463,0.272987366,-1.944343567,-0.013289794,0.000952149,0.999593377
14.546003,0.000030518,0.334022522,-2.264778137,-0.010115966,0.001440430,1.000936151
14.546630,0.038177490,0.280616760,-2.058784485,-0.012801513,0.008398438,1.003011346
14.547256,0.091583252,0.242469788,-2.157966614,-0.013289794,0.010961914,1.003011346
14.547881,0.091583252,0.356910706,-2.173225403,-0.010604247,0.016088868,1.002034783
14.548506,0.305206299,0.135658264,-2.501289368,-0.012069091,0.017065430,1.000081658
14.550162,-0.389068604,0.166175842,-2.608100891,-0.006820068,0.016333008,1.002278924
14.550788,-0.137298584,0.494239807,-2.386848450,-0.007918701,0.016821289,1.004109979
14.551414,-0.236480713,0.417945862,-2.486030579,-0.007308349,0.019140625,1.002156854
14.552041,-0.389068604,0.372169495,-2.333442688,-0.010238037,0.017797852,1.001424432
14.552666,-0.419586182,0.540016174,-2.524177551,-0.007918701,0.014013672,1.002278924
14.553293,-0.457733154,0.616310120,-2.447883606,-0.008162841,0.011206055,1.003133416
14.553918,-0.480621338,0.517127991,-2.646247864,-0.008040771,0.013525391,1.003865838
14.554545,-0.633209229,0.669715881,-2.524177551,-0.011580810,0.014746094,1.000936151
14.555172,-0.663726807,0.684974670,-2.875129700,-0.010360107,0.012548828,1.003987908
14.555798,-0.442474365,0.379798889,-2.821723938,-0.012557372,0.007910157,1.002034783
14.556425,-0.297515869,0.402687073,-2.920906067,-0.012069091,0.007055664,1.000814080
14.557052,-0.472991943,0.440834045,-2.905647278,-0.013656005,0.004003907,1.001790643
14.557678,-0.610321045,0.761268616,-2.898017883,-0.013411865,0.004003907,0.997518182
14.558305,-0.396697998,0.425575256,-2.974311829,-0.013533935,0.004370118,0.998250604
14.558931,-0.320404053,0.334022522,-2.966682434,-0.015731201,0.000341797,0.994344354
14.560550,-0.564544678,0.196693420,-2.951423645,-0.015364990,-0.006860351,0.988973260
14.561177,-0.015228271,0.181434631,-2.920906067,-0.014510497,-0.002343750,0.989949822
14.561803,-0.251739502,0.173805237,-3.065864563,-0.015609130,-0.004052734,0.987264276
14.562428,0.083953857,-0.177146912,-3.012458801,-0.013167724,-0.004174804,0.988240838
14.576092,0.236541748,-0.245811462,-2.661506653,-0.010482177,-0.010156250,0.998250604
14.576726,0.541717529,-0.192405701,-2.440254211,-0.011824951,-0.007226562,1.000447869
14.577351,0.526458740,-0.154258728,-2.615730286,-0.013778076,-0.006860351,1.003499627
14.577976,0.740081787,-0.085594177,-2.684394836,-0.014388427,-0.003686523,1.005452752
14.578601,0.747711182,-0.100852966,-2.470771790,-0.012313232,-0.003686523,1.007527947
14.579226,0.663787842,0.044105530,-2.623359680,-0.010970458,-0.002343750,1.012410760
14.579851,0.412017822,-0.016929626,-2.592842102,-0.012069091,-0.003686523,1.014974236
14.580478,0.556976318,-0.062705994,-2.608100891,-0.010115966,-0.003564453,1.017415643
14.581103,0.526458740,0.036476135,-2.470771790,-0.012435302,-0.001855468,1.020223260
14.581729,0.572235107,0.082252502,-2.608100891,-0.012557372,-0.004663086,1.022542596
14.582355,0.656158447,0.005958557,-2.615730286,-0.011702880,-0.004663086,1.023641229
14.582982,0.450164795,-0.047447205,-2.539436340,-0.014876708,-0.008813476,1.024739861
14.583607,0.663787842,0.112770081,-2.737800598,-0.013533935,-0.006738281,1.026815057
14.584233,0.618011475,0.074623108,-2.646247864,-0.015120849,-0.003808593,1.023397088
14.584860,0.526458740,-0.070335388,-2.821723938,-0.021346435,0.000097657,1.021443963
14.586545,0.907928467,0.158546448,-2.836982727,-0.014632568,0.009130860,1.021810174
14.587170,0.663787842,-0.474693298,-2.737800598,-0.012069091,0.001806641,1.016561151
14.587797,0.457794189,-0.497581482,-2.829353333,-0.005721435,-0.005395507,1.016072869
14.588423,0.556976318,-0.123741150,-2.936164856,-0.002181396,-0.009423828,1.022664666
14.589048,0.595123291,0.334022522,-2.699653625,-0.005355224,0.001318360,1.024373651
14.589673,0.633270264,0.478981018,-2.768318176,-0.009139404,0.013891602,1.014608026
14.590298,0.282318115,0.639198303,-2.920906067,-0.004744872,0.014379883,1.014852166
14.590923,-0.030487061,0.494239807,-2.836982727,-0.004622802,-0.000756836,1.018392205
14.591548,-0.114410400,0.852821350,-2.638618469,-0.007796630,-0.018334961,1.022786736
14.592174,-0.183074951,0.860450745,-2.516548157,-0.015364990,-0.015893554,1.017293572
14.592800,-0.442474365,1.142738342,-2.882759094,-0.020980224,-0.007348632,1.019734979
14.593425,-0.381439209,1.180885315,-2.898017883,-0.019881591,-0.001367187,1.013631463
14.594051,-0.450103760,0.822303772,-2.608100891,-0.024031982,-0.002099609,1.014608026
14.594676,-0.389068604,0.578163147,-2.699653625,-0.020614013,-0.014672851,1.007039666
14.595302,-0.236480713,0.425575256,-2.608100891,-0.016829833,-0.023339843,1.012654901
14.596963,0.045806885,0.677345276,-2.791206360,-0.012801513,-0.004174804,1.002767205
14.597590,-0.175445557,0.547645569,-2.623359680,-0.008162841,-0.012597656,1.002523065
14.598217,0.000030518,0.654457092,-2.669136047,-0.006087646,-0.020532226,1.000814080
14.598842,0.335723877,1.043556213,-2.379219055,-0.012191162,-0.021386718,1.002645135
14.599467,0.488311768,1.020668030,-2.508918762,-0.012557372,-0.012719726,1.005696893
14.600093,0.694305420,1.043556213,-2.653877258,-0.013045654,-0.010888672,1.006551385
14.600718,0.503570557,0.906227112,-2.623359680,-0.008773193,-0.013208007,1.010579705
14.601343,0.656158447,1.005409241,-2.302925110,-0.006697997,-0.017724609,1.018025994
14.601968,0.976593018,1.127479553,-2.280036926,-0.010115966,-0.022241211,1.019612908
14.602593,0.732452393,1.325843811,-2.524177551,-0.014022216,-0.016625976,1.024495721
14.603220,0.892669678,1.272438049,-2.638618469,-0.013533935,-0.005273437,1.026082635
14.603847,0.778228760,1.356361389,-2.478401184,-0.016097412,-0.002954101,1.025838494
14.604473,0.694305420,0.906227112,-2.508918762,-0.013900146,-0.004418945,1.027791619
14.605100,0.946075439,0.730751038,-2.463142395,-0.013167724,-0.008569336,1.025838494
14.605727,0.602752686,0.898597717,-2.577583313,-0.006697997,-0.007958984,1.027059197
14.607378,1.014739990,1.272438049,-2.516548157,0.001602784,0.007299805,1.030965447
14.608003,0.671417236,1.478431702,-2.455513000,0.004532471,0.005102539,1.029378533
14.608630,1.098663330,1.775978088,-2.684394836,0.004776612,0.008276368,1.032674432
14.622431,0.534088135,4.110572815,-3.172676086,0.002091065,-0.000878906,1.036092401
14.623155,0.503570557,4.110572815,-3.310005188,0.000870362,-0.006860351,1.037068963
14.623780,0.450164795,4.324195862,-3.180305481,0.001724854,-0.004052734,1.035604119
14.624406,0.671417236,4.553077698,-3.271858215,-0.000716552,-0.006372070,1.033284783
14.625033,0.511199951,4.369972229,-3.203193665,-0.001815185,-0.010644531,1.035848260
14.625659,0.618011475,4.606483459,-3.241340637,-0.005355224,-0.014062500,1.035237908
14.626284,0.503570557,4.637001038,-3.256599426,-0.004256591,-0.012841797,1.037068963
14.626911,0.663787842,4.728553772,-3.287117004,-0.004866943,-0.008325195,1.035726190
14.627536,0.854522705,4.919288635,-3.218452454,-0.004500732,-0.008447265,1.033895135
14.628162,1.037628174,4.911659241,-3.256599426,-0.005111083,-0.007104492,1.034383416
14.628787,1.029998779,5.033729553,-3.172676086,-0.003402099,-0.006127929,1.037923455
14.629414,1.121551514,5.201576233,-3.302375793,-0.005843505,-0.004785156,1.034627557
14.630054,1.121551514,4.804847717,-3.210823059,-0.003768310,-0.001367187,1.033406854
14.630679,1.205474854,5.079505920,-3.210823059,-0.003524169,-0.002099609,1.032064080
14.632404,1.266510010,5.239723206,-3.363410950,-0.006820068,0.008276368,1.024007440
14.633031,1.045257568,5.430458069,-3.485481262,-0.008040771,0.010717774,1.024007440
14.633657,0.885040283,5.453346252,-3.371040344,-0.006453857,0.007788086,1.025106072
14.634282,1.075775146,5.384681702,-3.233711243,-0.000960693,0.005468750,1.023519158
14.634907,1.022369385,5.644081116,-3.348152161,0.000137940,0.004370118,1.023519158
14.635534,0.930816650,5.811927795,-3.538887024,0.000626221,0.002172852,1.024129510
14.636160,1.098663330,5.850074768,-3.538887024,-0.000716552,0.003759766,1.022420526
14.636786,0.869781494,5.941627502,-3.592292786,0.000015870,0.009375000,1.021566033
14.637413,0.854522705,6.246803284,-3.432075500,-0.000106201,0.007910157,1.025228143
14.638039,0.915557861,6.368873596,-3.638069153,-0.001082763,0.011328125,1.025350213
14.638664,0.923187256,6.246803284,-3.470222473,-0.002547607,0.012670899,1.025472283
14.639291,0.724822998,6.506202698,-3.554145813,-0.004744872,0.012304688,1.023763299
14.639916,0.694305420,6.628273010,-3.638069153,-0.003157958,0.015844727,1.026815057
14.640542,0.579864502,6.750343323,-3.866950989,-0.000594482,0.013647461,1.029378533
14.641168,0.267059326,6.681678772,-3.653327942,-0.003280029,0.011816407,1.030721307
14.642848,-0.022857666,7.246253967,-3.889839172,-0.007308349,0.011450196,1.032674432
14.643473,-0.259368896,7.108924866,-3.836433411,-0.006575927,0.013037110,1.029988885
14.644100,-0.167816162,7.238624573,-3.958503723,-0.006087646,0.013037110,1.030721307
14.644726,0.076324463,7.330177307,-4.065315247,-0.006453857,0.016210938,1.030355096
14.645351,0.221282959,7.330177307,-4.248420715,-0.005477294,0.019018555,1.024007440
14.645977,0.091583252,7.009742737,-4.118721008,-0.002669677,0.013037110,1.025350213
14.646604,-0.106781006,7.063148499,-4.149238586,-0.004256591,0.002539063,1.025228143
14.647229,-0.328033447,7.353065491,-4.080574036,0.002823487,-0.002221679,1.025350213
14.647854,-0.076263428,7.688758850,-4.263679504,0.000260010,0.001196289,1.027547479
14.648479,0.022918701,7.917640686,-4.507820129,-0.002669677,0.010717774,1.024861932
14.649105,0.160247803,7.971046448,-4.401008606,-0.005843505,0.017309571,1.021932244
14.649731,0.495941162,8.024452209,-4.423896790,-0.002669677,0.011083985,1.021810174
14.650357,0.602752686,7.848976135,-4.362861633,-0.006697997,-0.000146484,1.020589471
14.650983,0.640899658,7.826087952,-4.339973450,-0.006453857,-0.005151367,1.022908807
14.651608,0.404388428,7.902381897,-4.576484680,-0.007552490,-0.008325195,1.025106072
14.653308,0.640899658,8.245704651,-4.744331360,-0.010482177,0.003149414,1.020955682
14.653933,1.098663330,8.260963440,-4.942695618,-0.005233154,-0.004663086,1.023641229
14.654558,1.419097900,8.390663147,-4.584114075,-0.005843505,-0.005273437,1.020833611
14.655185,1.457244873,8.032081604,-4.988471985,-0.012557372,-0.005517578,1.015706658
14.655812,1.777679443,8.047340393,-4.965583801,-0.007186279,-0.006494140,1.016927361
14.669587,-0.518768311,9.245155334,-5.766670227,-0.008162841,0.024633789,0.998250604
14.670276,-0.434844971,9.443519592,-5.827705383,-0.010482177,0.027807618,1.000447869
14.670901,-0.556915283,9.344337463,-5.980293274,-0.012801513,0.028417969,1.000081658
14.671526,-0.778167725,9.359596252,-5.835334778,-0.020491943,0.018164063,0.999959588
14.672153,-1.106231689,8.772132874,-6.071846008,-0.021712646,0.009375000,1.003621697
14.672780,-1.083343506,9.031532288,-6.064216614,-0.021102294,0.003881836,1.008138299
14.673407,-1.274078369,9.214637756,-6.163398743,-0.017196044,0.002783203,1.009603143
14.674034,-1.144378662,8.970497131,-6.354133606,-0.024520263,0.010351563,1.002156854
14.674659,-1.228302002,9.046791077,-6.323616028,-0.023787841,0.006201172,0.999593377
14.675286,-0.938385010,8.795021057,-6.369392395,-0.020980224,0.000585938,0.997884393
14.675913,-0.930755615,8.604286194,-6.422798157,-0.024276122,0.004614258,0.993978143
14.676540,-0.724761963,8.108375549,-6.575386047,-0.028426513,0.009985352,0.987630486
14.677165,-0.328033447,7.795570374,-6.804267883,-0.014754638,0.019506836,0.987752557
14.677790,0.236541748,8.062599182,-6.941596985,-0.000960693,0.027075196,0.993001580
14.679565,1.678497314,8.421180725,-6.956855774,0.012467042,0.036718749,1.005818963
14.680192,2.204925537,8.939979553,-7.109443665,0.014908448,0.041723631,1.014119744
14.680818,2.227813721,9.367225647,-7.345954895,0.011124268,0.059667967,1.022908807
14.681630,2.182037354,9.886024475,-8.086006165,0.012344971,0.094458006,1.048421502
14.682461,2.121002197,9.985206604,-8.253852844,0.014786378,0.098242186,1.063069940
14.683088,1.693756104,10.526893616,-8.208076477,0.012467042,0.096166991,1.074910760
14.683714,1.274139404,10.656593323,-8.574287415,0.018204346,0.087744139,1.091268182
14.684341,0.824005127,10.824440002,-8.650581360,0.021378174,0.079321288,1.108480096
14.684990,0.167877197,11.770484924,-9.123603821,0.028092042,0.086035155,1.122029901
14.685616,0.053436279,12.006996155,-9.390632629,0.029312745,0.099096678,1.136922479
14.686241,-0.144927979,12.373207092,-9.543220520,0.033218995,0.101171874,1.150960565
14.686868,-0.488250732,12.960670471,-9.764472961,0.041397706,0.095312499,1.162557244
14.687493,-0.801055908,13.532875061,-9.894172668,0.049332276,0.091040038,1.173665643
14.688120,-1.335113525,14.295814514,-10.039131165,0.054947510,0.084326170,1.188558221
14.689822,-3.326385498,17.301795959,-10.580818176,0.064713135,0.080908202,1.236165643
14.690447,-3.646820068,18.156288147,-11.000434875,0.065811768,0.077001952,1.249105096
14.691072,-3.868072510,19.361732483,-11.183540344,0.068253174,0.067602538,1.264241815
14.691698,-4.379241943,20.193336487,-11.153022766,0.067398682,0.057348631,1.282552361
14.692346,-4.821746826,20.872352600,-11.359016418,0.064346924,0.050878905,1.296590447
14.692973,-5.706756592,21.703956604,-11.458198547,0.063614503,0.050878905,1.305501580
14.693599,-6.256072998,22.642372131,-11.473457336,0.065811768,0.047216795,1.316487908
14.694224,-6.462066650,23.588417053,-11.595527649,0.071793213,0.040747069,1.326863885
14.694850,-6.477325439,24.694679260,-11.793891907,0.067154542,0.036230467,1.332234979
14.695476,-6.736724854,25.694129944,-11.839668274,0.069229737,0.024023438,1.339315057
14.696101,-6.698577881,26.609657288,-11.923591614,0.071549073,0.012548828,1.350301385
14.696728,-6.690948486,27.662513733,-12.213508606,0.068863526,0.008032227,1.349568963
14.697354,-6.698577881,28.486488342,-12.442390442,0.065933838,0.008032227,1.349080682
14.697981,-6.393402100,29.295204163,-12.495796204,0.067032471,-0.004296875,1.348104119
14.698606,-6.050079346,29.913185120,-12.381355286,0.060928956,-0.014794922,1.344686151
14.700319,-4.531829834,32.148597717,-12.709419250,0.052872315,-0.031030273,1.326619744
14.700945,-3.852813721,32.621620178,-12.907783508,0.054459229,-0.028466797,1.316121697
14.701751,-3.028839111,33.155677795,-13.098518372,0.061783448,-0.023828125,1.309774041
14.702537,-2.052276611,33.704994202,-13.151924133,0.068375245,-0.020532226,1.297689080
14.703162,-0.953643799,34.147499084,-13.068000793,0.076309815,-0.020776367,1.296712518
14.716974,-3.128021240,38.114784241,-15.349189758,-0.094222412,0.032690428,0.785726190
14.717719,-3.723114014,37.100074768,-15.303413391,-0.097152099,0.030981446,0.770589471
14.718345,-3.906219482,36.726234436,-14.654914856,-0.099471435,0.009008789,0.760701776
14.718972,-4.074066162,36.718605042,-14.181892395,-0.088118896,-0.017480468,0.754476190
14.719598,-4.760711670,36.855934143,-14.364997864,-0.098616943,-0.037377931,0.747029901
14.720223,-5.294769287,37.229774475,-14.357368469,-0.108626708,-0.084375001,0.734822869
14.720850,-6.225555420,37.878273010,-13.716499329,-0.251448989,-0.100122072,0.684163690
14.721475,-9.185760498,36.764381409,-13.777534485,-0.472640395,-0.139428705,0.565145135
14.722100,-14.785736084,32.095191956,-14.685432434,-0.669051528,-0.209985346,0.388997674
14.722725,-22.827117920,22.779701233,-15.021125793,-0.762313247,-0.329248041,0.156942010
14.723351,-26.885955811,10.030982971,-14.838020325,-0.688582778,-0.560083032,-0.060465217
14.723977,-22.338836670,-1.268150330,-13.983528137,-0.547225356,-0.771752954,-0.289713264
14.724603,-9.880035400,-9.729148865,-13.014595032,-0.402327895,-0.848168969,-0.529825568
14.725229,5.157501221,-16.267539978,-12.739936829,-0.359725356,-0.753442407,-0.725382209
14.733554,33.218414307,-15.176536560,-11.236946106,-0.165511474,1.067358375,1.435506463
14.734184,20.004302979,-17.701866150,-13.159553528,-0.130721435,1.082373023,1.544271111
14.734810,6.271392822,-18.060447693,-14.464179993,-0.026717529,1.093969703,1.668050408
14.735436,-9.521453857,-16.694786072,-15.921394348,0.015518799,1.104467750,1.722249627
14.736062,-26.199310303,-16.786338806,-17.981330872,0.012100831,0.983740211,1.688802361
14.736689,-39.588897705,-18.197776794,-19.743721008,0.024185792,0.804418921,1.623738885
14.737315,-49.362152100,-18.060447693,-21.528999329,0.074722901,0.643164039,1.574544549
14.737942,-56.816070557,-16.725303650,-22.223274231,0.068253174,0.494238287,1.502400994
14.738567,-61.599700928,-15.687705994,-23.489753723,0.027237549,0.309790045,1.389119744
14.739193,-63.590972900,-15.329124451,-25.282661438,-0.029281005,0.142797858,1.253011346
14.739818,-62.232940674,-15.786888123,-26.617805481,-0.056380615,0.023779297,1.119466424
14.740443,-59.295623779,-16.305686951,-27.678291321,-0.020247802,-0.038964845,1.016683221
14.741068,-55.503814697,-15.062095642,-27.762214661,0.055191651,-0.046044923,0.958577752
14.741695,-50.949066162,-12.719871521,-28.799812317,0.088272706,-0.089990236,0.885335565
14.742322,-46.073883057,-10.728599548,-30.142585754,0.078995362,-0.157617182,0.801107049
14.744012,-21.011322021,-9.652854919,-30.287544250,0.004776612,-0.212304682,0.681234002
14.744637,-15.052764893,-9.729148865,-30.524055481,-0.033187255,-0.210107416,0.704427361
14.745263,-10.391204834,-8.928062439,-30.112068176,-0.073592529,-0.237939447,0.732747674
14.745889,-6.622283936,-9.042503357,-29.356758118,-0.121810302,-0.226586908,0.761678338
14.746514,-4.074066162,-10.301353455,-29.509346008,-0.149031982,-0.227075189,0.800496697
14.747140,-1.251190186,-12.132408142,-29.852668762,-0.162337646,-0.252832025,0.831868768
14.747766,1.449615479,-14.795066833,-29.120246887,-0.186019287,-0.248559564,0.867757440
14.748392,4.280120850,-18.029930115,-28.723518372,-0.216170654,-0.278466791,0.883016229
14.749019,7.576019287,-21.730186462,-28.311531067,-0.237532958,-0.306909174,0.893025994
14.749644,10.589630127,-25.583030701,-27.846138000,-0.239364013,-0.342797846,0.898152947
14.750271,14.396697998,-28.993370056,-27.624885559,-0.214095458,-0.361352533,0.891927361
14.750897,18.486053467,-31.381370544,-27.159492493,-0.181136474,-0.349755853,0.895467401
14.751524,21.354705811,-33.838035583,-26.495735168,-0.170638427,-0.325830072,0.868611932
14.752151,23.963958740,-36.477806091,-26.099006653,-0.161727294,-0.316064447,0.831746697
14.752776,26.626617432,-39.140464783,-26.106636047,-0.132430419,-0.308251947,0.795980096
14.754427,30.296356201,-39.788963318,-24.771492004,-0.032943115,-0.252709955,0.763631463
14.755052,30.525238037,-37.805320740,-24.199287415,0.005753174,-0.219384760,0.757161736
14.768827,-17.478912354,-35.417320251,-3.805915833,-0.046004638,-0.546899438,0.817342401
14.769536,-15.495269775,-35.547019958,-2.569953918,-0.061751708,-0.569360375,0.833577752
14.770161,-13.626068115,-36.050559998,-1.433174133,-0.085433349,-0.579980493,0.844808221
14.770787,-11.352508545,-37.034751892,0.146110535,-0.107894287,-0.596582055,0.862630486
14.771414,-9.414642334,-37.782432556,1.465995789,-0.130355224,-0.619897485,0.879842401
14.772040,-7.026641846,-38.644554138,2.839286804,-0.138533935,-0.643823266,0.896688104
14.772666,-4.455535889,-39.163352966,4.296501160,-0.129744872,-0.643579125,0.918538690
14.773291,-1.731842041,-40.239097595,5.166252136,-0.114119872,-0.621972680,0.935018182
14.773917,0.618011475,-41.520835876,6.379325867,-0.112044677,-0.595727563,0.946981072
14.774542,3.135711670,-43.100120544,7.897575378,-0.121566162,-0.574853539,0.956258416
14.775168,6.095916748,-44.709922791,9.392936707,-0.150496826,-0.561669946,0.967488885
14.775793,9.063751221,-45.243980408,10.552604675,-0.176864013,-0.544946313,0.978475213
14.776418,11.772186279,-45.434715271,11.788566589,-0.191024169,-0.501367211,0.991170526
14.777044,14.205963135,-45.976402283,12.742240906,-0.183089599,-0.449609369,0.998983026
14.778795,17.746002197,-48.356773376,16.411979675,-0.065657958,-0.335351557,1.058553338
14.779420,17.791778564,-48.661949158,17.365653992,-0.026107177,-0.300073236,1.079427361
14.780047,17.227203369,-48.333885193,18.441398621,-0.007308349,-0.262963861,1.100667596
14.780673,16.174346924,-47.158958435,19.570549011,-0.004989013,-0.219506830,1.121175408
14.781299,15.365631104,-45.266868591,20.112236023,-0.015853271,-0.186181635,1.135823846
14.781926,14.244110107,-43.359519958,20.653923035,-0.027205810,-0.162744135,1.147054315
14.782553,12.908966064,-42.001487732,21.386344910,-0.025252685,-0.153710932,1.151448846
14.783178,11.169464111,-41.330101013,22.111137390,-0.026351318,-0.146264642,1.160482049
14.783803,9.056121826,-41.063072205,22.996147156,-0.028426513,-0.140649408,1.172689080
14.784428,7.171661377,-40.376426697,23.736198425,-0.035994872,-0.136010736,1.188924432
14.785053,5.302459717,-39.186241150,24.590690613,-0.056380615,-0.111474611,1.195516229
14.785679,3.692657471,-37.690879822,25.384147644,-0.063216552,-0.095117189,1.201619744
14.786306,1.785308838,-36.882164001,25.712211609,-0.047957763,-0.081079103,1.213582635
14.786933,-0.358551025,-35.684349060,26.581962585,-0.030867919,-0.084375001,1.219319940
14.787559,-2.151458740,-34.997703552,27.283866882,-0.028548583,-0.085107423,1.228353143
14.789277,-4.631011963,-35.135032654,28.145988464,-0.019149169,-0.096826173,1.263021111
14.789903,-2.075164795,-32.228233337,29.236991882,0.104630128,-0.212915033,1.358235955
14.790529,2.723724365,-26.216270447,30.472953796,0.180191651,-0.271508783,1.469808221
14.791156,6.622344971,-20.738365173,30.732353210,0.308853745,-0.326196283,1.606649041
14.791782,11.627227783,-14.360191345,31.045158386,0.517349839,-0.337304682,1.801839471
14.792407,18.127471924,-6.540061951,31.991203308,0.596207261,-0.158837885,1.987386346
14.793034,23.345977783,0.372169495,32.029350281,0.529434800,0.158178717,2.140096188
14.793659,24.421722412,5.933998108,31.960685730,0.411148667,0.417211920,2.273152828
14.794284,21.156341553,11.411903381,31.693656921,0.308853745,0.499731451,2.404378414
14.794911,14.465362549,16.439674377,31.304557800,0.225723878,0.460058600,2.513997555
14.795536,5.989105225,20.345924377,31.251152039,0.155411378,0.356542975,2.582723141
14.796162,-3.189056396,22.032020569,30.305107117,0.111221924,0.250830084,2.614217281
14.796789,-11.726348877,21.604774475,29.458244324,0.064102784,0.171728522,2.599935055
14.797414,-19.073455811,19.460914612,28.985221863,-0.019149169,0.128027350,2.536580563
14.798039,-24.375885010,14.944313049,28.924186707,-0.115584716,0.065771483,2.422444820
14.799744,-28.434722900,-2.412559509,27.459342957,-0.303450942,-0.192163080,1.864583611
14.800370,-27.801483154,-8.828880310,27.077873230,-0.303206801,-0.232324213,1.600911736
14.800996,-26.718109131,-14.413597107,27.024467468,-0.263778090,-0.280419916,1.307332635
14.814805,-6.622283936,-15.977622986,31.060417175,-0.127791747,0.336401373,1.009114861
14.815516,-12.878387451,-14.428855896,31.022270203,-0.109481201,0.295996100,1.060872674
14.816143,-18.112152100,-12.674095154,30.984123230,-0.128035888,0.238745123,1.099080682
14.816768,-22.605865479,-11.483909607,30.350883484,-0.143660888,0.151586920,1.135823846
14.817394,-26.596038818,-11.186363220,29.328544617,-0.188826904,0.074438475,1.146077752
14.818021,-30.044525146,-12.109519958,28.626640320,-0.214705810,-0.018457031,1.138997674
14.818647,-31.043975830,-13.734580994,28.542716980,-0.208724365,-0.118310548,1.133260369
14.819274,-29.830902100,-15.199424744,28.176506042,-0.216292724,-0.168481439,1.111287713
14.819901,-27.412384033,-16.351463318,27.474601746,-0.207137451,-0.175439447,1.074788690
14.820527,-24.505584717,-17.747642517,27.154167175,-0.161483154,-0.169213861,1.040120721
14.821153,-21.881072998,-19.403221130,27.146537781,-0.126815185,-0.143334955,1.000569940
14.821779,-19.264190674,-20.562889099,26.734550476,-0.098128662,-0.125878900,0.960408807
14.822405,-15.830963135,-20.761253357,26.498039246,-0.058455810,-0.133569330,0.934651971
14.823031,-11.589019775,-19.525291443,26.406486511,-0.017928466,-0.144433588,0.927693963
14.824777,-1.113861084,-15.680076599,26.574333191,0.000137940,-0.119287111,0.971883416
14.825402,1.960784912,-15.001060486,26.620109558,0.016495362,-0.142846674,1.023641229
14.826031,6.027252197,-14.497520447,26.848991394,0.010635987,-0.125024408,1.069539666
14.826657,9.849578857,-14.703514099,26.124198914,0.005020753,-0.087060548,1.122029901
14.827282,13.015777588,-15.527488708,25.948722839,0.007828370,-0.064843751,1.180745721
14.827909,15.373260498,-17.205955505,25.857170105,0.003189698,-0.033227541,1.222005486
14.828536,15.876800537,-18.548728943,25.559623718,0.010635987,-0.031518556,1.264485955
14.829163,16.105682373,-19.670249939,25.483329773,0.043472901,-0.037744142,1.307820916
14.829789,16.426116943,-19.883872986,25.460441589,0.057388917,-0.012109375,1.330770135
14.830414,16.265899658,-20.005943298,24.644096375,0.086685792,0.013159180,1.341512322
14.831040,16.845733643,-19.670249939,24.598320007,0.129044190,0.012060547,1.352010369
14.831667,17.066986084,-18.121482849,24.651725769,0.116959229,0.037939452,1.346150994
14.832294,16.410858154,-17.389060974,24.300773621,0.098160401,0.076513670,1.321859002
14.832921,15.113861084,-16.061546326,23.751457214,0.117447510,0.083105467,1.312825799
14.833547,13.565093994,-13.864280701,23.904045105,0.133927003,0.095068358,1.309774041
14.835263,7.019073486,-8.386375427,23.362358093,0.080704346,0.148413092,1.250814080
14.835889,4.501373291,-7.531883240,23.415763855,0.081436768,0.132910162,1.232991815
14.836515,2.044708252,-6.028892517,23.774345398,0.079971924,0.121923827,1.217733026
14.837142,-0.236480713,-5.357505798,23.728569031,0.075943604,0.106298827,1.208455682
14.837769,-2.090423584,-4.068138123,23.263175964,0.109268799,0.058691405,1.204183221
14.838395,-2.746551514,-1.947166443,23.293693542,0.146866456,0.007299805,1.201131463
14.839021,-2.090423584,0.021217346,23.286064148,0.178726807,-0.065209962,1.204793572
14.839648,-0.228851318,2.386329651,23.293693542,0.164322510,-0.148217767,1.204305291
14.840274,2.006561279,4.553077698,22.980888367,0.071304932,-0.143823236,1.171834588
14.840899,2.815277100,3.828285217,22.103507996,-0.012801513,-0.116723634,1.128377557
14.841526,3.387481689,2.195594788,22.599418640,-0.064925537,-0.097192384,1.088460565
14.842151,5.203277588,0.471351624,23.507316589,-0.095198974,-0.085595705,1.058675408
14.842777,8.071929932,-0.779869080,23.659904480,-0.107039794,-0.055566408,1.022664666
14.843403,11.657745361,-2.229454041,23.209770203,-0.069197997,-0.052148439,0.996785760
14.844034,14.930755615,-3.534080505,23.163993835,-0.023177490,-0.062158205,0.962239861
14.845739,22.399932861,-7.959129333,23.392875671,0.032974854,-0.067773439,0.858846307
14.846365,25.909454346,-8.134605408,23.118217468,0.005997315,-0.045190431,0.829671502
14.846990,28.228790283,-8.203269958,23.553092957,-0.038802490,0.017553711,0.798543572
14.847616,28.373748779,-9.225608826,23.865898132,-0.052840576,0.049291991,0.776204705
14.861379,-8.979766846,-22.859336853,26.383598328,-0.029281005,0.167456061,0.615193963
14.862071,-11.009185791,-24.095298767,26.620109558,-0.025863037,0.199072272,0.579183221
14.862697,-13.473480225,-25.193931580,26.383598328,0.011124268,0.202490240,0.557210565
14.863322,-15.052764893,-25.659324646,26.749809265,0.050797120,0.183447272,0.546834588
14.863948,-15.289276123,-25.094749451,26.818473816,0.066910401,0.173437506,0.545125604
14.864574,-14.808624268,-24.934532166,26.269157410,0.068863526,0.177465826,0.540242791
14.865200,-14.991729736,-25.285484314,25.613029480,0.063614503,0.179418951,0.542073846
14.865825,-16.227691650,-26.696922302,25.719841003,0.043839112,0.186376959,0.551595330
14.866451,-17.967193604,-27.459861755,26.292045593,0.037247315,0.156103522,0.584676385
14.867078,-19.172637939,-26.918174744,26.620109558,0.030045167,0.148901373,0.638753533
14.867704,-20.416229248,-26.017906189,26.612480164,0.018448487,0.182714850,0.685628533
14.868331,-21.812408447,-25.308372498,25.460441589,0.005264893,0.238012701,0.728597283
