time,gyro x,gyro y,gyro z,accel x,accel y,accel z
28.424967,-0.166225433,4.281280518,-0.796726227,-0.000405028,-0.007964358,1.013659239
28.463507,-0.608730316,2.572296143,-0.323703766,0.014121339,0.001801267,0.997912109
28.477788,-0.349330902,1.519439697,-0.461032867,0.019126222,0.005341306,1.006090879
28.493162,-0.097560883,0.588653564,-0.277927399,0.015586182,0.002655759,1.004626036
28.531462,0.352573395,-3.981353760,0.439235687,0.009726807,0.005707517,1.007189512
28.569775,0.276279449,-3.226043701,-0.102451324,0.003135011,-0.001006350,0.990221679
28.584059,-0.212001801,-2.615692139,-0.163486481,0.001059815,-0.000151858,0.992663085
28.599384,-0.562953949,-1.974822998,-0.300815582,-0.001381591,-0.003936037,0.998522460
28.637674,-1.234340668,0.039337158,-0.194004059,0.007285401,0.003510252,1.000963926
28.676001,0.169467926,-3.950836182,0.538417816,0.019126222,0.011200681,1.009142637
28.690283,0.825595856,-5.179168701,0.668117523,0.016074464,0.006439939,0.995592773
28.705612,0.879001617,-6.682159424,0.050136566,0.012290284,0.002655759,0.984850585
28.743900,0.077915192,-3.111602783,-0.277927399,-0.001137450,-0.006621584,1.006579161
28.782255,-1.417446136,5.311248779,-0.621250153,0.001792237,-0.000395998,1.002428770
28.796526,-0.555324554,5.509613037,-0.216892242,0.009360597,0.004242674,1.004503965
28.811871,-0.417995453,4.822967529,0.004360199,0.014609620,0.001923338,0.995470703
28.850172,-0.219631195,3.022430420,0.584194183,0.009726807,0.003510252,1.006701231
28.888491,-0.006008148,1.778839111,0.706264496,0.008384034,0.003266111,1.005114317
28.902773,0.299167633,1.656768799,0.538417816,0.007041261,0.003388181,0.999621093
28.918115,-0.379848480,1.519439697,0.187465668,0.008750245,-0.001982912,0.991442382
28.956443,1.107883453,2.030609131,0.149318695,0.010703370,0.002411619,1.004015684
28.994761,-0.295925140,-2.829315186,0.309535980,0.007651612,0.002655759,0.996325195
29.009032,-0.349330902,-2.348663330,0.027248383,0.008628175,-0.001494631,1.002062559
29.024372,-0.540065765,0.954864502,-0.789096832,-0.003945068,0.005707517,1.009264708
29.076563,-0.662136078,2.221343994,0.111171722,-0.002846435,-0.002715334,0.992663085
29.114975,-1.631069183,8.759735107,-1.658847809,0.003623292,0.002777830,1.008288145
29.129238,-1.257228851,9.743927002,-1.429965973,-0.002968505,0.004486814,1.010241270
29.144567,0.482273102,7.577178955,-0.132968903,-0.018227294,0.003510252,1.012804747
29.182880,0.604343414,-0.563385010,1.499721527,-0.008583739,-0.000029787,0.993517578
29.221209,0.611972809,4.990814209,-0.865390778,-0.007729247,0.012543455,1.030504942
29.235473,2.626132965,8.507965088,-0.323703766,-0.020790771,0.002045408,1.008288145
29.250783,1.954746246,7.989166260,0.629970551,-0.018715575,0.003998533,0.968615234
29.289081,-0.746059418,-1.272918701,0.744411469,-0.012001708,0.002899900,1.012194395
29.327413,0.665378571,0.077484131,-0.361850739,-0.000160888,0.008393064,1.001940489
29.341673,-0.829982758,2.496002197,0.187465668,-0.004311278,0.008148924,0.980089843
29.356999,-1.768398285,3.007171631,-0.049045563,-0.008827880,0.013886228,0.990832031
29.395286,2.481174469,-2.623321533,1.316616058,0.035483643,0.021942869,1.049425840
29.433605,-0.265407562,-3.721954346,0.317165375,0.062461182,0.070160642,0.993395507
29.447878,-0.364589691,-4.828216553,-1.155307770,0.041220948,0.066864744,0.994494140
29.463200,0.955295563,-5.072357178,-0.003269196,0.035971925,0.069062009,0.991808593
29.501497,1.039218903,-1.173736572,-0.148227692,-0.006752685,0.081635252,1.000231504
29.539812,2.580356598,-3.676177979,5.634853363,-0.012489989,0.038178220,0.996447265
29.554089,1.901340485,-4.187347412,3.567287445,-0.023842528,0.057587400,0.970812500
29.569402,-1.432704926,-2.737762451,-1.002719879,-0.050331786,0.045624509,1.002306700
29.607701,-0.845241547,-0.891448975,-4.016330719,0.014609620,0.042816892,0.975329101
29.660112,-1.356410980,-34.399749756,2.445766449,0.006552979,-0.021392092,1.008776426
29.674450,-1.753139496,-27.930023193,0.988552094,0.042197511,0.005219236,1.002672911
29.689809,-1.898097992,-6.926300049,-3.268650055,0.032187745,-0.022856936,1.017565489
29.728116,-4.522609711,21.264312744,-10.661533356,0.035605714,-0.007720217,1.032702208
29.781291,-5.834865570,-9.527923584,-6.671360016,0.038047120,0.021820799,0.976793945
29.795624,-4.774379730,-11.397125244,-5.679538727,0.061606690,0.020233884,0.985216796
29.810985,-4.675197601,-7.719757080,-6.450107574,0.081382081,0.010712400,1.033434629
29.849294,-0.295925140,4.212615967,-9.135654449,0.047690675,0.026947752,1.026110411
29.887641,0.146579742,-17.645599365,-5.565097809,0.020468995,-0.007354006,1.015734434
29.901952,0.146579742,-18.316986084,-4.252841949,0.007041261,0.024384275,1.043200254
29.917304,0.978183746,-14.662506104,-4.702976227,-0.006386474,0.010956541,1.067980528
29.955671,-0.570583344,18.693206787,-9.822299957,0.022544190,0.024628416,1.053210020
29.994024,0.985813141,22.172210693,-10.211399078,0.028281495,0.018891111,0.934435546
30.008332,2.359104156,0.558135986,-6.205966949,0.024863526,0.008393064,0.973009765
30.023647,4.060459137,-8.490325928,-5.206516266,0.008261964,-0.004546389,0.985949218
30.061961,2.366733551,3.495452881,-5.504062653,-0.024086669,0.012421384,0.995958984
30.100262,-2.027797699,19.334075928,-6.717136383,-0.015541747,0.020111814,0.984850585
30.114572,1.184177399,14.687774658,-6.228855133,0.010703370,0.020844236,0.970202148
30.129927,-1.638698578,4.594085693,-3.100803375,0.002890870,-0.000395998,0.921374023
30.168265,-1.745510101,-5.156280518,-1.376560211,0.000815675,-0.047393069,0.907458007
30.206547,-6.040859222,-22.322418213,2.819606781,-0.014809325,-0.055449709,0.892565429
30.220862,-6.910610199,-28.410675049,4.383632660,-0.011269286,-0.055327639,0.866442382
30.236206,-10.778713226,-34.346343994,3.971645355,-0.003945068,-0.048491701,0.881701171
30.274514,-11.755275726,-35.414459229,4.826137543,-0.010781005,-0.061797366,0.994616210
30.328534,-9.809780121,-10.573150635,3.155300140,0.109092042,-0.023589358,1.094958067
30.342871,-8.871364594,-3.859283447,0.744411469,0.097617432,-0.001860842,1.069811583
30.358208,-7.513332367,6.768463135,-2.269199371,0.051230714,-0.027983889,1.026720762
30.396516,-4.545497894,13.734100342,-3.451755524,0.058310792,-0.004668459,1.084337950
30.434885,2.092075348,21.012542725,-9.082248688,0.074302003,0.003510252,1.043322325
30.449167,2.832126617,21.546600342,-10.142734528,0.064292237,0.000702634,1.046740294
30.464508,6.242465973,19.776580811,-10.341098785,0.043784425,0.003388181,1.074450254
30.502875,9.362888336,16.511199951,-9.005954742,0.066367432,-0.012114748,1.056872129
30.541193,13.200473785,14.832733154,-10.547092438,0.071738526,0.016937986,1.043566465
30.555494,14.680576324,11.803863525,-9.898593903,0.060630128,0.022187009,1.026598692
30.570832,14.360141754,9.698150635,-9.196689606,0.064902589,0.028656736,1.027453184
30.609153,16.359043121,-1.425506592,-9.951999664,0.039634034,0.065399900,1.055895567
30.647490,-2.722072601,-12.335540771,-0.331333160,0.063803956,0.022064939,0.819201171
30.661821,-5.659389496,-13.823272705,-7.014682770,0.072226807,0.039398924,0.912096679
30.677176,-7.299709320,-12.854339600,-2.978733063,0.020835206,0.067963377,1.024523497
30.715480,10.705661774,-23.657562256,-0.087192535,-0.008949950,0.021210447,1.000231504
30.753812,0.955295563,-8.063079834,-2.490451813,0.033896729,-0.003447756,0.958727539
30.768106,0.993442535,-3.371002197,-2.612522125,0.032676026,0.028656736,1.022326231
30.783417,8.271884918,1.618621826,-4.191806793,0.016440675,0.046601072,1.043566465
30.821726,8.554172516,2.541778564,-2.490451813,0.005454347,0.036469236,0.964464843
30.860073,-0.791835785,4.327056885,-1.422336578,0.007163331,0.059174314,0.910753906
30.874354,0.497531891,2.038238525,-2.314975739,-0.011879638,0.094818845,0.985460937
30.889667,1.168918610,0.321624756,-1.826694489,-0.015663818,0.097138181,1.002672911
30.927970,6.616306305,-9.077789307,0.622341156,-0.040932372,0.047333494,0.954943359
30.982100,-0.799465179,-11.366607666,2.163478851,-0.039833739,0.042328611,0.931872070
30.996445,-1.982021332,-12.976409912,2.987453461,-0.032509521,0.037079588,0.972643554
31.011830,0.383090973,-14.837982178,3.826686859,-0.013588622,0.042816892,1.004137754
31.050150,-0.196743011,-8.833648682,2.811977386,0.045615479,0.037323728,1.030260801
31.104527,0.512790680,10.049102783,0.843593597,0.045859620,0.034027830,0.999132812
31.118858,-0.929164886,13.894317627,-0.262668610,0.058554932,0.047577634,0.988268554
31.134219,-3.187465668,21.012542725,-3.543308258,0.057334229,0.060150877,1.042834044
31.172545,5.677890778,18.616912842,-4.031589508,-0.000771239,0.040863767,1.014757872
31.210888,1.222324371,18.891571045,-5.206516266,0.042197511,0.034271970,0.982531250
31.225213,1.496982574,17.777679443,-6.480625153,0.015097901,0.037567869,1.019152403
31.240584,5.006504059,9.515045166,-4.306247711,-0.045693114,-0.009917483,0.994250000
31.278895,2.740573883,-4.065277100,1.591274261,-0.037392333,-0.011992678,0.973253906
31.317246,3.946018219,-3.035308838,0.637599945,0.004111573,-0.024199709,0.984728515
31.331536,2.275180817,-4.256011963,1.446315765,-0.009560302,-0.008696780,0.989245117
31.346885,2.603244781,-5.987884521,2.216884613,-0.024452880,-0.014678225,0.988878906
31.385211,1.802158356,-3.363372803,5.688259125,0.060141847,0.005951658,1.033434629
31.423540,3.389072418,15.214202881,-0.018527985,0.121299073,-0.006987795,1.150011778
31.437863,5.952548981,15.588043213,-1.071384430,0.091513917,0.008026853,1.092760801
31.453213,10.705661774,12.833831787,-0.667026520,0.070517823,0.007294431,1.022448301
31.491517,4.815769196,3.144500732,-6.785800934,-0.038857177,-0.001738772,0.839831054
31.529870,-0.761318207,-21.139862061,5.802700043,0.033408448,0.071381345,0.994860351
31.544170,0.428867340,-16.813995361,1.843044281,0.074668214,0.076508299,1.025255919
31.559522,5.372714996,-2.691986084,-5.580356598,0.046103761,0.065521970,1.035753965
31.597850,4.655551910,6.806610107,-5.320957184,-0.021401122,-0.054595217,0.940661132
31.636158,-6.902980804,9.118316650,-4.565647125,0.031577393,0.099579588,0.910265625
31.650458,-6.185817719,13.253448486,-4.710605621,0.035971925,0.204682127,0.910265625
31.665794,-5.209255219,16.236541748,-6.053379059,0.016806886,0.211151853,0.936754882
31.720397,-3.134059906,11.880157471,-5.587985992,0.032309815,0.138153806,0.939928710
31.758821,-11.282253265,-0.754119873,-2.101352692,-0.062416747,0.072235838,0.936632812
31.773132,-11.083889008,-6.537200928,-1.658847809,-0.042763427,0.098480955,1.008776426
31.788461,-4.156398773,-11.145355225,0.385829926,-0.004189208,0.125946775,1.055285215
31.826763,-0.875759125,-7.612945557,-4.283359528,-0.016518310,0.023285642,1.035143614
31.865091,-3.164577484,-6.499053955,-2.147129059,-0.011879638,0.071625486,1.027331114
31.879399,-1.241970062,-1.288177490,-3.093173981,0.027304932,0.079926267,1.057604551
31.894701,-0.097560883,2.976654053,-4.588535309,0.030600831,0.064789549,1.051012754
31.933016,-1.539516449,14.504669189,-8.021762848,-0.006142333,0.016205564,1.089831114
31.971333,1.947116852,15.031097412,-8.479526520,0.023276612,0.036225095,1.102404356
31.985636,2.732944489,15.183685303,-9.639194489,0.024985597,0.032440916,1.069811583
32.000974,2.160739899,14.703033447,-10.615756989,0.012168214,0.022064939,1.023546934
32.039263,1.344394684,8.713958740,-9.692600250,0.009238526,-0.009307131,1.034533262
32.077557,0.932407379,5.112884521,-11.332920074,-0.000771239,-0.034453616,1.005968809
32.091863,1.046848297,2.877471924,-10.775974274,-0.012856200,-0.036040530,0.993273437
32.107183,-0.242519379,-1.715423584,-9.463718414,-0.012123778,-0.027617678,0.973986328
32.145457,-3.279018402,-10.908843994,-9.288242340,-0.039467528,-0.016875491,1.041857481
32.183770,-0.006008148,-26.617767334,-5.649021149,-0.053993896,-0.015166506,1.067858458
32.198073,1.878452301,-35.269500732,-3.795078278,-0.047035888,0.061249509,1.075915098
32.213398,3.839206696,-38.397552490,-3.489902496,-0.043739989,0.107392088,1.071764708
32.251700,10.652256012,-35.910369873,-8.487155914,0.010093018,0.146698728,0.974840820
32.290049,0.535678864,-28.197052002,-4.275730133,-0.058266357,0.114472166,0.922106445
32.304352,2.488803864,-19.377471924,-5.633762360,0.009848878,0.115692869,0.945910156
32.319664,2.847385406,-15.013458252,-10.287693024,-0.014443114,0.096527830,0.934557617
32.357949,-9.016323090,-20.163299561,3.834316254,0.010093018,0.140595213,0.878527343
32.408018,-11.251735687,15.000579834,-11.622837067,0.057944581,0.119232908,0.900500000
32.422369,-13.067531586,16.549346924,-10.142734528,0.030356690,0.106415525,0.901110351
32.437716,-13.586330414,16.450164795,-5.999973297,0.080893800,0.092743650,0.919054687
32.476033,-14.990139008,24.659393311,-13.987949371,0.104331300,0.026459470,0.938219726
32.526238,-13.830471039,11.971710205,-12.027194977,0.033896729,0.005097166,0.998034179
32.540597,-12.190151215,6.020782471,-9.593418121,0.037925050,0.039276853,1.016466856
32.555965,-9.687709808,-4.362823486,-9.662082672,0.034262940,0.030243650,1.013781309
32.594244,-11.785793304,-28.357269287,1.873561859,-0.007485107,0.059540525,1.125475645
32.632548,-2.249050140,-43.143035889,4.101345062,-0.049477294,0.034027830,1.089220762
32.646855,-1.570034027,-43.974639893,5.772182465,-0.020790771,0.060395017,1.049914122
32.662186,-2.569484711,-38.992645264,2.087184906,0.009360597,0.007294431,1.024279356
32.700462,-0.212001801,-18.706085205,3.040859222,0.030844972,0.073090330,1.066149473
32.738772,2.404880524,23.461578369,-8.609226227,0.034385011,0.062836424,1.100207090
32.753080,4.281711578,33.387420654,-7.922580719,0.012534425,-0.049712405,1.084337950
32.768416,3.076267242,35.355804443,-7.541110992,0.006919190,-0.048735842,1.085192442
32.806699,10.019016266,30.923126221,-4.191806793,-0.039467528,0.022553220,1.103625059
32.845047,8.607578278,32.906768799,-4.031589508,0.029868409,0.031708494,1.080797911
32.859355,9.179782867,33.372161865,-2.345493317,0.021567628,0.073456541,1.098986387
32.874692,16.496372223,34.425018311,-5.450656891,0.053794190,0.098847166,1.057604551
32.913018,13.253879547,26.894805908,-4.596164703,0.005698487,0.092377439,0.824694335
32.951328,7.035923004,9.507415771,-3.978183746,0.001670167,0.069062009,0.784044921
32.965626,3.747653961,2.923248291,-5.359104156,-0.013588622,0.038910642,0.795519531
32.980980,2.595615387,-12.732269287,0.889369965,-0.076698974,0.070893064,0.916247070
33.019259,6.097507477,-19.652130127,-3.581455231,-0.021645263,0.020844236,0.833727539
33.057567,1.016330719,-17.889739990,-2.574375153,-0.006630614,0.107636228,0.878283203
33.071873,1.260471344,-14.647247314,-3.711154938,-0.031532958,0.038544431,0.899401367
33.087223,-0.425624847,-13.319732666,-4.100254059,-0.032265380,0.038422361,0.892199218
33.125504,-1.379299164,-7.620574951,-4.237583160,-0.040444091,0.050263181,0.896105468
33.163857,-4.713344574,-4.462005615,-4.794528961,-0.020058349,0.059662595,0.965197265
33.178153,-2.386379242,-4.622222900,-5.778720856,-0.028969482,0.021088377,0.961535156
33.193487,-3.355312347,-2.569915771,-4.970005035,-0.023720458,-0.009429201,0.958361328
33.231779,-4.659938812,5.791900635,-6.297519684,-0.019447997,-0.022856936,0.938219726
33.270102,0.100803375,9.164093018,-9.738376617,-0.014931396,-0.045684084,0.969958007
33.284413,-1.364040375,9.408233643,-7.823398590,-0.011635497,-0.069121584,0.971789062
33.299777,-8.398342133,19.387481689,-2.452304840,0.073935792,-0.076567873,1.133044004
33.350198,-4.926967621,44.572113037,-13.484409332,0.075644776,0.063080564,1.150377989
33.388640,-1.211452484,25.758026123,-16.871860504,0.006430909,0.036469236,1.082873106
33.402945,1.260471344,17.884490967,-18.184116364,-0.031288818,0.096283689,1.116076231
33.418293,10.812473297,1.786468506,-12.332370758,-0.057167724,0.051972166,1.127062559
33.456614,11.567783356,-22.276641846,-9.692600250,-0.091957763,0.010102049,1.109972715
33.494936,15.016269684,-39.068939209,-1.536777496,-0.066811278,0.054413572,1.033556700
33.509241,13.337802887,-36.154510498,-0.064304352,-0.045204833,0.059418455,1.024279356
33.524601,14.001560211,-31.500579834,-1.132419586,-0.015541747,0.067963377,1.022082090
33.562886,8.722019196,-5.987884521,-2.971103668,-0.001259521,0.053070799,0.993395507
33.601208,7.386875153,32.860992432,-10.943820953,0.044883057,0.108368650,0.970934570
33.615508,7.081699371,41.444061279,-16.406467438,0.057700440,0.125092283,0.975329101
33.630867,9.545993805,53.086517334,-22.715976715,0.005942628,0.127289549,0.965441406
33.669155,15.359592438,48.745391846,-26.561191559,-0.060341552,0.068573728,0.924181640
33.719764,-10.916042328,24.667022705,-2.917697906,0.080161378,0.096405759,1.156237364
33.734120,-3.332424164,19.601104736,-18.901279449,0.045493409,0.257050276,0.946154296
33.749476,-3.553676605,-0.357391357,-17.238071442,-0.119301513,0.208466306,1.011828184
33.787786,12.803745270,-50.429107666,-9.967258453,-0.071327880,0.021820799,1.012682676
33.826127,2.801609039,-79.985382080,-1.819065094,-0.087929443,0.101776853,1.001574278
33.840452,4.480075836,-81.404449463,-2.688816071,-0.058876708,0.125824705,1.007555723
33.855811,9.660434723,-73.927642822,-6.297519684,-0.017006591,0.112274900,1.014025450
33.894107,10.392856598,-44.485809326,-15.155246735,0.005576417,0.086029783,0.964342773
33.932454,-1.180934906,-1.997711182,-19.099643707,-0.019447997,0.110810056,0.980944335
33.946767,-0.166225433,16.633270264,-22.815158844,-0.007363036,0.124848142,1.032335997
33.962125,3.160190582,23.141143799,-25.042942047,-0.005531982,0.121308103,1.028673887
34.000430,0.283908844,28.237579346,-26.370456696,-0.094399169,0.079560056,1.055895567
34.038752,12.704563141,26.505706787,-20.854404449,-0.066567138,0.116669431,1.012316465
34.053073,12.185764313,26.925323486,-20.907810211,-0.043984130,0.100800291,0.983385742
34.068426,5.792331696,25.964019775,-23.868015289,-0.065346435,0.119354978,0.914782226
34.106718,1.809787750,9.034393311,-17.444065094,-0.110024169,0.105561033,0.923815429
34.161968,-0.982570648,-19.392730713,-13.797214508,-0.059609130,0.144013181,0.988146484
34.176330,2.000522614,-19.514801025,-12.881687164,-0.033974364,0.147064939,1.019884825
34.191688,2.069187164,-18.454315186,-16.375949860,-0.042397216,0.170258299,0.994982421
34.230004,8.180332184,-10.519744873,-15.109470367,-0.050820068,0.091522947,0.958483398
34.268298,-0.715541840,-5.423309326,-9.334018707,-0.047402099,0.065033689,0.945177734
34.282600,-0.181484222,-3.241302490,-13.888767242,-0.054848388,0.099823728,0.943834960
34.297979,4.090976715,0.649688721,-14.636447906,-0.096596435,0.131439939,0.916369140
34.336260,7.638645172,-0.921966553,-12.103488922,-0.099404052,-0.013457522,0.836413085
34.374571,-5.079555511,-2.402069092,-12.126377106,-0.131020263,0.158051267,0.884997070
34.388863,-6.803798676,-3.676177979,-12.362888336,-0.140785888,0.202973142,0.876085937
34.404229,-12.045192719,-6.003143311,-10.409763336,-0.141030028,0.265717268,0.903551757
34.442513,-9.374904633,6.898162842,-8.601596832,-0.027260497,0.311493635,1.060778379
34.480864,1.329135895,25.429962158,-15.468051910,-0.069130614,0.159516111,0.999010742
34.495153,0.543308258,33.929107666,-14.872959137,-0.061684325,0.078827634,0.959215820
34.510512,-2.165126801,35.470245361,-16.322544098,-0.073769286,0.048065916,0.979845703
34.548838,-11.373806000,37.682769775,-19.221714020,-0.097084716,0.070038572,1.006579161
34.587165,-5.796718597,8.958099365,-10.501316071,-0.143227294,0.094574705,0.998034179
34.601455,-6.574916840,-8.337738037,-10.310581207,-0.174477294,0.098847166,0.983751953
34.616825,-8.276271820,-16.821624756,-6.465366364,-0.190102294,0.097992674,0.996203125
34.655123,-15.577602386,-57.402374268,2.766201019,-0.167397216,0.157318845,1.014025450
34.693459,-11.839199066,-86.630584717,15.347072601,-0.123940185,0.268891096,1.214709044
34.707753,-3.820705414,-87.950469971,14.500209808,-0.121498778,0.260956526,1.213122129
34.723114,5.540561676,-85.829498291,16.377040863,-0.099037841,0.188812986,1.181994200
34.761423,4.205417633,-60.667755127,15.759059906,-0.033364013,0.138520017,1.156847715
34.799733,9.965610504,0.489471436,3.429958344,0.004477784,0.122895017,1.161852598
34.814017,11.239719391,18.731353760,-0.285556793,0.017783448,0.116547361,1.152575254
34.829374,10.537815094,34.875152588,-3.680637360,0.013755128,0.120575681,1.126452208
34.867653,8.187961578,89.234588623,-8.250644684,0.044760987,0.207611814,1.174792051
34.905981,27.932834625,117.249725342,-14.438083649,-0.026283935,0.141693845,0.983385742
34.935308,23.820590973,114.808319092,-12.774875641,-0.036781982,0.073090330,0.838610351
34.949641,9.042453766,108.170745850,-10.669162750,-0.053749755,0.092743650,0.831530273
35.001933,-0.868129730,91.218231201,-21.815708160,-0.072548583,0.295868635,0.982775390
35.040283,20.639133453,24.842498779,-3.528049469,-0.141152099,0.159760252,0.935778320
35.054586,19.967746735,7.737396240,-2.124240875,-0.121010497,0.114228025,0.925158203
35.069923,9.439182281,-18.248321533,-2.627780914,-0.095009521,0.103729978,0.934069335
35.108224,10.026645660,-57.509185791,-3.367832184,-0.108925536,0.233246580,0.965563476
35.146538,11.979770660,-81.976654053,-4.260471344,-0.126869872,0.215180174,0.964464843
35.160848,10.469150543,-94.977142334,-8.357456207,-0.137612060,0.227265134,0.967272460
35.176198,10.163974762,-100.264312744,-8.365085602,-0.147743896,0.225678220,0.971666992
35.214479,16.549777985,-99.898101807,-9.082248688,-0.084389403,0.179291502,0.961168945
35.252810,6.646823883,-69.975616455,-8.784702301,-0.029457763,0.160004392,0.961413085
35.267102,3.701877594,-58.012725830,-14.033725739,-0.012367919,0.186127439,0.964342773
35.282478,5.609226227,-34.552337646,-19.328525543,-0.051186278,0.211151853,0.947741210
35.320807,1.283359528,5.830047607,-24.684360504,-0.021767333,0.199799314,0.956896484
35.359127,4.747104645,25.208709717,-25.996616364,-0.019814208,0.247895017,1.016222715
35.373447,4.640293121,31.037567139,-25.752475739,0.003012940,0.274262190,0.950670898
35.388816,5.525302887,34.478424072,-34.083774567,-0.030800536,0.248505369,0.959704101
35.427119,3.015232086,19.982574463,-31.367710114,-0.098915771,0.218109861,0.937975585
35.465465,4.167270660,-9.375335693,-27.133396149,-0.141762450,0.226776853,0.917345703
35.479766,5.593967438,-33.171417236,-21.777561188,-0.183510497,0.200653806,0.882555664
35.495128,4.419040680,-45.271636963,-18.023899078,-0.199745849,0.205170408,0.856798828
35.533439,-3.584194183,-85.295440674,-2.017429352,-0.196205810,0.201996580,0.886706054
35.571752,-10.114955902,-84.112884521,-0.644138336,-0.110512450,0.326752424,0.898302734
35.586067,-6.254482269,-68.022491455,-0.827243805,-0.094399169,0.326752424,0.868517578
35.601416,-7.009792328,-57.219268799,-1.346042633,-0.079506591,0.300751448,0.891955078
35.639700,-8.871364594,-7.925750732,-9.257724762,-0.087563232,0.245331541,0.954577148
35.678034,-6.918239594,20.653961182,-6.892612457,-0.099037841,0.182221189,0.929796875
35.692335,-8.444118500,24.041412354,-6.472995758,-0.108803466,0.168427244,0.939562500
35.707675,-11.633205414,28.924224854,-3.405979156,-0.102211669,0.183197752,0.975084960
35.745983,-4.286098480,27.146575928,-0.445774078,-0.130531982,0.196381345,0.954210937
35.799106,-10.137844086,9.911773682,9.167263031,-0.125038818,0.234833494,0.948107421
35.813443,-8.871364594,7.188079834,10.906764984,-0.110756591,0.257660627,0.935778320
35.828813,-6.750392914,4.143951416,12.386867523,-0.097084716,0.255951643,0.931261718
35.867107,-10.046291351,5.303619385,15.125820160,-0.072914794,0.242157713,0.948351562
35.905431,-7.177639008,14.451263428,16.865322113,-0.044228271,0.255463362,0.974230468
35.919726,-7.711696625,17.998931885,15.713283539,-0.038613036,0.251679182,0.975695312
35.935092,-8.314418793,25.193450928,14.599391937,-0.044472411,0.241303220,1.005968809
35.973422,-4.827785492,37.148712158,10.998317719,-0.034462646,0.226166502,1.052965879
36.011729,-3.584194183,40.154693604,9.350368500,-0.050820068,0.195160642,1.070299864
36.026024,-3.172206879,38.140533447,8.297512054,-0.055092528,0.188812986,1.087511778
36.041387,-2.485561371,36.286590576,8.343288422,-0.060585693,0.187592283,1.098376036
36.079689,3.892612457,22.996185303,7.832118988,-0.073769286,0.199188963,1.095568419
36.118030,9.545993805,7.798431396,9.029933929,-0.073036864,0.187592283,1.078844786
36.132330,13.093662262,5.852935791,8.350917816,-0.076698974,0.180390134,1.074206114
36.147672,15.321445465,5.349395752,8.022853851,-0.078774169,0.165131345,1.061144590
36.185970,13.238620758,4.235504150,6.641933441,-0.088051513,0.116303220,1.008288145
36.224283,9.919834137,3.121612549,7.038661957,-0.098061278,0.169037595,0.973742187
36.238564,9.416294098,3.335235596,6.786891937,-0.095986083,0.184418455,0.963732421
36.253894,9.965610504,4.212615967,6.634304047,-0.098549560,0.196137205,0.956530273
36.307894,10.400485992,14.794586182,4.643032074,-0.074135497,0.229950681,0.931872070
36.346287,12.277317047,25.735137939,1.659938812,-0.053017333,0.235810056,0.882555664
36.360602,11.148166656,27.802703857,0.309535980,-0.053261474,0.235810056,0.876208007
36.375995,9.477329254,31.640289307,-1.437595367,-0.055824950,0.260346174,0.865832031
36.414282,7.432651520,34.066436768,-4.809787750,-0.070473388,0.254486799,0.809923828
36.452609,2.412509918,26.025054932,-5.450656891,-0.082314208,0.286835432,0.801745117
36.466910,2.351474762,22.843597412,-5.969455719,-0.088539794,0.289887190,0.797228515
36.482277,1.878452301,15.153167725,-6.129673004,-0.099037841,0.289643049,0.771105468
36.520565,-2.805995941,1.130340576,-5.748203278,-0.146279052,0.276093245,0.808214843
36.558877,-2.928066254,-8.612396240,-5.137851715,-0.156410888,0.230316892,0.817736328
36.573170,-6.056118011,-15.990020752,-3.039768219,-0.178749755,0.214569822,0.808214843
36.588528,-8.505153656,-19.568206787,-0.491550446,-0.180702880,0.220917478,0.813708007
36.626840,-6.819057465,-22.223236084,0.301906586,-0.158241943,0.279022932,0.879992187
36.680966,-13.410854340,-0.265838623,1.965114594,-0.139565185,0.226288572,0.938463867
36.695306,-17.980861664,7.004974365,1.438686371,-0.112343505,0.272186995,0.972643554
36.710663,-18.194484711,23.568389893,-7.869174957,-0.111977294,0.357147932,0.996691406
36.748944,-11.656093597,35.790679932,-11.950901031,-0.186806396,0.276337385,1.070788145
36.787273,-5.033779144,34.074066162,-10.363986969,-0.215370849,0.111542478,1.143664122
36.801565,-7.810878754,29.839752197,-10.737827301,-0.237709716,0.018769041,1.098009825
36.816930,-17.019557953,27.718780518,-7.495334625,-0.235146239,-0.002471194,1.071032286
36.855239,-22.482204437,21.790740967,1.888820648,-0.215492919,0.085175291,1.181994200
36.893562,-18.743801117,-0.540496826,7.130214691,-0.204628661,0.034882322,1.164416075
36.907865,-10.496425629,-17.546417236,8.282253265,-0.218422607,0.042694822,1.154528379
36.923212,-5.804347992,-28.120758057,10.525295258,-0.240761474,0.034271970,1.147082090
36.961511,3.030490875,-45.386077881,13.920375824,-0.143593505,0.161103025,1.081530333
36.999877,5.853366852,-22.902252197,-4.390171051,-0.170693114,0.130463377,1.038195372
37.014169,3.221225739,-18.271209717,-7.686069489,-0.200234130,0.088715330,1.062121153
37.029527,0.634860992,-15.555145264,-9.677341461,-0.244179443,0.009613767,1.111559629
37.067844,-5.026149750,-23.764373779,-2.879550934,-0.274697006,0.036957517,1.123766661
37.106174,-9.336757660,-30.287506104,-2.314975739,-0.288002670,0.068085447,1.000109434
37.120470,-14.456081390,-39.023162842,-1.269748688,-0.312050521,0.028900877,1.068102598
37.135833,-15.440273285,-44.974090576,0.904628754,-0.329506576,0.047089353,1.065294981
37.174144,-20.872402191,-61.293365479,6.825038910,-0.318398178,0.068573728,1.090563536
37.212494,-27.448940277,-58.226348877,12.646266937,-0.282509506,0.050873533,1.154650450
37.226822,-25.991725922,-44.806243896,13.836452484,-0.265907943,0.063202634,1.215441465
37.242192,-18.347072601,-38.153411865,14.095851898,-0.246376708,0.042084470,1.190050840
37.280482,-25.823879242,-13.098480225,15.553066254,-0.192665771,0.116425291,1.048083067
37.318841,-10.244655609,34.333465576,4.368373871,-0.173256591,0.107636228,1.078966856
37.333128,-9.283351898,39.796112061,5.177089691,-0.183998778,0.072968259,1.014513731
37.348503,-23.763942719,43.252227783,6.863185883,-0.195961669,0.050019041,1.012682676
37.386837,-11.076259613,34.867523193,12.142726898,-0.200112060,0.018158689,1.083361387
37.441236,-24.801540375,7.691619873,21.313259125,-0.194130614,0.164643064,1.084460020
37.455594,0.390720367,-0.029327393,22.114345551,-0.182045653,0.051483884,1.144640684
37.471005,10.095310211,-3.378631592,23.869106293,-0.187050536,-0.031890139,1.095324278
37.509310,-16.531276703,-5.667449951,28.835842133,-0.134316161,0.104340330,1.013170958
37.547679,11.094760895,-0.014068604,26.722499847,-0.139198974,-0.016875491,1.050646544
37.561977,8.378696442,2.732513428,26.951381683,-0.136635497,-0.029448733,1.003527403
37.577331,-2.249050140,8.256195068,25.768825531,-0.127968505,0.050629392,0.985827148
37.631914,21.440219879,29.282806396,20.939418793,-0.097939208,-0.022124514,0.960924804
37.670307,-3.561306000,46.044586182,15.850612640,-0.087685302,0.109101072,0.906847656
37.684623,3.854465485,50.278900146,12.379238129,-0.097939208,0.135346189,0.952746093
37.699998,10.476779938,50.523040771,11.913845062,-0.111977294,0.081757322,0.968615234
37.738324,5.578708649,44.579742432,12.966701508,-0.121620849,-0.013213381,0.921740234
37.776676,8.622837067,24.804351807,17.674037933,-0.141640380,0.051972166,0.930041015
37.790976,11.232089996,19.425628662,18.284389496,-0.145180419,0.042328611,0.916369140
37.806317,7.936191559,9.728668213,21.954128265,-0.143105224,0.057465330,0.872790039
37.844637,3.923130035,-5.461456299,22.450038910,-0.136513427,0.154877439,0.888659179
37.882955,-0.051784515,-7.483245850,23.617336273,-0.130043700,0.106781736,0.867174804
37.897248,-4.011440277,-6.323577881,23.090908051,-0.128945068,0.123627439,0.889269531
37.912601,-3.507900238,-3.760101318,21.458217621,-0.137734130,0.135224119,0.937487304
37.950892,0.993442535,-0.006439209,20.512172699,-0.144325927,0.038422361,0.909044921
37.989230,-7.093715668,3.396270752,21.175930023,-0.141030028,0.051972166,0.958727539
38.003525,-0.685024261,4.456756592,17.910549164,-0.137123778,-0.012114748,0.990587890
38.018872,2.244663239,4.853485107,17.277309418,-0.147743896,-0.055327639,0.992663085
38.057198,-9.680080414,9.225128174,19.459316254,-0.143593505,0.038056150,0.929186523
38.095526,-9.741115570,17.869232178,17.384120941,-0.129067138,0.127045408,0.890124023
38.109847,-10.839748383,18.647430420,17.803737640,-0.119789794,0.109101072,0.905382812
38.125196,-11.061000824,19.547698975,10.189601898,-0.104286864,0.092011228,0.913683593
38.163497,-12.480068207,11.361358643,4.833766937,-0.138466552,0.050629392,0.916857421
38.213579,-16.149806976,2.259490967,-1.033237457,-0.174111083,0.125336424,0.952746093
38.227925,-14.921474457,-0.036956787,-2.261569977,-0.180214599,0.133148924,0.960436523
38.243276,-12.731838226,-4.896881104,-2.726963043,-0.191811278,0.145233884,0.950426757
38.281601,-11.572170258,-15.585662842,-2.627780914,-0.213661864,0.141327634,0.977038085
38.319924,-10.984706879,-22.116424561,-1.384189606,-0.184364989,0.157074705,1.004992247
38.334222,-9.855556488,-23.611785889,-1.223972321,-0.184853271,0.165619627,1.017931700
38.349569,-7.871913910,-24.794342041,-1.407077789,-0.181069091,0.172455564,1.030138731
38.387872,-4.247951508,-18.706085205,-5.664279938,-0.155190185,0.161225095,1.065905333
38.426208,-0.898647308,-15.082122803,-8.685520172,-0.148232177,0.168671384,1.086779356
38.440498,2.359104156,-13.197662354,-10.104587555,-0.123818114,0.165497556,1.097887754
38.455840,3.549289703,-11.389495850,-11.493137360,-0.113930419,0.149750486,1.096300840
38.494148,0.299167633,-5.598785400,-17.413547516,-0.099648193,0.091522947,1.138537169
38.532479,8.256626129,-10.603668213,-22.853305817,-0.105019286,0.072846189,1.183214903
38.546770,11.048984528,-12.724639893,-23.272922516,-0.114418700,0.041596189,1.170885801
38.562116,7.745456696,-14.937164307,-22.593906403,-0.105873778,-0.009917483,1.171374083
38.600440,-0.776576996,-16.180755615,-21.335056305,-0.099648193,0.039765134,1.147326231
38.638763,-3.622341156,-15.570404053,-21.884372711,-0.100014403,0.021942869,1.094591856
38.653072,-5.209255219,-14.578582764,-21.106174469,-0.089516357,0.031464353,1.099474669
38.668417,-5.331325531,-10.771514893,-22.235324860,-0.077553466,0.053559080,1.097277403
38.718581,-1.737880707,-3.554107666,-24.142673492,-0.084145263,0.010224119,1.062853575
38.756999,-0.242519379,0.390289307,-25.523593903,-0.069008544,-0.000273928,1.055285215
38.771308,3.129673004,2.862213135,-27.255466461,-0.071694091,-0.001128420,1.036974669
38.786649,4.235935211,4.655120850,-27.957370758,-0.060707763,0.007660642,1.022936583
38.824938,7.798862457,11.414764404,-34.106662750,-0.052284911,0.048676267,0.965075195
38.863261,11.964511871,14.718292236,-41.140964508,-0.066933349,0.036347166,0.953966796
38.877565,13.192844391,13.077972412,-42.239597321,-0.070595458,0.016693845,0.947008789
38.905111,12.124729156,9.766815186,-42.903354645,-0.083046630,0.006317869,0.945543945
38.955772,12.597751617,-3.950836182,-41.972568512,-0.097939208,0.023529783,0.912462890
38.994179,11.308383942,-24.794342041,-36.082675934,-0.123573974,0.035858884,0.898791015
39.008478,10.842990875,-33.537628174,-35.220554352,-0.115273193,0.041229978,0.880724609
39.023810,9.607028961,-36.360504150,-34.808567047,-0.118691161,0.044403806,0.867174804
39.062127,3.892612457,-79.794647217,-25.477817535,-0.299355209,0.019989744,1.026964903
39.100460,-0.379848480,-97.784759521,-28.552463531,-0.203041747,-0.020659670,1.056627989
39.114761,-1.127529144,-96.632720947,-21.533420563,-0.206825927,0.019013181,1.074084044
39.130099,1.168918610,-79.848052979,-15.139987946,-0.075722411,0.102875486,1.042834044
39.168436,1.100254059,-5.102874756,-23.539951324,-0.020302489,0.044647947,0.976671875
39.206754,-12.769985199,78.393218994,-39.927890778,0.025595948,-0.050688967,0.933703125
39.221062,-9.687709808,91.202972412,-40.835788727,-0.007973388,-0.065337405,0.913317382
39.236392,-9.046840668,111.848114014,-38.691928864,0.022055909,-0.091338381,0.858629882
39.274705,-10.816860199,128.388641357,-54.896762848,-0.030922607,-0.122344241,0.802355468
39.313048,-24.168300629,86.129425049,-64.723419189,-0.220619872,0.057343259,1.051256895
39.327358,-13.349819183,9.324310303,-56.529453278,-0.484291732,0.112641111,1.127306700
39.342687,-4.804897308,-34.826995850,-41.835239410,-0.538979232,0.103974119,1.148180723
39.381044,9.523105621,-99.623443604,-21.953037262,0.047934815,0.090546384,1.012560606
39.419358,-1.425075531,-32.805206299,-37.043979645,0.073691651,0.013275877,0.947741210
39.433658,-5.682277679,8.500335693,-54.927280426,0.081504151,0.074066892,1.023791075
39.448997,-4.217433929,25.552032471,-60.244968414,0.010459229,0.062836424,1.074450254
39.487323,5.662631989,46.166656494,-65.898345947,-0.124794677,0.056977049,1.136828184
39.525653,21.363925934,39.811370850,-63.563755035,-0.086098388,0.091278806,1.105456114
39.539963,23.873996735,43.267486572,-65.715240479,-0.074745849,0.059662595,1.075304747
39.555310,22.493076324,46.738861084,-68.232940674,-0.095009521,0.001190916,0.983507812
39.593648,17.556858063,30.961273193,-66.401885986,-0.138588622,0.030121580,1.020495176
39.631952,19.555759430,12.696502686,-66.127227783,-0.136147216,0.058441892,1.056139708
39.646249,24.499607086,3.930328369,-66.386627197,-0.144203857,0.054535642,1.020983458
39.661590,24.438571930,1.435516357,-65.722869873,-0.144447997,0.046356931,0.994616210
39.713614,15.031528473,-31.073333740,-59.230258942,-0.267983139,-0.060576662,0.974352539
39.752058,11.697483063,-60.393096924,-51.379611969,-0.250282943,0.023407713,1.051134825
39.766363,14.070224762,-66.130401611,-49.441745758,-0.243691161,0.026581541,1.048083067
39.781709,17.907810211,-70.585968018,-46.801975250,-0.177040771,0.017304197,0.976793945
39.820047,4.762363434,-89.941741943,-43.284824371,-0.219155028,0.027069822,0.829455078
39.858346,0.207614899,-59.256317139,-49.548557281,0.031943604,0.105683103,0.998644531
39.872655,5.998325348,-30.745269775,-56.003025055,-0.020058349,0.099335447,0.933092773
39.888008,3.328037262,-19.957305908,-57.208469391,-0.061073974,0.087616697,0.906115234
39.926316,-3.179836273,3.716705322,-59.009006500,-0.140419677,-0.016753420,0.897814453
39.964642,-9.176540375,22.622344971,-60.504367828,-0.133339599,0.118622556,0.907091796
39.978949,-7.910060883,27.558563232,-62.022617340,-0.142372802,0.127533689,0.909289062
39.994279,-2.188014984,35.569427490,-64.944671631,-0.160439208,0.075409666,0.897692382
40.032602,-10.092067719,14.550445557,-64.380096436,-0.300209701,-0.011138186,0.885485351
40.070902,-7.337856293,-37.878753662,-46.725681305,-0.143837646,0.050507322,1.019884825
40.085219,-5.331325531,-42.456390381,-49.991062164,-0.129677489,0.021576658,1.034899473
40.100576,-7.757472992,-41.723968506,-50.593784332,-0.101235107,-0.020903811,1.083971739
40.138878,-3.332424164,-39.259674072,-51.982334137,-0.182778075,-0.003447756,1.159899473
40.177191,3.450107574,-36.123992920,-49.113681793,-0.195473388,-0.037871584,1.253771544
40.206545,4.663181305,-20.361663818,-47.191074371,-0.190346435,-0.032500491,1.145495176
40.220871,4.899692535,-5.652191162,-45.680454254,-0.189369872,-0.030669436,1.161486387
40.259057,8.065891266,13.375518799,-38.318088531,-0.160561278,0.018769041,1.208117247
40.297351,13.597202301,32.731292725,-41.400363922,-0.108803466,0.026825681,1.185534239
40.311653,18.525791168,43.122528076,-43.773105621,-0.126991943,0.009735838,1.077624083
40.327036,18.914890289,44.877288818,-42.903354645,-0.167397216,-0.038481936,1.025255919
40.365369,14.795017242,39.597747803,-40.355136871,-0.150063232,-0.027617678,1.016588926
40.403675,17.457675934,47.028778076,-46.657016754,-0.125282958,0.076630369,0.968493164
40.417980,16.290378571,41.947601318,-40.889194489,-0.210243896,0.064667478,0.902819335
40.433331,16.748142242,35.866973877,-39.561679840,-0.234047607,0.042816892,0.894518554
40.471665,5.799961090,5.028961182,-29.048374176,-0.267006576,0.093231931,0.889757812
40.509969,10.133457184,-9.962799072,-23.913791656,-0.248451903,0.104462400,0.843859375
40.524259,9.942722321,-11.877777100,-22.685459137,-0.264443099,0.078949705,0.819323242
40.539620,6.837558746,-19.926788330,-20.060947418,-0.297280014,0.004853025,0.790026367
40.577929,-3.454494476,-28.418304443,-10.562351227,-0.285317123,0.104828611,0.924791992
40.616246,-4.026699066,-27.731658936,-7.975986481,-0.330483139,0.142548338,0.928698242
40.645857,8.157444000,-29.867889404,-0.186374664,-0.328652084,0.013764158,0.885851562
40.660202,2.107334137,-25.778533936,3.277370453,-0.248573974,-0.047026858,0.869372070
40.698404,-5.926418304,-4.477264404,-3.611972809,-0.141884521,0.121796384,0.983385742
40.736696,5.944919586,27.726409912,-16.787937164,-0.072914794,0.138031736,1.041491270
40.751006,5.754184723,33.990142822,-21.418979645,-0.098305419,0.132172361,1.002428770
40.766357,1.496982574,37.385223389,-23.219516754,-0.175453857,0.097748533,0.967028320
40.804687,0.665378571,27.428863525,-22.876194000,-0.180336669,0.033295408,0.935656250
40.843026,-21.612453461,23.896453857,-23.570468903,-0.068398193,0.180878416,1.156359434
40.857326,-8.413600922,31.907318115,-30.223300934,-0.077797607,0.255951643,1.126574278
40.872673,-2.813625336,36.240814209,-33.809116364,-0.121987060,0.251801252,1.058825254
40.911028,-5.529689789,35.737274170,-40.309360504,-0.275551498,0.149262205,0.938585937
40.949338,-17.126369476,16.717193604,-32.664707184,-0.249794677,0.138153806,0.916002929
40.963648,-16.874599457,14.947174072,-34.778049469,-0.221718505,0.146576658,0.936876953
40.979005,-17.004299164,9.827850342,-37.181308746,-0.279457748,0.131317869,0.923205078
41.017338,-10.740566254,-30.737640381,-24.524143219,-0.440102279,0.068085447,0.792223632
41.055662,-14.608669281,-84.860565186,0.233242035,-0.427284896,0.054291502,0.986803710
41.069966,-11.541652679,-89.102508545,2.804347992,-0.396645248,0.079804197,0.973620117
41.085313,-11.419582367,-81.572296143,5.856105804,-0.336586654,0.150482908,0.921740234
41.123668,-5.560207367,-44.943572998,-1.185825348,-0.272133529,0.135224119,1.096544981
41.161976,2.610874176,2.190826416,-8.044651031,-0.294960678,0.116303220,1.026110411
41.176253,1.855564117,15.099761963,-8.006504059,-0.278603256,0.144013181,1.021960020
41.191601,2.870273590,19.822357178,-8.662631989,-0.259316146,0.129242674,1.056017637
41.229934,14.810276031,26.002166748,-9.623935699,-0.307533920,0.006073728,1.078722715
41.268258,9.118747711,-8.543731689,7.740566254,-0.344521224,0.038788572,1.054186583
41.282546,12.223911285,-15.242340088,10.868618011,-0.305947006,0.058441892,1.067248106
41.297882,18.129062653,-19.995452881,11.662075043,-0.243813232,-0.000762209,1.072252989
41.336215,10.209751129,-22.787811279,13.004848480,-0.276161849,-0.002227053,1.023302794
41.374512,16.244602203,-24.977447510,13.226100922,-0.211342528,0.124970213,1.122545958
41.388831,19.021701813,-22.368194580,12.966701508,-0.176918700,0.112152830,1.109362364
41.404173,13.330173492,-9.482147217,8.350917816,-0.088906005,0.145111814,1.071764708
41.442482,16.351413727,35.493133545,-7.594516754,-0.024330810,0.134003416,1.080187559
41.511231,5.540561676,25.582550049,-5.809238434,-0.297157943,0.017182127,1.007067442
41.525575,8.630466461,5.608795166,1.949855804,-0.234047607,0.061493650,1.000963926
41.540919,9.134006500,0.230072021,2.735683441,-0.183022216,0.068573728,0.959459960
41.579272,-2.439785004,2.877471924,0.637599945,-0.159462646,0.095795408,0.953966796
41.617573,1.023960114,-9.489776611,9.968349457,-0.251381576,0.085907713,0.962389648
41.631869,2.587985992,-17.180206299,14.439174652,-0.197304443,0.152069822,0.895739257
41.647212,6.478977203,-16.081573486,13.172695160,-0.132851318,0.138886228,0.870348632
41.685532,-1.974391937,2.915618896,-2.780368805,-0.144325927,0.040009275,0.923937500
41.723873,4.510593414,-13.075592041,6.634304047,-0.247597411,0.005463377,0.975695312
41.738168,5.281162262,-16.775848389,7.870265961,-0.220131591,-0.007598147,0.945788085
41.753510,3.366184235,-15.120269775,8.251735687,-0.148354247,-0.013823733,0.892931640
41.791866,-2.996730804,1.954315186,0.988552094,-0.182533935,0.014008299,0.958239257
41.830189,-5.209255219,5.585906982,-0.674655914,-0.149330810,0.125214353,0.931872070
41.844479,-6.681728363,8.454559326,-3.276279449,-0.107948974,0.147431150,0.947130859
41.859826,-6.490993500,16.572235107,-11.821201324,-0.104897216,0.164765134,1.010119200
41.898170,2.397251129,16.846893311,-13.057163239,-0.165444091,0.150604978,1.035021544
41.936497,-2.348232269,-3.302337646,-10.867527008,-0.183876708,0.144379392,1.006090879
41.950821,-5.262660980,-11.870147705,-12.065341949,-0.158608153,0.153046384,1.038683653
41.966174,-6.628322601,-15.181304932,-12.767246246,-0.156044677,0.152680174,1.053820372
42.004495,-11.335659027,-22.688629150,-15.345981598,-0.124794677,0.175507322,1.089831114
42.042861,-11.816310883,-6.933929443,-20.961215973,-0.053505614,0.242279783,1.126940489
42.057164,-9.733486176,-0.967742920,-23.494174957,-0.072426513,0.268769026,1.089342833
42.072517,-3.546047211,3.823516846,-27.697971344,-0.197304443,0.242035642,0.973620117
42.110885,-6.841945648,-20.674468994,-19.679477692,-0.280312240,0.132660642,0.861193359
42.149231,-6.506252289,-20.888092041,-20.999362946,-0.081825927,0.165497556,0.962145507
42.163528,-6.368923187,-13.304473877,-26.545932770,-0.057533935,0.167938963,0.968249023
42.178880,-5.392360687,2.671478271,-33.290317535,-0.074013427,0.152558103,1.022692442
42.217221,2.992343903,14.405487061,-39.790561676,-0.130898193,0.074677244,1.057238340
42.271366,8.989048004,-1.776458740,-36.197116852,-0.324623764,0.078949705,0.944933593
42.285707,9.401035309,-13.037445068,-32.115390778,-0.380531967,0.058808103,0.953234375
42.301082,9.790134430,-42.242767334,-17.711093903,-0.422768295,0.053314939,0.990587890
42.339407,21.188449860,-84.692718506,6.069728851,-0.368935287,-0.004668459,1.007067442
42.377721,18.846225739,-55.403472900,7.916042328,-0.235756591,0.119110838,1.053332090
42.392029,21.600437164,-39.458038330,5.589076996,-0.236366943,0.120087400,1.040514708
42.407380,20.890903473,-3.348114014,0.576564789,-0.241005614,0.116425291,0.969713867
42.445713,3.946018219,45.808074951,-6.137302399,-0.216957763,0.251923323,0.961413085
42.484071,17.030429840,79.018829346,-16.330173492,-0.264076889,0.148285642,0.987291992
42.498372,14.764499664,77.813385010,-14.285495758,-0.284462631,0.071259275,0.923937500
42.513738,9.324741364,74.776885986,-12.324741364,-0.284340560,0.051239744,0.898180664
42.552095,-7.475185394,62.508819580,-7.258823395,-0.232216552,0.107880369,0.934679687
42.590449,-4.408168793,24.819610596,-1.895359039,-0.302284896,0.134491697,0.956041992
42.604748,-1.951503754,10.987518311,0.629970551,-0.303383529,0.108002439,0.973375976
42.620111,-0.318813324,-11.069061279,5.474636078,-0.221962646,0.081269041,0.981554687
42.658467,-16.302394867,-4.706146240,-0.476291656,-0.043862060,0.198944822,1.063219786
42.696788,1.237583160,4.990814209,-9.288242340,-0.236855224,0.145966306,1.000353575
42.711089,2.381992340,-0.677825928,-6.617954254,-0.270546615,0.084076658,0.983874023
42.726427,0.253391266,-19.018890381,-2.475193024,-0.309975326,-0.015288576,1.000109434
42.764760,-5.827236176,-38.008453369,10.304042816,-0.220986083,0.091889158,1.059801817
42.819178,0.886631012,-12.739898682,8.793422699,-0.178749755,0.167206541,1.053087950
42.833514,2.114963531,-6.666900635,7.938930511,-0.173744872,0.199188963,1.048327208
42.848847,9.179782867,5.730865479,4.589626312,-0.159218505,0.223358884,1.023791075
42.887177,16.320896149,18.418548584,-1.613071442,-0.167763427,0.087128416,0.988146484
42.925502,15.001010895,13.375518799,-0.361850739,-0.167763427,0.087372556,1.007433653
42.939831,17.190647125,11.971710205,-0.110080719,-0.161904052,0.091400877,1.003649473
42.955196,19.166660309,9.385345459,-0.659397125,-0.152504638,0.079804197,0.976183593
43.009697,18.373203278,-1.425506592,-2.238681793,-0.178993896,0.053559080,0.931872070
43.048097,10.217380524,-17.531158447,0.248500824,-0.182411864,0.080292478,0.930895507
43.062412,8.737277985,-19.293548584,0.485012054,-0.167885497,0.103852049,0.916491210
43.077761,5.815219879,-18.149139404,-1.811435699,-0.141518310,0.093842283,0.915026367
43.116098,-6.529140472,-11.290313721,-7.434299469,-0.115639403,0.122650877,0.893908203
43.154432,-7.971096039,-0.166656494,-19.999912262,-0.092079833,0.208222166,0.921007812
43.168731,-7.162380219,1.397369385,-22.960117340,-0.103432372,0.179047361,0.935656250
43.184063,-10.610866547,0.397918701,-26.233127594,-0.133095458,0.117157713,0.981066406
43.222406,-22.375392914,-19.926788330,-24.455478668,-0.195351318,0.166352049,0.999743164
43.260745,-24.954128265,-27.693511963,-23.784091949,-0.097939208,0.250580549,1.038805723
43.275042,-23.184108734,-20.300628662,-29.765537262,-0.097572997,0.260712385,1.089342833
43.290406,-19.453334808,-17.668487549,-31.474521637,-0.156655028,0.244965330,1.080309629
43.328748,-6.010341644,-30.821563721,-22.052219391,-0.320229232,0.120575681,0.976183593
43.367086,-14.326381683,-33.728363037,-18.817356110,-0.289101303,0.194672361,0.945421875
43.381410,-10.595607758,-21.086456299,-18.435886383,-0.220131591,0.244843259,1.032702208
43.396782,-8.352565765,-14.235260010,-20.343235016,-0.181069091,0.249115720,1.078722715
43.435139,-4.492092133,11.010406494,-26.515415192,-0.160805419,0.275727034,1.166247129
43.473476,8.439731598,12.627838135,-28.743198395,-0.258339584,0.190399900,0.995348632
43.487779,6.250095367,9.705780029,-26.194980621,-0.292519271,0.167816892,0.964342773
43.503136,3.343296051,1.527069092,-23.425510406,-0.307289779,0.171112791,0.952135742
43.541485,0.695896149,-0.754119873,-25.653293610,-0.262978256,0.241425291,0.961657226
43.579842,8.996677399,11.971710205,-30.429294586,-0.270912826,0.147309080,0.956530273
43.594138,7.974338531,13.474700928,-28.697422028,-0.352577865,0.038178220,0.991442382
43.609486,8.744907379,7.920501709,-24.669101715,-0.422524154,-0.019194826,1.011828184
43.647850,-0.936794281,-24.443389893,-2.490451813,-0.319618881,0.099579588,0.919909179
43.697897,-0.456142426,6.570098877,-21.136692047,-0.156410888,0.080414549,0.992418945
43.712239,-0.936794281,9.698150635,-24.798801422,-0.259804428,0.067597166,0.972887695
43.727615,-4.522609711,5.837677002,-23.250034332,-0.310829818,0.094940916,0.962267578
43.765942,0.077915192,-15.715362549,-9.929111481,-0.258095443,0.107025877,1.096667051
43.804285,-5.697536469,-2.943756104,-20.007541656,-0.156655028,0.036225095,1.011461973
43.818588,-10.641384125,0.497100830,-21.159580231,-0.164101318,0.071015134,1.028673887
43.833932,-10.877895355,1.443145752,-22.365024567,-0.201210693,0.156098142,1.073717833
43.872283,-10.771083832,-10.893585205,-10.379245758,-0.191445068,0.222870603,1.142809629
43.910637,4.510593414,-7.200958252,-9.883335114,-0.135536864,0.139862791,1.168810606
43.924937,9.141635895,-4.400970459,-9.135654449,-0.129433349,0.066742674,1.106432676
43.940264,5.586338043,4.334686279,-10.119846344,-0.112709716,-0.036895022,0.961291015
43.978592,-22.207546234,18.677947998,-14.239719391,-0.182411864,0.071747556,0.935656250
44.016935,-12.327480316,5.852935791,-11.378696442,-0.361000717,0.162567869,1.000841856
44.031237,-4.194545746,-8.551361084,-0.399997711,-0.298744857,0.149384275,1.036974669
44.046574,-3.996181488,-13.975860596,0.156948090,-0.275673568,0.132172361,1.042223692
44.096813,-0.547695160,-24.428131104,4.353115082,-0.280068099,0.185517088,1.110949278
44.135214,8.668613434,-4.561187744,3.429958344,-0.211342528,0.136078611,1.072130919
44.149499,10.957431793,12.658355713,3.574916840,-0.157875732,0.190888181,1.065417051
44.164842,14.917087555,23.537872314,2.186367035,-0.111733153,0.194184080,1.063952208
44.203182,27.177524567,67.017791748,-9.585788727,-0.031044677,0.143891111,0.959582031
44.241517,27.970981598,94.910858154,-19.633701324,-0.034218505,0.133759275,0.860460937
44.255844,28.527927399,99.442718506,-20.923069000,-0.032143310,0.127533689,0.845812500
44.271211,30.313205719,104.943511963,-23.852756500,-0.023354247,0.100922361,0.834704101
44.309553,23.065280914,98.252532959,-34.320285797,-0.072304443,0.054657713,0.776720703
44.360017,15.023899078,28.756378174,-33.748081207,-0.183754638,0.055512205,0.844958007
44.374362,14.550876617,6.173370361,-31.939914703,-0.219765380,0.056122556,0.846544921
44.389725,10.781955719,-44.348480225,-27.217319489,-0.283119857,0.079315916,0.880602539
44.428086,9.454441071,-142.805816650,-10.188510895,-0.296425521,0.170624509,1.019640684
44.466415,16.801548004,-188.589813232,-0.888278961,-0.215248778,0.176483884,1.053210020
44.480713,19.563388824,-187.536956787,0.164577484,-0.155922607,0.155609861,1.053698301
44.496095,14.398288727,-172.789337158,-2.383640289,-0.101479247,0.110687986,1.007555723
44.534466,-4.865932465,-124.090911865,-14.888217926,-0.056313232,0.174042478,0.983507812
44.572822,0.917148590,-35.200836182,-27.438571930,-0.025185302,0.279145002,0.958727539
44.587123,3.816318512,9.034393311,-35.792758942,-0.006020263,0.229706541,0.870836914
44.602472,0.978183746,26.231048584,-40.721347809,-0.009194091,0.204437986,0.841662109
44.640795,-14.051723480,51.842926025,-38.249423981,-0.088661864,0.219208494,0.834704101
44.679156,-12.152004242,51.987884521,-47.122409821,-0.154335693,0.278290510,0.786242187
44.693460,-13.990688324,43.809173584,-43.086460114,-0.184609130,0.275971174,0.803332031
44.708826,-11.312770844,25.765655518,-33.183506012,-0.161781982,0.274506330,0.832384765
44.747166,-6.956386566,-12.449981689,-29.445102692,-0.182289794,0.200287595,0.761583984
44.785501,-14.059352875,-57.440521240,-31.993320465,-0.253456771,0.062958494,1.210558653
44.799823,-15.096950531,-75.400115967,-29.757907867,-0.323158920,0.040253416,1.416002989
44.815190,-4.980373383,-113.569976807,-8.326938629,-0.338539779,0.130951658,1.454088926
44.853522,7.989597321,-82.731964111,-13.362339020,0.048178956,0.195893064,1.055041075
44.891891,4.251194000,6.257293701,-35.701206207,0.051718995,0.219452634,0.958849609
44.906207,11.361789703,56.885955811,-45.329502106,-0.009804443,0.093354002,1.026110411
44.921584,8.744907379,76.119659424,-48.274448395,-0.041176513,0.063446775,1.078722715
44.959911,13.505649567,100.381134033,-45.405796051,-0.257485092,0.139008299,1.276110411
45.010576,30.839633942,87.563751221,-33.748081207,-0.258705795,0.164154783,0.941881835
45.024920,27.894687653,74.166534424,-30.177524567,-0.257240951,0.144013181,0.878283203
45.040304,25.140476227,64.484832764,-27.453830719,-0.275185287,0.147431150,0.880480468
45.078680,21.699619293,9.865997314,-10.882785797,-0.297157943,0.257538557,0.805773437
45.117041,13.978672028,-27.556182861,-6.778171539,-0.215981200,0.338959455,0.830065429
45.131337,16.084384918,-34.796478271,-6.755283356,-0.231728271,0.284516096,0.791613281
45.146673,14.718723297,-35.429718018,-6.747653961,-0.209877685,0.239228025,0.768541992
45.185027,-12.487697601,-30.249359131,-11.226108551,-0.209145263,0.181244627,0.785265625
45.223387,-13.555812836,-19.118072510,-11.134555817,-0.240517333,0.097504392,0.877428710
45.237694,-19.964504242,-16.379119873,-9.883335114,-0.222206786,0.096283689,0.880480468
45.253058,-27.128505707,-9.863616943,-9.868076324,-0.241249755,0.140961424,0.874376953
45.291392,-36.443996429,-4.873992920,-4.558017731,-0.214028075,0.208832517,0.976061523
45.329739,-31.484889984,-12.480499268,2.171108246,-0.224281982,0.114228025,0.884020507
45.344046,-43.089199066,-12.488128662,1.995632172,-0.208656982,0.159516111,0.898180664
45.373117,-38.427639008,-6.567718506,5.833217621,-0.215981200,0.195282713,1.017077208
45.411508,-28.898525238,-11.999847412,16.033718109,-0.293862045,0.039154783,1.086901426
45.449892,-35.108852386,-21.872283936,27.477809906,-0.200112060,0.084564939,1.072497129
45.464218,-32.507228851,-21.239044189,27.943202972,-0.192421630,0.096771970,1.095446348
45.479605,-23.290920258,-21.216156006,29.392787933,-0.188881591,0.036225095,1.134875059
45.517952,-16.920375824,-14.555694580,35.076686859,-0.109047607,-0.065337405,1.108752012
45.556304,-24.626064301,25.201080322,23.670742035,-0.016640380,-0.065703616,1.005114317
45.570623,-24.320888519,39.597747803,17.193386078,-0.070961669,-0.074248537,0.999865234
45.586024,-26.884365082,41.589019775,16.117641449,-0.103798583,-0.098784670,1.017077208
45.638239,-40.960597992,34.707305908,11.822292328,-0.042885497,-0.246611819,1.233385801
45.676702,28.619480133,21.378753662,-27.034214020,-0.217323974,0.183563963,1.618761778
45.691004,80.499359131,-7.284881592,5.123683929,-0.300820053,0.045380369,0.863512695
45.706342,81.514068604,-24.290802002,8.472988129,-0.246620849,-0.069487795,0.621569335
45.744688,-15.112209320,-16.318084717,-7.327487946,0.117026612,0.061371580,1.023791075
45.783065,10.965061188,1.122711182,-31.085422516,-0.178749755,0.137665525,0.818102539
45.797357,7.615756989,-9.459259033,-29.429843903,-0.232460693,0.039765134,0.837877929
45.812697,-11.450099945,-38.672210693,-15.529087067,-0.303749740,-0.033843264,0.981676757
45.851079,-2.897548676,-65.016510010,-1.155307770,-0.088783935,0.152680174,1.046374083
45.889426,-4.347133636,-51.481964111,0.408718109,-0.130409911,0.039643064,0.862291992
45.903708,-11.671352386,-47.163726807,-2.261569977,-0.116860107,0.035614744,0.893664062
45.919094,-22.802639008,-34.262420654,-4.298618317,-0.116493896,0.084442869,0.989489257
45.957465,-6.307888031,-13.731719971,-13.148715973,-0.188881591,0.266205549,1.283434629
45.995793,29.756259918,-10.206939697,-5.381992340,-0.154213622,0.078217283,1.068835020
46.010098,19.258213043,-1.951934814,-4.680088043,-0.076088622,-0.000884280,0.884142578
46.025450,4.914951324,5.784271240,-6.610324860,-0.032265380,-0.044707522,0.891833007
46.063769,-8.688259125,26.849029541,-17.527988434,-0.085365966,0.101654783,1.160265684
46.102117,13.971042633,0.962493896,-12.591770172,-0.223427489,0.036225095,1.107531309
46.116414,10.690402985,-16.859771729,-3.375461578,-0.205849364,0.001679197,1.058092833
46.131769,7.379245758,-21.635772705,-1.361301422,-0.151161864,0.020111814,1.070055723
46.170092,12.834262848,-6.758453369,-12.057712555,-0.068886474,0.149262205,1.183825254
46.246850,33.052158356,15.420196533,-24.592807770,-0.147988036,0.008637205,1.055651426
46.261223,32.296848297,10.964630127,-18.908908844,-0.205116943,-0.016875491,1.013659239
46.276625,25.903415680,0.046966553,-7.831027985,-0.195107177,-0.025298342,0.941881835
46.314941,16.496372223,-15.082122803,-1.567295074,-0.141030028,0.140351072,1.030260801
46.353290,23.828220367,-5.438568115,-7.525852203,-0.144203857,0.103119627,0.860949218
46.367569,10.743808746,-1.089813232,-8.426120758,-0.195961669,0.098114744,0.829333007
46.382919,2.847385406,-0.273468018,-5.961826324,-0.216591552,0.130829588,0.858263671
46.421264,10.881137848,6.348846436,-3.703525543,-0.128700927,0.116669431,0.975695312
46.459588,-4.949855804,14.779327393,-8.037021637,-0.168495849,0.074555174,1.038317442
46.473875,4.701328278,5.791900635,-2.559116364,-0.205483153,0.208222166,1.005846739
46.489197,11.193943024,2.427337646,1.865932465,-0.169716552,0.219818845,0.961779296
46.527509,7.089328766,6.730316162,-4.901340485,-0.085732177,0.084809080,0.908434570
46.565873,0.436496735,5.975006104,-8.922031403,-0.084511474,0.091522947,1.028795958
46.580142,3.213596344,4.235504150,-9.501865387,-0.085732177,0.112519041,1.032580137
46.595480,6.753635406,-5.141021729,-8.571079254,-0.141518310,0.105805174,1.010241270
46.633784,2.389621735,-24.550201416,1.301357269,-0.135414794,0.086395994,0.955553710
46.672115,-0.936794281,-22.742034912,-1.902988434,-0.086952880,0.111786619,0.992052734
46.703445,-4.278469086,-22.322418213,1.843044281,-0.142250732,0.202362791,1.071642637
46.717759,0.856113434,-21.147491455,4.627773285,-0.132607177,0.213715330,1.081774473
46.755956,7.684421539,-8.955718994,-0.705173492,-0.109535888,0.120941892,1.010119200
46.794290,7.867527008,-2.890350342,3.719875336,-0.093666747,0.218354002,0.973864257
46.808573,13.208103180,2.633331299,2.338954926,-0.050453857,0.193451658,0.958361328
46.823919,10.568332672,15.038726807,-2.261569977,-0.022255614,0.101776853,0.908922851
46.878320,-1.173305511,33.486602783,-7.655551910,-0.062294677,0.184540525,0.915270507
46.916726,1.443576813,31.968353271,-11.538913727,-0.070107177,0.159760252,0.897082031
46.931025,-2.622890472,24.049041748,-10.608127594,-0.096108153,0.154389158,0.924059570
46.946367,-3.538417816,17.373321533,-10.631015778,-0.100380614,0.167206541,0.937243164
46.984685,2.710056305,-29.425384521,6.496974945,-0.193154052,0.170380369,1.006212950
47.023044,2.000522614,-62.079193115,1.728603363,-0.208901122,0.088715330,1.017443419
47.037329,-0.257778168,-69.365264893,6.962368011,-0.210488036,0.098603025,1.044298887
47.052649,1.367282867,-77.093841553,12.875148773,-0.154946044,0.136933103,1.063585997
47.090958,4.068088531,-62.910797119,10.593959808,-0.116738036,0.160492674,1.114367247
47.129293,5.830478668,-33.049346924,8.106777191,-0.084877685,0.169892088,1.120592833
47.143593,8.508396149,-7.292510986,8.144924164,-0.067299560,0.168427244,1.110827208
47.158928,9.195041656,7.508514404,7.046291351,-0.037880614,0.165131345,1.094958067
47.197258,-3.179836273,48.531768799,2.621242523,-0.063271239,0.185028806,1.066759825
47.235579,2.649021149,62.630889893,4.070827484,-0.080239013,0.272675276,1.058214903
47.249868,9.965610504,63.790557861,4.597255707,-0.065834716,0.204926267,1.021715879
47.265195,9.614658356,63.470123291,3.292629242,-0.056679443,0.175263181,0.994250000
47.303492,-3.286647797,47.738311768,4.810878754,-0.110756591,0.168671384,0.996569335
47.341864,2.977085114,21.340606689,6.382534027,-0.117104247,0.143646970,0.943957031
47.356156,-0.242519379,14.443634033,7.061550140,-0.120888427,0.127899900,0.939806640
47.371491,-8.184719086,-0.067474365,8.228847504,-0.120888427,0.167450681,0.973986328
47.409828,3.236484528,-16.608001709,14.370510101,-0.106728271,0.185150877,0.994616210
47.448159,-14.250087738,-9.863616943,8.221218109,-0.109169677,0.149872556,0.993639648
47.462454,-17.576503754,-7.673980713,7.443019867,-0.117104247,0.227387205,1.000719786
47.494052,4.060459137,2.900360107,11.044094086,-0.090248778,0.250702620,0.998522460
47.532495,-13.449001312,17.968414307,3.689357758,-0.104775146,0.081391111,0.904894531
47.570891,-8.840847015,13.818023682,4.543849945,-0.118935302,0.252045393,0.998522460
47.585195,0.192356110,13.024566650,6.756374359,-0.119057372,0.194672361,0.976916015
47.600541,-1.913356781,13.955352783,3.773281097,-0.092934325,0.077729002,0.923205078
47.638887,-22.398281097,5.135772705,6.046840668,-0.123940185,0.237396970,1.026110411
47.677230,2.984714508,0.741241455,8.167812347,-0.117104247,0.098969236,0.961413085
47.691505,-2.874660492,1.740692139,8.625576019,-0.110878661,0.057587400,0.950670898
47.706843,-19.316005707,3.419158936,5.505153656,-0.098549560,0.095917478,0.996081054
47.745181,-8.718776703,0.046966553,6.573268890,-0.100746825,0.224457517,1.086779356
47.783507,0.047397614,6.272552490,3.223964691,-0.093422607,0.029511228,0.985827148
47.797822,-11.701869965,11.399505615,4.002162933,-0.093544677,0.086884275,1.001208067
47.813178,-12.037563324,11.208770752,2.590724945,-0.101601318,0.127899900,1.033922911
47.851512,7.837009430,14.527557373,1.949855804,-0.088539794,0.084320799,1.011950254
47.889879,-6.773281097,21.058319092,-2.551486969,-0.086464599,0.025849119,1.004503965
47.904164,-5.804347992,20.188568115,-2.925327301,-0.092690185,0.066620603,0.999743164
47.919537,1.191806793,14.863250732,-3.665378571,-0.094643310,0.044770017,1.019640684
47.957887,0.703525543,-3.271820068,-2.841403961,-0.119179443,0.034027830,0.956652343
47.996224,-3.103542328,-32.011749268,-3.306797028,-0.166176513,0.106171384,1.005602598
48.010514,-2.561855316,-38.916351318,-0.461032867,-0.165688232,0.122895017,1.016100645
48.037639,1.306247711,-51.680328369,9.464809418,-0.175331786,0.205048338,0.996813476
48.076070,5.494785309,-32.225372314,4.078456879,-0.090126708,0.054901853,0.947252929
48.126290,4.251194000,15.618560791,-5.412509918,-0.062905028,0.147431150,0.962267578
48.140629,6.509494781,22.263763428,-8.624485016,-0.046181396,0.110199705,0.936144531
48.155998,-2.882289886,30.343292236,-13.942173004,-0.074745849,0.055390134,0.919665039
48.194345,-2.867031097,27.856109619,-10.592868805,-0.117348388,0.145966306,0.990221679
48.232693,4.220676422,20.112274170,-13.469150543,-0.095619872,0.011688963,0.917711914
48.247010,-11.144924164,10.789154053,-13.751438141,-0.143593505,0.040253416,0.948961914
48.262362,-13.357448578,4.464385986,-12.111118317,-0.150551513,0.089081541,0.976305664
48.300692,2.320957184,-18.790008545,-7.014682770,-0.189736083,0.090058103,1.000597715
48.339045,-4.644680023,-34.498931885,-11.790683746,-0.203774169,0.049408689,1.005480528
48.353344,-4.011440277,-46.149017334,-11.096408844,-0.196327880,0.110810056,1.086779356
48.368672,3.244113922,-53.107025146,-11.447360992,-0.212929443,0.127533689,1.070177794
48.407034,8.569431305,-68.663360596,-0.384738922,-0.165077880,0.028168455,0.987658203
48.457458,8.889865875,-55.838348389,-3.146579742,-0.159462646,0.068817869,1.027453184
48.473061,11.239719391,-38.740875244,2.583095551,-0.126381591,0.066620603,0.985583007
48.487343,11.506748199,-26.167633057,2.148220062,-0.097572997,0.057465330,0.970080078
48.525524,3.289890289,42.931793213,-11.569431305,-0.003700927,-0.011992678,0.888903320
48.563884,-12.640285492,89.921234131,-19.069126129,-0.045082763,0.107392088,0.934069335
48.578201,-10.008144379,97.535369873,-17.009189606,-0.056557372,0.147431150,0.916735351
48.593576,2.046298981,110.688446045,-16.688755035,-0.013466552,0.112641111,0.915148437
48.631932,-10.114955902,115.350006104,-25.111606598,-0.061562255,0.055634275,0.884875000
48.670280,-9.924221039,89.585540771,-24.005344391,-0.152870849,0.140473142,0.900011718
48.684602,-0.341701508,62.943695068,-19.664218903,-0.151283935,0.147187009,0.849108398
48.699985,1.321506500,47.662017822,-20.205905914,-0.158852294,0.108246580,0.827135742
48.738320,-11.999416351,-27.022125244,-14.583042145,-0.233315185,0.062348142,0.845446289
48.788965,-6.399440765,-94.893218994,0.729152679,-0.185463622,0.134125486,0.892077148
48.803300,-9.641933441,-103.720428467,0.927516937,-0.163002685,0.094696775,0.916369140
48.818667,-12.670803070,-104.780914307,-0.033786774,-0.151894286,0.098847166,0.938463867
48.857029,-10.206508636,-87.363006592,0.599452972,-0.118813232,0.169647947,0.962633789
48.895371,-10.427761078,-41.563751221,-9.250095367,-0.093178466,0.074555174,0.955187500
48.909667,-14.173793793,-29.104949951,-11.386325836,-0.102211669,0.055634275,0.984484375
48.925033,-18.881130219,-4.149200439,-12.668064117,-0.104775146,0.124237791,1.014391661
48.963372,-10.359096527,32.540557861,-16.810825348,-0.093788818,0.044037595,1.023546934
49.001709,-14.990139008,38.460968018,-18.901279449,-0.136513427,0.116059080,1.126574278
49.016017,-8.306789398,35.683868408,-15.361240387,-0.150551513,0.136688963,1.124377012
49.031385,6.829929352,26.490447998,-12.408664703,-0.139198974,0.084442869,1.080675840
49.069717,-1.341152191,4.609344482,-7.586887360,-0.128090575,-0.004424319,1.050036192
49.108076,-0.616359711,-14.288665771,-7.380893707,-0.172280028,0.094330564,1.064318419
49.122368,9.553623199,-21.887542725,-2.986362457,-0.154823974,0.081146970,1.033190489
49.137718,9.965610504,-25.130035400,-4.313877106,-0.158852294,0.041107908,1.035998106
49.176078,1.809787750,-26.457550049,-2.269199371,-0.148842528,0.072235838,1.050768614
49.214435,10.057163239,-14.532806396,-1.277378082,-0.142372802,0.039154783,0.992296875
49.228739,-0.028896332,-6.308319092,-0.384738922,-0.154579833,0.038910642,0.972643554
49.244082,-5.216884613,-1.372100830,0.805446625,-0.148476318,0.078583494,0.993883789
49.282404,8.699131012,13.634918213,-0.903537750,-0.130287841,0.085419431,1.010607481
49.320731,-8.566188812,21.600006104,5.131313324,-0.122597411,-0.017485842,0.968615234
49.372599,0.520420074,27.962921143,0.019618988,-0.114174560,0.093720213,1.045397520
49.386949,4.197788239,26.566741943,-0.026157379,-0.120033935,0.074677244,1.020251036
49.425184,-0.295925140,12.704132080,2.934047699,-0.140785888,0.017182127,0.976793945
49.478344,3.198337555,-19.079925537,5.810329437,-0.140419677,-0.004424319,0.949083984
49.492670,-1.570034027,-22.261383057,6.329128265,-0.159706786,-0.008452639,0.962511718
49.508022,-6.872463226,-24.817230225,11.227199554,-0.146401122,0.073822752,0.991930664
49.546353,6.730747223,-14.456512451,6.954738617,-0.128822997,0.086762205,0.976061523
49.584680,1.367282867,-1.692535400,4.612514496,-0.115761474,-0.016020998,0.947497070
49.598966,-3.752040863,7.691619873,7.290431976,-0.111000732,0.003021970,0.961779296
49.614280,-4.331874847,12.559173584,5.673000336,-0.094765380,0.018036619,0.971544921
49.652618,-5.239772797,24.209259033,2.201625824,-0.088295653,0.040131345,0.963244140
49.690939,-7.810878754,17.243621826,2.445766449,-0.132973388,0.067475095,0.998522460
49.705229,-3.439235687,10.445831299,3.452846527,-0.125649169,0.082733884,1.004870176
49.720576,-1.013088226,7.432220459,3.338405609,-0.127358153,0.062348142,0.992418945
49.758891,-7.566738129,-4.729034424,0.217983246,-0.128090575,0.026703611,0.990709960
49.797229,-1.303005219,-15.082122803,3.582546234,-0.140541747,0.074555174,1.033556700
49.811509,0.291538239,-15.692474365,3.864833832,-0.147988036,0.050385252,1.022692442
49.826871,-1.676845551,-14.250518799,3.979274750,-0.119667724,0.020844236,1.008654356
49.865191,-4.423427582,-9.596588135,2.277919769,-0.151161864,0.037445799,1.055163145
49.903503,-1.295375824,-4.111053467,3.071376801,-0.130165771,0.053314939,1.049181700
49.917810,-1.364040375,1.084564209,1.644680023,-0.105507568,0.039643064,1.034167051
49.933121,-3.385829926,1.954315186,-0.102451324,-0.112221435,0.030121580,1.048693419
49.971463,2.366733551,2.534149170,1.148769379,-0.115395263,0.046967283,1.051623106
50.009779,-1.325893402,5.906341553,0.660488129,-0.084145263,0.042328611,1.035265684
50.024061,-1.020717621,3.945587158,-0.697544098,-0.131264403,0.036957517,1.037096739
50.039384,-0.593471527,2.068756104,1.469203949,-0.126991943,0.041352049,1.037340879
50.077701,2.664279938,-1.059295654,2.842494965,-0.116249755,0.045136228,1.029650450
50.131718,2.977085114,-1.280548096,0.034877777,-0.114052489,0.018280759,0.982653320
50.146047,0.077915192,-3.287078857,1.225063324,-0.117348388,0.020966306,0.978747070
50.161410,-0.463771820,-2.249481201,2.255031586,-0.109291747,0.042816892,0.979357421
50.199730,-0.829982758,5.891082764,-2.978733063,-0.104042724,0.042450681,0.975084960
50.238076,2.175998688,-1.929046631,-2.620151520,-0.119911864,0.027436033,0.979357421
50.252361,0.917148590,-5.621673584,0.370571136,-0.116371825,0.017060056,0.972399414
50.267675,0.528049469,-5.491973877,-0.316074371,-0.110878661,0.014740720,0.973498046
50.305997,-0.509548187,-5.270721436,-2.704074860,-0.105629638,0.024262205,0.973009765
50.344300,-3.675746918,-12.488128662,-1.017978668,-0.143227294,0.028534666,0.999376953
50.358614,-2.355861664,-12.251617432,0.462123871,-0.126747802,0.048432127,0.997790039
50.373978,-2.508449554,-11.313201904,-1.948764801,-0.131996825,0.047211424,0.993029296
50.412288,-3.477382660,-9.314300537,-3.779819489,-0.128212646,0.038300291,1.002550840
50.450620,-2.065944672,-9.825469971,1.652309418,-0.138588622,0.053192869,1.018542051
50.464910,-1.508998871,-6.529571533,0.706264496,-0.130043700,0.038178220,1.015246153
50.480232,-2.020168304,-3.866912842,1.232692719,-0.126259521,0.023163572,1.022204161
50.518543,-1.745510101,4.777191162,-1.033237457,-0.112831786,0.050141111,1.030871153
50.556881,-0.532436371,6.722686768,-0.094821930,-0.105141357,0.033905759,1.017443419
50.571162,-1.150417328,7.394073486,-1.155307770,-0.095986083,0.019867674,1.015368223
50.586492,-1.806545258,7.050750732,-1.346042633,-0.103920653,0.024872556,1.013170958
50.624836,2.847385406,4.632232666,0.187465668,-0.097206786,-0.025908694,0.994616210
50.663161,-7.604885101,4.586456299,-0.300815582,-0.102089599,0.020600095,1.015856504
50.694472,0.482273102,2.610443115,-1.971652985,-0.104286864,0.047699705,1.020861387
50.708809,2.183628082,1.038787842,-1.605442047,-0.114540771,0.013764158,1.013170958
50.763084,-1.997280121,5.906341553,0.088283539,-0.095986083,0.056732908,1.031603575
50.801480,-0.685024261,5.006072998,-2.078464508,-0.109902099,-0.031401858,0.989000976
50.815759,-3.332424164,3.335235596,-1.017978668,-0.111489013,-0.013091311,0.985583007
50.831092,-3.591823578,1.038787842,-0.316074371,-0.104286864,0.019379392,1.004381895
50.869441,-2.432155609,4.800079346,-3.261020660,-0.100014403,-0.024443850,1.004259825
50.907768,-4.202175140,-0.632049561,-2.452304840,-0.113320068,0.043305174,1.042834044
50.922054,3.236484528,-2.241851807,-2.437046051,-0.105751708,0.027313963,1.033922911
50.937378,3.396701813,-1.761199951,-3.291538239,-0.104653075,-0.003447756,1.025500059
50.975701,-1.203823090,-3.195526123,-4.001071930,-0.111611083,0.028534666,1.038805723
51.014046,3.175449371,-4.530670166,-2.803256989,-0.110878661,-0.021636233,1.001818419
51.028332,-2.416896820,-0.822784424,-4.100254059,-0.108071044,-0.015654787,1.013537169
51.043644,-4.148769379,1.626251221,-4.229953766,-0.109780028,0.016571775,1.022936583
51.081955,2.198886871,6.043670654,-7.350376129,-0.098793700,0.037934080,1.029528379
51.120274,-0.631618500,-1.539947510,-6.259372711,-0.115273193,0.009857908,1.037585020
51.134563,-0.433254242,-2.676727295,-5.038669586,-0.128700927,0.035492674,1.041979551
51.149880,4.159641266,-3.065826416,-4.123142242,-0.113442138,0.032074705,1.038561583
51.188206,2.420139313,-10.412933350,-4.542758942,-0.121254638,0.043549314,1.030627012
51.226533,5.098056793,-14.960052490,-3.016880035,-0.148354247,0.032440916,1.016833067
51.240844,4.640293121,-14.631988525,-2.093723297,-0.125282958,0.030243650,1.021349669
51.256174,3.976535797,-13.907196045,-4.298618317,-0.114052489,0.031708494,1.025500059
51.294486,4.022312164,-10.885955811,-4.008701324,-0.131630614,0.040863767,1.038195372
51.332834,7.333469391,-5.865814209,-0.735691071,-0.127358153,0.046845213,1.007921934
51.347119,7.501316071,0.863311768,-3.634860992,-0.103066161,0.023163572,0.973498046
51.362445,5.845737457,3.937957764,-4.847934723,-0.105995849,0.006684080,0.959826171
51.426436,1.077365875,6.692169189,-2.910068512,-0.109535888,0.056610838,0.947863281
51.464910,0.306797028,8.912322998,-3.558567047,-0.106484130,0.045868650,0.945299804
51.479199,-0.250148773,7.653472900,-6.793430328,-0.100990966,0.025727049,0.949328125
51.494522,-0.753688812,5.875823975,-6.579807281,-0.122231200,0.016693845,0.947619140
51.532880,-2.706813812,-2.608062744,-3.261020660,-0.130165771,0.054779783,0.952868164
51.571215,-5.605983734,-8.223297119,-4.001071930,-0.135048583,0.052704588,0.966295898
51.585497,-2.149868011,-13.159515381,-2.986362457,-0.127968505,0.071381345,0.981798828
51.600824,-0.280666351,-13.533355713,-2.597263336,-0.135170653,0.063202634,0.976793945
51.639162,-6.590175629,-6.415130615,-1.124790192,-0.114418700,-0.010283694,0.951281250
51.677499,-6.956386566,1.939056396,-3.383090973,-0.117348388,0.085907713,1.005236387
51.691817,-3.156948090,2.022979736,-3.314426422,-0.125160888,0.059052244,0.999621093
51.707131,-2.378749847,2.732513428,-1.880100250,-0.116738036,-0.010039553,0.965685546
51.745473,-12.083339691,2.907989502,-2.604892731,-0.117226318,0.073456541,1.038317442
51.783798,-4.400539398,-7.323028564,-0.308444977,-0.126015380,0.006073728,1.055529356
51.798095,-5.567836761,-10.107757568,0.942775726,-0.120644286,0.006928220,1.062853575
51.813423,-2.790737152,-11.175872803,1.926967621,-0.119423583,0.019623533,1.074450254
51.851758,-1.051235199,-3.775360107,1.774379730,-0.099404052,-0.035430178,1.053820372
51.890104,-2.653408051,4.220245361,-2.559116364,-0.099770263,0.010102049,1.076891661
51.904415,3.091526031,3.998992920,-2.849033356,-0.101235107,-0.015532717,1.060778379
51.919723,3.198337555,3.091094971,-2.963474274,-0.108193114,-0.047270998,1.053698301
51.958084,-0.807094574,3.457305908,-2.475193024,-0.097939208,0.012665525,1.051623106
51.996407,4.792881012,-6.537200928,-2.757480621,-0.131142333,0.024506345,1.075060606
52.023824,8.660984039,-12.182952881,3.597805023,-0.126503661,-0.001128420,1.022692442
52.038151,9.057712555,-10.107757568,4.795619965,-0.107338622,-0.022734866,1.003771544
52.088472,1.054477692,4.472015381,-2.032688141,-0.091469482,0.083710447,1.032580137
52.126890,8.279514313,5.707977295,2.430507660,-0.095009521,0.007050291,0.974718750
52.141184,5.876255035,8.820770264,2.071926117,-0.083656982,-0.015898928,0.970568359
52.156484,-0.425624847,15.359161377,-0.873020172,-0.076088622,0.006684080,0.964342773
52.194837,0.413608551,13.451812744,-3.947666168,-0.109902099,0.047211424,1.002184629
52.233162,5.243015289,4.967926025,-0.590732574,-0.100014403,0.011322752,0.970690429
52.247456,4.197788239,4.845855713,-0.087192535,-0.103432372,-0.008818850,0.967272460
52.262777,0.375461578,4.052398682,-0.316074371,-0.093056396,-0.019805178,0.967394531
52.301109,-0.494289398,-5.347015381,-0.491550446,-0.122719482,0.026459470,0.981920898
52.339433,0.375461578,-5.850555420,0.828334808,-0.116249755,-0.000640139,0.974718750
52.353719,-2.958583832,-2.592803955,0.362941742,-0.097939208,0.015473142,0.977160156
52.369031,-3.752040863,-1.044036865,-1.231601715,-0.098061278,0.027313963,0.986681640
52.407360,-2.828884125,-6.888153076,-0.911167145,-0.139321044,0.012177244,0.991686523
52.445686,-2.630519867,-7.063629150,1.102993011,-0.117592528,0.059906736,1.038805723
52.459993,0.749301910,-4.317047119,-0.216892242,-0.112221435,0.051972166,1.037462950
52.475311,1.275730133,-4.050018311,-1.040866852,-0.111366943,0.038056150,1.024767637
52.513659,-1.097011566,-6.766082764,1.141139984,-0.130043700,0.025360838,1.039660215
52.551963,-0.105190277,1.847503662,0.385829926,-0.099281982,0.020111814,1.012316465
52.566248,-0.791835785,3.670928955,-0.934055328,-0.092934325,0.032196775,1.001208067
52.581569,-1.394557953,3.617523193,-1.162937164,-0.117958739,0.036469236,1.020617247
52.619894,0.650119781,1.496551514,1.270839691,-0.114418700,0.019135252,1.002428770
52.658213,0.589084625,6.684539795,-0.033786774,-0.093666747,0.003021970,0.987414062
52.672491,-1.821804047,6.760833740,-0.979831696,-0.100258544,-0.000395998,0.995836914
52.700092,-2.088832855,3.899810791,-0.544956207,-0.113442138,0.020722166,1.008288145
52.738507,2.435398102,3.045318604,0.279018402,-0.093056396,0.009003416,0.974718750
52.776859,-4.286098480,0.191925049,-1.544406891,-0.105751708,-0.007720217,0.983874023
52.791151,-4.690456390,-3.691436768,-0.316074371,-0.117714599,0.032074705,1.017199278
52.806484,-3.195095062,-4.690887451,-0.018527985,-0.124062255,0.045014158,1.021960020
52.844829,0.734043121,-1.379730225,0.301906586,-0.098793700,0.042206541,1.018053770
52.883158,2.793979645,-7.162811279,0.073024750,-0.121620849,0.027191892,1.006457090
52.897440,4.312229156,-7.788421631,1.873561859,-0.122231200,-0.012725100,0.984728515
52.912783,2.618503571,-6.476165771,1.759120941,-0.112465575,-0.025054201,0.972399414
52.951121,-3.935146332,0.672576904,-0.895908356,-0.113564208,0.063080564,1.029406309
52.989464,1.603794098,-1.654388428,-2.101352692,-0.129677489,-0.044951662,0.992907226
53.003753,-2.889919281,-1.845123291,0.904628754,-0.132729247,-0.023101076,0.995836914
53.019098,-3.317165375,0.207183838,1.560756683,-0.111733153,0.021088377,1.038317442
53.057433,0.421237946,2.618072510,-0.384738922,-0.099159911,0.000946775,1.018297911
53.095758,0.009250641,-0.715972900,1.919338226,-0.123207763,0.010834470,1.025988340
53.110046,0.619602203,2.084014893,2.216884613,-0.107094482,0.020478025,1.024889708
53.125389,1.123142242,4.327056885,1.209804535,-0.104897216,0.019013181,1.019030333
53.163709,-1.158046722,4.914520264,-2.414157867,-0.111122802,-0.009185061,1.004259825
53.202054,3.839206696,-2.455474854,0.088283539,-0.112587646,0.011322752,1.014757872
53.216339,0.848484039,-2.432586670,1.064846039,-0.111244872,-0.012603030,0.995836914
53.231655,-1.722621918,-2.295257568,0.515529633,-0.109657958,0.005097166,0.999254882
53.269984,2.992343903,-2.577545166,0.095912933,-0.110146239,0.035004392,1.017321348
53.308294,0.650119781,2.839324951,0.301906586,-0.102333739,0.019501463,1.002062559
53.351221,1.023960114,4.212615967,-0.224521637,-0.110024169,0.058930174,1.003039122
53.365533,4.152011871,1.763580322,1.118251801,-0.102699950,0.023895994,0.994005859
53.403717,-0.494289398,0.664947510,-0.735691071,-0.104653075,-0.029448733,0.966906250
53.442039,-2.706813812,-0.113250732,-0.361850739,-0.105263427,0.058075681,1.018053770
53.456293,1.237583160,-0.242950439,0.774929047,-0.111855224,0.053803220,1.016222715
53.471606,3.434848785,-0.197174072,1.041957855,-0.102089599,0.037934080,1.000597715
53.509933,-5.224514008,6.463287354,0.523159027,-0.091591552,-0.012114748,0.982042968
53.548267,0.329685211,3.472564697,-0.865390778,-0.115883544,0.049774900,1.012926817
53.562536,2.565097809,1.916168213,0.301906586,-0.105629638,0.029145017,0.995958984
53.577875,-0.143337250,0.748870850,-1.361301422,-0.105629638,-0.023589358,0.977038085
53.616196,-3.660488129,2.145050049,-2.757480621,-0.113930419,0.047089353,1.032702208
53.654504,1.245212555,-7.155181885,-0.316074371,-0.113564208,0.011566892,1.001940489
53.668809,-1.272487640,-9.238006592,-2.116611481,-0.119301513,0.000214353,1.013903379
53.684137,-1.989650726,-11.137725830,1.415798187,-0.137123778,0.029511228,1.030627012
53.722476,0.840854645,-8.620025635,0.042507172,-0.133095458,0.006439939,1.028551817
53.760784,0.795078278,-5.079986572,-1.468112946,-0.116005614,0.033905759,1.037585020
53.775073,2.351474762,-5.430938721,-0.293186188,-0.129311278,0.016571775,1.030016661
53.790397,1.977634430,-4.439117432,0.752040863,-0.126625732,0.015961424,1.031603575
53.828716,0.520420074,4.967926025,1.118251801,-0.101479247,-0.005889162,1.006090879
53.867072,1.664829254,5.387542725,-2.009799957,-0.115761474,0.052338377,1.023546934
53.881349,3.610324860,4.006622314,-0.514438629,-0.117958739,0.038910642,1.012316465
53.896666,3.213596344,2.061126709,-0.247409821,-0.106972411,0.016327634,0.990465820
53.934986,1.718235016,3.052947998,-0.537326813,-0.094155028,0.040497556,0.987902343
53.987387,-1.241970062,-3.111602783,-0.308444977,-0.112099364,0.045624509,0.992296875
54.001712,1.168918610,-4.652740479,-0.819614410,-0.121498778,0.060517088,0.994005859
54.017044,3.022861481,-4.179718018,0.362941742,-0.121620849,0.049164549,0.980211914
54.055369,-4.507350922,-1.082183838,-1.010349274,-0.119301513,0.032562986,0.994005859
54.093686,2.771091461,-0.586273193,-0.255039215,-0.100502685,0.060517088,0.975817382
54.107971,2.221775055,-0.586273193,-0.979831696,-0.107094482,0.030731931,0.958727539
54.123268,-4.247951508,0.603912354,0.485012054,-0.109413818,0.013886228,0.975695312
54.161571,-0.295925140,-2.424957275,1.331874847,-0.117470458,0.085297361,0.997912109
54.199886,-2.966213226,-0.998260498,1.698085785,-0.111733153,0.000824705,0.962633789
54.214165,-6.574916840,1.557586670,2.110073090,-0.096596435,0.029145017,0.965685546
54.229482,-9.420681000,3.892181396,1.209804535,-0.086464599,0.056610838,0.989123046
54.267827,1.786899567,8.210418701,-5.252292633,-0.084023193,0.069306150,1.042223692
54.306158,-2.409267426,-2.569915771,-1.826694489,-0.113075927,0.032318845,1.024889708
54.320443,0.199985504,-9.421112061,-0.636508942,-0.126259521,0.055390134,1.022326231
54.335774,1.664829254,-11.252166748,1.324245453,-0.137612060,0.036835447,1.013659239
54.374101,-2.622890472,-11.435272217,0.034877777,-0.126015380,0.066376463,1.022570372
54.412441,3.221225739,-9.421112061,-0.399997711,-0.119667724,0.026947752,1.004748106
54.426721,2.099704742,-9.299041748,0.217983246,-0.129067138,0.011078611,0.998888671
54.442042,-0.494289398,-6.987335205,3.590175629,-0.112221435,0.029389158,0.996203125
54.480371,-1.409816742,1.534698486,1.705715179,-0.096108153,0.014008299,0.991076171
54.518682,0.879001617,1.221893311,1.545497894,-0.102944091,0.051483884,1.008532286
54.532968,3.251743317,1.641510010,2.529689789,-0.094155028,0.034394041,0.996325195
54.548279,1.802158356,3.869293213,0.126430511,-0.087685302,-0.022979006,0.974962890
54.586604,-4.255580902,6.234405518,0.134059906,-0.077187255,0.045502439,0.991442382
54.639743,-3.011989594,-0.471832275,0.385829926,-0.090126708,0.047699705,0.963244140
54.654082,-3.019618988,-0.029327393,-0.392368317,-0.105141357,0.050385252,0.971422851
54.685142,-1.043605804,1.626251221,-0.079563141,-0.085243896,0.035370603,0.979479492
54.723505,-3.675746918,-5.621673584,1.164028168,-0.102455810,0.033417478,0.988756835
54.761852,-9.077358246,-1.936676025,2.750942230,-0.105019286,0.028778806,1.014513731
54.776129,-10.526943207,0.542877197,2.331325531,-0.089394286,0.050263181,1.050158262
54.791471,-5.697536469,2.839324951,-1.811435699,-0.084389403,0.103607908,1.062365294
54.829785,0.535678864,0.146148682,-2.208164215,-0.087685302,-0.011382326,1.017199278
54.868105,-8.497524261,4.151580811,-0.773838043,-0.082314208,0.056000486,1.089342833
54.882414,-5.644130707,5.578277588,-1.796176910,-0.084633544,0.081879392,1.102648497
54.897762,4.083347321,4.853485107,-2.650669098,-0.077431396,0.068207517,1.091295958
54.936102,-4.301357269,2.114532471,-6.617954254,-0.101845458,-0.036528811,1.042101622
54.974457,-0.402736664,0.756500244,-9.021213531,-0.097084716,0.064423338,1.104601622
54.988744,6.509494781,-5.507232666,-7.213047028,-0.108071044,0.044770017,1.094713926
55.004068,9.637546539,-8.620025635,-6.236484528,-0.087441161,0.029877439,1.061632872
55.042416,1.878452301,-17.996551514,-4.771640778,-0.122109130,0.003998533,1.020739317
55.080747,7.241916656,-14.433624268,-4.718235016,-0.099404052,0.028534666,1.031725645
55.095044,5.449008942,-8.612396240,-8.441379547,-0.077797607,-0.019561037,1.013170958
55.110370,1.435947418,-6.117584229,-9.295871735,-0.105995849,-0.010283694,1.015612364
55.148691,4.495334625,3.510711670,-7.419040680,-0.113320068,0.057953611,1.027697325
55.187044,4.907321930,8.507965088,-14.247348785,-0.082314208,-0.005889162,0.998766601
55.201331,2.916049957,8.401153564,-11.348178864,-0.106362060,0.010102049,0.987658203
55.216659,1.962375641,4.418609619,-11.126926422,-0.103188232,0.032074705,1.014635801
55.255009,8.989048004,-5.255462646,-5.984714508,-0.085732177,0.039276853,0.983874023
55.309126,-2.600002289,-12.831451416,-7.098606110,-0.135903075,0.023163572,0.984972656
55.323457,0.970554352,-14.075042725,-5.580356598,-0.129311278,0.048187986,0.995470703
55.338809,-0.234889984,-14.609100342,-5.565097809,-0.139565185,0.045624509,0.995592773
55.377138,9.095859528,-8.475067139,-0.476291656,-0.090614989,0.067719236,0.998888671
55.415476,-3.408718109,2.198455811,1.354763031,-0.106728271,0.019257322,0.990343750
55.429754,-2.004909515,6.150482178,0.713893890,-0.089760497,0.040497556,1.006212950
55.445089,1.451206207,13.322113037,-2.559116364,-0.104164794,0.026337400,0.996691406
55.483457,-2.340602875,24.766204834,-6.183078766,-0.076698974,0.036347166,0.998644531
55.521784,3.755283356,27.909515381,-9.562900543,-0.059853271,0.003998533,0.983263671
55.536072,-1.974391937,21.500823975,-12.706211090,-0.125405028,0.004486814,0.968737304
55.551420,-2.767848969,16.282318115,-9.486606598,-0.130287841,0.013886228,0.976305664
55.589762,0.589084625,-13.304473877,0.530788422,-0.148598388,-0.033965334,0.971911132
55.628098,-7.429409027,-23.352386475,7.458278656,-0.122841552,0.044525877,1.038317442
55.642410,-5.506801605,-20.560028076,5.840847015,-0.119667724,0.080536619,1.051501036
55.657750,-3.446865082,-17.615081787,6.359645844,-0.123207763,0.089936033,1.060168028
55.696089,4.663181305,3.655670166,3.361293793,-0.097572997,0.049530759,1.021593809
55.734431,2.748203278,23.118255615,-2.520969391,-0.077309325,0.025849119,0.989489257
55.748721,3.045749664,25.002716064,-3.528049469,-0.081093505,0.025971189,0.986437500
55.764071,3.617954254,25.132415771,-5.038669586,-0.084145263,0.006439939,0.969347656
55.802408,-0.723171234,9.423492432,-0.636508942,-0.106850341,0.009979978,0.932848632
55.840737,-5.880641937,-11.572601318,5.108425140,-0.129677489,0.058075681,0.953844726
55.855030,-5.148220062,-14.258148193,6.077358246,-0.121010497,0.065644041,0.954699218
55.870359,-6.254482269,-18.820526123,5.947658539,-0.139931396,0.054901853,0.973253906
55.924738,-1.730251312,-8.826019287,10.128566742,-0.085243896,0.045258299,0.961291015
55.963175,-5.926418304,11.201141357,2.537319183,-0.073891357,0.024384275,0.985705078
55.977471,-5.277919769,14.306304932,3.933498383,-0.081581786,0.026459470,0.990343750
56.009115,-3.546047211,20.463226318,4.261562347,-0.065712646,0.049286619,0.989855468
56.047520,-5.506801605,22.454498291,0.034877777,-0.086708739,-0.001738772,0.978136718
56.085881,-4.583644867,9.461639404,6.695339203,-0.100258544,0.081024900,0.998888671
56.100169,1.153659821,4.449127197,4.765102386,-0.076088622,0.035858884,0.976793945
56.115510,-1.089382172,2.656219482,3.079006195,-0.097939208,0.009613767,0.980822265
56.153875,-4.095363617,-5.141021729,3.437587738,-0.105141357,0.101532713,1.035265684
56.192205,6.173801422,-15.059234619,2.529689789,-0.093422607,-0.051421389,0.969591796
56.206497,-1.928615570,-15.272857666,5.283901215,-0.126869872,-0.057402834,0.954699218
56.221862,-4.881191254,-13.075592041,8.251735687,-0.080483153,0.035492674,1.025622129
56.260203,-0.173854828,-0.715972900,3.750392914,-0.080605224,-0.055571780,1.002672911
56.298514,-8.123683929,4.006622314,0.088283539,-0.067909911,0.026825681,1.063708067
56.312822,-6.208705902,3.022430420,-1.185825348,-0.070717528,0.044159666,1.083971739
56.328186,1.741123199,-0.242950439,-1.216342926,-0.071572021,0.009125486,1.077502012
56.366499,-6.185817719,-7.941009521,-0.926425934,-0.121132568,0.000702634,1.096667051
56.404838,5.662631989,-19.751312256,0.340053558,-0.140663818,0.023773924,1.118883848
56.419133,7.898044586,-26.999237061,4.353115082,-0.122841552,-0.030181155,1.104601622
56.434491,5.883884430,-29.425384521,5.444118500,-0.123451903,-0.050078616,1.092760801
56.472844,10.865879059,-27.205230713,7.923671722,-0.098061278,0.001557127,1.107287169
56.511187,15.985202789,-10.351898193,4.002162933,-0.066078857,-0.007109866,1.071276426
56.525482,15.817356110,-6.727935791,1.011440277,-0.067665771,-0.055449709,1.028185606
56.540834,7.577610016,-2.012969971,1.034328461,-0.101967528,-0.016997561,1.034167051
56.590945,7.455539703,11.788604736,3.010341644,-0.069008544,0.054291502,1.034777403
56.629381,4.884433746,18.365142822,-6.419589996,-0.111611083,-0.032500491,0.976671875
56.643673,2.725315094,17.319915771,-2.452304840,-0.090859130,0.019379392,0.983141601
56.659008,3.495883942,11.567352295,-2.681186676,-0.095741943,0.065033689,0.997057617
56.697333,3.534030914,4.212615967,-0.041416168,-0.086586669,0.096283689,0.971300781
56.735664,1.405429840,2.587554932,-2.345493317,-0.098549560,0.083466306,0.997667968
56.749954,1.695346832,1.168487549,-1.307895660,-0.122109130,0.108979002,0.992296875
56.765265,9.072971344,-4.881622314,1.835414886,-0.120278075,0.107758299,0.982775390
56.803588,7.669162750,-9.817840576,-1.147678375,-0.087685302,-0.060332522,0.894518554
56.841904,-2.111721039,-7.300140381,-2.414157867,-0.094765380,0.100189939,0.975939453
56.856207,3.152561188,-7.750274658,-1.086643219,-0.142372802,0.078461424,0.967272460
56.871529,3.267002106,-7.704498291,0.645229340,-0.112221435,0.078461424,0.958361328
56.909885,6.486606598,-10.092498779,0.134059906,-0.111489013,0.028534666,0.902453125
56.948236,-8.688259125,-8.414031982,1.087734222,-0.116738036,0.043549314,0.949572265
56.962513,-9.496974945,-7.345916748,1.171657562,-0.113197997,0.082611814,0.982897460
56.977839,-2.744960785,-3.065826416,0.141689301,-0.094155028,0.131439939,0.994982421
57.016174,-1.119899750,-2.234222412,-1.986911774,-0.118447021,0.009491697,0.983874023
57.054497,2.855014801,4.143951416,-0.377109528,-0.101601318,0.062592283,1.002672911
57.068810,4.358005524,6.676910400,-0.399997711,-0.083779052,0.025116697,0.982165039
57.084136,-2.928066254,9.400604248,-4.916599274,-0.073403075,-0.007354006,0.988024414
57.122487,-3.629970551,9.865997314,-2.124240875,-0.082314208,0.069916502,1.021715879
57.160834,-1.570034027,11.544464111,-10.302951813,-0.080116943,0.000580564,0.990709960
57.175124,-6.140041351,6.531951904,-8.151462555,-0.102822021,0.012787595,0.994005859
57.190459,-6.712245941,1.893280029,-7.174900055,-0.116615966,0.019989744,0.989123046
57.240669,-11.259365082,-11.267425537,9.899684906,-0.109535888,0.076020017,1.046374083
57.279115,-8.589076996,12.620208740,3.269741058,-0.042885497,0.072602049,1.084093809
57.293431,-0.761318207,23.385284424,2.003261566,-0.052284911,0.059540525,1.107043028
57.320938,6.784152985,31.029937744,-6.297519684,-0.021523193,0.000824705,1.072008848
57.359330,-0.601100922,24.712799072,-5.320957184,-0.089516357,0.015595213,1.078478575
57.397697,9.751987457,3.792999268,-4.664829254,-0.097206786,-0.016753420,1.026354551
57.411997,-0.921535492,-10.191680908,-3.428867340,-0.140175536,-0.064116701,0.975817382
57.427329,-4.598903656,-17.027618408,0.767299652,-0.158608153,0.002899900,1.010485411
57.465670,5.830478668,-30.150177002,7.725307465,-0.108193114,0.062470213,0.993151367
57.503995,-3.866481781,-19.484283447,9.449550629,-0.082924560,0.031342283,0.972887695
57.518305,-4.377651215,-13.762237549,9.060451508,-0.071327880,0.060761228,0.994616210
57.533650,0.360202789,0.214813232,6.954738617,-0.055947021,0.084076658,1.004015684
57.571992,1.283359528,26.200531006,-1.185825348,-0.039589599,0.008637205,0.981554687
57.610329,4.197788239,33.028839111,-4.603794098,-0.059609130,0.046967283,0.973253906
57.624633,5.975437164,31.945465088,-2.635410309,-0.078407958,0.033661619,0.947741210
57.640015,6.616306305,30.663726807,-0.567844391,-0.059853271,0.017426267,0.926500976
57.678353,-4.247951508,11.636016846,-0.811985016,-0.119911864,0.043915525,0.952013671
57.716695,3.282260895,-13.838531494,1.988002777,-0.114540771,0.065399900,0.953478515
57.731016,5.548191071,-22.459747314,3.750392914,-0.094032958,0.016327634,0.922350585
57.746385,3.114414215,-26.015045166,3.254482269,-0.109047607,-0.017729983,0.933214843
57.784720,-7.009792328,-32.294036865,13.134548187,-0.089882568,0.050507322,1.003039122
57.823095,5.708408356,-18.179656982,10.830471039,-0.056435302,0.025116697,0.979113281
57.837421,0.245761871,-13.891937256,5.688259125,-0.053993896,-0.040679201,0.972765625
57.852782,-7.627773285,-5.331756592,8.373806000,-0.095131591,0.045258299,1.007555723
57.903392,2.885532379,10.865447998,4.597255707,-0.045937255,0.089447752,1.024523497
57.941813,-6.742763519,1.527069092,-1.140048981,-0.112099364,0.031586424,1.036852598
57.956109,-9.199428558,-5.469085693,0.996181488,-0.155678466,0.055634275,1.059191465
57.971420,-1.081752777,-15.906097412,12.638637543,-0.137001708,0.090912595,1.061999083
58.009761,-0.082302094,-11.160614014,14.462062836,-0.078163818,0.003144041,1.035753965
58.048103,2.679538727,9.911773682,8.762905121,-0.047157958,-0.004546389,1.031603575
58.062404,2.496433258,14.100311279,6.374904633,-0.033852294,-0.019072756,1.024157286
58.077730,1.695346832,22.057769775,1.682826996,-0.031166747,-0.030425295,0.994982421
58.116086,-4.141139984,24.995086670,-0.110080719,-0.071449950,0.057587400,1.044420958
58.154411,11.903476715,19.967315674,-2.459934235,-0.043373778,-0.000518069,0.991442382
58.168708,0.604343414,15.160797119,-3.543308258,-0.074257568,-0.079863772,0.943834960
58.184047,-3.164577484,12.063262939,-3.734043121,-0.065346435,-0.049712405,0.966662109
58.222385,-1.936244965,-4.027130127,-2.658298492,-0.095131591,-0.025298342,0.979601562
58.260698,-0.936794281,-10.451080322,-3.695896149,-0.085121825,-0.028716311,0.975573242
58.275009,-4.560756683,-11.328460693,-1.475742340,-0.114174560,-0.006499514,0.979357421
58.290364,-6.033229828,-11.191131592,1.690456390,-0.075112060,0.069916502,1.015002012
58.328697,3.961277008,-5.972625732,-2.925327301,-0.078163818,0.038544431,0.995714843
58.367043,1.420688629,-9.779693604,-3.177097321,-0.102211669,0.054047361,0.989123046
58.381328,4.777622223,-10.519744873,-2.185276031,-0.081459716,0.036591306,0.981066406
58.396648,0.901889801,-10.039093018,-7.655551910,-0.092079833,-0.002715334,0.961901367
58.434941,-2.493190765,-7.788421631,-6.251743317,-0.078652099,0.043915525,0.993151367
58.473273,1.771640778,-4.156829834,-6.114414215,-0.073525146,0.008515134,0.935778320
58.487562,-3.851222992,-2.585174561,-6.030490875,-0.096596435,-0.014556155,0.919176757
58.502874,-7.971096039,-2.173187256,-6.091526031,-0.099526122,-0.014556155,0.945299804
58.554890,-5.232143402,0.504730225,-5.252292633,-0.097206786,0.089691892,1.010607481
58.593317,-4.125881195,-0.242950439,-1.902988434,-0.095253661,0.058319822,1.006335020
58.636651,-5.491542816,3.716705322,-2.101352692,-0.101357177,0.038910642,1.069079161
58.652217,-4.179286957,4.975555420,-1.681735992,-0.093422607,0.052948728,1.066881895
58.690547,-4.148769379,4.418609619,-9.280612946,-0.097817138,0.014252439,1.063952208
58.728880,-1.776027679,-9.711029053,-6.320407867,-0.106728271,0.103241697,1.086046934
58.743160,3.282260895,-13.434173584,-3.978183746,-0.115761474,0.089447752,1.084826231
58.758501,8.905124664,-19.774200439,-4.855564117,-0.083168700,0.013397947,1.053087950
58.796870,0.024509430,-26.983978271,2.865383148,-0.114174560,0.006562009,1.029650450
58.835204,-3.019618988,-18.820526123,7.465908051,-0.086586669,0.013520017,1.028551817
58.849486,-2.836513519,-13.357879639,6.474086761,-0.060097411,0.021576658,1.024767637
58.864826,-2.805995941,-0.387908936,2.201625824,-0.070839599,0.047455564,1.037340879
58.903157,5.693149567,25.071380615,-0.903537750,-0.038246825,0.047821775,1.032458067
58.941506,5.708408356,40.269134521,-7.686069489,-0.022621825,-0.098296389,0.968371093
58.955824,2.984714508,45.884368896,-8.494785309,-0.023964599,-0.059600100,0.980333984
58.971179,4.525852203,47.524688721,-9.478977203,-0.014321044,-0.033232912,0.977282226
59.009519,1.153659821,36.683319092,-12.683322906,-0.073647216,-0.026274905,0.950670898
59.047893,-1.997280121,2.816436768,-5.931308746,-0.104408935,0.055878416,0.936876953
59.062169,-0.753688812,-16.112091064,-2.231052399,-0.129311278,0.074555174,0.945055664
59.077533,1.222324371,-22.604705811,0.355312347,-0.118691161,0.061005369,0.953600585
59.115885,-0.906276703,-36.131622314,5.428859711,-0.094765380,0.023895994,0.976793945
59.154245,0.253391266,-27.128936768,1.827785492,-0.068764403,-0.012603030,0.988268554
59.168531,-3.103542328,-23.833038330,0.370571136,-0.085121825,-0.023711428,0.999254882
59.198720,-2.378749847,-14.349700928,5.772182465,-0.094032958,0.050385252,1.063952208
59.237117,8.416843414,2.984283447,5.795070648,-0.060463622,0.052338377,1.017443419
59.275479,0.535678864,12.330291748,1.400539398,-0.081581786,-0.017974123,0.999987304
59.289764,-0.219631195,13.123748779,2.819606781,-0.071694091,0.007782713,0.999987304
59.305108,-0.372219086,13.665435791,0.767299652,-0.077797607,0.049286619,1.003161192
59.343461,6.776523590,12.116668701,-2.444675446,-0.077675536,0.006439939,1.001330137
59.381788,-0.952053070,-0.876190186,3.338405609,-0.100502685,-0.002959475,1.011339903
59.396071,-0.440883636,-4.187347412,5.596706390,-0.102211669,0.017426267,1.027453184
59.411404,1.855564117,-9.123565674,7.855007172,-0.104531005,0.060639158,1.031969786
59.449728,9.622287750,-9.413482666,3.613063812,-0.055214599,-0.032866701,0.988146484
59.488088,0.116062164,-3.195526123,1.286098480,-0.051674560,0.038300291,1.036730528
59.502360,3.999423981,-2.768280029,-1.147678375,-0.096108153,0.032318845,1.006579161
59.517677,5.120944977,-4.767181396,1.011440277,-0.088661864,-0.002104983,1.000109434
59.556014,-2.508449554,-17.882110596,7.763454437,-0.135781005,-0.032988772,1.024279356
59.594354,1.603794098,-15.150787354,12.219020844,-0.089150146,0.037445799,1.044420958
59.608649,4.853916168,-10.802032471,11.051723480,-0.058022216,0.022309080,1.018664122
59.623990,-1.608181000,-1.295806885,4.986354828,-0.066811278,0.004730955,1.018297911
59.662298,3.076267242,8.355377197,-1.574924469,-0.075478271,0.075287595,1.073107481
59.700645,10.064792633,2.175567627,0.118801117,-0.075112060,0.053070799,0.999376953
59.714935,10.492038727,-0.380279541,-1.254489899,-0.074013427,0.022553220,0.972765625
59.730259,-0.562953949,-5.285980225,1.545497894,-0.098793700,-0.025298342,0.933458984
59.768576,1.496982574,-8.269073486,5.955287933,-0.091469482,0.068573728,0.968737304
59.822582,-1.058864594,6.379364014,1.926967621,-0.050575927,-0.049834475,0.932848632
59.836919,-8.421230316,9.133575439,1.080104828,-0.081459716,-0.039946780,0.942370117
59.852287,-12.464809418,9.568450928,2.750942230,-0.093178466,0.074188963,1.016833067
59.890634,3.953647614,3.884552002,1.583644867,-0.056679443,0.055145994,1.021105528
59.928960,-2.676296234,-7.513763428,5.970546722,-0.053749755,0.074921384,1.024401426
59.960320,2.275180817,-11.412384033,4.864284515,-0.109291747,0.058197752,1.034411192
59.974650,4.045200348,-12.594940186,6.886074066,-0.079262450,0.034516111,1.022326231
60.012879,5.052280426,-9.947540283,6.664821625,-0.067177489,-0.005522951,1.026720762
60.051199,-3.248500824,1.572845459,3.964015961,-0.082924560,0.006317869,1.030627012
60.065479,-2.828884125,4.433868408,4.162380219,-0.063393310,0.051239744,1.041247129
60.080832,2.809238434,7.142303467,0.416347504,-0.061928466,0.059174314,1.019518614
60.119164,-3.111171722,9.888885498,3.208705902,-0.063759521,-0.024199709,0.995348632
60.157510,-0.616359711,19.761322021,1.621791840,-0.043739989,0.040985838,1.028918028
60.171831,0.505161285,21.683929443,0.401088715,-0.021523193,0.030487791,1.034533262
60.187210,1.275730133,22.927520752,-8.265903473,-0.029946044,-0.036772951,1.025744200
60.225539,-3.431606293,11.857269287,-3.749301910,-0.051918700,0.061493650,1.077746153
60.263895,4.251194000,1.183746338,-7.190158844,-0.076698974,0.115937009,1.081774473
60.278174,15.062046051,-7.712127686,-8.410861969,-0.080361083,0.025727049,1.024767637
60.293535,14.192295074,-13.273956299,-7.441928864,-0.100014403,-0.044463381,0.986681640
60.331875,-2.394008636,-19.957305908,7.496425629,-0.074013427,0.060395017,0.998278320
60.370218,3.038120270,-0.021697998,0.111171722,-0.015053466,0.015351072,0.981432617
60.384493,2.023410797,4.067657471,-4.855564117,-0.045326903,-0.002837405,0.981432617
60.399846,3.312778473,7.851837158,-2.047946930,-0.065224364,-0.010405764,0.978869140
60.438185,-4.331874847,7.577178955,-1.826694489,-0.096108153,0.070893064,1.028918028
60.492569,11.605930328,-3.081085205,-0.567844391,-0.055580810,0.033051267,0.948229492
60.506912,-0.257778168,-5.949737549,-2.681186676,-0.087197021,-0.044463381,0.927965820
60.522246,-4.698085785,-6.048919678,0.210353851,-0.087441161,0.030121580,0.952135742
60.560548,3.175449371,-2.531768799,2.705165863,-0.066933349,0.075897947,0.965075195
60.598898,-3.713893890,5.830047607,0.614711761,-0.066445068,-0.037383303,0.929186523
60.613179,-5.728054047,8.790252686,1.675197601,-0.053261474,0.001190916,0.941881835
60.628496,-6.483364105,11.323211670,-0.323703766,-0.065956786,0.032440916,0.984972656
60.666860,3.541660309,6.867645264,-0.712802887,-0.040566161,-0.008086428,0.933336914
60.705175,-6.948757172,-4.271270752,4.696437836,-0.083656982,0.066254392,0.999865234
60.719447,-4.362392426,-4.736663818,4.650661469,-0.072670653,0.091156736,0.991930664
60.734774,-0.166225433,-4.530670166,5.268642426,-0.092323974,0.065399900,0.993273437
60.773094,-1.341152191,-1.951934814,-0.125339508,-0.076210693,-0.031279787,0.977770507
60.811423,-3.011989594,-7.147552490,3.254482269,-0.082070068,0.040497556,1.028307676
60.825710,1.283359528,-7.170440674,3.872463226,-0.083656982,0.030976072,0.998522460
60.841028,0.169467926,-6.857635498,4.086086273,-0.083901122,0.006439939,0.997790039
60.879337,-4.843044281,-6.125213623,4.108974457,-0.106117919,0.062958494,1.052477598
60.917678,1.359653473,-7.109405518,5.673000336,-0.081947997,0.056854978,1.052843809
60.931967,-0.685024261,-7.277252197,6.107875824,-0.112099364,0.046112791,1.066027403
60.947272,-0.227260590,-7.727386475,7.381984711,-0.112587646,0.056488767,1.071642637
60.985585,5.410861969,-7.277252197,11.112758636,-0.083901122,0.089569822,1.069689512
61.023903,1.634311676,1.191375732,6.588527679,-0.085976318,0.057587400,1.039416075
61.038204,3.320407867,2.839324951,8.892604828,-0.058876708,0.088471189,1.040514708
61.053523,12.117099762,4.204986572,3.445217133,-0.055214599,0.023895994,1.033922911
61.108145,2.977085114,7.004974365,10.647365570,-0.043007568,0.006073728,1.021227598
61.146563,-3.385829926,14.817474365,7.855007172,-0.017250732,0.041229978,1.010973692
61.160870,3.701877594,18.433807373,4.299709320,-0.024941161,0.054291502,1.004748106
61.176207,5.624485016,19.433258057,2.316066742,-0.025429443,0.023407713,0.995348632
61.214538,-3.843593597,15.839813232,-4.222324371,-0.065712646,0.017060056,0.969713867
61.252890,0.108432770,-1.463653564,0.721523285,-0.075234130,0.055023924,0.956774414
61.267170,-0.105190277,-4.667999268,1.308986664,-0.077553466,0.035370603,0.948961914
61.294245,-5.476284027,-7.551910400,2.636501312,-0.060097411,0.033905759,0.942003906
61.332638,-4.080104828,-7.780792236,2.575466156,-0.073036864,0.062348142,0.970690429
61.370946,-8.940029144,-8.803131104,4.017421722,-0.090614989,0.080048338,1.003161192
61.385240,-7.482814789,-8.955718994,2.110073090,-0.076576903,0.093598142,1.020373106
61.400599,-2.332973480,-8.734466553,1.537868500,-0.097817138,0.075287595,1.017077208
61.438915,-3.927516937,-8.757354736,-1.498630524,-0.107460693,0.038178220,1.023302794
61.477259,0.085544586,-8.543731689,2.422878265,-0.070839599,0.065033689,1.021349669
61.491549,1.298618317,-4.858734131,-0.796726227,-0.071816161,0.042572752,0.991442382
61.506877,1.519870758,-3.676177979,-0.575473785,-0.076943114,0.022797361,0.977038085
61.507658,1.519870758,-3.676177979,-0.575473785,-0.076943114,0.022797361,0.977038085
61.545700,-9.794521332,-3.248931885,-1.681735992,-0.085365966,0.028534666,0.990221679
61.584038,2.069187164,3.640411377,-0.598361969,-0.074257568,0.058441892,1.015612364
61.598329,-0.341701508,9.820220947,-1.696994781,-0.053871825,-0.001494631,0.995104492
61.613664,-2.867031097,12.475250244,-1.918247223,-0.058388427,-0.009551272,0.991076171
61.651996,-3.691005707,16.045806885,-3.894260406,-0.054970458,-0.049102053,0.994127929
61.690319,-6.826686859,11.010406494,-4.039218903,-0.074623778,0.055634275,1.041613340
61.704625,-4.469203949,8.622406006,-5.023410797,-0.069008544,0.068451658,1.052233458
61.731896,2.397251129,-2.180816650,-7.441928864,-0.096474364,0.007416502,1.034777403
61.770305,0.314426422,-15.394927979,-2.658298492,-0.097084716,0.073334470,1.085314512
61.808664,5.914402008,-22.063018799,-5.610874176,-0.109169677,-0.046050295,1.043078184
61.822963,2.351474762,-24.031402588,-4.748752594,-0.125649169,-0.050322756,1.042589903
61.838294,0.993442535,-27.296783447,-1.117160797,-0.137856200,-0.024810061,1.057726622
61.876661,-1.943874359,-20.834686279,7.076808929,-0.094887450,0.055512205,1.037585020
61.914998,0.680637360,-1.791717529,4.643032074,-0.058022216,0.123505369,1.044420958
61.929284,9.774875641,16.953704834,5.146572113,-0.006996825,0.100189939,1.013048887
61.944607,12.391757965,26.177642822,1.072475433,0.021689698,0.058808103,0.988756835
61.982942,0.482273102,52.300689697,-10.989597321,-0.010414794,-0.005889162,0.968371093
62.021276,2.198886871,46.571014404,-8.273532867,-0.057778075,-0.078643069,0.916857421
62.035566,-5.758571625,35.096405029,-8.243015289,-0.063149169,-0.044707522,0.929918945
62.050909,-5.628871918,28.046844482,-7.182529449,-0.078163818,-0.034941897,0.945055664
62.089272,-8.756923676,-8.909942627,-0.232151031,-0.116493896,0.029267088,0.982653320
62.127566,-7.467556000,-35.437347412,6.260463715,-0.127480224,0.028412595,0.988390625
62.141861,-8.375453949,-39.435150146,8.534023285,-0.116371825,0.045136228,1.015368223
62.157203,-4.492092133,-41.472198486,8.762905121,-0.077919677,0.077362791,1.036120176
62.195540,4.358005524,-29.371978760,3.674098969,-0.059120849,-0.034941897,1.000109434
62.233872,-2.355861664,-11.336090088,2.308437347,-0.049233153,-0.000518069,1.028185606
62.248151,1.634311676,2.091644287,-0.239780426,-0.043251708,-0.000273928,1.009752989
62.263472,-1.516628265,7.958648682,-1.948764801,-0.049721435,-0.016020998,0.993761718
62.301794,4.251194000,16.259429932,-2.681186676,-0.055580810,0.031830564,1.009752989
62.340132,-0.402736664,13.825653076,-0.079563141,-0.057289794,-0.055815920,0.989733398
62.354436,-0.822353363,11.567352295,-0.239780426,-0.045448974,-0.041899905,1.006457090
62.369786,-1.745510101,9.377716064,-0.880649567,-0.057045653,-0.058745608,1.009386778
62.420251,0.428867340,-4.027130127,2.613613129,-0.079628661,-0.049956545,1.043078184
62.458667,5.143833160,-5.499603271,3.513881683,-0.061073974,0.033173338,1.064684629
62.472962,6.349277496,-5.293609619,-0.728061676,-0.066445068,-0.039458498,1.017321348
62.488288,2.717685699,-6.338836670,-0.163486481,-0.086342528,-0.022368655,1.026598692
62.526638,6.776523590,-10.603668213,1.209804535,-0.088173583,0.053437009,1.061266661
62.577270,4.525852203,-17.393829346,1.270839691,-0.131630614,-0.022734866,1.053454161
62.591624,2.587985992,-20.415069580,3.796169281,-0.139198974,0.018646970,1.068468809
62.607010,6.150913239,-24.443389893,10.685512543,-0.123940185,0.071259275,1.071764708
62.645330,10.247898102,-13.808013916,14.202663422,-0.064980224,0.017548338,1.007555723
62.683650,6.951999664,17.579315186,3.223964691,-0.017250732,0.035248533,0.995592773
62.697952,7.356357574,24.201629639,1.392910004,-0.013344482,0.041718259,0.978258789
62.713314,5.204868317,33.593414307,-3.993442535,-0.022255614,0.038788572,0.955187500
62.751678,3.869724274,37.278411865,-7.113864899,-0.045693114,0.050019041,0.934313476
62.790018,2.160739899,25.880096436,-2.971103668,-0.070717528,-0.021880373,0.892321289
62.804329,-4.118251801,14.176605225,-1.475742340,-0.086342528,0.018036619,0.896593750
62.819670,-4.621791840,7.912872314,0.423976898,-0.089272216,0.014496580,0.910631835
62.857996,-8.611965179,-16.638519287,0.156948090,-0.128578857,0.067963377,0.988512695
62.896287,1.031589508,-41.472198486,8.785793304,-0.130531982,0.129730955,1.034533262
62.910618,8.142185211,-42.708160400,8.366176605,-0.078652099,0.056854978,0.984484375
62.925999,5.487155914,-40.831329346,6.451198578,-0.075966552,0.002289549,0.984240234
62.964324,-2.065944672,-17.943145752,3.323146820,-0.037026122,0.047089353,1.005968809
63.002656,-2.233791351,12.566802979,-3.474643707,-0.023842528,0.047821775,0.958239257
63.016970,-3.553676605,17.571685791,-6.053379059,-0.037880614,0.034882322,0.961779296
63.032320,-5.941677094,24.560211182,-5.732944489,-0.049965575,0.043061033,0.971911132
63.070681,-2.119350433,26.269195557,-6.625583649,-0.057900146,0.041840330,0.974596679
63.109018,-7.200527191,18.662689209,-5.404880524,-0.062660888,0.044037595,0.993395507
63.138198,-1.867580414,6.379364014,-5.282810211,-0.085976318,0.036957517,1.008288145
63.152504,-3.095912933,-3.210784912,-3.955295563,-0.080727294,-0.008574709,1.007921934
63.190700,-0.662136078,-12.160064697,-4.107883453,-0.074501708,0.065033689,1.051501036
63.229029,-5.064296722,-16.432525635,-7.266452789,-0.102211669,-0.043120608,1.008532286
63.243325,-7.025051117,-18.156768799,-6.015232086,-0.120400146,0.018402830,1.050646544
63.258657,-2.516078949,-20.300628662,-1.552036285,-0.106972411,0.086884275,1.079577208
63.296996,4.785251617,-19.034149170,-0.689914703,-0.104408935,0.073578611,1.071764708
63.335288,9.263706207,-6.247283936,-8.227756500,-0.064491943,-0.000029787,1.009508848
63.349575,3.892612457,-3.004791260,-3.810337067,-0.070229247,-0.048735842,0.970690429
63.364879,0.993442535,-1.600982666,-3.665378571,-0.058510497,-0.035552248,0.965197265
63.403205,-2.989101410,9.682891846,0.721523285,-0.034096435,0.059662595,0.968859375
63.441496,4.121494293,28.100250244,-2.925327301,-0.000282958,0.084687009,0.968737304
63.455797,5.433750153,32.342193604,-5.877902985,-0.002846435,0.054779783,0.961291015
63.471138,5.754184723,39.582489014,-7.686069489,-0.006752685,0.014862791,0.925524414
63.509485,-2.546596527,39.902923584,-13.835361481,-0.050575927,-0.030425295,0.917956054
63.547826,-5.499172211,21.630523682,-7.983615875,-0.053383544,-0.011260256,0.890856445
63.562119,-6.086635590,16.488311768,-7.892063141,-0.052406982,-0.018218264,0.885607421
63.577458,-11.495876312,4.037139893,-9.242465973,-0.069740966,-0.057402834,0.867174804
63.615780,-14.448451996,-18.667938232,-2.337863922,-0.113320068,-0.010283694,0.910509765
63.654095,-18.652248383,-33.896209717,5.032131195,-0.100868896,0.034882322,0.956164062
63.668409,-16.294765472,-32.683135986,4.528591156,-0.056069091,0.028534666,0.982897460
63.683765,-16.218471527,-30.699493408,2.216884613,-0.058144286,0.003632322,0.999621093
63.722112,-14.089870453,-15.715362549,-1.468112946,-0.059975341,-0.021270022,1.048205137
63.760435,-13.143825531,0.184295654,-3.306797028,-0.052651122,0.004242674,1.082873106
63.774725,-11.709499359,3.121612549,-4.397800446,-0.056679443,0.019013181,1.094469786
63.790059,-5.697536469,3.861663818,-5.900791168,-0.065346435,0.029389158,1.101061583
63.828387,-6.841945648,2.381561279,-3.261020660,-0.073891357,-0.070098147,1.086169004
63.894504,2.496433258,4.174468994,-0.613620758,-0.034462646,-0.097563967,1.087877989
63.908845,2.458286285,3.533599854,-1.407077789,-0.056313232,-0.131255373,1.077013731
63.924209,2.183628082,4.189727783,0.172206879,-0.040566161,-0.137236819,1.072497129
63.962524,2.244663239,13.657806396,-4.466464996,-0.029701903,-0.039214358,1.083117247
64.000850,1.275730133,10.964630127,-10.913303375,-0.055336669,-0.075225100,1.043810606
64.015150,3.587436676,2.480743408,-11.058261871,-0.084023193,-0.027373537,1.054919004
64.030477,3.953647614,-3.157379150,-8.792331696,-0.100380614,-0.050078616,1.040148497
64.068794,3.434848785,-19.324066162,-4.046848297,-0.090004638,-0.022612795,1.039049864
64.107098,0.550937653,-28.197052002,-0.033786774,-0.112465575,-0.060454592,1.069323301
64.121413,2.198886871,-28.494598389,3.613063812,-0.097939208,-0.025664553,1.079333067
64.136769,6.677341461,-25.954010010,1.797267914,-0.066811278,0.000580564,1.064928770
64.175099,6.295871735,-9.505035400,-3.749301910,-0.041298583,-0.000762209,1.045885801
64.213410,6.334018707,2.244232178,-7.518222809,-0.042275146,0.018280759,1.029894590
64.227699,7.638645172,4.548309326,-9.211948395,-0.041664794,0.032929197,1.026964903
64.243018,9.149265289,7.371185303,-10.226657867,-0.052406982,0.005951658,0.986803710
64.281337,6.135654449,6.982086182,-11.599948883,-0.052284911,-0.021514162,0.961535156
64.319656,-0.509548187,4.822967529,-8.418491364,-0.041664794,-0.049712405,0.928332031
64.333952,-2.752590179,7.394073486,-9.265354156,-0.057411864,-0.020049319,0.945788085
64.349278,-3.927516937,7.165191650,-9.578159332,-0.046303466,-0.000395998,0.946154296
64.387606,-0.829982758,-1.677276611,-8.113315582,-0.076576903,0.036347166,0.973375976
64.425891,-3.866481781,-2.272369385,-8.754184723,-0.076454833,0.020844236,0.998766601
64.440180,-1.440334320,-1.631500244,-9.616306305,-0.065712646,0.006928220,1.001696348
64.455488,-2.836513519,-4.469635010,-12.309482574,-0.087197021,-0.022734866,0.983996093
64.493846,-2.058315277,-9.970428467,-9.364536285,-0.096108153,-0.021270022,1.029162169
64.532138,-1.638698578,-4.011871338,-9.364536285,-0.057900146,0.012055174,1.046129942
64.546438,-1.150417328,-2.333404541,-10.928562164,-0.063759521,-0.004546389,1.036608458
64.561770,-2.462673187,-1.814605713,-9.013584137,-0.081947997,0.005097166,1.055041075
64.600106,3.427219391,9.202239990,-8.136203766,-0.043862060,-0.013091311,1.042345762
64.638431,0.131320953,31.556365967,-15.208652496,0.000327393,-0.028472170,1.049303770
64.668752,-4.186916351,33.593414307,-17.810276031,-0.065834716,0.015229002,1.072741270
64.683089,4.846286774,31.953094482,-16.696384430,-0.017494872,0.038544431,1.062975645
64.721336,-4.125881195,22.706268311,-20.656040192,-0.050575927,-0.050078616,1.007311583
64.759656,0.062656403,4.967926025,-20.617893219,-0.107460693,-0.022856936,1.005968809
64.773949,-4.835414886,-8.536102295,-13.537815094,-0.093544677,0.003266111,1.024523497
64.789288,-4.446315765,-13.426544189,-13.354709625,-0.098183349,0.014740720,1.035143614
64.827644,-4.438686371,-23.985626221,-6.686618805,-0.073891357,0.073334470,1.090929747
64.865943,1.527500153,-15.784027100,-10.745456696,-0.060585693,-0.101836428,1.009264708
64.880250,-1.303005219,-6.232025146,-12.645175934,-0.048378661,-0.069731936,1.055773497
64.895603,0.871372223,-0.227691650,-14.125278473,-0.037270263,-0.044341311,1.044909239
64.933921,4.182529449,13.726470947,-21.121433258,-0.035072997,-0.022124514,1.035876036
64.972238,3.442478180,14.329193115,-19.915988922,-0.039711669,-0.086089358,1.004381895
64.986530,3.038120270,15.458343506,-21.876743317,-0.054238036,-0.060332522,1.023180723
65.001889,7.287693024,12.818572998,-21.434238434,-0.056435302,-0.025908694,1.010607481
65.040249,10.118198395,-4.011871338,-21.861484528,-0.098671630,-0.060698733,1.000841856
65.078541,7.821750641,-18.034698486,-22.342136383,-0.106728271,-0.000884280,0.991564453
65.092856,8.493137360,-20.865203857,-20.091464996,-0.106239989,-0.005034670,0.977038085
65.108197,4.693698883,-26.106597900,-20.091464996,-0.105629638,0.010224119,0.976916015
65.162206,6.540012360,-28.441192627,-14.178684235,-0.095619872,0.054901853,0.986803710
65.200565,6.356906891,-11.366607666,-18.031528473,-0.071694091,0.041596189,0.974108398
65.214871,6.570529938,-6.323577881,-17.825534821,-0.082192138,0.046479002,0.965075195
65.230210,8.447360992,1.679656982,-16.513278961,-0.061684325,0.018158689,0.943712890
65.268510,2.427768707,12.971160889,-17.772129059,-0.063637450,0.018036619,0.943590820
65.306832,3.709506989,14.886138916,-17.054965973,-0.076698974,-0.004302248,0.926623046
65.321127,2.008152008,14.146087646,-15.223911285,-0.071694091,-0.012480959,0.916857421
65.336492,-1.241970062,13.024566650,-14.415195465,-0.054604247,0.006317869,0.927965820
65.374853,-0.219631195,11.605499268,-16.047885895,-0.053383544,0.026093259,0.945666015
65.413158,-1.409816742,3.297088623,-12.111118317,-0.069008544,0.009125486,0.957873046
65.444487,-3.011989594,3.693817139,-14.163425446,-0.071205810,0.020722166,0.981554687
65.458831,-3.248500824,6.989715576,-16.368320465,-0.042275146,0.054413572,0.991320312
65.497066,0.161838531,-1.509429932,-21.441867828,-0.089272216,0.046112791,0.989245117
65.535374,-2.165126801,-16.600372314,-14.399936676,-0.101479247,0.018646970,0.974718750
65.549671,-4.560756683,-18.103363037,-13.003757477,-0.107094482,0.021576658,0.971911132
65.565015,-6.628322601,-18.408538818,-10.447910309,-0.102577880,0.043915525,0.983385742
65.603352,-0.219631195,-12.663604736,-14.880588531,-0.084633544,0.065766111,1.038195372
65.641659,-4.339504242,-9.726287842,-15.834262848,-0.099281982,-0.009917483,1.016466856
65.655962,-1.760768890,-8.230926514,-14.560153961,-0.080971435,0.036469236,1.052355528
65.671301,0.177097321,-7.162811279,-15.819004059,-0.078652099,0.036835447,1.045763731
65.709643,2.191257477,-12.533905029,-15.307834625,-0.092201903,-0.034209475,1.017931700
65.747938,-2.729701996,-10.626556396,-11.966159821,-0.091957763,-0.015532717,1.023791075
65.762240,-2.317714691,-8.375885010,-11.645725250,-0.074867919,0.004730955,1.026476622
65.777596,-3.126430511,-4.675628662,-15.483310699,-0.065956786,0.042816892,1.040636778
65.815912,0.734043121,-1.562835693,-14.544895172,-0.057656005,-0.052520022,0.982042968
65.854228,-0.967311859,8.019683838,-19.092014313,-0.049355224,0.051850095,1.011339903
65.868516,-0.524806976,7.416961670,-21.350315094,-0.069985107,0.054047361,1.002672911
65.883872,3.061008453,4.426239014,-18.496921539,-0.071327880,0.037689939,1.004748106
65.922178,0.199985504,-2.043487549,-20.686557770,-0.081337646,-0.031645998,0.953356445
65.960477,-1.554775238,-16.104461670,-18.062046051,-0.100258544,0.040131345,0.959704101
65.974780,-1.829433441,-17.782928467,-13.766696930,-0.078041747,0.003266111,0.952868164
65.990134,-4.316616058,-15.967132568,-14.583042145,-0.065712646,-0.005889162,0.952013671
66.028458,-8.558559418,-2.623321533,-20.564487457,-0.058510497,0.054169431,0.981798828
66.066759,-5.239772797,-3.195526123,-19.511631012,-0.065224364,0.035004392,0.981310546
66.081056,-6.147670746,-3.569366455,-20.663669586,-0.069863036,0.022187009,0.986315429
66.096384,-8.207607269,-1.608612061,-18.298557281,-0.084511474,0.022309080,0.997545898
66.134678,-5.819606781,1.275299072,-22.487094879,-0.076698974,0.061859861,1.018664122
66.172986,-9.435939789,1.244781494,-17.947605133,-0.070229247,-0.003813967,1.014879942
66.187266,-11.801052094,3.495452881,-19.618442535,-0.063271239,0.034149900,1.044787169
66.218655,-4.858303070,10.300872803,-21.640232086,-0.071327880,0.079804197,1.068346739
66.257089,-7.925319672,10.056732178,-21.037509918,-0.096230224,0.002533689,1.054796934
66.295438,-3.134059906,19.875762939,-26.042392731,-0.050575927,-0.029814944,1.047350645
66.309737,-5.239772797,20.333526611,-26.873996735,-0.052284911,-0.010405764,1.053820372
66.325077,-2.500820160,18.914459229,-27.797153473,-0.052040771,-0.042632326,1.063952208
66.363425,-2.805995941,9.850738525,-24.035861969,-0.047768310,0.007294431,1.081286192
66.401718,-1.608181000,2.038238525,-27.736118317,-0.054848388,-0.001982912,1.092638731
66.416020,0.383090973,-1.929046631,-29.681613922,-0.060097411,-0.005278811,1.100207090
66.431371,2.427768707,-9.855987549,-25.897434235,-0.097817138,-0.051543459,1.069933653
66.485961,3.869724274,-6.888153076,-25.966098785,-0.051430419,0.012787595,1.072252989
66.524329,8.920383453,1.008270264,-28.567722321,-0.033364013,-0.097441897,1.005236387
66.538641,4.930210114,2.930877686,-29.620578766,-0.025551513,-0.082061037,1.001330137
66.554000,7.447910309,7.157562256,-30.780246735,-0.025551513,-0.001494631,1.023669004
66.592318,9.805393219,9.423492432,-36.014011383,-0.050209716,-0.061187014,0.965441406
66.630649,1.184177399,-0.845672607,-31.360080719,-0.079628661,-0.032866701,0.952257812
66.644962,1.222324371,-2.264739990,-29.948642731,-0.067909911,0.004120603,0.962511718
66.660301,1.405429840,-3.714324951,-31.375339508,-0.065224364,0.024506345,0.965563476
66.698635,2.023410797,-10.817291260,-31.810214996,-0.090248778,0.001190916,0.971178710
66.736917,-1.875209808,-17.981292725,-27.835300446,-0.084145263,0.005341306,0.966173828
66.751226,-1.409816742,-18.584014893,-28.087070465,-0.088173583,0.056977049,0.979357421
66.766576,-0.601100922,-19.087554932,-28.987339020,-0.090737060,0.063690916,0.987902343
