time,gyro x,gyro y,gyro z,accel x,accel y,accel z
32.000550,3.573966980,0.473800659,6.982734680,0.127986938,0.234488159,1.166978717
32.001175,3.337455750,1.015487671,6.799629211,0.125911742,0.238394409,1.165513873
32.001800,3.093315125,1.526657104,6.540229797,0.127010375,0.241202027,1.162462115
32.002427,2.864433289,1.641098022,6.341865540,0.123592407,0.244497925,1.160508990
32.003052,2.521110535,2.289596558,6.074836731,0.119930297,0.247549683,1.157335162
32.003678,2.070976257,2.587142944,5.990913391,0.120540649,0.250967652,1.156114459
32.004303,1.872612000,2.724472046,5.311897278,0.119197875,0.255484253,1.150010943
32.004928,1.445365906,3.319564819,5.128791809,0.115413696,0.256704956,1.148546100
32.005554,0.873161316,3.571334839,5.083015442,0.110775024,0.263540894,1.146226764
32.006180,0.377250671,3.838363647,4.526069641,0.109432250,0.263662964,1.146226764
32.006806,-0.286506653,4.196945190,4.335334778,0.104915649,0.267447144,1.142808795
32.007433,-0.896858215,4.631820679,4.045417786,0.103328735,0.270987183,1.141832232
32.008059,-1.499580383,4.868331909,3.938606262,0.101253539,0.274038941,1.140123248
32.008684,-1.964973450,5.226913452,3.511360168,0.096370727,0.276846558,1.139024615
32.009310,-2.865242004,5.394760132,3.351142883,0.093441039,0.277334839,1.139146686
32.009935,-3.765510559,5.600753784,2.977302551,0.088802367,0.281363159,1.139268756
32.010560,-4.253791809,5.928817749,2.641609192,0.086238891,0.283804566,1.142320514
32.011186,-5.009101868,6.478134155,2.305915833,0.085872680,0.282950073,1.141343951
32.011812,-5.794929504,6.607833862,2.092292786,0.079280883,0.283926636,1.139390826
32.012439,-6.481575012,6.913009644,1.604011536,0.078426391,0.286978394,1.141954303
32.013065,-7.374214172,7.378402710,1.367500305,0.072689086,0.285513550,1.140123248
32.013690,-8.198188782,7.416549683,1.199653625,0.072078735,0.282950073,1.146592975
32.014316,-8.984016418,7.736984253,0.772407532,0.068050414,0.284292847,1.141343951
32.014941,-9.655403137,8.004013062,0.398567200,0.067317992,0.282461792,1.143419147
32.015567,-10.242866516,8.416000366,0.200202942,0.065120727,0.281729370,1.145860553
32.016192,-11.135505676,8.896652222,-0.211784363,0.060115844,0.275503784,1.144517779
32.016817,-11.547492981,9.087387085,-0.433036804,0.056942016,0.276846558,1.144029498
32.017442,-12.211250305,9.438339233,-0.806877136,0.054500610,0.274527222,1.145860553
32.018069,-12.722419739,10.041061401,-1.257011414,0.051937133,0.267203003,1.145372272
32.018694,-13.279365540,10.308090210,-1.646110535,0.049617797,0.265127808,1.149766803
32.019320,-13.645576477,10.681930542,-1.890251160,0.046443969,0.259634644,1.145494342
32.019946,-13.843940735,11.109176636,-2.195426941,0.045467407,0.255606323,1.149278522
32.020572,-14.065193176,11.627975464,-2.721855164,0.041927367,0.250723511,1.146470904
32.021198,-14.362739563,12.032333374,-2.912590027,0.041072875,0.243521363,1.145738482
32.021824,-14.294075012,12.459579468,-3.347465515,0.037410766,0.237417847,1.147569537
32.022449,-14.439033508,13.451400757,-3.782341003,0.035579711,0.232290894,1.149644732
32.023074,-14.278816223,13.573471069,-4.209587097,0.030452758,0.224478394,1.147813678
32.023701,-14.233039856,14.015975952,-4.278251648,0.032161742,0.217276245,1.148668170
32.024326,-13.973640442,14.817062378,-4.812309265,0.028255492,0.207510620,1.148546100
32.024952,-13.653205872,15.175643921,-5.209037781,0.023372680,0.202749878,1.149156451
32.025578,-13.187812805,15.763107300,-5.506584167,0.021053344,0.198477417,1.147691607
32.038340,7.823539734,25.826278687,-12.708732605,-0.029483765,0.085074097,1.068223834
32.039100,9.051872253,26.177230835,-12.952873230,-0.033634156,0.084341675,1.062120318
32.039725,10.348869324,26.413742065,-13.311454773,-0.036319703,0.080557495,1.056260943
32.040402,11.241508484,26.573959351,-13.723442078,-0.038883179,0.083243042,1.054185748
32.041028,12.225700378,26.902023315,-13.853141785,-0.042911500,0.082266480,1.046373248
32.041654,13.034416199,27.237716675,-14.135429382,-0.046573609,0.083731323,1.038560748
32.042279,14.209342957,27.443710327,-14.394828796,-0.048770875,0.080191284,1.033311725
32.042904,14.972282410,27.550521851,-14.379570007,-0.047672242,0.079458863,1.029771686
32.043531,15.903068542,27.474227905,-14.616081238,-0.053165406,0.079092652,1.025499225
32.044156,16.482902527,27.878585815,-15.043327332,-0.054264039,0.077749878,1.017686725
32.044781,17.215324402,27.947250366,-15.188285828,-0.056339234,0.077871948,1.011339068
32.045408,18.024040222,28.046432495,-15.455314636,-0.058292359,0.078848511,1.004503131
32.046033,18.306327820,28.343978882,-15.447685242,-0.064273804,0.077627808,0.999498248
32.046659,18.970085144,28.389755249,-15.882560730,-0.063785523,0.078848511,0.995469928
32.047286,19.336296082,28.466049194,-15.874931335,-0.068790406,0.080069214,0.988023639
32.047911,19.809318542,28.435531616,-16.225883484,-0.070255250,0.078238159,0.981431842
32.048537,20.076347351,28.214279175,-16.202995300,-0.071720093,0.075552613,0.974351764
32.049162,20.328117371,28.565231323,-16.492912292,-0.073917359,0.078970581,0.968126178
32.049787,20.633293152,28.336349487,-16.454765320,-0.077091187,0.076407105,0.958726764
32.050413,20.595146179,28.252426147,-16.759941101,-0.077457398,0.077017456,0.957872272
32.051039,20.839286804,28.153244019,-16.759941101,-0.081607789,0.080679566,0.953111529
32.051664,20.854545593,28.168502808,-16.935417175,-0.083316773,0.077994019,0.946275592
32.052289,20.709587097,28.015914917,-17.004081726,-0.084049195,0.082022339,0.937486529
32.052915,20.404411316,27.848068237,-16.981193542,-0.090030640,0.077749878,0.930772662
32.053541,20.312858582,27.657333374,-17.133781433,-0.085636109,0.077505738,0.926988482
32.054167,20.137382507,27.565780640,-16.958305359,-0.088321656,0.079336792,0.918565631
32.054793,19.633842468,27.481857300,-17.103263855,-0.093326539,0.078238159,0.915513873
32.055419,19.534660339,27.230087280,-17.377922058,-0.092105836,0.076895386,0.911119342
32.056046,19.069267273,27.245346069,-17.110893250,-0.095890015,0.076407105,0.906236529
32.056671,18.893791199,26.856246948,-17.324516296,-0.102359742,0.070791870,0.899644732
32.057296,18.352104187,26.512924194,-17.263481140,-0.101261109,0.070913941,0.896348834
32.057921,17.711235046,26.528182983,-17.187187195,-0.103092164,0.067495972,0.889390826
32.058546,17.306877136,26.238265991,-17.149040222,-0.105167359,0.066397339,0.887803912
32.059171,16.780448914,25.849166870,-17.225334167,-0.108585328,0.068716675,0.882432818
32.059797,16.322685242,25.711837769,-17.080375671,-0.109561890,0.066885620,0.877672076
32.060424,15.597892761,25.490585327,-16.904899597,-0.110904664,0.068716675,0.872178912
32.061050,15.063835144,24.971786499,-16.859123230,-0.114444703,0.066031128,0.872178912
32.061677,14.247489929,24.849716187,-17.011711121,-0.112735718,0.065786988,0.870347857
32.062302,13.385368347,24.781051636,-16.935417175,-0.115787476,0.059317261,0.867418170
32.062927,12.820793152,24.399581909,-16.714164734,-0.119693726,0.063101441,0.865587115
32.063553,11.920524597,24.063888550,-16.683647156,-0.119937867,0.062857300,0.863267779
32.064179,11.348320007,23.918930054,-16.454765320,-0.122745484,0.058584839,0.860948443
32.064804,10.547233582,23.468795776,-16.386100769,-0.123722047,0.056997925,0.859483600
32.065430,9.967399597,22.988143921,-16.416618347,-0.122623414,0.056875855,0.859117389
32.066056,9.059501648,22.728744507,-16.408988953,-0.123233765,0.052847534,0.857164264
32.066683,8.388114929,22.667709351,-16.134330750,-0.121768922,0.048330933,0.855089068
32.067308,7.281852722,22.393051147,-16.058036804,-0.127994508,0.045279175,0.853990436
32.079992,-4.101203918,16.846481323,-13.410636902,-0.131778687,-0.009530395,0.818712115
32.080710,-4.406379700,16.320053101,-13.319084167,-0.131778687,-0.009164184,0.818467975
32.081336,-4.757331848,16.167465210,-13.090202332,-0.132877320,-0.012704223,0.812486529
32.081963,-5.199836731,15.808883667,-12.968132019,-0.133609742,-0.014901489,0.813585162
32.082590,-5.131172180,15.351119995,-12.876579285,-0.134220093,-0.015389770,0.810411334
32.083216,-5.505012512,15.152755737,-12.655326843,-0.133487672,-0.012215942,0.808091998
32.083843,-5.787300110,14.893356323,-12.273857117,-0.132389039,-0.010262817,0.805406451
32.084469,-6.237434387,14.557662964,-12.319633484,-0.134952515,-0.015755981,0.803941607
32.085096,-6.321357727,14.321151733,-12.289115906,-0.135074586,-0.012582153,0.802354693
32.085721,-6.573127747,13.809982300,-12.136528015,-0.133365601,-0.012582153,0.804307818
32.086347,-6.527351379,13.207260132,-12.044975281,-0.136905640,-0.014169067,0.802110553
32.087155,-7.000373840,12.642684937,-11.892387390,-0.136295289,-0.012215942,0.798692584
32.087780,-6.992744446,12.329879761,-11.632987976,-0.133731812,-0.011971802,0.801256061
32.088407,-7.328437805,11.711898804,-11.495658875,-0.134830445,-0.009530395,0.798326373
32.089032,-7.511543274,11.490646362,-11.449882507,-0.134830445,-0.010140747,0.798448443
32.089657,-7.664131165,10.895553589,-11.388847351,-0.133365601,-0.009408325,0.797349811
32.090282,-7.671760559,10.697189331,-11.236259460,-0.130680054,-0.011117309,0.799425006
32.090907,-8.144783020,10.163131714,-11.167594910,-0.130680054,-0.009286255,0.800645709
32.091534,-8.091377258,9.735885620,-11.076042175,-0.131778687,-0.013192505,0.797105670
32.092159,-8.053230286,9.468856812,-11.221000671,-0.131046265,-0.011727661,0.795030475
32.092785,-8.358406067,9.178939819,-10.915824890,-0.125675172,-0.010629028,0.795152545
32.093410,-8.259223938,8.560958862,-11.015007019,-0.123966187,-0.009896606,0.797838092
32.094035,-8.358406067,8.530441284,-10.923454285,-0.125675172,-0.011117309,0.796251178
32.095763,-8.533882141,7.019821167,-10.610649109,-0.121402711,-0.012093872,0.797716022
32.096390,-8.449958801,6.668869019,-10.709831238,-0.122501343,-0.009896606,0.795518756
32.097017,-8.518623352,6.592575073,-10.648796082,-0.120670289,-0.005868286,0.795762897
32.097644,-8.396553040,6.035629272,-10.824272156,-0.120059937,-0.012215942,0.797960162
32.098271,-8.457588196,5.585494995,-10.427543640,-0.120304078,-0.012948364,0.800401568
32.098897,-8.510993958,5.158248901,-10.740348816,-0.118595093,-0.013436645,0.801500201
32.099524,-8.495735168,4.845443726,-10.580131531,-0.119449586,-0.012338012,0.800279498
32.100149,-8.488105774,4.631820679,-10.465690613,-0.119815797,-0.013680786,0.801866412
32.100775,-8.381294250,4.242721558,-10.557243347,-0.118839234,-0.010995239,0.801866412
32.101401,-8.419441223,3.853622437,-10.435173035,-0.120914429,-0.009652466,0.805040240
32.102027,-8.381294250,3.334823608,-10.282585144,-0.117984742,-0.010506958,0.806383014
32.102652,-8.556770325,3.388229370,-10.549613953,-0.118717164,-0.011483520,0.807969928
32.103277,-8.633064270,2.938095093,-10.259696960,-0.116519898,-0.009286255,0.809678912
32.103902,-8.587287903,2.343002319,-10.450431824,-0.111392945,-0.008553833,0.811021686
32.104528,-8.808540344,2.144638062,-10.198661804,-0.109806031,-0.012215942,0.810777545
32.105153,-8.610176086,2.045455933,-10.175773621,-0.111026734,-0.014169067,0.815904498
32.105778,-8.800910950,1.679244995,-10.397026062,-0.110904664,-0.011971802,0.816636920
32.106403,-8.961128235,1.358810425,-10.175773621,-0.108097047,-0.011361450,0.820787311
32.107028,-8.800910950,1.168075562,-10.046073914,-0.109195679,-0.011117309,0.824205279
32.107653,-9.128974915,0.870529175,-10.206291199,-0.104068726,-0.010140747,0.824571490
32.108279,-9.159492493,0.817123413,-9.878227234,-0.104557008,-0.010995239,0.825425982
32.108904,-9.273933411,0.695053101,-9.924003601,-0.106143922,-0.013070434,0.829454303
32.109530,-9.426521301,0.283065796,-9.992668152,-0.106388062,-0.013802856,0.831407428
32.110156,-9.594367981,0.290695190,-9.939262390,-0.102848023,-0.013070434,0.829576373
32.122846,-18.444465637,0.496688843,-8.527824402,-0.105045289,-0.010018677,0.873033404
32.123579,-18.757270813,0.565353394,-8.276054382,-0.102481812,-0.009286255,0.872423053
32.124205,-19.222663879,0.641647339,-8.222648621,-0.102603883,-0.014901489,0.869371295
32.124831,-19.924568176,0.740829468,-8.031913757,-0.105411500,-0.012215942,0.870836139
32.125457,-20.252632141,1.061264038,-7.833549500,-0.105655640,-0.013192505,0.872300982
32.126083,-20.756172180,1.061264038,-7.780143738,-0.104068726,-0.014657348,0.868883014
32.126709,-21.336006165,1.137557983,-7.879325867,-0.107608765,-0.016366333,0.873399615
32.127336,-21.732734680,1.274887085,-7.688591003,-0.108463258,-0.017098755,0.868150592
32.127962,-22.312568665,1.358810425,-7.627555847,-0.108463258,-0.018319458,0.872178912
32.128587,-22.884773254,1.236740112,-7.680961609,-0.108585328,-0.019540161,0.868638873
32.129214,-23.083137512,1.305404663,-7.474967957,-0.109928101,-0.023568481,0.869127154
32.129840,-23.563789368,1.503768921,-7.520744324,-0.110904664,-0.023568481,0.869005084
32.130466,-23.930000305,1.374069214,-7.398674011,-0.109439820,-0.025277466,0.867540240
32.131092,-24.341987610,1.404586792,-7.276603699,-0.112491578,-0.031380981,0.868394732
32.131718,-24.563240051,1.389328003,-7.085868835,-0.111026734,-0.029305786,0.871202350
32.132344,-24.761604309,1.435104370,-7.116386414,-0.114078492,-0.033700317,0.867662311
32.132970,-24.845527649,1.465621948,-7.162162781,-0.114444703,-0.034432739,0.868760943
32.133595,-25.181221008,1.335922241,-7.101127625,-0.114444703,-0.036141723,0.865953326
32.134220,-25.394844055,1.335922241,-6.849357605,-0.115421265,-0.041146606,0.868516803
32.134846,-25.425361633,1.221481323,-6.986686707,-0.115421265,-0.042367309,0.864610553
32.135471,-25.402473450,1.259628296,-6.895133972,-0.115787476,-0.045785278,0.865587115
32.136097,-25.715278625,1.007858276,-6.826469421,-0.112735718,-0.047250122,0.865953326
32.136722,-25.364326477,1.267257690,-6.948539734,-0.114444703,-0.052621216,0.866807818
32.137347,-25.303291321,1.145187378,-6.673881531,-0.113590211,-0.054696411,0.864122272
32.137973,-25.318550110,1.023117065,-6.635734558,-0.112125367,-0.054330200,0.865831256
32.138600,-24.883674622,0.984970093,-6.826469421,-0.114078492,-0.061410278,0.866807818
32.139225,-24.792121887,1.114669800,-6.742546082,-0.112247437,-0.062020630,0.867540240
32.139850,-24.509834290,1.084152222,-6.795951843,-0.113101929,-0.068612427,0.866685748
32.140582,-24.242805481,0.939193726,-6.582328796,-0.111148804,-0.071297973,0.870225787
32.141208,-23.952888489,0.908676147,-6.620475769,-0.109439820,-0.071786255,0.868760943
32.141833,-23.464607239,1.030746460,-6.521293640,-0.107242554,-0.075326294,0.866685748
32.142458,-22.999214172,0.992599487,-6.559440613,-0.105899781,-0.081307739,0.869615436
32.143090,-22.648262024,0.916305542,-6.521293640,-0.108707398,-0.084725708,0.866807818
32.143715,-22.091316223,0.984970093,-6.368705750,-0.107120484,-0.088021606,0.869493365
32.144340,-21.648811340,1.023117065,-6.460258484,-0.106754273,-0.092049927,0.869493365
32.144966,-20.977424622,1.099411011,-6.406852722,-0.106510133,-0.092171997,0.869127154
32.145591,-20.405220032,1.114669800,-6.353446960,-0.108219117,-0.093026489,0.872056842
32.146216,-19.901679993,0.984970093,-6.254264832,-0.106510133,-0.094491333,0.871324420
32.146842,-19.062446594,1.122299194,-6.429740906,-0.104679078,-0.101815552,0.873155475
32.147468,-18.413948059,1.168075562,-6.391593933,-0.108341187,-0.101815552,0.875352740
32.148095,-17.704414368,1.198593140,-6.254264832,-0.109439820,-0.104623169,0.869981647
32.148721,-17.101692200,1.404586792,-6.139823914,-0.110904664,-0.104745239,0.874498248
32.149347,-16.285346985,1.236740112,-6.292411804,-0.113101929,-0.109628052,0.875230670
32.149972,-15.438484192,1.175704956,-5.994865417,-0.110904664,-0.107430786,0.876207232
32.150598,-14.782356262,1.328292847,-6.185600281,-0.113224000,-0.113412231,0.875596881
32.151225,-13.210700989,1.183334351,-5.971977234,-0.116031617,-0.114877075,0.876817584
32.151852,-12.562202454,1.053634644,-5.971977234,-0.118228883,-0.117562622,0.878282428
32.164510,3.383232117,0.183883667,-5.109855652,-0.128238648,-0.129403442,0.878526568
32.165193,4.138542175,0.496688843,-4.865715027,-0.127628297,-0.127816528,0.877183795
32.165818,4.565788269,0.405136108,-4.819938660,-0.129337281,-0.124764770,0.877672076
32.166445,5.336357117,0.405136108,-4.980155945,-0.129215211,-0.124154419,0.874620318
32.167071,6.068778992,0.077072144,-4.652091980,-0.128971070,-0.125375122,0.878282428
32.167698,6.625724792,0.084701538,-4.560539246,-0.128482789,-0.125130981,0.879136920
32.168325,7.129264832,-0.022109985,-4.652091980,-0.127140015,-0.125863403,0.876207232
32.168950,7.503105164,-0.090774536,-4.339286804,-0.131168336,-0.123666137,0.876451373
32.169575,8.136344910,-0.167068481,-4.308769226,-0.130557984,-0.123055786,0.877305865
32.170201,8.510185242,-0.243362427,-4.072257996,-0.134342164,-0.119393677,0.879258990
32.170827,8.769584656,-0.510391235,-4.064628601,-0.133243531,-0.117074341,0.877550006
32.171454,9.288383484,-0.350173950,-3.873893738,-0.133487672,-0.117684692,0.878770709
32.172079,9.402824402,-0.868972778,-3.706047058,-0.135074586,-0.115243286,0.878770709
32.172704,9.669853210,-0.815567017,-3.675529480,-0.135318726,-0.111459106,0.879136920
32.173330,10.226799011,-0.800308228,-3.545829773,-0.136173218,-0.107674927,0.874986529
32.173955,10.387016296,-0.998672485,-3.309318542,-0.133121461,-0.102181762,0.878404498
32.174582,10.577751160,-0.868972778,-3.202507019,-0.134830445,-0.103768677,0.874132037
32.175207,10.264945984,-1.189407349,-3.149101257,-0.137393922,-0.099862427,0.876939654
32.175833,10.539604187,-1.189407349,-2.859184265,-0.137638062,-0.094979614,0.873765826
32.176458,10.478569031,-1.120742798,-2.798149109,-0.141056031,-0.094125122,0.879503131
32.177085,10.593009949,-1.494583130,-2.729484558,-0.139224976,-0.089852661,0.878404498
32.177711,10.440422058,-1.525100708,-2.279350281,-0.136905640,-0.084237427,0.879869342
32.178337,10.364128113,-1.738723755,-2.241203308,-0.139713258,-0.080819458,0.883165240
32.178963,9.952140808,-1.586135864,-2.187797546,-0.142154664,-0.079720825,0.885606647
32.179589,9.761405945,-1.891311646,-2.065727234,-0.142398804,-0.074593872,0.887193561
32.180216,9.570671082,-1.952346802,-1.806327820,-0.141056031,-0.071664184,0.887559772
32.180841,9.051872253,-2.165969849,-1.577445984,-0.138614625,-0.068734497,0.891466022
32.181467,8.548332214,-2.143081665,-1.455375671,-0.141056031,-0.063729614,0.896592975
32.182093,8.327079773,-2.265151978,-1.325675964,-0.138980836,-0.061776489,0.899278522
32.182719,7.480216980,-2.288040161,-1.012870789,-0.139224976,-0.057137817,0.900987506
32.183346,7.236076355,-2.432998657,-0.867912292,-0.137149781,-0.050423950,0.903550982
32.183971,6.480766296,-2.509292603,-0.661918640,-0.136661500,-0.052132934,0.907457232
32.184597,5.893302917,-2.463516235,-0.623771667,-0.136661500,-0.046273559,0.907823443
32.185223,5.176139832,-2.364334106,-0.486442566,-0.134464234,-0.043343872,0.913194537
32.185848,4.771781921,-2.463516235,-0.494071960,-0.133487672,-0.039559692,0.914415240
32.186473,4.016471863,-2.425369263,-0.150749207,-0.134952515,-0.038338989,0.919298053
32.187100,3.497673035,-2.455886841,-0.082084656,-0.133609742,-0.039071411,0.919542193
32.187725,2.765251160,-2.448257446,0.177314758,-0.131046265,-0.037240356,0.923814654
32.188352,1.926017761,-2.371963501,0.116279602,-0.129703492,-0.036385864,0.925889850
32.188977,1.437736511,-2.288040161,0.421455383,-0.125186890,-0.035165161,0.931383014
32.189603,0.789237976,-2.310928345,0.528266907,-0.125675172,-0.032357544,0.929185748
32.190229,0.133110046,-2.288040161,0.680854797,-0.124942750,-0.031380981,0.933580279
32.190855,-0.423835754,-1.944717407,0.825813293,-0.121036500,-0.031258911,0.940050006
32.191482,-1.118110657,-2.021011353,0.894477844,-0.116764039,-0.031258911,0.940172076
32.192107,-1.453804016,-1.952346802,1.024177551,-0.118350953,-0.030892700,0.943101764
32.192732,-2.094673157,-1.639541626,1.382759094,-0.114444703,-0.029305786,0.946763873
32.193358,-2.453254700,-1.425918579,1.428535461,-0.109928101,-0.032357544,0.947496295
32.193984,-3.170417786,-1.387771606,1.359870911,-0.113346070,-0.031625122,0.946641803
32.207821,-2.743171692,2.495590210,2.771308899,-0.124454468,-0.042611450,0.972642779
32.225937,9.997917175,7.721725464,2.252510071,-0.145328492,-0.061898559,0.968736529
32.226564,10.585380554,7.698837280,2.145698547,-0.144840211,-0.059945434,0.962266803
32.227191,11.386466980,7.828536987,2.191474915,-0.144596070,-0.061288208,0.960679889
32.227818,11.836601257,7.752243042,2.283027649,-0.144351929,-0.060555786,0.957750201
32.228444,12.561393738,7.904830933,2.305915833,-0.145084351,-0.059090942,0.955675006
32.229070,13.316703796,7.775131226,2.191474915,-0.143741578,-0.061410278,0.950548053
32.229695,13.804985046,7.622543335,2.389839172,-0.141422242,-0.061410278,0.947984576
32.230320,14.293266296,7.439437866,2.389839172,-0.143009156,-0.064584106,0.944078326
32.230945,15.147758484,7.294479370,2.420356750,-0.143863648,-0.061410278,0.941026568
32.231572,15.674186707,7.172409058,2.389839172,-0.145694703,-0.064217895,0.939317584
32.232197,16.284538269,6.996932983,2.534797668,-0.142520875,-0.064095825,0.938707232
32.232823,17.100883484,7.004562378,2.626350403,-0.141544312,-0.063485473,0.936143756
32.233449,17.558647156,6.508651733,2.351692200,-0.137271851,-0.062875122,0.936265826
32.234074,18.123222351,6.371322632,2.664497375,-0.135196656,-0.062020630,0.935533404
32.234701,18.710685730,5.921188354,2.473762512,-0.130924195,-0.062386841,0.934678912
32.235327,18.855644226,5.608383179,2.702644348,-0.128971070,-0.059335083,0.929918170
32.235953,19.343925476,5.387130737,2.763679504,-0.124210328,-0.057870239,0.928087115
32.236579,19.717765808,5.043807983,2.847602844,-0.118228883,-0.052743286,0.932237506
32.237204,20.045829773,4.853073120,3.122261047,-0.116275758,-0.052621216,0.931505084
32.237831,20.320487976,4.425827026,2.977302551,-0.109073609,-0.054330200,0.927354693
32.238457,20.625663757,4.097763062,3.213813782,-0.104923218,-0.047738403,0.927720904
32.239082,20.801139832,3.746810913,3.251960754,-0.101871461,-0.047494262,0.928087115
32.239708,20.892692566,3.441635132,3.419807434,-0.094547242,-0.045296997,0.930406451
32.240335,21.075798035,3.266159058,3.480842590,-0.090396851,-0.043099731,0.925157428
32.240960,21.159721375,3.022018433,3.595283508,-0.085391968,-0.040414184,0.924180865
32.241587,21.197868347,2.617660522,3.984382629,-0.083438843,-0.036874145,0.926866412
32.242214,20.984245300,2.434555054,3.961494446,-0.080142945,-0.032845825,0.927720904
32.242839,20.816398621,2.022567749,4.106452942,-0.076724976,-0.034066528,0.924913287
32.243464,20.831657410,1.801315308,4.548957825,-0.072086304,-0.025643677,0.926744342
32.244089,20.633293152,1.557174683,4.739692688,-0.066715211,-0.023568481,0.926011920
32.244714,20.335746765,1.145187378,4.518440247,-0.065494508,-0.021249145,0.926622272
32.245340,20.267082214,0.840011597,4.991462708,-0.063297242,-0.015633911,0.926011920
32.245967,19.847465515,0.504318237,5.128791809,-0.056827515,-0.011849731,0.926866412
32.246592,19.328666687,0.252548218,5.350044250,-0.057315797,-0.005624145,0.927842975
32.247217,19.084526062,-0.350173950,5.632331848,-0.054874390,-0.000497192,0.930284381
32.247842,18.680168152,-0.540908813,5.601814270,-0.055118531,0.002676636,0.931383014
32.248468,18.275810242,-0.876602173,5.838325500,-0.050601929,0.007803589,0.930650592
32.249094,17.779899597,-1.280960083,5.815437317,-0.049869508,0.011465698,0.930040240
32.249719,17.375541687,-1.364883423,6.204536438,-0.048404664,0.017569214,0.929796100
32.250346,16.528678894,-2.173599243,6.395271301,-0.044132203,0.023550659,0.934312701
32.250972,15.964103699,-2.143081665,6.395271301,-0.040470093,0.024038941,0.935777545
32.251598,15.674186707,-2.677139282,6.654670715,-0.039493531,0.028677613,0.934556842
32.252223,14.720512390,-2.967056274,6.845405579,-0.035099000,0.034536988,0.938341022
32.252849,14.293266296,-3.119644165,7.020881653,-0.033145875,0.038321167,0.939927936
32.253476,13.522697449,-3.615554810,7.387092590,-0.030094117,0.043936402,0.943223834
32.254102,12.645317078,-3.852066040,7.234504700,-0.032169312,0.050772339,0.944932818
32.254728,11.905265808,-4.279312134,7.524421692,-0.025577515,0.054678589,0.950670123
32.268287,-13.874458313,-6.682571411,9.111335754,-0.004703492,0.183951050,1.055894732
32.269024,-14.873908997,-6.224807739,9.141853333,-0.003604859,0.187124878,1.063096881
32.269650,-16.308235168,-6.110366821,9.004524231,-0.003971070,0.187124878,1.068101764
32.270277,-17.544197083,-6.232437134,8.806159973,0.000667602,0.188589722,1.074815631
32.270902,-18.864082336,-5.927261353,8.897712708,0.002620727,0.186514527,1.079942584
32.271528,-19.932197571,-5.561050415,8.691719055,0.004695922,0.186148316,1.084581256
32.272153,-20.939277649,-5.522903442,8.645942688,0.007869750,0.185660034,1.088365436
32.272778,-21.801399231,-5.438980103,8.500984192,0.011043578,0.184439331,1.094468951
32.273404,-22.610115051,-5.057510376,8.279731750,0.012630492,0.185660034,1.097886920
32.274030,-23.472236633,-4.836257935,8.180549622,0.015682250,0.180166870,1.099107623
32.274655,-24.311470032,-4.500564575,7.951667786,0.015926391,0.181997925,1.102647662
32.275280,-24.891304016,-4.271682739,7.738044739,0.015438110,0.181509644,1.102281451
32.275906,-25.364326477,-3.989395142,7.699897766,0.017025024,0.175039917,1.107408404
32.276531,-25.822090149,-3.798660278,7.257392883,0.017269164,0.170767456,1.108140826
32.277157,-26.226448059,-3.424819946,7.295539856,0.015316039,0.169424683,1.110338092
32.277784,-26.325630188,-3.356155396,6.921699524,0.019588500,0.164297730,1.111314654
32.278411,-26.523994446,-2.974685669,6.769111633,0.020931274,0.158926636,1.112413287
32.279038,-26.348518372,-2.593215942,6.601264954,0.021053344,0.154776245,1.113267779
32.279665,-26.165412903,-2.341445923,6.372383118,0.020320922,0.153921753,1.115342975
32.280291,-26.058601379,-1.967605591,6.013801575,0.021907836,0.151602417,1.117051959
32.280917,-25.341438293,-1.517471313,5.762031555,0.021297485,0.148794800,1.120836139
32.281544,-25.280403137,-1.143630981,5.502632141,0.022274047,0.142813355,1.121446490
32.282170,-24.677680969,-0.685867310,5.266120911,0.023128539,0.138296753,1.121324420
32.282795,-23.914741516,-0.456985474,5.014350891,0.023616821,0.136953980,1.127305865
32.283421,-23.304389954,-0.075515747,4.815986633,0.023983032,0.134756714,1.129136920
32.284046,-22.282051086,0.092330933,4.327705383,0.026912719,0.132193238,1.134263873
32.284671,-21.488594055,0.351730347,4.152229309,0.026180297,0.129629761,1.136583209
32.285296,-20.641731262,0.893417358,3.816535950,0.030086547,0.129263550,1.140489459
32.285923,-19.871162415,1.251998901,3.641059875,0.026180297,0.129873902,1.142076373
32.286549,-18.993782043,1.534286499,3.198554993,0.024593383,0.125845581,1.144151568
32.287174,-18.131660461,2.152267456,2.641609192,0.022274047,0.125113159,1.146470904
32.287799,-17.193244934,2.487960815,2.496650696,0.017025024,0.123526245,1.150255084
32.288426,-16.315864563,2.808395386,2.000740051,0.009822875,0.120108277,1.147447467
32.289052,-15.224861145,3.151718140,1.649787903,0.003841430,0.117788941,1.145494342
32.289677,-14.133857727,3.517929077,1.642158508,-0.001651734,0.118277222,1.142808795
32.290302,-12.073921204,4.067245483,0.612190247,-0.007877320,0.117788941,1.144273639
32.290927,-12.073921204,4.067245483,0.612190247,-0.007877320,0.117788941,1.144273639
32.291552,-9.876655579,4.738632202,-0.005790710,0.001033813,0.124624878,1.148546100
32.292177,-9.876655579,4.738632202,-0.005790710,0.001033813,0.124624878,1.148546100
32.292802,-7.839607239,5.760971069,-0.249931335,-0.005069703,0.124136597,1.150133014
32.293428,-7.053779602,5.928817749,-0.791618347,-0.017887086,0.117422730,1.148912311
32.294053,-6.077217102,5.997482300,-0.997612000,-0.021793336,0.117178589,1.150377154
32.294680,-5.245613098,6.310287476,-1.501152039,-0.023868531,0.123282105,1.154283404
32.295306,-4.284309387,6.752792358,-1.905509949,-0.015689820,0.126822144,1.154527545
32.295932,-3.117012024,7.324996948,-2.134391785,-0.010929078,0.126211792,1.166612506
32.296558,-2.621101379,7.553878784,-2.264091492,-0.001285523,0.128286988,1.170030475
32.297183,-2.064155579,7.958236694,-2.729484558,0.001766235,0.130362183,1.171861529
32.297809,-1.606391907,8.370223999,-2.912590027,-0.006168336,0.133169800,1.173570514
32.311700,6.312919617,17.189804077,-8.222648621,-0.073429078,0.079458863,1.128038287
32.312456,6.534172058,17.800155640,-8.367607117,-0.076114625,0.068838745,1.125841022
32.313082,7.159782410,17.830673218,-8.665153503,-0.077823609,0.064444214,1.120469928
32.313709,7.587028503,18.204513550,-8.718559265,-0.081119508,0.060660034,1.116441607
32.314334,8.082939148,18.196884155,-8.749076843,-0.084171265,0.054678589,1.114610553
32.314959,8.822990417,18.402877808,-8.985588074,-0.084171265,0.046011597,1.109483600
32.315586,9.196830750,18.669906616,-9.191581726,-0.085025758,0.038077027,1.109117389
32.316212,9.852958679,18.799606323,-9.153434753,-0.088565797,0.031485230,1.104722857
32.316837,10.547233582,18.929306030,-9.077140808,-0.091495484,0.027578980,1.100084186
32.317464,11.256767273,19.066635132,-9.336540222,-0.089420289,0.021719605,1.099229693
32.318090,11.767936707,19.478622437,-9.321281433,-0.091495484,0.016836792,1.097886920
32.318716,12.523246765,19.264999390,-9.283134460,-0.093082398,0.010855347,1.093004107
32.319342,12.958122253,19.348922729,-9.237358093,-0.095645875,0.008169800,1.091783404
32.319968,13.705802917,19.585433960,-9.283134460,-0.094547242,0.001700073,1.087877154
32.320593,14.239860535,19.524398804,-9.138175964,-0.094791383,0.002310425,1.080797076
32.321220,15.010429382,19.623580933,-9.450981140,-0.092349976,-0.003793091,1.076402545
32.321847,15.552116394,19.402328491,-9.527275085,-0.092594117,-0.012215942,1.074815631
32.322474,16.147209167,19.371810913,-9.069511414,-0.092349976,-0.015511841,1.073228717
32.323100,16.688896179,19.570175171,-9.168693542,-0.090518922,-0.017342895,1.069322467
32.323726,17.337394714,19.364181519,-9.069511414,-0.089298218,-0.021127075,1.064439654
32.324353,17.718864441,19.371810913,-8.932182312,-0.088321656,-0.021249145,1.062608600
32.324980,18.344474792,19.120040894,-9.023735046,-0.084659547,-0.023690552,1.056627154
32.325606,19.176078796,19.020858765,-8.833000183,-0.083682984,-0.027963012,1.053941607
32.326232,19.260002136,19.013229370,-8.565971375,-0.082584351,-0.028207153,1.050035357
32.326859,19.954277039,18.685165405,-8.665153503,-0.079288453,-0.032479614,1.042955279
32.327485,20.335746765,18.524948120,-8.504936218,-0.077823609,-0.034310669,1.041246295
32.328110,20.656181335,18.326583862,-8.215019226,-0.074527711,-0.033700317,1.036973834
32.328735,20.900321960,18.257919312,-8.115837097,-0.074039429,-0.036141723,1.032091022
32.329360,21.472526550,17.960372925,-7.925102234,-0.070743531,-0.039559692,1.025865436
32.329986,21.617485046,17.762008667,-7.803031921,-0.064762086,-0.041024536,1.021592975
32.330611,21.701408386,17.327133179,-7.551261902,-0.060367554,-0.040536255,1.018175006
32.331238,22.143913269,17.166915894,-7.612297058,-0.058902711,-0.036752075,1.012925982
32.331865,22.182060242,16.884628296,-7.024833679,-0.053287476,-0.035653442,1.007921100
32.332490,22.243095398,16.594711304,-6.879875183,-0.049259156,-0.036385864,1.004258990
32.333117,22.388053894,16.190353394,-6.620475769,-0.044254273,-0.035287231,0.999498248
32.333744,22.365165710,15.755477905,-6.292411804,-0.036930054,-0.031625122,0.994615436
32.334369,22.182060242,15.168014526,-6.010124207,-0.028385133,-0.022591919,0.992784381
32.334995,22.067619324,14.977279663,-5.643913269,-0.023502320,-0.023934692,0.989976764
32.335621,21.586967468,14.588180542,-5.170890808,-0.015933961,-0.015145630,0.986802936
32.336247,21.396232605,13.916793823,-5.064079285,-0.005313843,-0.012338012,0.982652545
32.336872,20.839286804,13.863388062,-4.827568054,0.001155883,-0.006112427,0.981065631
32.337497,20.259452820,13.016525269,-4.209587097,0.010433227,-0.000253052,0.978624225
32.338123,19.603324890,12.558761597,-3.889152527,0.015926391,0.005118042,0.974229693
32.338748,18.825126648,12.261215210,-3.736564636,0.024715453,0.013052613,0.971300006
32.339374,18.214775085,11.666122437,-3.126213074,0.033260375,0.020254761,0.971788287
32.340009,16.925407410,11.200729370,-2.790519714,0.039608032,0.030142456,0.963365436
32.340635,16.124320984,10.628524780,-2.599784851,0.044979125,0.034659058,0.962999225
32.341262,14.812065125,10.109725952,-2.248832703,0.055965453,0.042593628,0.959947467
32.353918,-25.852607727,-0.281509399,4.922798157,0.043758422,0.214346558,0.978135943
32.354621,-28.118537903,-0.685867310,5.121162415,0.034114867,0.223257691,0.982652545
32.355246,-30.781196594,-1.097854614,5.319526672,0.029842407,0.226065308,0.988511920
32.355871,-32.993721008,-1.425918579,5.464485168,0.028743774,0.231192261,0.991807818
32.356496,-34.939216614,-1.631912231,5.601814270,0.019222289,0.237051636,1.005357623
32.357123,-37.456916809,-1.937088013,5.777290344,0.013973266,0.236319214,1.011705279
32.357749,-39.638923645,-1.975234985,5.929878235,0.006526977,0.242666870,1.016954303
32.358376,-41.523384094,-2.448257446,6.059577942,-0.001163453,0.244986206,1.025255084
32.359007,-43.751167297,-2.661880493,6.196907043,-0.010074586,0.251333863,1.031114459
32.359632,-45.681404114,-2.791580200,5.998542786,-0.016422242,0.251333863,1.039049029
32.360258,-47.588752747,-2.577957153,6.235054016,-0.020450562,0.252676636,1.047716022
32.360885,-49.396919250,-2.913650513,6.433418274,-0.026432008,0.254385620,1.053697467
32.361511,-51.144050598,-2.814468384,6.189277649,-0.033756226,0.253409058,1.060655475
32.362137,-52.624153137,-2.928909302,6.380012512,-0.038761109,0.253286988,1.070543170
32.362764,-54.096626282,-2.822097778,6.273200989,-0.039249390,0.257437378,1.079454303
32.363390,-55.729316711,-2.677139282,6.128242493,-0.042179078,0.252310425,1.087510943
32.364017,-56.988166809,-2.478775024,6.013801575,-0.046085328,0.251333863,1.091905475
32.364643,-58.353828430,-2.288040161,5.815437317,-0.052921265,0.252188355,1.104234576
32.365269,-59.452461243,-1.975234985,5.868843079,-0.054264039,0.249258667,1.113267779
32.365894,-60.474800110,-1.799758911,5.685737610,-0.057559937,0.246573120,1.123033404
32.366519,-61.047004700,-1.509841919,5.441596985,-0.059268922,0.241568238,1.126329303
32.367144,-61.954902649,-0.899490356,5.281379700,-0.061710328,0.239126831,1.133653522
32.367770,-62.633918762,-0.342544556,5.136421204,-0.066593140,0.234976441,1.137803912
32.368395,-62.832283020,-0.075515747,4.754951477,-0.066959351,0.229849488,1.144883990
32.369022,-63.175605774,0.283065796,4.648139954,-0.075015992,0.226553589,1.148424029
32.369648,-63.198493958,0.809494019,4.068305969,-0.073673218,0.221426636,1.153673053
32.370275,-63.396858215,1.381698608,4.060676575,-0.077823609,0.216299683,1.155382037
32.370901,-63.091682434,2.091232300,3.786018372,-0.081241578,0.213614136,1.160508990
32.371528,-62.893318176,2.602401733,3.518989563,-0.082096070,0.209829956,1.156480670
32.372154,-62.519477844,3.105941772,3.145149231,-0.085880250,0.199820191,1.162462115
32.372780,-61.787055969,3.784957886,2.633979797,-0.088687867,0.193716675,1.165513873
32.373407,-61.047004700,4.509750366,2.466133118,-0.085269898,0.188467652,1.167466998
32.374033,-60.367988586,5.142990112,1.916816711,-0.087223023,0.182119995,1.168443561
32.374658,-58.956550598,5.707565308,1.581123352,-0.090763062,0.180533081,1.168077350
32.375283,-58.010505676,6.233993530,1.161506653,-0.091129273,0.172110230,1.168199420
32.375909,-56.469367981,6.851974487,0.795295715,-0.092472047,0.167593628,1.168199420
32.376534,-55.347846985,7.386032104,0.253608704,-0.095523804,0.163321167,1.164659381
32.377159,-53.699897766,7.675949097,-0.288078308,-0.096012086,0.156973511,1.164171100
32.377784,-51.807807922,8.217636108,-0.562736511,-0.096988648,0.152456909,1.159410357
32.378409,-50.205635071,8.934799194,-1.096794128,-0.096988648,0.148428589,1.155626178
32.379034,-48.397468567,9.323898315,-1.524040222,-0.096012086,0.141592652,1.151597857
32.379661,-46.238349915,9.743515015,-2.142021179,-0.099063843,0.138540894,1.142076373
32.380287,-43.987678528,10.254684448,-2.477714539,-0.100162476,0.139151245,1.137315631
32.380913,-41.859077454,10.735336304,-3.027030945,-0.098209351,0.141592652,1.132188678
32.381540,-39.677070618,10.918441772,-3.721305847,-0.097476929,0.134878784,1.130723834
32.382166,-37.479804993,11.689010620,-4.133293152,-0.093570679,0.134390503,1.120591998
32.382792,-35.038398743,11.719528198,-4.720756531,-0.096012086,0.127432495,1.118272662
32.395513,11.096549988,12.963119507,-14.715263367,-0.105777711,0.116568238,1.011216998
32.396266,12.813163757,12.520614624,-14.898368835,-0.109439820,0.117788941,1.010240436
32.396893,14.270378113,12.429061890,-15.241691589,-0.110660523,0.111807495,1.004747272
32.397519,15.956474304,11.925521851,-15.783378601,-0.111515015,0.113028198,1.003282428
32.398146,17.505241394,11.772933960,-16.294548035,-0.116153687,0.111807495,0.997911334
32.398771,18.870903015,11.170211792,-16.752311707,-0.115055054,0.112417847,0.993516803
32.399398,20.206047058,11.116806030,-16.882011414,-0.114322633,0.108633667,0.992540240
32.400024,21.464897156,10.964218140,-17.156669617,-0.117008179,0.103018433,0.989732623
32.400651,22.716117859,10.651412964,-17.751762390,-0.115543336,0.105703980,0.988633990
32.401277,23.608757019,10.269943237,-17.850944519,-0.117496461,0.103628784,0.985948443
32.401903,25.134635925,10.025802612,-18.301078796,-0.118839234,0.102408081,0.983018756
32.402528,25.821281433,9.751144409,-18.751213074,-0.116031617,0.097769409,0.980577350
32.403154,26.813102722,9.430709839,-18.865653992,-0.118228883,0.100943238,0.975816607
32.403779,27.423454285,9.278121948,-19.170829773,-0.120304078,0.097891480,0.975450397
32.404405,28.308464050,9.224716187,-19.201347351,-0.119937867,0.092276245,0.974595904
32.405030,29.002738953,8.980575562,-19.414970398,-0.121524781,0.089956909,0.964952350
32.405656,29.613090515,8.766952515,-19.544670105,-0.123477906,0.087271363,0.966050982
32.406283,30.177665710,8.538070679,-19.910881042,-0.128116578,0.082510620,0.961290240
32.406909,30.719352722,8.309188843,-19.872734070,-0.126651734,0.080435425,0.956529498
32.407535,30.986381531,8.164230347,-19.979545593,-0.128726929,0.078726441,0.957261920
32.408161,31.520439148,7.912460327,-20.208427429,-0.129337281,0.073355347,0.952012897
32.408788,31.901908875,7.752243042,-20.208427429,-0.127994508,0.072134644,0.952745318
32.409414,32.039237976,7.454696655,-20.467826843,-0.128726929,0.067251831,0.949327350
32.410041,32.283378601,7.378402710,-20.238945007,-0.131900758,0.064200073,0.943345904
32.411777,32.435966492,6.645980835,-20.101615906,-0.136905640,0.055411011,0.939073443
32.412402,32.497001648,6.607833862,-20.376274109,-0.138980836,0.053457886,0.939317584
32.413027,32.573295593,6.554428101,-20.101615906,-0.141422242,0.048575073,0.938829303
32.413652,32.321525574,6.089035034,-20.223686218,-0.141666383,0.047720581,0.935533404
32.414279,32.092643738,5.936447144,-19.994804382,-0.142520875,0.045889527,0.929674029
32.414905,31.947685242,5.585494995,-19.743034363,-0.143741578,0.044058472,0.926500201
32.415532,31.627250671,5.402389526,-19.979545593,-0.145206422,0.041617066,0.922716022
32.416158,31.581474304,5.120101929,-19.521781921,-0.144596070,0.035635620,0.917222857
32.416784,31.268669128,4.708114624,-19.544670105,-0.141422242,0.034292847,0.914659381
32.417410,30.604911804,4.410568237,-19.575187683,-0.141788453,0.037100464,0.911607623
32.418036,30.368400574,3.952804565,-19.308158875,-0.137515992,0.028921753,0.910264850
32.418661,30.162406921,3.609481812,-19.277641296,-0.134830445,0.027212769,0.905259967
32.419288,29.666496277,3.266159058,-19.132682800,-0.132633179,0.027090698,0.905015826
32.419914,29.346061707,2.709213257,-18.919059753,-0.128971070,0.025259644,0.901841998
32.420541,28.888298035,2.457443237,-18.888542175,-0.124698609,0.023672730,0.894029498
32.421167,28.178764343,2.022567749,-18.446037292,-0.123477906,0.022207886,0.889634967
32.421792,27.881217957,1.641098022,-18.346855164,-0.117862672,0.024283081,0.888170123
32.422419,27.347160339,1.114669800,-18.171379089,-0.113956422,0.021597534,0.878404498
32.423044,26.935173035,0.908676147,-17.866203308,-0.107364625,0.022452027,0.873155475
32.423670,26.385856628,-0.144180298,-17.728874207,-0.100650758,0.023306519,0.871934772
32.424297,25.523735046,-0.182327271,-17.629692078,-0.096256226,0.022696167,0.865342975
32.424923,25.233818054,-0.693496704,-17.202445984,-0.090885133,0.022329956,0.864000201
32.425550,24.470878601,-1.341995239,-17.126152039,-0.090152711,0.027823120,0.856309772
32.426175,23.860527039,-1.715835571,-16.958305359,-0.084659547,0.026480347,0.847764850
32.438838,2.078605652,-18.065628052,-12.647697449,-0.040836304,0.105826050,0.794664264
32.439550,0.682426453,-19.042190552,-12.777397156,-0.039615601,0.113150269,0.798326373
32.440176,-0.942634583,-19.934829712,-12.563774109,-0.038761109,0.115957886,0.798814654
32.440803,-2.270149231,-20.728286743,-12.380668640,-0.032535523,0.123404175,0.801256061
32.441430,-4.017280579,-21.651443481,-12.350151062,-0.029361695,0.128042847,0.804307818
32.442056,-5.489753723,-22.566970825,-12.136528015,-0.027286500,0.129263550,0.806627154
32.442682,-7.282661438,-23.665603638,-12.197563171,-0.024112672,0.133658081,0.810045123
32.443309,-8.854316711,-24.298843384,-12.029716492,-0.026554078,0.135977417,0.817247272
32.443936,-10.410713196,-25.138076782,-11.953422546,-0.022281617,0.140860230,0.823350787
32.444562,-11.989997864,-26.244338989,-11.854240417,-0.016178101,0.143423706,0.824205279
32.445187,-13.569282532,-26.923355103,-11.968681335,-0.014102906,0.144522339,0.830430865
32.445814,-15.125679016,-27.754959106,-11.785575867,-0.014347047,0.143789917,0.838975787
32.446440,-16.659187317,-28.731521606,-11.755058289,-0.007511109,0.146841675,0.839952350
32.447066,-18.436836243,-29.296096802,-11.770317078,-0.004703492,0.146719605,0.846666217
32.447693,-19.939826965,-30.028518677,-11.747428894,-0.000675172,0.148062378,0.851549029
32.448318,-21.557258606,-30.867752075,-11.938163757,0.001522094,0.149038941,0.856309772
32.448943,-22.785591125,-31.676467896,-11.968681335,0.004451782,0.145254761,0.863756061
32.449570,-24.242805481,-32.241043091,-11.869499207,0.009334594,0.145620972,0.869371295
32.450196,-25.349067688,-32.706436157,-11.831352234,0.010555297,0.146353394,0.874986529
32.450822,-26.684211731,-33.415969849,-12.022087097,0.014949828,0.143789917,0.882310748
32.451447,-27.721809387,-34.064468384,-12.037345886,0.018001586,0.141348511,0.887437701
32.452073,-28.911994934,-34.331497192,-12.189933777,0.017147094,0.136587769,0.891954303
32.452700,-30.102180481,-34.720596313,-12.090751648,0.022640258,0.135122925,0.899522662
32.453326,-30.758308411,-35.414871216,-12.533256531,0.024715453,0.130118042,0.905259967
32.453952,-31.277107239,-35.727676392,-12.556144714,0.024349242,0.126578003,0.912217975
32.454577,-32.101081848,-35.880264282,-12.517997742,0.030452758,0.122305542,0.917589068
32.455202,-32.658027649,-36.490615845,-12.708732605,0.026668578,0.115591675,0.921861529
32.455828,-33.039497375,-36.742385864,-12.891838074,0.028865844,0.116934448,0.929185748
32.456454,-33.482002258,-36.994155884,-13.158866882,0.034481078,0.110220581,0.938463092
32.457079,-33.619331360,-37.306961060,-13.212272644,0.040340453,0.106436402,0.942613482
32.457706,-34.046577454,-37.535842896,-13.395378113,0.038143188,0.100210816,0.951524615
32.458331,-33.932136536,-37.810501099,-13.433525085,0.041072875,0.095938355,0.953355670
32.476253,-13.729499817,-36.078628540,-21.192619324,0.051692992,0.012198120,1.082750201
32.476879,-13.271736145,-35.750564575,-21.520683289,0.051082641,0.009512573,1.086412311
32.477506,-12.463020325,-35.498794556,-21.642753601,0.047054321,0.007559448,1.087266803
32.478133,-11.593269348,-35.094436646,-21.886894226,0.046810180,0.004751831,1.090440631
32.478758,-11.303352356,-34.644302368,-22.108146667,0.042659789,0.004995972,1.094957232
32.479385,-10.593818665,-34.636672974,-22.199699402,0.041072875,0.004385620,1.096055865
32.480010,-9.899543762,-34.438308716,-22.314140320,0.040096313,0.001089722,1.098253131
32.480636,-9.579109192,-33.805068970,-22.504875183,0.039608032,-0.001229614,1.103380084
32.481262,-9.136604309,-33.606704712,-22.657463074,0.035457641,-0.001351684,1.105089068
32.481888,-8.884834290,-33.118423462,-22.893974304,0.032405883,-0.004159302,1.105699420
32.482513,-8.259223938,-33.049758911,-23.099967957,0.025814086,-0.008187622,1.109361529
32.483138,-8.022712708,-32.500442505,-23.008415222,0.021053344,-0.012215942,1.108873248
32.483763,-7.557319641,-32.073196411,-23.214408875,0.017757446,-0.012093872,1.113267779
32.484390,-7.366584778,-31.943496704,-23.336479187,0.010921508,-0.015755981,1.116441607
32.497147,-1.926826477,-24.748977661,-23.580619812,-0.022403687,-0.123421997,1.143663287
32.497922,-1.446174622,-24.161514282,-23.458549500,-0.024112672,-0.125985473,1.135118365
32.498548,-1.179145813,-24.039443970,-23.397514343,-0.029849976,-0.133065552,1.138780475
32.499175,-0.790046692,-23.566421509,-23.412773132,-0.034854859,-0.138314575,1.137681842
32.499801,-0.309394836,-22.879776001,-23.061820984,-0.034976929,-0.142709106,1.137437701
32.500427,0.194145203,-22.521194458,-23.099967957,-0.040103883,-0.147225708,1.139024615
32.501052,0.552726746,-21.964248657,-22.817680359,-0.041324586,-0.151986450,1.139146686
32.501679,1.308036804,-21.620925903,-22.497245789,-0.043521851,-0.159188598,1.137681842
32.502305,1.536918640,-21.140274048,-22.497245789,-0.045597047,-0.164437622,1.140977740
32.502931,2.040458679,-20.941909790,-22.428581238,-0.050357789,-0.170419067,1.141221881
32.503557,2.475334167,-20.255264282,-22.268363953,-0.051822633,-0.174935669,1.138780475
32.504183,2.933097839,-20.156082153,-22.008964539,-0.053043336,-0.179574341,1.140367389
32.504808,3.680778503,-19.560989380,-21.589347839,-0.060367554,-0.185311645,1.138170123
32.505435,4.214836121,-19.225296021,-21.650382996,-0.059146851,-0.191415161,1.134752154
32.506061,4.756523132,-18.897232056,-21.368095398,-0.064029664,-0.192513794,1.134019732
32.506687,5.275321960,-18.523391724,-21.162101746,-0.062564820,-0.198129028,1.136339068
32.507313,5.885673523,-18.012222290,-20.986625671,-0.064029664,-0.203378052,1.134385943
32.507940,6.465507507,-17.592605591,-20.681449890,-0.069644898,-0.203988403,1.129014850
32.508566,7.068229675,-17.241653442,-20.475456238,-0.070377320,-0.210091919,1.128648639
32.509192,7.686210632,-16.959365845,-20.345756531,-0.072452515,-0.210946411,1.127183795
32.509817,8.311820984,-16.425308228,-20.093986511,-0.073184937,-0.213387817,1.126695514
32.510442,8.800102234,-16.219314575,-19.895622253,-0.076847047,-0.216927856,1.129381061
32.512216,10.463310242,-15.074905396,-18.980094910,-0.080265015,-0.224984497,1.123033404
32.512842,10.844779968,-14.609512329,-18.636772156,-0.080020875,-0.226571411,1.122667193
32.513467,11.531425476,-14.151748657,-18.377372742,-0.079654664,-0.225594848,1.124254107
32.514093,12.218070984,-14.006790161,-18.064567566,-0.083194703,-0.231454223,1.126207232
32.514718,12.614799500,-13.724502563,-18.018791199,-0.085391968,-0.231210083,1.123643756
32.515343,12.996269226,-12.953933716,-17.728874207,-0.085147828,-0.234628052,1.120225787
32.515969,13.774467468,-12.862380981,-17.171928406,-0.085147828,-0.237191528,1.118883014
32.516594,13.797355652,-12.198623657,-16.904899597,-0.085758179,-0.237435669,1.118760943
32.517220,14.194084167,-11.809524536,-16.790458679,-0.086368531,-0.239388794,1.114976764
32.517846,14.781547546,-11.702713013,-16.218254089,-0.091739625,-0.241463989,1.117784381
32.518471,14.819694519,-11.267837524,-15.897819519,-0.090763062,-0.239755005,1.113267779
32.519097,15.391899109,-10.855850220,-15.607902527,-0.093326539,-0.237435669,1.109727740
32.519722,15.399528503,-10.512527466,-15.272209167,-0.091251343,-0.238778442,1.108995318
32.520347,15.742851257,-10.253128052,-14.928886414,-0.095645875,-0.239022583,1.104966998
32.520973,15.803886414,-9.680923462,-14.532157898,-0.095523804,-0.241708130,1.103990436
32.521599,16.009880066,-9.329971313,-14.097282410,-0.098087281,-0.237069458,1.100694537
32.522225,16.055656433,-9.047683716,-13.914176941,-0.098819703,-0.237557739,1.096666217
32.522851,16.208244324,-8.605178833,-13.380119324,-0.097110718,-0.234872192,1.095811725
32.523477,16.269279480,-8.444961548,-13.235160828,-0.099796265,-0.234505981,1.093126178
32.524102,16.139579773,-8.032974243,-12.823173523,-0.100528687,-0.234750122,1.090684772
32.524729,15.979362488,-7.857498169,-12.395927429,-0.100284547,-0.233651489,1.088975787
32.525355,16.063285828,-7.407363892,-12.113639832,-0.103336304,-0.231820434,1.081529498
32.525982,15.750480652,-7.262405396,-11.617729187,-0.101627320,-0.234383911,1.081773639
32.526609,15.468193054,-6.995376587,-11.022636414,-0.100528687,-0.229867309,1.077623248
32.527236,15.170646667,-6.629165649,-10.854789734,-0.101261109,-0.229623169,1.074327350
32.539900,-0.599311829,-5.736526489,-0.715324402,-0.096012086,-0.163827270,0.992906451
32.540583,-1.858161926,-5.957778931,-0.372001648,-0.094547242,-0.159554809,0.985216022
32.541210,-2.888130188,-6.072219849,-0.112602234,-0.096622437,-0.157113403,0.983384967
32.541835,-3.895210266,-6.476577759,0.497749329,-0.093448609,-0.154305786,0.981798053
32.542461,-4.932807922,-6.659683228,0.932624817,-0.094303101,-0.150643677,0.975938678
32.543088,-6.115364075,-6.751235962,1.420906067,-0.096012086,-0.149300903,0.977281451
32.543714,-7.069038391,-7.147964478,1.932075500,-0.094669312,-0.144418091,0.970201373
32.544340,-7.801460266,-7.300552368,2.397468567,-0.096012086,-0.143929809,0.968980670
32.544965,-8.968757629,-7.567581177,2.557685852,-0.096988648,-0.142709106,0.966661334
32.545590,-9.685920715,-7.994827271,2.824714661,-0.097965211,-0.141976684,0.963609576
32.546216,-10.631965637,-8.284744263,3.374031067,-0.099674195,-0.140267700,0.961412311
32.546842,-11.242317200,-8.582290649,3.641059875,-0.102725953,-0.140389770,0.960435748
32.547468,-12.195991516,-9.017166138,4.022529602,-0.098575562,-0.139046997,0.962510943
32.548094,-12.554573059,-9.169754028,4.609992981,-0.100040406,-0.138314575,0.962266803
32.548720,-13.325141907,-9.452041626,4.671028137,-0.098819703,-0.136605591,0.964341998
32.549345,-13.866828918,-9.879287720,5.021980286,-0.098941773,-0.135018677,0.963365436
32.549971,-14.141487122,-9.986099243,5.632331848,-0.100162476,-0.132577270,0.967271686
32.550596,-14.332221985,-10.321792603,5.533149719,-0.098697633,-0.134652466,0.966905475
32.551221,-14.843391418,-10.573562622,6.212165833,-0.097965211,-0.132943481,0.967515826
32.551847,-14.774726868,-10.970291138,6.257942200,-0.096012086,-0.130257934,0.973497272
32.552474,-15.163825989,-11.130508423,6.463935852,-0.095767945,-0.127572387,0.973497272
32.553099,-15.140937805,-11.466201782,7.005622864,-0.093082398,-0.129159302,0.974717975
32.553724,-15.179084778,-11.656936646,6.921699524,-0.088443726,-0.125619262,0.979112506
32.554349,-15.163825989,-11.931594849,7.127693176,-0.091495484,-0.125741333,0.981187701
32.554975,-15.003608704,-12.068923950,7.608345032,-0.088565797,-0.121957153,0.981187701
32.555600,-15.163825989,-12.290176392,7.715156555,-0.088809937,-0.122445434,0.984971881
32.556226,-14.835762024,-12.450393677,7.898262024,-0.088565797,-0.121346802,0.989732623
32.556852,-14.652656555,-12.664016724,7.921150208,-0.084171265,-0.122933716,0.990220904
32.557477,-14.011787415,-12.877639771,8.119514465,-0.084659547,-0.119149536,0.993883014
32.558103,-13.958381653,-12.763198853,8.356025696,-0.084415406,-0.118050903,0.997178912
32.558728,-13.576911926,-12.908157349,8.294990540,-0.082584351,-0.115487427,1.000718951
32.559354,-13.019966125,-12.877639771,8.432319641,-0.080387086,-0.114144653,1.001329303
32.559980,-12.394355774,-12.984451294,8.554389954,-0.082218140,-0.110604614,1.005235553
32.560605,-12.104438782,-12.976821899,8.531501770,-0.080875367,-0.109383911,1.009019732
32.561230,-11.661933899,-13.060745239,8.798530579,-0.079898804,-0.110116333,1.010972857
32.561855,-10.670112610,-13.014968872,8.928230286,-0.081119508,-0.107674927,1.016832232
32.562481,-10.197090149,-12.763198853,8.798530579,-0.081119508,-0.101083130,1.018175006
32.563107,-9.807991028,-12.931045532,8.851936340,-0.082706422,-0.097665161,1.021959186
32.563733,-8.892463684,-12.870010376,8.882453918,-0.084171265,-0.098885864,1.026109576
32.564360,-8.533882141,-12.610610962,8.699348450,-0.080142945,-0.095956177,1.028184772
32.564986,-7.610725403,-12.595352173,8.706977844,-0.080020875,-0.094125122,1.033311725
32.565611,-6.946968079,-12.419876099,8.775642395,-0.078678101,-0.091073364,1.037217975
32.566236,-6.252693176,-12.480911255,8.737495422,-0.077091187,-0.086922973,1.035997272
32.566861,-5.688117981,-12.221511841,8.638313293,-0.076724976,-0.083627075,1.040880084
32.567486,-4.879402161,-11.733230591,8.775642395,-0.073795289,-0.078866333,1.043199420
32.568112,-4.139350891,-11.847671509,8.668830872,-0.074649781,-0.079842895,1.045030475
32.568739,-3.437446594,-11.618789673,8.615425110,-0.073184937,-0.078988403,1.045030475
32.581432,7.716728210,-5.675491333,7.158210754,-0.056827515,-0.012215942,1.054796100
32.582181,8.143974304,-4.958328247,7.066658020,-0.057193726,-0.006722778,1.051378131
32.582806,8.143974304,-4.958328247,7.066658020,-0.057193726,-0.006722778,1.051378131
32.583432,8.464408875,-4.523452759,6.723335266,-0.058414429,-0.000130981,1.051622272
32.584057,8.464408875,-4.523452759,6.723335266,-0.058414429,-0.000130981,1.051622272
32.584682,8.624626160,-3.798660278,6.914070129,-0.054752320,0.001578003,1.048326373
32.585308,8.815361023,-3.806289673,6.883552551,-0.058048218,0.009512573,1.046983600
32.585933,8.967948914,-3.432449341,6.631782532,-0.055118531,0.012320191,1.045396686
32.586558,8.746696472,-3.165420532,6.555488586,-0.057193726,0.013662964,1.046495318
32.587183,8.739067078,-2.997573853,6.486824036,-0.055728883,0.014151245,1.044908404
32.587809,8.525444031,-2.829727173,6.349494934,-0.052188843,0.019888550,1.043809772
32.588434,8.433891296,-2.379592896,6.532600403,-0.054630250,0.020498902,1.041490436
32.589060,8.739067078,-1.998123169,6.364753723,-0.054386109,0.021719605,1.045518756
32.589685,8.250785828,-1.761611938,6.410530090,-0.055362672,0.023794800,1.041246295
32.590311,8.121086121,-1.555618286,6.196907043,-0.053653687,0.029287964,1.038926959
32.590936,8.037162781,-1.258071899,6.112983704,-0.054264039,0.028799683,1.038194537
32.591561,7.686210632,-0.968154907,5.990913391,-0.052677125,0.030874878,1.036729693
32.592187,7.678581238,-0.685867310,6.227424622,-0.054630250,0.031607300,1.034654498
32.592814,7.022453308,-0.609573364,6.006172180,-0.052921265,0.033682495,1.037462115
32.593439,6.915641785,-0.342544556,5.968025208,-0.051944703,0.035269409,1.034288287
32.594064,6.541801453,-0.189956665,5.914619446,-0.051578492,0.034536988,1.034654498
32.594689,6.305290222,0.160995483,5.716255188,-0.051700562,0.036856323,1.035631061
32.595314,6.053520203,0.489059448,5.838325500,-0.050113648,0.032583863,1.035142779
32.595941,5.839897156,0.580612183,5.800178528,-0.049015015,0.033682495,1.034654498
32.596567,5.565238953,0.817123413,5.678108215,-0.044620484,0.036123902,1.037340045
32.597193,5.282951355,1.091781616,5.662849426,-0.049381226,0.034292847,1.028795123
32.597820,5.031181335,1.114669800,5.571296692,-0.048892945,0.032095581,1.028673053
32.598445,4.779411316,1.206222534,5.327156067,-0.045963258,0.037588745,1.030870318
32.599071,4.520011902,1.763168335,5.433967590,-0.046939820,0.034048706,1.025133014
32.599698,4.100395203,1.755538940,5.464485168,-0.049503297,0.033438355,1.028184772
32.600323,3.985954285,2.243820190,5.357673645,-0.046939820,0.030752808,1.023179889
32.600948,3.879142761,2.236190796,5.380561829,-0.049869508,0.031485230,1.024522662
32.601574,3.749443054,2.556625366,5.289009094,-0.046817750,0.033194214,1.023668170
32.602200,3.383232117,2.770248413,5.243232727,-0.049503297,0.030264527,1.022081256
32.602826,3.284049988,2.999130249,5.289009094,-0.050724000,0.030996948,1.018663287
32.603451,2.978874207,3.121200562,5.052497864,-0.049869508,0.032950073,1.018663287
32.604076,3.093315125,3.533187866,4.938056946,-0.048160523,0.030630738,1.015733600
32.604701,3.001762390,3.617111206,5.243232727,-0.053409547,0.027823120,1.015489459
32.605328,2.749992371,3.723922729,4.800727844,-0.056461304,0.028311402,1.013902545
32.605955,2.933097839,4.036727905,4.991462708,-0.052555054,0.025381714,1.015733600
32.606582,2.902580261,4.196945190,4.663398743,-0.054630250,0.025747925,1.013170123
32.607207,2.719474792,4.418197632,4.831245422,-0.055118531,0.024038941,1.009874225
32.607833,2.803398132,4.616561890,4.663398743,-0.054630250,0.020865113,1.010118365
32.608458,2.673698425,4.929367065,4.678657532,-0.053165406,0.020620972,1.010972857
32.609084,2.978874207,4.982772827,4.640510559,-0.053653687,0.017935425,1.010362506
32.609709,2.856803894,5.135360718,4.777839661,-0.051456422,0.015982300,1.006456256
32.610336,2.757621765,5.333724976,4.602363586,-0.051822633,0.013662964,1.006578326
32.610961,2.803398132,5.532089233,4.442146301,-0.051578492,0.014273316,1.011949420
32.612702,2.742362976,5.722824097,4.541328430,-0.052188843,0.010367066,1.004625201
32.625341,1.933647156,6.707015991,4.983833313,-0.059879273,0.037954956,0.957261920
32.626048,1.514030457,6.501022339,5.182197571,-0.061710328,0.039175659,0.956895709
32.626673,1.376701355,6.417098999,5.166938782,-0.058292359,0.041128784,0.955919147
32.627298,1.163078308,6.134811401,5.128791809,-0.059513062,0.043203980,0.955186725
32.627923,0.903678894,6.089035034,5.235603333,-0.053897828,0.042349488,0.954332232
32.628549,0.590873718,5.936447144,5.250862122,-0.054264039,0.043692261,0.953599811
32.629174,0.247550964,5.730453491,5.090644836,-0.057437867,0.048208863,0.953966022
32.629799,0.026298523,5.608383179,5.289009094,-0.054264039,0.048453003,0.953477740
32.630426,-0.271247864,5.356613159,5.304267883,-0.054141968,0.049063355,0.949205279
32.631053,-0.385688782,5.394760132,5.334785461,-0.054508179,0.050161988,0.950059772
32.631679,-0.835823059,5.074325562,5.273750305,-0.052921265,0.050894409,0.950548053
32.632305,-0.957893372,5.036178589,5.113533020,-0.051456422,0.055044800,0.954454303
32.632931,-1.133369446,5.028549194,5.182197571,-0.054996461,0.050650269,0.954088092
32.633558,-1.148628235,4.914108276,5.227973938,-0.053531617,0.054190308,0.950425982
32.634185,-1.232551575,4.685226440,5.235603333,-0.052799195,0.055044800,0.951036334
32.634810,-1.377510071,4.639450073,5.365303040,-0.052188843,0.056753784,0.951646686
32.635437,-1.354621887,4.578414917,5.128791809,-0.055728883,0.058828980,0.952989459
32.636062,-1.728462219,4.448715210,5.067756653,-0.051212281,0.059561402,0.954088092
32.636689,-1.736091614,4.441085815,5.197456360,-0.052921265,0.063833863,0.954820514
32.637316,-2.094673157,4.532638550,5.098274231,-0.056705445,0.064200073,0.954332232
32.637941,-1.911567688,4.029098511,5.029609680,-0.053409547,0.063589722,0.959581256
32.638566,-2.102302551,4.074874878,5.166938782,-0.054264039,0.067862183,0.957628131
32.639191,-2.094673157,3.853622437,5.044868469,-0.055362672,0.068472534,0.960191607
32.639816,-2.224372864,3.777328491,4.960945129,-0.055484742,0.069204956,0.965928912
32.640442,-2.323554993,3.769699097,4.999092102,-0.059146851,0.067618042,0.967882037
32.641067,-2.323554993,3.937545776,4.892280579,-0.056827515,0.067984253,0.967027545
32.641693,-2.407478333,3.533187866,4.678657532,-0.052432984,0.067618042,0.969468951
32.642319,-2.285408020,3.235641479,4.831245422,-0.054141968,0.069327027,0.969102740
32.642945,-2.338813782,3.243270874,4.762580872,-0.055606812,0.065664917,0.976549029
32.643572,-2.270149231,3.418746948,4.602363586,-0.051822633,0.065420777,0.979112506
32.644198,-2.216743469,3.235641479,4.617622375,-0.054386109,0.063955933,0.979234576
32.644824,-2.148078918,3.266159058,4.518440247,-0.054874390,0.063833863,0.984117389
32.645451,-1.926826477,3.075424194,4.587104797,-0.055118531,0.064444214,0.985460162
32.646076,-2.026008606,3.342453003,4.472663879,-0.052921265,0.065664917,0.985582232
32.646702,-1.827644348,3.113571167,4.396369934,-0.053531617,0.064322144,0.989610553
32.647327,-1.781867981,3.456893921,4.381111145,-0.055484742,0.065909058,0.993638873
32.647952,-1.537727356,3.426376343,4.213264465,-0.055728883,0.065298706,0.994249225
32.648577,-1.339363098,3.571334839,4.312446594,-0.055606812,0.065542847,0.998277545
32.649203,-1.240180969,3.617111206,4.136970520,-0.058902711,0.068716675,1.000352740
32.649829,-0.706123352,3.723922729,3.862312317,-0.057315797,0.067007691,1.002305865
32.650455,-0.484870911,3.792587280,3.923347473,-0.057559937,0.068350464,1.004503131
32.651081,-0.446723938,4.097763062,3.969123840,-0.059146851,0.065664917,1.007676959
32.651707,-0.378059387,4.227462769,3.808906555,-0.057926148,0.065909058,1.007188678
32.652334,0.155998230,4.387680054,3.625801086,-0.058780640,0.070425659,1.014512897
32.653142,0.117851257,4.647079468,3.503730774,-0.058170289,0.069571167,1.018785357
32.653769,0.278068542,4.593673706,3.358772278,-0.060001343,0.068350464,1.017442584
32.654395,0.911308289,4.814926147,3.312995911,-0.056461304,0.069327027,1.019761920
32.655020,0.827384949,5.066696167,3.221443176,-0.057071656,0.070181519,1.024156451
32.655645,1.277519226,5.448165894,3.251960754,-0.054264039,0.071280152,1.025010943
32.668338,2.025199890,13.985458374,1.054695129,-0.041690797,0.093863159,1.059312701
32.669094,2.177787781,14.427963257,1.108100891,-0.041202515,0.098745972,1.056627154
32.669719,1.742912292,14.931503296,0.871589661,-0.044742554,0.096914917,1.056383014
32.670346,1.773429871,15.282455444,0.787666321,-0.043399781,0.097525269,1.053087115
32.670971,1.590324402,15.694442749,0.833442688,-0.042179078,0.097159058,1.053453326
32.671596,1.567436218,16.419235229,0.635078430,-0.045108765,0.097525269,1.054918170
32.672223,1.300407410,16.777816772,0.451972961,-0.045841187,0.098135620,1.049180865
32.672848,1.376701355,17.388168335,0.322273254,-0.045597047,0.097647339,1.049180865
32.673473,1.071525574,17.624679565,0.360420227,-0.043399781,0.095083863,1.044298053
32.674100,1.124931335,18.341842651,0.055244446,-0.047550172,0.095450073,1.042955279
32.674727,1.063896179,18.853012085,0.055244446,-0.048038453,0.096060425,1.043443561
32.675354,0.903678894,19.295516968,0.093391418,-0.048282593,0.094717652,1.039415240
32.675979,0.827384949,19.318405151,-0.219413757,-0.046451539,0.096060425,1.034898639
32.676604,0.766349792,19.928756714,-0.333854675,-0.049015015,0.094595581,1.032213092
32.677231,0.529838562,20.569625854,-0.379631042,-0.051212281,0.092398316,1.030748248
32.677857,0.674797058,20.714584351,-0.600883484,-0.049381226,0.096060425,1.028062701
32.678482,0.529838562,21.065536499,-0.669548035,-0.052066773,0.088980347,1.025499225
32.679107,0.499320984,21.401229858,-0.806877136,-0.050601929,0.089834839,1.025255084
32.679733,0.476432800,21.660629272,-0.715324402,-0.052677125,0.088492066,1.019273639
32.680360,0.255180359,21.904769897,-1.073905945,-0.051700562,0.088980347,1.016588092
32.680985,0.453544617,22.332015991,-0.936576843,-0.054508179,0.084219605,1.012437701
32.681610,0.285697937,22.560897827,-1.272270203,-0.055728883,0.081534058,1.012803912
32.682236,0.407768250,22.797409058,-1.386711121,-0.051822633,0.079825073,1.011705279
32.682862,0.361991882,23.163619995,-1.440116882,-0.051090211,0.079580933,1.010972857
32.683489,0.392509460,23.476425171,-1.592704773,-0.049259156,0.076895386,1.006456256
32.684116,0.369621277,23.667160034,-1.630851746,-0.050846070,0.071646363,1.003892779
32.684743,0.583244324,23.766342163,-1.890251160,-0.052066773,0.070547730,1.001329303
32.685369,0.636650085,24.056259155,-2.012321472,-0.052432984,0.071158081,1.001451373
32.685995,0.720573425,24.231735229,-2.126762390,-0.052677125,0.067129761,0.994127154
32.686621,0.735832214,24.445358276,-2.218315125,-0.049991578,0.061758667,0.989732623
32.687247,0.979972839,24.880233765,-2.286979675,-0.052799195,0.066031128,0.988023639
32.687872,1.269889832,24.910751343,-2.164909363,-0.053165406,0.061148316,0.987291217
32.688499,1.445365906,25.337997437,-2.523490906,-0.050968140,0.059195191,0.983873248
32.689125,1.536918640,25.444808960,-2.500602722,-0.051944703,0.055044800,0.979844928
32.689752,1.765800476,25.597396851,-2.813407898,-0.054141968,0.050284058,0.976426959
32.690378,2.048088074,25.963607788,-2.889701843,-0.056095093,0.048575073,0.972642779
32.691008,2.078605652,25.917831421,-2.683708191,-0.058536500,0.048208863,0.973131061
32.691633,2.238822937,26.055160522,-2.973625183,-0.059390992,0.046133667,0.971300006
32.692260,2.437187195,26.345077515,-3.187248230,-0.060855836,0.041494995,0.961534381
32.692885,2.818656921,26.413742065,-3.156730652,-0.061588258,0.036368042,0.964708209
32.693510,3.093315125,26.551071167,-3.271171570,-0.063663453,0.036856323,0.960435748
32.694136,3.314567566,26.535812378,-3.217765808,-0.067691773,0.035635620,0.955308795
32.694762,3.741813660,26.711288452,-3.385612488,-0.067691773,0.031241089,0.954698443
32.695387,4.085136414,26.718917847,-3.248283386,-0.069034547,0.025869995,0.953966022
32.696013,4.214836121,26.535812378,-3.545829773,-0.071353883,0.024527222,0.946885943
32.696639,4.703117371,26.787582397,-3.797599792,-0.073673218,0.020865113,0.945299029
32.697265,4.886222839,26.634994507,-3.835746765,-0.074039429,0.017080933,0.943101764
32.697891,5.321098328,26.902023315,-3.820487976,-0.077823609,0.014029175,0.938707232
32.729092,11.096549988,11.742416382,-1.371452332,-0.067081422,0.001700073,0.852281451
32.729831,10.669303894,11.376205444,-1.356193542,-0.073184937,0.003775269,0.849962115
32.730456,10.356498718,10.895553589,-0.928947449,-0.074039429,0.007193238,0.850328326
32.731082,10.066581726,10.445419312,-0.982353210,-0.073429078,0.009756714,0.849229693
32.731707,9.456230164,9.835067749,-0.967094421,-0.073673218,0.013418823,0.853258014
32.732333,8.983207703,9.667221069,-0.692436218,-0.070987672,0.018057495,0.853013873
32.732960,8.662773132,9.217086792,-0.639030457,-0.071231812,0.017569214,0.857408404
32.733585,8.105827332,8.942428589,-0.616142273,-0.072696656,0.018911988,0.856431842
32.734210,7.617546082,8.469406128,-0.372001648,-0.073795289,0.023184448,0.859483600
32.734835,7.030082703,8.042160034,-0.333854675,-0.072208375,0.024405152,0.865465045
32.735460,6.450248718,7.729354858,-0.417778015,-0.071231812,0.029287964,0.867906451
32.736085,5.847526550,7.202926636,-0.295707703,-0.076114625,0.033560425,0.869615436
32.736711,5.221916199,7.004562378,-0.112602234,-0.074283570,0.032461792,0.874864459
32.737337,4.359794617,6.722274780,-0.211784363,-0.075992554,0.033804566,0.880479693
32.737963,4.054618835,6.401840210,0.024726868,-0.074893922,0.033438355,0.882676959
32.738589,3.078056335,6.058517456,-0.028678894,-0.076236695,0.037466675,0.891954303
32.739216,2.208305359,5.837265015,0.276496887,-0.073307008,0.040884644,0.894761920
32.739842,1.155448914,5.524459839,0.291755676,-0.074161500,0.042471558,0.896837115
32.740468,0.636650085,5.272689819,0.307014465,-0.075382203,0.048453003,0.903917193
32.741094,-0.500129700,4.982772827,0.528266907,-0.074893922,0.047476441,0.909776568
32.741720,-1.385139465,4.837814331,0.627449036,-0.072208375,0.050772339,0.917100787
32.742345,-2.224372864,4.883590698,0.413825989,-0.071353883,0.055777222,0.919908404
32.742971,-3.063606262,4.608932495,0.619819641,-0.070743531,0.055166870,0.924547076
32.743598,-3.986763000,4.334274292,0.741889954,-0.067813843,0.054190308,0.928697467
32.744224,-4.818367004,4.242721558,0.841072083,-0.068302125,0.055777222,0.935289264
32.744850,-5.855964661,4.242721558,0.764778137,-0.063907593,0.057119995,0.940904498
32.745477,-6.832527161,4.128280640,0.902107239,-0.065250367,0.058462769,0.946275592
32.746102,-7.450508118,4.204574585,0.978401184,-0.063663453,0.057608277,0.951646686
32.746727,-8.602546692,4.349533081,1.161506653,-0.056705445,0.056509644,0.955430865
32.747352,-9.121345520,4.334274292,1.077583313,-0.059268922,0.058706909,0.958604693
32.747977,-10.059761047,4.456344604,1.062324524,-0.055362672,0.056387573,0.962022662
32.748603,-10.914253235,4.471603394,1.115730286,-0.057437867,0.055288941,0.966173053
32.749228,-11.440681458,4.654708862,1.077583313,-0.051334351,0.054678589,0.968248248
32.749853,-12.218879700,4.647079468,1.291206360,-0.051334351,0.055533081,0.970323443
32.750479,-12.524055481,5.066696167,1.382759094,-0.051822633,0.054556519,0.976671100
32.751105,-13.431953430,4.914108276,1.367500305,-0.048526734,0.052603394,0.979234576
32.751732,-13.828681946,5.165878296,0.932624817,-0.042911500,0.052603394,0.980211139
32.752357,-14.370368958,5.059066772,1.260688782,-0.045474976,0.049673706,0.981065631
32.752984,-14.728950500,5.303207397,1.184394836,-0.045108765,0.047842652,0.983751178
32.753610,-15.049385071,5.509201050,1.092842102,-0.041446656,0.046255738,0.983873248
32.754235,-15.507148743,5.829635620,1.237800598,-0.045474976,0.041494995,0.989366412
32.754919,-15.751289368,5.554977417,0.993659973,-0.043643922,0.038931519,0.986680865
32.755545,-15.591072083,6.020370483,0.940254211,-0.044254273,0.037954956,0.987901568
32.756170,-15.827583313,6.050888062,0.993659973,-0.041446656,0.034536988,0.988267779
32.756815,-15.804695129,6.439987183,0.947883606,-0.047183961,0.027823120,0.987901568
32.757440,-15.804695129,6.439987183,0.947883606,-0.047183961,0.027823120,0.987901568
32.758067,-15.575813293,6.729904175,0.902107239,-0.046085328,0.027456909,0.984605670
32.758694,-15.499519348,7.035079956,0.764778137,-0.051944703,0.024527222,0.987413287
32.771435,-5.764411926,9.987655640,-1.531669617,-0.081241578,-0.015389770,1.022569537
32.772198,-5.245613098,10.636154175,-1.745292664,-0.081119508,-0.017220825,1.022203326
32.772825,-4.368232727,10.628524780,-1.829216003,-0.082584351,-0.020638794,1.025621295
32.773451,-3.811286926,10.857406616,-1.920768738,-0.086490601,-0.022225708,1.025865436
32.774076,-3.384040833,11.368576050,-1.943656921,-0.087589234,-0.023568481,1.029405475
32.774701,-3.078865051,11.399093628,-2.203056335,-0.089176148,-0.029427856,1.025743365
32.775328,-2.186225891,12.100997925,-2.241203308,-0.088565797,-0.026742309,1.026841998
32.775953,-1.682685852,12.421432495,-2.264091492,-0.093692750,-0.030160278,1.026719928
32.776579,-1.194404602,12.673202515,-2.531120300,-0.094791383,-0.034188598,1.030504107
32.777204,-0.538276672,12.726608276,-2.370903015,-0.095401734,-0.035165161,1.029039264
32.777829,-0.210212708,13.161483765,-2.538749695,-0.099063843,-0.038216919,1.026231647
32.778456,0.354362488,13.550582886,-2.538749695,-0.100406617,-0.044808716,1.026719928
32.779081,0.918937683,13.672653198,-2.569267273,-0.102603883,-0.046395630,1.023546100
32.779708,1.590324402,14.260116577,-2.668449402,-0.106510133,-0.046761841,1.026964068
32.780333,2.093864441,14.435592651,-2.752372742,-0.110904664,-0.051644653,1.025133014
32.780960,2.498222351,14.733139038,-2.843925476,-0.115543336,-0.054696411,1.022569537
32.781586,2.849174500,14.824691772,-2.859184265,-0.115055054,-0.058968872,1.020616412
32.782213,3.520561218,15.221420288,-2.927848816,-0.113956422,-0.057748169,1.020616412
32.782838,4.298759460,15.389266968,-2.988883972,-0.121402711,-0.061654419,1.018663287
32.783464,4.535270691,15.892807007,-2.706596375,-0.120304078,-0.066903442,1.010728717
32.784091,5.206657410,15.831771851,-2.981254578,-0.121524781,-0.069711059,1.011216998
32.784716,5.542350769,16.220870972,-2.927848816,-0.126407593,-0.068368286,1.007066607
32.785343,5.687309265,16.373458862,-2.706596375,-0.127262086,-0.073495239,1.005357623
32.785969,6.305290222,16.640487671,-2.958366394,-0.129337281,-0.074349731,1.000230670
32.786596,6.908012390,16.724411011,-3.004142761,-0.131778687,-0.080819458,0.995958209
32.787223,7.304740906,16.938034058,-2.668449402,-0.136051148,-0.079354614,0.994859576
32.787848,7.754875183,17.075363159,-2.775260925,-0.136783570,-0.084603637,0.987047076
32.788475,8.037162781,17.266098022,-2.737113953,-0.142520875,-0.083627075,0.986925006
32.789102,8.441520691,17.159286499,-2.698966980,-0.145084351,-0.087045044,0.980455279
32.789728,8.655143738,17.319503784,-2.615043640,-0.147159547,-0.089852661,0.974473834
32.790353,9.196830750,17.533126831,-2.569267273,-0.151432008,-0.096078247,0.971300006
32.790978,9.639335632,17.594161987,-2.355644226,-0.155826539,-0.093270630,0.967882037
32.791605,9.830070496,17.662826538,-2.248832703,-0.159244508,-0.096200317,0.966417193
32.792230,10.013175964,17.624679565,-2.088615417,-0.160099000,-0.094857544,0.962755084
32.792857,10.341239929,17.487350464,-2.134391785,-0.162296265,-0.094857544,0.955675006
32.793483,10.654045105,17.556015015,-1.989433289,-0.167545289,-0.097421020,0.954820514
32.794108,10.821891785,17.792526245,-1.943656921,-0.169742554,-0.096444458,0.953599811
32.794733,11.035514832,17.342391968,-1.592704773,-0.165714234,-0.094979614,0.949449420
32.795359,10.943962097,17.395797729,-1.661369324,-0.169132203,-0.096566528,0.949571490
32.795984,11.340690613,17.067733765,-1.653739929,-0.168888062,-0.101937622,0.948228717
32.796610,11.333061218,16.991439819,-1.325675964,-0.170597047,-0.100106567,0.939927936
32.797236,11.241508484,16.922775269,-1.203605652,-0.173282593,-0.102425903,0.938951373
32.797863,11.127067566,16.312423706,-1.112052917,-0.174137086,-0.100838989,0.935167193
32.798489,11.043144226,16.182723999,-0.837394714,-0.170597047,-0.101693481,0.932847857
32.799115,11.066032410,16.083541870,-0.783988953,-0.168277711,-0.101693481,0.932359576
32.799740,11.149955750,15.694442749,-0.501701355,-0.167423218,-0.104379028,0.931260943
32.800366,10.615898132,15.503707886,-0.494071960,-0.167667359,-0.102181762,0.929429889
32.800992,10.684562683,15.343490601,0.024726868,-0.166202515,-0.103280395,0.928941607
32.813620,2.788139343,7.134262085,5.411079407,-0.123722047,-0.080087036,0.892686725
32.814317,2.147270203,6.630722046,5.479743958,-0.122135133,-0.077889770,0.889879107
32.814944,1.658988953,6.241622925,5.708625793,-0.117984742,-0.074227661,0.891221881
32.815569,0.911308289,5.722824097,5.929878235,-0.117252320,-0.071664184,0.889268756
32.816196,0.270439148,5.173507690,6.235054016,-0.115909547,-0.065438598,0.890001178
32.816822,-0.599311829,4.624191284,6.524971008,-0.112735718,-0.063241333,0.889512897
32.817448,-1.293586731,4.334274292,6.830146790,-0.109928101,-0.061410278,0.892076373
32.818075,-1.690315247,3.952804565,7.135322571,-0.109317750,-0.058602661,0.891099811
32.818701,-2.499031067,3.464523315,7.272651672,-0.104801148,-0.053719848,0.894151568
32.819326,-3.406929016,2.938095093,7.677009583,-0.099674195,-0.051522583,0.893663287
32.819953,-4.391120911,2.640548706,7.814338684,-0.100406617,-0.049569458,0.896592975
32.820580,-4.879402161,2.205673218,8.043220520,-0.096012086,-0.045174927,0.902452350
32.821205,-5.817817688,1.610580444,8.409431458,-0.092349976,-0.041879028,0.904039264
32.821832,-6.878303528,1.129928589,8.516242981,-0.084659547,-0.039071411,0.907701373
32.822457,-7.702278137,0.908676147,8.729866028,-0.082828492,-0.034798950,0.917222857
32.823082,-8.381294250,0.313583374,9.118965149,-0.076602906,-0.033456177,0.917833209
32.823708,-9.441780090,0.138107300,9.096076965,-0.072086304,-0.028085083,0.922593951
32.824333,-10.380195618,-0.479873657,9.477546692,-0.067569703,-0.022836059,0.931016803
32.824958,-11.539863586,-0.678237915,9.454658508,-0.061099976,-0.018319458,0.934923053
32.825583,-12.470649719,-1.036819458,9.775093079,-0.057193726,-0.016488403,0.939439654
32.826209,-13.668464661,-1.372512817,9.988716125,-0.050724000,-0.012704223,0.945543170
32.826834,-14.370368958,-1.647171021,10.209968567,-0.042789429,-0.008797973,0.949327350
32.827459,-15.514778137,-1.944717407,10.301521301,-0.040714234,-0.006844848,0.956651568
32.829205,-18.673347473,-2.127822876,11.003425598,-0.025943726,-0.000863403,0.967027545
32.829831,-19.627021790,-2.303298950,11.156013489,-0.017032593,-0.000619262,0.975206256
32.830457,-20.389961243,-2.188858032,11.362007141,-0.017032593,-0.002084106,0.980333209
32.831082,-21.244453430,-2.150711060,11.239936829,-0.015323609,-0.003182739,0.981920123
32.831709,-22.068428040,-2.494033813,11.506965637,-0.009220093,0.000479370,0.986680865
32.832334,-22.716926575,-2.158340454,11.674812317,-0.010196656,-0.000497192,0.990831256
32.832961,-23.388313293,-2.127822876,11.651924133,-0.003116578,0.002676636,0.995714068
32.833588,-23.991035461,-2.188858032,11.697700500,-0.001529664,-0.002694458,0.996812701
32.834214,-24.624275208,-2.074417114,12.018135071,-0.001529664,-0.000130981,0.999864459
32.834841,-25.082038879,-1.761611938,11.812141418,-0.000675172,-0.004159302,1.002061725
32.835466,-25.410102844,-1.967605591,11.888435364,0.002620727,-0.000985473,1.006212115
32.836091,-25.585578918,-1.876052856,12.056282043,0.004573852,-0.004037231,1.006456256
32.836717,-25.791572571,-1.563247681,12.201240540,0.002376586,-0.005380005,1.008409381
32.837342,-25.799201965,-1.578506470,12.056282043,0.003841430,-0.004769653,1.013536334
32.837967,-25.875495911,-1.692947388,12.384346008,0.005306274,-0.007088989,1.014634967
32.838592,-25.890754700,-1.403030396,12.163093567,0.006649047,-0.010140747,1.017442584
32.839217,-25.715278625,-1.418289185,12.178352356,0.007137328,-0.010384887,1.018297076
32.839844,-25.295661926,-1.151260376,12.132575989,0.008358032,-0.012948364,1.022081256
32.840470,-24.914192200,-1.265701294,12.147834778,0.003231078,-0.012460083,1.019029498
32.841095,-24.578498840,-0.807937622,12.185981750,0.003719360,-0.015145630,1.022935748
32.841720,-24.036811829,-0.853713989,12.002876282,0.002620727,-0.016122192,1.024644732
32.842347,-23.456977844,-0.373062134,11.804512024,0.004207641,-0.016488403,1.026231647
32.842972,-22.732185364,-0.189956665,11.682441711,0.003109008,-0.018685669,1.028306842
32.843597,-22.083686829,-0.273880005,11.590888977,-0.000797242,-0.018563598,1.029161334
32.856290,-1.812385559,5.417648315,7.364204407,-0.053043336,-0.013314575,1.057481647
32.857169,-1.156257629,5.707565308,7.013252258,-0.055362672,-0.016854614,1.057359576
32.857794,-0.271247864,5.982223511,7.005622864,-0.052432984,-0.015145630,1.057359576
32.858420,0.674797058,6.432357788,6.761482239,-0.054141968,-0.011361450,1.058091998
32.859051,1.575065613,6.684127808,6.593635559,-0.053775758,-0.013436645,1.054185748
32.859677,2.238822937,7.202926636,6.219795227,-0.052799195,-0.012826294,1.053087115
32.860304,3.146720886,7.431808472,6.120613098,-0.050357789,-0.008553833,1.046861529
32.860930,3.917289734,7.813278198,5.891731262,-0.049625367,-0.011361450,1.050401568
32.861556,4.741264343,8.164230347,5.700996399,-0.050357789,-0.011727661,1.046861529
32.862182,5.282951355,8.248153687,5.586555481,-0.049137086,-0.010506958,1.046739459
32.862808,6.175590515,8.919540405,5.098274231,-0.053775758,-0.016122192,1.041734576
32.863435,6.938529968,9.232345581,5.090644836,-0.057682008,-0.015633911,1.036729693
32.864060,7.495475769,9.400192261,4.854133606,-0.057559937,-0.020516723,1.034898639
32.864685,8.266044617,9.766403198,4.510810852,-0.060977906,-0.021249145,1.033677936
32.865312,8.952690125,10.048690796,4.381111145,-0.064029664,-0.022836059,1.026353717
32.865938,9.646965027,10.292831421,4.274299622,-0.062442750,-0.025887817,1.023912311
32.866565,10.310722351,10.514083862,4.129341125,-0.066104859,-0.032235473,1.016099811
32.867191,10.623527527,10.834518433,4.121711731,-0.063663453,-0.033089966,1.014512897
32.867817,11.317802429,11.048141479,3.862312317,-0.068057984,-0.036996216,1.005601764
32.868443,12.027336121,11.208358765,3.633430481,-0.070621461,-0.038705200,1.002061725
32.869068,12.675834656,11.437240601,3.450325012,-0.072086304,-0.043832153,0.997667193
32.869694,13.118339539,11.315170288,3.412178040,-0.072818726,-0.044198364,0.990709186
32.870320,13.850761414,11.498275757,3.389289856,-0.077701539,-0.046761841,0.985460162
32.870947,14.873100281,11.666122437,3.152778625,-0.078189820,-0.055062622,0.974351764
32.871573,14.873100281,11.666122437,3.152778625,-0.078189820,-0.055062622,0.974351764
32.872198,15.857292175,11.544052124,3.076484680,-0.075870484,-0.060433716,0.959337115
32.872823,16.368461609,11.612716675,3.030708313,-0.074039429,-0.061898559,0.957139850
32.873448,16.681266785,11.452499390,2.977302551,-0.076480836,-0.067269653,0.951890826
32.874073,17.192436218,11.277023315,2.916267395,-0.074893922,-0.069711059,0.943345904
32.874699,17.772270203,11.353317261,3.038337708,-0.072086304,-0.075570434,0.933458209
32.875324,18.115592957,11.086288452,3.084114075,-0.073307008,-0.078378052,0.930406451
32.875951,18.474174500,11.002365112,3.007820129,-0.072208375,-0.079964966,0.922960162
32.876578,18.901420593,10.804000854,3.213813782,-0.070743531,-0.080087036,0.918077350
32.877204,19.298149109,10.315719604,3.023078918,-0.070133179,-0.082162231,0.909044147
32.877830,19.832206726,10.269943237,3.099372864,-0.070743531,-0.082162231,0.901109576
32.878456,20.068717957,10.178390503,3.099372864,-0.072452515,-0.085091919,0.898057818
32.879081,20.618034363,9.796920776,3.251960754,-0.072452515,-0.089364380,0.891710162
32.879706,20.885063171,9.224716187,3.236701965,-0.074161500,-0.090585083,0.884508014
32.880331,21.197868347,9.026351929,3.457954407,-0.074283570,-0.087045044,0.878282428
32.880957,21.304679871,8.614364624,3.648689270,-0.071964234,-0.091195434,0.868760943
32.881583,21.564079285,8.065048218,3.587654114,-0.073062867,-0.093880981,0.869005084
32.882209,21.648002625,7.973495483,3.740242004,-0.072208375,-0.094735473,0.864244342
32.882834,21.907402039,7.233444214,3.862312317,-0.074649781,-0.092904419,0.858384967
32.883459,21.884513855,6.729904175,4.106452942,-0.073184937,-0.092660278,0.857896686
32.884084,21.968437195,6.150070190,4.533699036,-0.072940797,-0.093392700,0.845323443
32.884710,22.037101746,5.532089233,4.465034485,-0.072330445,-0.091805786,0.843736529
32.885336,22.235466003,5.165878296,4.526069641,-0.073673218,-0.092416137,0.840684772
32.885963,22.113395691,4.593673706,4.800727844,-0.071353883,-0.092538208,0.836534381
32.898599,20.228935242,-11.946853638,8.935859680,-0.086612672,-0.082162231,0.769395709
32.899317,20.518852234,-13.289627075,9.485176086,-0.086978883,-0.078255981,0.770860553
32.899942,20.343376160,-14.083084106,9.447029114,-0.090763062,-0.078866333,0.768419147
32.900569,20.679069519,-15.349563599,9.721687317,-0.092472047,-0.073739380,0.769517779
32.901194,20.679069519,-16.333755493,10.065010071,-0.094547242,-0.071420044,0.769517779
32.901820,20.831657410,-17.623123169,10.080268860,-0.094669312,-0.068002075,0.769639850
32.902445,21.098686218,-18.538650513,10.209968567,-0.098453492,-0.064584106,0.770494342
32.903072,21.358085632,-19.843276978,10.538032532,-0.100772828,-0.058480591,0.773790240
32.903697,21.335197449,-20.995315552,10.759284973,-0.103092164,-0.057381958,0.770738482
32.904323,21.648002625,-22.055801392,10.744026184,-0.100528687,-0.050912231,0.777330279
32.904948,21.762443542,-23.116287231,10.873725891,-0.100528687,-0.044564575,0.778428912
32.905573,21.838737488,-24.527725220,10.927131653,-0.099674195,-0.040292114,0.785508990
32.906198,21.884513855,-25.580581665,11.270454407,-0.096012086,-0.035897583,0.788194537
32.906825,21.754814148,-26.663955688,11.362007141,-0.096744508,-0.028207153,0.795274615
32.907451,21.869255066,-27.846511841,11.217048645,-0.099063843,-0.024911255,0.796739459
32.908078,21.884513855,-29.082473755,11.278083801,-0.097476929,-0.018075317,0.802354693
32.908704,21.998954773,-30.020889282,11.613777161,-0.092960328,-0.010140747,0.809190631
32.909330,21.686149597,-31.066116333,11.697700500,-0.094303101,-0.006600708,0.814805865
32.909957,21.785331726,-31.806167603,11.621406555,-0.087345093,-0.000741333,0.822130084
32.910583,21.686149597,-33.141311646,11.957099915,-0.084781617,0.010000855,0.831407428
32.911208,21.472526550,-33.850845337,11.835029602,-0.083560914,0.012076050,0.833238482
32.911835,21.068168640,-34.949478149,11.636665344,-0.081241578,0.022085816,0.841417193
32.912462,20.907951355,-35.803970337,12.048652649,-0.082706422,0.026724488,0.848985553
32.913087,20.755363464,-36.696609497,11.949470520,-0.081729859,0.032705933,0.857286334
32.913713,20.282341003,-37.329849243,11.918952942,-0.078067750,0.039053589,0.860704303
32.914339,19.977165222,-37.734207153,11.972358704,-0.079288453,0.046133667,0.869249225
32.914965,19.725395203,-38.787063599,11.880805969,-0.078189820,0.053457886,0.875963092
32.915592,19.206596375,-39.427932739,11.911323547,-0.075870484,0.055288941,0.883531451
32.916218,18.832756042,-40.091690063,11.903694153,-0.071598023,0.065176636,0.886827350
32.916845,18.176628113,-40.625747681,11.964729309,-0.069400758,0.069571167,0.897935748
32.917472,17.627311707,-41.350540161,11.636665344,-0.068424195,0.076162964,0.905015826
32.918099,17.077995300,-41.945632935,11.796882629,-0.067691773,0.080435425,0.910386920
32.918725,16.467643738,-42.472061157,11.743476868,-0.066715211,0.089590698,0.916246295
32.919351,15.857292175,-43.166336060,11.682441711,-0.062686890,0.092886597,0.926622272
32.919977,15.056205750,-43.250259399,11.712959290,-0.061099976,0.098745972,0.932359576
32.920603,14.033866882,-43.791946411,11.735847473,-0.059268922,0.106680542,0.940416217
32.921228,13.476921082,-44.249710083,11.484077454,-0.052799195,0.112906128,0.949327350
32.921855,12.584281921,-44.783767700,11.476448059,-0.049259156,0.118277222,0.953966022
32.922480,11.783195496,-45.020278931,11.293342590,-0.050479859,0.123526245,0.960679889
32.923107,10.921073914,-45.302566528,11.461189270,-0.046451539,0.126211792,0.967882037
32.923733,9.906364441,-45.813735962,11.278083801,-0.043765992,0.135122925,0.969957232
32.924358,8.601737976,-46.004470825,11.049201965,-0.037174195,0.137686402,0.976793170
32.924985,7.930351257,-46.218093872,11.133125305,-0.036930054,0.144766480,0.985582232
32.925610,6.709648132,-46.683486938,11.041572571,-0.032657593,0.150869995,0.992174029
32.926235,5.923820496,-46.935256958,10.782173157,-0.029239625,0.152334839,0.994859576
32.926862,4.771781921,-47.263320923,10.805061340,-0.023258179,0.153433472,1.003892779
32.927487,3.711296082,-47.568496704,10.576179504,-0.019229859,0.160757691,1.008043170
32.941386,-23.006843567,-49.735244751,7.265022278,0.084651977,0.201162964,1.129136920
32.942132,-24.120735168,-49.925979614,7.150581360,0.087581664,0.201407105,1.135850787
32.942758,-24.837898254,-49.872573853,6.990364075,0.092586547,0.201285034,1.142076373
32.943383,-26.081489563,-49.773391724,6.746223450,0.094173461,0.198111206,1.147813678
32.944010,-26.691841125,-49.773391724,6.349494934,0.096004516,0.198111206,1.151475787
32.944636,-27.759956360,-49.689468384,6.318977356,0.098567992,0.194449097,1.160508990
32.945263,-28.416084290,-49.735244751,6.067207336,0.099666625,0.196524292,1.157457232
32.945889,-29.201911926,-49.605545044,5.830696106,0.100154907,0.195425659,1.163072467
32.946514,-29.735969543,-49.582656860,5.334785461,0.107357055,0.193106323,1.169908404
32.947140,-30.659126282,-49.491104126,5.319526672,0.111019164,0.189322144,1.177598834
32.947766,-30.949043274,-49.239334106,5.182197571,0.112484008,0.186148316,1.180162311
32.948393,-31.567024231,-49.124893188,4.732063293,0.118343383,0.182119995,1.189805865
32.949018,-32.040046692,-49.025711060,4.762580872,0.120906860,0.181387573,1.195176959
32.949644,-32.581733704,-48.789199829,4.312446594,0.126400024,0.177359253,1.203599811
32.950270,-33.092903137,-48.377212524,4.266670227,0.130550414,0.173941284,1.210435748
32.950895,-33.237861633,-48.216995239,4.121711731,0.134822875,0.172964722,1.216173053
32.951521,-33.573554993,-47.904190063,3.496101379,0.141048461,0.169546753,1.222154498
32.952147,-33.939765930,-47.370132446,3.518989563,0.142513305,0.170401245,1.230089068
32.952773,-33.993171692,-47.293838501,3.114631653,0.145320922,0.166494995,1.234727740
32.953399,-34.374641418,-47.034439087,2.801826477,0.150814086,0.162222534,1.242906451
32.954024,-34.557746887,-46.584304810,2.695014954,0.153621703,0.158804566,1.249132037
32.954651,-34.519599915,-45.951065063,2.427986145,0.154476196,0.158072144,1.254625201
32.955276,-34.573005676,-45.478042603,2.015998840,0.158992797,0.155142456,1.262925982
32.955901,-34.733222961,-45.256790161,1.855781555,0.161434203,0.150992066,1.272081256
32.956528,-34.725593567,-44.730361938,1.787117004,0.167293578,0.151236206,1.279161334
32.957155,-34.733222961,-44.150527954,1.558235168,0.169246703,0.146475464,1.280504107
32.957780,-35.023139954,-43.494400024,1.054695129,0.174617797,0.143057495,1.290635943
32.958405,-34.725593567,-42.990859985,0.955513000,0.177059203,0.142325073,1.301866412
32.959031,-34.954475403,-42.464431763,0.352790833,0.182674438,0.140738159,1.306383014
32.959681,-34.557746887,-41.503128052,0.429084778,0.180843383,0.132193238,1.310045123
32.960306,-34.580635071,-41.014846802,0.154426575,0.183284789,0.134878784,1.315782428
32.978258,-21.297859192,-17.783340454,-6.803581238,0.157894164,0.044912964,1.351182818
32.978884,-20.420478821,-17.409500122,-7.139274597,0.155330688,0.047842652,1.352281451
32.979511,-19.535469055,-16.638931274,-7.375785828,0.150692016,0.051382691,1.349840045
32.980137,-18.772529602,-16.059097290,-7.566520691,0.149105102,0.050406128,1.353380084
32.980763,-18.162178040,-15.273269653,-7.650444031,0.146907836,0.044058472,1.353502154
32.981388,-17.139839172,-14.853652954,-7.993766785,0.147640258,0.036123902,1.353746295
32.982015,-16.109870911,-14.159378052,-8.276054382,0.144832641,0.027945191,1.354966998
32.982641,-15.163825989,-13.556655884,-8.405754089,0.145931274,0.024038941,1.354478717
32.983267,-13.904975891,-12.580093384,-8.688041687,0.143001586,0.022207886,1.353502154
32.983894,-12.897895813,-11.962112427,-8.817741394,0.133480102,0.019034058,1.350328326
32.984519,-12.104438782,-11.176284790,-8.977958679,0.135433227,0.021109253,1.346910357
32.985145,-10.845588684,-10.405715942,-9.260246277,0.132015258,0.017447144,1.347764850
32.985770,-9.853767395,-9.513076782,-9.450981140,0.124202758,0.017935425,1.344102740
32.986396,-8.892463684,-8.910354614,-9.656974792,0.122982055,0.013907105,1.343004107
32.987021,-7.870124817,-8.170303345,-9.672233582,0.118953735,0.014029175,1.348375201
32.987648,-6.832527161,-7.506546021,-10.007926941,0.115291625,0.009024292,1.344591022
32.988275,-5.855964661,-7.010635376,-10.030815125,0.113094360,0.007071167,1.345689654
33.001019,10.844779968,8.103195190,-12.426445007,0.058895141,-0.020638794,1.318345904
33.001756,11.302543640,8.667770386,-12.731620789,0.056209594,-0.023202270,1.314195514
33.002381,12.111259460,9.560409546,-12.662956238,0.051570922,-0.025521606,1.309434772
33.003007,12.782646179,10.170761108,-12.945243835,0.045589477,-0.025155395,1.307847857
33.003634,13.553215027,10.712448120,-12.937614441,0.041805297,-0.028329223,1.304063678
33.004259,13.995719910,11.658493042,-12.762138367,0.040706664,-0.027230591,1.297838092
33.004884,14.567924500,12.177291870,-12.838432312,0.032527953,-0.030770630,1.293565631
33.005511,15.399528503,12.764755249,-13.052055359,0.028499633,-0.029061645,1.289049029
33.006137,16.162467957,13.520065308,-12.868949890,0.025081664,-0.030648559,1.285142779
33.006763,16.368461609,14.015975952,-12.838432312,0.018489867,-0.032113403,1.282457232
33.007389,16.933036804,14.305892944,-12.769767761,0.015316039,-0.031014770,1.276719928
33.008014,17.245841980,15.114608765,-12.922355652,0.012508422,-0.033822387,1.270006061
33.008639,17.909599304,15.709701538,-13.052055359,0.008846313,-0.030648559,1.267320514
33.009264,18.382621765,16.320053101,-12.937614441,0.003109008,-0.035043091,1.260606647
33.009890,18.870903015,16.625228882,-12.746879578,0.002742797,-0.032479614,1.253282428
33.010516,19.214225769,17.472091675,-12.792655945,0.002254516,-0.035409302,1.252183795
33.011143,19.755912781,17.792526245,-12.785026550,-0.002140015,-0.032235473,1.246568561
33.011768,20.030570984,18.303695679,-12.548515320,-0.006290406,-0.026742309,1.240587115
33.012394,20.152641296,18.936935425,-12.571403503,-0.009952515,-0.029305786,1.234605670
33.013019,20.412040710,19.249740601,-12.685844421,-0.012393922,-0.026742309,1.232286334
33.013645,20.854545593,19.799057007,-12.411186218,-0.011905640,-0.026742309,1.229966998
33.014271,21.083427429,20.195785522,-12.296745300,-0.015567750,-0.027352661,1.223008990
33.014898,21.091056824,20.844284058,-12.243339539,-0.018009156,-0.023080200,1.219468951
33.015525,21.434379578,21.340194702,-12.365409851,-0.022281617,-0.023202270,1.217149615
33.016151,21.373344421,21.645370483,-12.205192566,-0.023990601,-0.017709106,1.209092975
33.016777,21.442008972,21.851364136,-12.334892273,-0.029972047,-0.019296020,1.205186725
33.017403,21.380973816,22.591415405,-12.067863464,-0.030948609,-0.014779419,1.205919147
33.018029,21.686149597,22.705856323,-12.151786804,-0.034732789,-0.015145630,1.197618365
33.018656,21.449638367,22.942367554,-12.090751648,-0.034000367,-0.013558716,1.191148639
33.019281,21.449638367,23.407760620,-11.861869812,-0.038272828,-0.011849731,1.186387897
33.019907,21.365715027,23.682418823,-11.983940125,-0.040958375,-0.013558716,1.183336139
33.020532,21.205497742,23.888412476,-11.938163757,-0.043155640,-0.010262817,1.177232623
33.021158,21.281791687,23.964706421,-11.983940125,-0.047550172,-0.008309692,1.172471881
33.021783,20.885063171,24.338546753,-11.808464050,-0.048404664,-0.009042114,1.164415240
33.022408,20.984245300,24.529281616,-11.755058289,-0.052555054,-0.002572387,1.164415240
33.023034,20.770622253,25.078598022,-11.602470398,-0.055240601,-0.006112427,1.156480670
33.023661,20.404411316,25.048080444,-11.640617371,-0.058780640,-0.006966919,1.153550982
33.024287,20.633293152,25.467697144,-11.488029480,-0.059146851,-0.004891723,1.148057818
33.024913,20.404411316,25.711837769,-11.533805847,-0.061832398,-0.001839966,1.144395709
33.025540,20.198417664,25.872055054,-11.434623718,-0.063419312,-0.005257934,1.137925982
33.026167,20.267082214,26.001754761,-11.297294617,-0.064273804,-0.007455200,1.134263873
33.026792,19.916130066,26.116195679,-11.282035828,-0.069034547,-0.007333130,1.128526568
33.027418,19.893241882,26.306930542,-11.236259460,-0.072818726,-0.005257934,1.123399615
33.028045,19.549919128,26.375595093,-11.304924011,-0.073917359,-0.007943481,1.118028522
33.028690,19.794059753,26.703659058,-11.129447937,-0.077823609,-0.008920044,1.111558795
33.029315,19.565177917,26.886764526,-11.259147644,-0.078433961,-0.007455200,1.104844928
33.029942,19.618583679,26.795211792,-11.266777039,-0.082828492,-0.008675903,1.102037311
33.043886,12.103630066,27.069869995,-9.847709656,-0.106510133,0.013540894,1.010240436
33.044638,11.439872742,26.718917847,-9.840080261,-0.105411500,0.011831909,1.007554889
33.045264,10.753227234,26.909652710,-9.763786316,-0.106876343,0.015738159,0.999620318
33.045890,9.982658386,26.825729370,-9.611198425,-0.106998414,0.014639527,0.997667193
33.046517,9.532524109,26.566329956,-9.779045105,-0.107974976,0.014273316,0.992418170
33.047143,8.555961609,26.535812378,-9.618827820,-0.106876343,0.018301636,0.989976764
33.047768,7.854057312,26.360336304,-9.389945984,-0.108341187,0.015738159,0.991563678
33.048394,7.068229675,26.230636597,-9.397575378,-0.107974976,0.015494019,0.984483600
33.049020,6.518913269,26.200119019,-9.237358093,-0.105899781,0.016592652,0.978013873
33.049646,5.603385925,26.223007202,-9.176322937,-0.106143922,0.014517456,0.973497272
33.050273,4.878593445,26.009384155,-9.130546570,-0.105289429,0.014883667,0.970079303
33.050900,4.153800964,26.123825073,-8.993217468,-0.106876343,0.016104370,0.964341998
33.051527,3.352714539,25.818649292,-8.916923523,-0.107608765,0.018301636,0.964586139
33.052154,2.589775085,25.803390503,-8.764335632,-0.106754273,0.018911988,0.960191607
33.052780,1.681877136,25.734725952,-8.672782898,-0.105899781,0.017569214,0.956651568
33.053406,0.476432800,25.490585327,-8.657524109,-0.108341187,0.018789917,0.951402545
33.054033,-0.133918762,25.124374390,-8.665153503,-0.110050172,0.020743042,0.947496295
33.054659,-1.018928528,25.467697144,-8.359977722,-0.108707398,0.019522339,0.944566607
33.055284,-1.949714661,25.170150757,-8.199760437,-0.111148804,0.018057495,0.942735553
33.055909,-2.956794739,24.819198608,-8.276054382,-0.110172242,0.021231323,0.936998248
33.056535,-3.788398743,24.742904663,-7.947990417,-0.111515015,0.022085816,0.935045123
33.057161,-4.536079407,24.514022827,-8.253166199,-0.112735718,0.020865113,0.931993365
33.057787,-5.527900696,24.285140991,-8.016654968,-0.112003297,0.022940308,0.927476764
33.058412,-6.252693176,24.094406128,-7.803031921,-0.113101929,0.022452027,0.922716022
33.059038,-7.412361145,23.926559448,-7.963249207,-0.113834351,0.022207886,0.920884967
33.059663,-8.213447571,23.873153687,-7.841178894,-0.114932984,0.020010620,0.918199420
33.060288,-9.197639465,23.361984253,-7.627555847,-0.116275758,0.021719605,0.913682818
33.060914,-9.792732239,23.125473022,-7.917472839,-0.117984742,0.017203003,0.911973834
33.061593,-10.769294739,23.201766968,-7.734367371,-0.116886109,0.019400269,0.909044147
33.062296,-11.516975403,22.744003296,-7.352897644,-0.117008179,0.018301636,0.905504107
33.062923,-12.508796692,22.454086304,-7.543632507,-0.114200562,0.016592652,0.900987506
33.063549,-13.355659485,22.164169312,-7.352897644,-0.117496461,0.015616089,0.901353717
33.064207,-13.996528625,21.889511108,-7.413932800,-0.113468140,0.013052613,0.896715045
33.064832,-14.805244446,21.744552612,-7.421562195,-0.113346070,0.012076050,0.893419147
33.065457,-15.583442688,21.370712280,-7.406303406,-0.112369508,0.009756714,0.888780475
33.066084,-16.239570618,20.821395874,-7.383415222,-0.110904664,0.007925659,0.886827350
33.066709,-16.743110657,20.561996460,-7.200309753,-0.110782593,0.003897339,0.883409381
33.067335,-17.559455872,20.356002808,-7.146903992,-0.114200562,0.000357300,0.880845904
33.067961,-18.085884094,19.959274292,-7.078239441,-0.112003297,-0.002816528,0.879381061
33.068588,-18.268989563,19.463363647,-7.162162781,-0.110294312,-0.004769653,0.877183795
33.069214,-18.909858704,19.257369995,-6.994316101,-0.109195679,-0.005990356,0.875230670
33.069841,-19.344734192,18.906417847,-6.948539734,-0.117130250,-0.009774536,0.868394732
33.070466,-19.588874817,18.639389038,-7.223197937,-0.112125367,-0.015511841,0.864854693
33.071091,-20.145820618,17.983261108,-6.963798523,-0.113712281,-0.020882934,0.865220904
33.071717,-20.267890930,17.655197144,-6.834098816,-0.115421265,-0.021981567,0.866929889
33.072344,-20.527290344,17.433944702,-7.001945496,-0.113590211,-0.024789184,0.864976764
33.072969,-20.527290344,17.136398315,-6.895133972,-0.115909547,-0.031380981,0.860582232
33.085652,-16.262458801,10.773483276,-6.490776062,-0.115787476,-0.090463012,0.862901568
33.086370,-16.178535461,10.353866577,-6.162712097,-0.118473023,-0.097176880,0.861070514
33.086995,-15.438484192,10.239425659,-6.254264832,-0.116764039,-0.093514770,0.860704303
33.087620,-15.125679016,10.086837769,-6.124565125,-0.112735718,-0.094003052,0.865587115
33.088247,-14.782356262,10.033432007,-6.101676941,-0.115543336,-0.096688598,0.859971881
33.088873,-14.049934387,9.842697144,-6.170341492,-0.116153687,-0.101205200,0.863633990
33.089498,-13.737129211,9.468856812,-6.040641785,-0.113101929,-0.099496216,0.864732623
33.090124,-13.279365540,9.575668335,-5.987236023,-0.118350953,-0.099862427,0.864854693
33.090751,-13.042854309,9.270492554,-5.941459656,-0.120182008,-0.101449341,0.863633990
33.091377,-12.691902161,9.255233765,-5.910942078,-0.119205445,-0.104623169,0.862291217
33.092009,-12.195991516,9.125534058,-5.888053894,-0.119571656,-0.106088012,0.864244342
33.092634,-11.555122375,8.766952515,-5.643913269,-0.118595093,-0.108285278,0.862779498
33.093260,-11.349128723,8.614364624,-5.918571472,-0.122623414,-0.107674927,0.863145709
33.093887,-10.845588684,8.515182495,-5.682060242,-0.124088258,-0.112435669,0.862413287
33.094513,-10.166572571,8.431259155,-5.643913269,-0.123477906,-0.109750122,0.858507037
33.095139,-9.670661926,8.026901245,-5.537101746,-0.122257203,-0.114877075,0.861314654
33.095765,-9.411262512,8.042160034,-5.453178406,-0.122989625,-0.114632934,0.861925006
33.096390,-8.968757629,7.675949097,-5.460807800,-0.124332398,-0.116830200,0.859239459
33.097017,-8.213447571,7.363143921,-5.437919617,-0.124210328,-0.117440552,0.860582232
33.097642,-7.938789368,7.439437866,-5.323478699,-0.126041383,-0.118295044,0.859361529
33.098269,-7.526802063,7.027450562,-5.125114441,-0.123477906,-0.118905395,0.858995318
33.098896,-6.710456848,6.951156616,-5.209037781,-0.121402711,-0.120370239,0.862901568
33.099522,-6.359504700,6.943527222,-4.980155945,-0.122257203,-0.125863403,0.861925006
33.100148,-5.749153137,6.783309937,-4.880973816,-0.122867554,-0.124032348,0.863267779
33.100775,-5.077766418,6.554428101,-4.926750183,-0.120304078,-0.127816528,0.864244342
33.101401,-4.627632141,6.584945679,-4.926750183,-0.121524781,-0.131356567,0.862779498
33.102028,-3.933357239,6.363693237,-4.804679871,-0.122135133,-0.131600708,0.862047076
33.102653,-3.391670227,5.905929565,-4.720756531,-0.118595093,-0.131234497,0.864244342
33.103278,-2.552436829,6.104293823,-4.736015320,-0.117496461,-0.132455200,0.865465045
33.103903,-2.125190735,5.959335327,-4.385063171,-0.117008179,-0.130746216,0.864732623
33.104529,-1.728462219,5.669418335,-4.446098328,-0.114566773,-0.132821411,0.869127154
33.105154,-0.973152161,5.677047729,-4.522392273,-0.114810914,-0.139901489,0.865709186
33.105780,-0.164436340,5.509201050,-4.346916199,-0.115909547,-0.140633911,0.867540240
33.106405,0.331474304,5.432907104,-4.118034363,-0.112125367,-0.142342895,0.867906451
33.107030,0.941825867,5.402389526,-4.209587097,-0.109439820,-0.143807739,0.873643756
33.107655,1.514030457,5.356613159,-4.072257996,-0.109195679,-0.142709106,0.873155475
33.108281,2.269340515,5.387130737,-3.904411316,-0.108951539,-0.146005005,0.872300982
33.108907,2.872062683,5.303207397,-3.736564636,-0.109439820,-0.145272583,0.875963092
33.109533,3.596855164,5.181137085,-3.828117371,-0.111881226,-0.147591919,0.875596881
33.110158,3.947807312,5.028549194,-3.568717957,-0.109561890,-0.149422973,0.876695514
33.110784,4.802299500,5.150619507,-3.377983093,-0.110782593,-0.147469848,0.877305865
33.111410,5.565238953,5.081954956,-3.515312195,-0.110538453,-0.148080200,0.874254107
33.112036,6.045890808,5.112472534,-3.187248230,-0.111392945,-0.148080200,0.876207232
33.112662,6.808830261,5.135360718,-3.194877625,-0.113101929,-0.151986450,0.878770709
33.113287,7.472587585,5.303207397,-3.027030945,-0.111881226,-0.153085083,0.875963092
33.113914,8.006645203,5.417648315,-2.943107605,-0.111270875,-0.150033325,0.879625201
33.114540,8.449150085,5.295578003,-2.843925476,-0.116397828,-0.152840942,0.879014850
33.127230,11.325431824,7.225814819,0.070503235,-0.116886109,-0.112313598,0.887803912
33.127959,11.012626648,7.294479370,0.307014465,-0.118350953,-0.112435669,0.883531451
33.128585,10.455680847,7.492843628,0.360420227,-0.118350953,-0.112191528,0.881456256
33.129211,10.226799011,7.798019409,0.383308411,-0.119815797,-0.110726684,0.881334186
33.129838,9.631706238,7.561508179,0.543525696,-0.123111695,-0.111459106,0.879258990
33.130465,9.303642273,7.820907593,0.963142395,-0.122623414,-0.108651489,0.879014850
33.131090,8.662773132,7.935348511,1.001289368,-0.126895875,-0.109994262,0.874864459
33.131716,8.090568542,8.019271851,1.314094543,-0.125797242,-0.107552856,0.876695514
33.132341,7.724357605,8.011642456,1.214912415,-0.130191773,-0.108773559,0.874742389
33.132967,7.213188171,8.240524292,1.428535461,-0.132022828,-0.108651489,0.873033404
33.133592,6.694389343,8.362594604,1.611640930,-0.133121461,-0.108895630,0.869859576
33.134218,6.312919617,8.316818237,1.954963684,-0.133731812,-0.106942505,0.870469928
33.134844,5.687309265,8.675399780,2.092292786,-0.137638062,-0.108041137,0.868638873
33.135470,4.954887390,8.354965210,2.321174622,-0.139835328,-0.105843872,0.864488482
33.136095,4.245353699,8.385482788,2.305915833,-0.143131226,-0.106088012,0.866319537
33.136722,3.940177917,8.705917358,2.473762512,-0.143619508,-0.107674927,0.864488482
33.137347,3.284049988,8.652511597,2.763679504,-0.147769898,-0.108529419,0.862901568
33.137973,2.589775085,8.683029175,2.885749817,-0.148258179,-0.107064575,0.858995318
33.138599,2.025199890,8.683029175,3.190925598,-0.146793336,-0.106576294,0.860093951
33.139225,1.430107117,8.675399780,3.274848938,-0.146305054,-0.109261841,0.860582232
33.139850,0.903678894,8.560958862,3.702095032,-0.149234742,-0.109750122,0.860582232
33.140477,-0.034736633,8.942428589,3.900459290,-0.147037476,-0.110970825,0.859971881
33.141102,-0.477241516,8.438888550,4.007270813,-0.149723023,-0.107919067,0.856798053
33.141727,-1.003669739,8.621994019,4.365852356,-0.150699586,-0.109017700,0.857530475
33.142352,-1.484321594,8.599105835,4.342964172,-0.153263062,-0.109750122,0.860093951
33.144059,-3.002571106,8.545700073,4.609992981,-0.151554078,-0.110116333,0.857164264
33.144684,-3.429817200,8.560958862,4.976203918,-0.149356812,-0.109505981,0.855211139
33.145309,-3.887580872,8.629623413,5.311897278,-0.154239625,-0.108407348,0.855943561
33.145934,-4.543708801,8.766952515,5.319526672,-0.152408570,-0.108163208,0.853135943
33.146560,-4.940437317,8.827987671,5.449226379,-0.154605836,-0.109139770,0.856187701
33.147187,-5.443977356,8.553329468,5.876472473,-0.155338258,-0.107796997,0.855089068
33.147813,-6.084846497,8.721176147,6.021430969,-0.156070679,-0.112069458,0.855699420
33.148438,-6.260322571,8.820358276,5.968025208,-0.157657593,-0.112557739,0.853013873
33.149064,-6.710456848,8.698287964,6.273200989,-0.160831422,-0.114999145,0.857286334
33.149691,-7.175849915,8.881393433,6.601264954,-0.158878297,-0.113778442,0.853502154
33.150318,-7.595466614,8.766952515,6.586006165,-0.160709351,-0.116097778,0.854844928
33.150944,-7.923530579,9.056869507,6.700447083,-0.158878297,-0.118661255,0.854600787
33.151570,-8.045600891,8.919540405,6.959846497,-0.163150758,-0.119759887,0.858507037
33.152195,-7.946418762,8.797470093,7.127693176,-0.163028687,-0.117074341,0.856553912
33.152822,-8.366035461,9.102645874,7.211616516,-0.164615601,-0.120858520,0.855821490
33.153447,-8.510993958,9.018722534,7.570198059,-0.168399781,-0.120980591,0.857408404
33.154073,-8.503364563,8.812728882,7.562568665,-0.164737672,-0.123910278,0.858018756
33.154700,-8.457588196,9.095016479,7.745674133,-0.169864625,-0.124642700,0.860582232
33.155327,-8.610176086,8.957687378,7.898262024,-0.164859742,-0.125008911,0.856187701
33.155953,-8.404182434,8.812728882,8.012702942,-0.164493531,-0.128060669,0.855455279
33.156579,-8.320259094,9.049240112,8.340766907,-0.164859742,-0.127816528,0.857408404
33.157205,-8.152412415,9.148422241,8.386543274,-0.165103883,-0.130746216,0.858384967
33.157832,-7.839607239,9.178939819,8.256843567,-0.160465211,-0.134652466,0.860338092
33.158458,-7.580207825,9.423080444,8.455207825,-0.158023804,-0.136117309,0.859605670
33.171102,9.021354675,7.958236694,9.912422180,-0.119937867,-0.144173950,0.809556842
33.171781,10.119987488,7.584396362,9.828498840,-0.119693726,-0.141122192,0.808824420
33.172406,11.096549988,7.584396362,9.744575500,-0.118839234,-0.139169067,0.805162311
33.173031,12.279106140,7.241073608,9.935310364,-0.119937867,-0.135751098,0.804063678
33.173657,13.164115906,7.119003296,9.843757629,-0.118350953,-0.133187622,0.799058795
33.174283,14.323783875,6.638351440,9.889533997,-0.115421265,-0.127084106,0.801133990
33.174910,15.231681824,6.172958374,9.950569153,-0.117252320,-0.123299927,0.799791217
33.175535,16.391349792,5.982223511,10.003974915,-0.112979859,-0.118417114,0.797349811
33.176160,17.032218933,5.852523804,10.019233704,-0.116031617,-0.113290161,0.799791217
33.176785,17.856193542,5.173507690,10.080268860,-0.116153687,-0.109994262,0.798204303
33.177410,18.680168152,5.036178589,10.255744934,-0.113468140,-0.105721802,0.799425006
33.178036,19.481254578,4.479232788,10.049751282,-0.113956422,-0.096322387,0.799425006
33.178663,20.152641296,4.097763062,10.011604309,-0.110294312,-0.094491333,0.801988482
33.179289,20.587516785,3.693405151,10.148933411,-0.110904664,-0.087777466,0.803819537
33.179916,21.197868347,3.434005737,10.179450989,-0.108463258,-0.083016723,0.806260943
33.180541,21.411491394,2.976242065,10.057380676,-0.108341187,-0.076424927,0.810045123
33.181166,22.113395691,2.640548706,10.087898254,-0.103824586,-0.069711059,0.811876178
33.181791,22.494865417,2.343002319,10.034492493,-0.106388062,-0.062630981,0.811021686
33.182417,22.723747253,1.854721069,10.011604309,-0.106021851,-0.057626098,0.813829303
33.183042,22.830558777,1.541915894,10.049751282,-0.104679078,-0.056527466,0.815416217
33.183667,22.960258484,1.587692261,10.133674622,-0.102725953,-0.052987427,0.819688678
33.184292,23.097587585,0.794235229,9.996345520,-0.100528687,-0.044564575,0.822496295
33.184918,23.189140320,0.450912476,10.057380676,-0.095401734,-0.041756958,0.823106647
33.185543,22.975517273,0.611129761,10.080268860,-0.098697633,-0.039803833,0.827379107
33.186168,23.234916687,-0.014480591,9.996345520,-0.096256226,-0.037362427,0.827989459
33.186793,23.250175476,-0.006851196,10.255744934,-0.091861695,-0.030160278,0.833360553
33.187420,23.257804871,-0.418838501,10.286262512,-0.091129273,-0.029794067,0.835679889
33.188046,23.128105164,-0.418838501,9.973457336,-0.089908570,-0.024545044,0.842393756
33.188671,22.899223328,-0.731643677,10.156562805,-0.087100953,-0.023690552,0.842027545
33.189298,23.013664246,-0.907119751,10.042121887,-0.088809937,-0.021615356,0.847398639
33.189925,22.670341492,-0.815567017,10.156562805,-0.086002320,-0.015389770,0.849840045
33.190551,22.548271179,-1.319107056,10.049751282,-0.088565797,-0.013314575,0.853624225
33.191177,22.433830261,-1.280960083,9.927680969,-0.086246461,-0.014535278,0.855577350
33.191802,22.243095398,-1.319107056,9.859016418,-0.086124390,-0.012093872,0.857530475
33.192429,22.014213562,-1.692947388,10.003974915,-0.088443726,-0.013070434,0.860460162
33.193054,21.831108093,-1.639541626,9.836128235,-0.088565797,-0.008797973,0.863756061
33.193681,21.678520203,-1.898941040,9.797981262,-0.084049195,-0.008431762,0.868394732
33.194307,21.815849304,-2.059158325,9.714057922,-0.087100953,-0.010751098,0.869737506
33.194932,21.853996277,-2.051528931,9.836128235,-0.085514039,-0.010873169,0.878404498
33.195558,21.777702332,-2.303298950,9.790351868,-0.086612672,-0.007577270,0.877427936
33.196183,21.518302917,-2.280410767,9.653022766,-0.085758179,-0.009286255,0.881212115
33.196810,21.625114441,-2.371963501,9.439399719,-0.087589234,-0.011117309,0.882799029
33.197436,21.831108093,-2.272781372,9.469917297,-0.084171265,-0.013558716,0.884752154
33.198062,21.617485046,-2.249893188,9.561470032,-0.085636109,-0.010384887,0.888536334
33.198689,21.976066589,-2.501663208,9.187629700,-0.084171265,-0.010751098,0.892808795
33.199315,22.098136902,-2.371963501,9.256294250,-0.083805054,-0.012948364,0.895982623
33.199941,22.151542664,-2.410110474,9.363105774,-0.083438843,-0.011361450,0.896959186
33.200567,22.105766296,-2.196487427,9.088447571,-0.078433961,-0.014657348,0.896715045
33.230653,-10.548042297,7.645431519,9.775093079,0.007625610,0.059073120,0.927598834
33.231423,-11.532234192,7.424179077,9.859016418,0.005550414,0.057486206,0.925401568
33.232048,-12.325691223,7.126632690,9.790351868,0.006649047,0.060537964,0.924913287
33.232675,-12.966560364,7.271591187,9.797981262,0.007259399,0.056021363,0.922471881
33.233302,-13.897346497,7.027450562,9.904792786,0.004451782,0.054190308,0.921007037
33.233927,-15.072273254,6.790939331,9.851387024,0.011898071,0.049429566,0.918687701
33.234553,-15.072273254,6.790939331,9.851387024,0.011898071,0.049429566,0.918687701
33.235180,-16.430305481,6.478134155,10.179450989,0.011653930,0.046011597,0.917344928
33.235806,-16.857551575,6.401840210,10.003974915,0.009578735,0.045523316,0.916368365
33.236431,-17.223762512,6.035629272,9.935310364,0.009456664,0.046621948,0.919420123
33.237058,-17.658638000,5.883041382,10.003974915,0.010067016,0.043814331,0.918809772
33.237683,-17.773078918,5.677047729,10.065010071,0.010677367,0.041861206,0.921495318
33.238308,-17.994331360,5.730453491,9.988716125,0.012996703,0.036856323,0.920640826
33.238934,-18.207954407,5.478683472,9.935310364,0.013973266,0.035391480,0.923204303
33.239561,-18.276618958,5.333724976,9.988716125,0.010799438,0.036245972,0.925767779
33.240186,-17.979072571,5.051437378,10.187080383,0.011287719,0.033194214,0.928331256
33.240813,-18.017219543,4.837814331,10.026863098,0.010067016,0.026968628,0.928575397
33.241439,-18.146919250,4.807296753,9.851387024,0.010555297,0.029898316,0.931627154
33.242064,-17.651008606,4.441085815,10.003974915,0.009456664,0.028189331,0.933580279
33.242689,-17.513679504,4.525009155,9.897163391,0.006771117,0.022574097,0.936143756
33.244435,-16.842292786,3.891769409,9.805610657,0.002864867,0.020743042,0.943345904
33.245061,-16.216682434,4.128280640,9.584358215,0.004207641,0.020376831,0.947130084
33.245686,-15.842842102,3.739181519,9.370735168,0.002620727,0.016714722,0.953355670
33.246311,-15.163825989,4.036727905,9.553840637,0.001033813,0.019888550,0.956041217
33.246937,-14.637397766,3.807846069,9.447029114,0.003597289,0.016348511,0.961412311
33.247562,-14.179634094,3.639999390,9.202888489,-0.000308961,0.013174683,0.964952350
33.248188,-13.370918274,3.731552124,9.012153625,-0.002017945,0.011221558,0.971910357
33.248815,-12.623237610,3.983322144,8.951118469,-0.002140015,0.009878784,0.973741412
33.249442,-12.066291809,3.838363647,8.790901184,-0.001895875,0.006949097,0.977769732
33.250068,-10.883735657,3.891769409,8.722236633,-0.003849000,0.008047730,0.983629107
33.250694,-10.189460754,4.021469116,8.462837219,-0.007999390,0.003775269,0.984849811
33.251320,-9.197639465,4.120651245,8.531501770,-0.002506226,0.003775269,0.991075397
33.251946,-8.358406067,4.463973999,8.119514465,-0.005435914,0.001333863,0.996568561
33.252572,-7.206367493,4.227462769,8.050849915,-0.007999390,0.001700073,0.998521686
33.253197,-6.260322571,4.547897339,7.821968079,-0.006046265,-0.000008911,1.008531451
33.253823,-5.176948547,4.738632202,7.394721985,-0.008487672,-0.000008911,1.010240436
33.254450,-4.162239075,5.150619507,7.562568665,-0.006168336,-0.002328247,1.014634967
33.255076,-3.109382629,5.066696167,7.303169250,-0.004825562,-0.005990356,1.013902545
33.255703,-2.109931946,5.341354370,7.188728333,-0.003482789,-0.003426880,1.019029498
33.256328,-0.797676086,5.684677124,7.013252258,-0.003849000,-0.007333130,1.022935748
33.256953,0.300956726,5.959335327,6.700447083,-0.002750367,-0.009286255,1.023546100
33.257578,1.491142273,6.287399292,6.448677063,-0.004215211,-0.009652466,1.028428912
33.258203,2.559257507,6.798568726,6.326606750,-0.003360718,-0.006478637,1.031602740
33.258828,3.779960632,6.958786011,6.151130676,-0.003849000,-0.008431762,1.029893756
33.259455,5.214286804,7.355514526,5.861213684,-0.004215211,-0.010995239,1.031968951
33.260081,6.282402039,7.675949097,5.586555481,-0.004581422,-0.010506958,1.030748248
33.260707,7.525993347,8.095565796,5.556037903,-0.005313843,-0.014413208,1.035753131
33.261333,8.945060730,8.499923706,5.090644836,-0.006290406,-0.010995239,1.033433795
33.274076,27.515007019,14.481369019,2.389839172,-0.034854859,0.016592652,1.012193561
33.274811,27.629447937,14.824691772,2.412727356,-0.036930054,0.019888550,1.008897662
33.275438,28.064323425,15.282455444,2.305915833,-0.037906617,0.020743042,1.005723834
33.276065,28.247428894,15.160385132,2.153327942,-0.036319703,0.024649292,1.002061725
33.276691,28.239799500,15.221420288,2.191474915,-0.038272828,0.027701050,0.999254107
33.277317,28.239799500,15.717330933,2.115180969,-0.043277711,0.028555542,0.996812701
33.277943,28.262687683,15.572372437,2.092292786,-0.042667359,0.029165894,0.994249225
33.278569,28.171134949,15.892807007,1.993110657,-0.039371461,0.030386597,0.998277545
33.279195,27.904106140,15.808883667,2.000740051,-0.040836304,0.033926636,0.993394732
33.279820,27.789665222,15.816513062,2.153327942,-0.043277711,0.034292847,0.991075397
33.280445,27.537895203,15.984359741,2.023628235,-0.043033570,0.038077027,0.987169147
33.281070,27.125907898,16.152206421,1.939704895,-0.047672242,0.038687378,0.986558795
33.281695,26.752067566,16.297164917,2.099922180,-0.050968140,0.036490113,0.987291217
33.282322,26.263786316,16.205612183,2.099922180,-0.053653687,0.037466675,0.985948443
33.282949,25.722099304,16.365829468,2.199104309,-0.053897828,0.039297730,0.984605670
33.283576,25.264335632,16.434494019,2.206733704,-0.059146851,0.040518433,0.982530475
33.284202,24.882865906,16.190353394,2.481391907,-0.061710328,0.040762573,0.978013873
33.284828,24.097038269,16.396347046,2.489021301,-0.064762086,0.043936402,0.980943561
33.285454,23.311210632,16.403976440,2.572944641,-0.068180054,0.041006714,0.978990436
33.286079,22.624565125,16.594711304,2.893379211,-0.069766968,0.043326050,0.976793170
33.286705,22.037101746,16.556564331,2.710273743,-0.069766968,0.047720581,0.975572467
33.287331,21.159721375,16.609970093,2.794197083,-0.071353883,0.047110230,0.972764850
33.287956,20.381523132,16.609970093,3.076484680,-0.070743531,0.050039917,0.974473834
33.288583,19.527030945,16.548934937,2.901008606,-0.080387086,0.047232300,0.974351764
33.289209,18.588615417,16.541305542,3.061225891,-0.079044312,0.052725464,0.973008990
33.289834,17.818046570,16.533676147,3.580024719,-0.080387086,0.051382691,0.972886920
33.290460,16.765190125,16.442123413,3.358772278,-0.080020875,0.055533081,0.972886920
33.291087,15.864921570,16.709152222,3.580024719,-0.083927125,0.052725464,0.973985553
33.291712,14.819694519,16.579452515,3.755500793,-0.082462281,0.054190308,0.972154498
33.292339,13.759208679,16.838851929,3.793647766,-0.085636109,0.054190308,0.971666217
33.292965,12.752128601,16.701522827,3.992012024,-0.086612672,0.055655152,0.971910357
33.293591,11.645866394,16.617599487,4.144599915,-0.088443726,0.057119995,0.970201373
33.294216,10.646415710,16.640487671,4.358222961,-0.090030640,0.058096558,0.967515826
33.294843,9.578300476,16.487899780,4.297187805,-0.090030640,0.055288941,0.967393756
33.295470,8.639884949,16.609970093,4.724433899,-0.092227906,0.053946167,0.966295123
33.296095,7.442070007,16.487899780,4.678657532,-0.094547242,0.054556519,0.966539264
33.296721,6.274772644,16.320053101,4.846504211,-0.093082398,0.056387573,0.968492389
33.297346,5.313468933,16.510787964,4.930427551,-0.088443726,0.053457886,0.964830279
33.297972,4.046989441,16.495529175,5.273750305,-0.089908570,0.052725464,0.968736529
33.298598,3.223014832,16.312423706,5.189826965,-0.089908570,0.050039917,0.964586139
33.299223,2.002311707,16.358200073,5.571296692,-0.091617554,0.049185425,0.963243365
33.299849,1.155448914,16.136947632,5.533149719,-0.086124390,0.047476441,0.960069537
33.300476,-0.034736633,15.969100952,5.700996399,-0.085025758,0.044058472,0.960924029
33.301102,-0.744270325,15.709701538,5.861213684,-0.086002320,0.041128784,0.959581256
33.301728,-1.659797668,15.671554565,6.120613098,-0.082340211,0.041250855,0.952867389
33.302355,-2.361701965,15.534225464,6.509712219,-0.076480836,0.036856323,0.953233600
33.302981,-3.162788391,15.213790894,6.410530090,-0.074649781,0.035025269,0.952745318
33.303607,-4.002021790,15.381637573,6.669929504,-0.068180054,0.037100464,0.946885943
33.316292,-11.547492981,8.301559448,10.019233704,0.046566039,0.036734253,0.890123248
33.317043,-12.073921204,7.599655151,10.377815247,0.054744750,0.034414917,0.884508014
33.317669,-12.340950012,7.210556030,10.591438293,0.057674438,0.042471558,0.885118365
33.318294,-12.554573059,6.661239624,10.736396790,0.066341430,0.047110230,0.882921100
33.318920,-12.859748840,6.043258667,11.026313782,0.069881469,0.053702027,0.880723834
33.319547,-13.409065247,5.623641968,11.133125305,0.072689086,0.059317261,0.880113482
33.320172,-13.683723450,4.875961304,11.011054993,0.079158813,0.063711792,0.879258990
33.320797,-14.370368958,4.372421265,11.506965637,0.090145141,0.069082886,0.877672076
33.321422,-14.835762024,3.754440308,11.667182922,0.088192016,0.072500855,0.877427936
33.322048,-15.629219055,3.159347534,11.682441711,0.093441039,0.079825073,0.875963092
33.322673,-16.201423645,2.686325073,11.926582336,0.093563110,0.087393433,0.871202350
33.323300,-16.956733704,2.037826538,11.896064758,0.097835571,0.094351441,0.874498248
33.323926,-17.620491028,1.305404663,12.063911438,0.100399047,0.102041870,0.875352740
33.324551,-18.474983215,0.634017944,12.056282043,0.101375610,0.108877808,0.876817584
33.325176,-19.565986633,0.069442749,12.216499329,0.104793578,0.111441284,0.876939654
33.325803,-20.550178528,-0.594314575,12.506416321,0.106136352,0.120108277,0.880235553
33.326428,-21.366523743,-1.174148560,12.422492981,0.106624633,0.123892456,0.879014850
33.327053,-22.610115051,-1.906570435,12.597969055,0.106136352,0.130972534,0.884630084
33.327678,-23.746894836,-2.364334106,12.628486633,0.104305297,0.139273316,0.888658404
33.328303,-24.845527649,-2.967056274,12.712409973,0.099544555,0.148306519,0.884874225
33.328929,-25.951789856,-3.478225708,12.735298157,0.095027953,0.151846558,0.894151568
