time,gyro x,gyro y,gyro z,accel x,accel y,accel z
57.688859,1.600582123,4.253120422,0.508071899,0.035287783,0.075183533,1.010591984
57.691071,0.913936615,4.314155579,0.492813110,0.026376648,0.102649353,0.990450382
57.691847,0.913936615,4.314155579,0.492813110,0.026376648,0.102649353,0.990450382
57.692476,0.913936615,4.314155579,0.492813110,0.026376648,0.102649353,0.990450382
57.693121,0.913936615,4.314155579,0.492813110,0.026376648,0.102649353,0.990450382
57.693757,0.913936615,4.314155579,0.492813110,0.026376648,0.102649353,0.990450382
57.694398,0.913936615,4.314155579,0.492813110,0.026376648,0.102649353,0.990450382
57.695035,0.913936615,4.314155579,0.492813110,0.026376648,0.102649353,0.990450382
57.695677,0.913936615,4.314155579,0.492813110,0.026376648,0.102649353,0.990450382
57.696324,0.913936615,4.314155579,0.492813110,0.026376648,0.102649353,0.990450382
57.696968,0.913936615,4.314155579,0.492813110,0.026376648,0.102649353,0.990450382
57.697605,0.913936615,4.314155579,0.492813110,0.026376648,0.102649353,0.990450382
57.698257,0.913936615,4.314155579,0.492813110,0.026376648,0.102649353,0.990450382
57.698892,0.913936615,4.314155579,0.492813110,0.026376648,0.102649353,0.990450382
57.699524,0.913936615,4.314155579,0.492813110,0.026376648,0.102649353,0.990450382
57.700170,0.913936615,4.314155579,0.492813110,0.026376648,0.102649353,0.990450382
57.700825,2.020198822,4.573554993,0.057937622,0.023813171,0.095935486,0.990450382
57.701454,2.020198822,4.573554993,0.057937622,0.023813171,0.095935486,0.990450382
57.702103,2.020198822,4.573554993,0.057937622,0.023813171,0.095935486,0.990450382
57.702745,2.020198822,4.573554993,0.057937622,0.023813171,0.095935486,0.990450382
57.703387,2.020198822,4.573554993,0.057937622,0.023813171,0.095935486,0.990450382
57.704024,2.020198822,4.573554993,0.057937622,0.023813171,0.095935486,0.990450382
57.704670,2.020198822,4.573554993,0.057937622,0.023813171,0.095935486,0.990450382
57.705306,2.020198822,4.573554993,0.057937622,0.023813171,0.095935486,0.990450382
57.705954,2.020198822,4.573554993,0.057937622,0.023813171,0.095935486,0.990450382
57.706595,2.020198822,4.573554993,0.057937622,0.023813171,0.095935486,0.990450382
57.707238,2.020198822,4.573554993,0.057937622,0.023813171,0.095935486,0.990450382
57.707876,2.020198822,4.573554993,0.057937622,0.023813171,0.095935486,0.990450382
57.708511,2.020198822,4.573554993,0.057937622,0.023813171,0.095935486,0.990450382
57.709148,2.020198822,4.573554993,0.057937622,0.023813171,0.095935486,0.990450382
57.709806,2.020198822,4.573554993,0.057937622,0.023813171,0.095935486,0.990450382
57.711624,1.577693939,4.840583801,0.126602173,0.024545593,0.081775330,0.984224796
57.712365,1.577693939,4.840583801,0.126602173,0.024545593,0.081775330,0.984224796
57.713000,1.577693939,4.840583801,0.126602173,0.024545593,0.081775330,0.984224796
57.713629,1.577693939,4.840583801,0.126602173,0.024545593,0.081775330,0.984224796
57.714262,1.577693939,4.840583801,0.126602173,0.024545593,0.081775330,0.984224796
57.714889,1.577693939,4.840583801,0.126602173,0.024545593,0.081775330,0.984224796
57.715515,1.577693939,4.840583801,0.126602173,0.024545593,0.081775330,0.984224796
57.716154,1.577693939,4.840583801,0.126602173,0.024545593,0.081775330,0.984224796
57.716797,1.577693939,4.840583801,0.126602173,0.024545593,0.081775330,0.984224796
57.717437,1.577693939,4.840583801,0.126602173,0.024545593,0.081775330,0.984224796
57.718073,1.577693939,4.840583801,0.126602173,0.024545593,0.081775330,0.984224796
57.718714,1.577693939,4.840583801,0.126602173,0.024545593,0.081775330,0.984224796
57.719352,1.577693939,4.840583801,0.126602173,0.024545593,0.081775330,0.984224796
57.719983,1.577693939,4.840583801,0.126602173,0.024545593,0.081775330,0.984224796
57.720619,0.768978119,4.924507141,0.172378540,0.026742859,0.083606385,0.986788273
57.721261,0.768978119,4.924507141,0.172378540,0.026742859,0.083606385,0.986788273
57.721892,0.768978119,4.924507141,0.172378540,0.026742859,0.083606385,0.986788273
57.722519,0.768978119,4.924507141,0.172378540,0.026742859,0.083606385,0.986788273
57.723155,0.768978119,4.924507141,0.172378540,0.026742859,0.083606385,0.986788273
57.741178,0.646907806,4.276008606,0.241043091,0.026376648,0.083118103,0.992281437
57.742008,0.646907806,4.276008606,0.241043091,0.026376648,0.083118103,0.992281437
57.742603,0.646907806,4.276008606,0.241043091,0.026376648,0.083118103,0.992281437
57.743229,0.646907806,4.276008606,0.241043091,0.026376648,0.083118103,0.992281437
57.743827,0.646907806,4.276008606,0.241043091,0.026376648,0.083118103,0.992281437
57.744445,0.646907806,4.276008606,0.241043091,0.026376648,0.083118103,0.992281437
57.745042,0.646907806,4.276008606,0.241043091,0.026376648,0.083118103,0.992281437
57.745665,0.646907806,4.276008606,0.241043091,0.026376648,0.083118103,0.992281437
57.746269,0.646907806,4.276008606,0.241043091,0.026376648,0.083118103,0.992281437
57.746885,0.646907806,4.276008606,0.241043091,0.026376648,0.083118103,0.992281437
57.747490,0.646907806,4.276008606,0.241043091,0.026376648,0.083118103,0.992281437
57.748118,0.646907806,4.276008606,0.241043091,0.026376648,0.083118103,0.992281437
57.748723,0.646907806,4.276008606,0.241043091,0.026376648,0.083118103,0.992281437
57.749359,0.646907806,4.276008606,0.241043091,0.026376648,0.083118103,0.992281437
57.749955,0.387508392,3.925056458,-0.025985718,0.024545593,0.077869080,0.994356632
57.750592,0.387508392,3.925056458,-0.025985718,0.024545593,0.077869080,0.994356632
57.751207,0.387508392,3.925056458,-0.025985718,0.024545593,0.077869080,0.994356632
57.751843,0.387508392,3.925056458,-0.025985718,0.024545593,0.077869080,0.994356632
57.752453,0.387508392,3.925056458,-0.025985718,0.024545593,0.077869080,0.994356632
57.753092,0.387508392,3.925056458,-0.025985718,0.024545593,0.077869080,0.994356632
57.753706,0.387508392,3.925056458,-0.025985718,0.024545593,0.077869080,0.994356632
57.754349,0.387508392,3.925056458,-0.025985718,0.024545593,0.077869080,0.994356632
57.754957,0.387508392,3.925056458,-0.025985718,0.024545593,0.077869080,0.994356632
57.755600,0.387508392,3.925056458,-0.025985718,0.024545593,0.077869080,0.994356632
57.756219,0.387508392,3.925056458,-0.025985718,0.024545593,0.077869080,0.994356632
57.756869,0.387508392,3.925056458,-0.025985718,0.024545593,0.077869080,0.994356632
57.757479,0.387508392,3.925056458,-0.025985718,0.024545593,0.077869080,0.994356632
57.758122,0.387508392,3.925056458,-0.025985718,0.024545593,0.077869080,0.994356632
57.758737,0.387508392,3.925056458,-0.025985718,0.024545593,0.077869080,0.994356632
57.759378,0.387508392,3.925056458,-0.025985718,0.024545593,0.077869080,0.994356632
57.761168,0.120479584,4.588813782,-0.109909058,0.017587585,0.083240174,1.005709171
57.761905,0.120479584,4.588813782,-0.109909058,0.017587585,0.083240174,1.005709171
57.762499,0.120479584,4.588813782,-0.109909058,0.017587585,0.083240174,1.005709171
57.763133,0.120479584,4.588813782,-0.109909058,0.017587585,0.083240174,1.005709171
57.763738,0.120479584,4.588813782,-0.109909058,0.017587585,0.083240174,1.005709171
57.764377,0.120479584,4.588813782,-0.109909058,0.017587585,0.083240174,1.005709171
57.764988,0.120479584,4.588813782,-0.109909058,0.017587585,0.083240174,1.005709171
57.765628,0.120479584,4.588813782,-0.109909058,0.017587585,0.083240174,1.005709171
57.766246,0.120479584,4.588813782,-0.109909058,0.017587585,0.083240174,1.005709171
57.766889,0.120479584,4.588813782,-0.109909058,0.017587585,0.083240174,1.005709171
57.767499,0.120479584,4.588813782,-0.109909058,0.017587585,0.083240174,1.005709171
57.768137,0.120479584,4.588813782,-0.109909058,0.017587585,0.083240174,1.005709171
57.768752,0.120479584,4.588813782,-0.109909058,0.017587585,0.083240174,1.005709171
57.769383,0.120479584,4.588813782,-0.109909058,0.017587585,0.083240174,1.005709171
57.769992,1.158077240,6.084175110,0.103713989,0.020273132,0.092761658,1.011324406
57.770626,1.158077240,6.084175110,0.103713989,0.020273132,0.092761658,1.011324406
57.771239,1.158077240,6.084175110,0.103713989,0.020273132,0.092761658,1.011324406
57.771872,1.158077240,6.084175110,0.103713989,0.020273132,0.092761658,1.011324406
57.772473,1.158077240,6.084175110,0.103713989,0.020273132,0.092761658,1.011324406
57.773105,1.158077240,6.084175110,0.103713989,0.020273132,0.092761658,1.011324406
57.786664,2.600032806,7.823677063,-0.621078491,0.024057312,0.087878846,1.010225773
57.787495,2.600032806,7.823677063,-0.621078491,0.024057312,0.087878846,1.010225773
57.788111,2.600032806,7.823677063,-0.621078491,0.024057312,0.087878846,1.010225773
57.788730,2.600032806,7.823677063,-0.621078491,0.024057312,0.087878846,1.010225773
57.789341,2.600032806,7.823677063,-0.621078491,0.024057312,0.087878846,1.010225773
57.789969,3.240901947,9.074897766,-0.888107300,0.017465515,0.090320252,0.987520695
57.790575,3.240901947,9.074897766,-0.888107300,0.017465515,0.090320252,0.987520695
57.791211,3.240901947,9.074897766,-0.888107300,0.017465515,0.090320252,0.987520695
57.791825,3.240901947,9.074897766,-0.888107300,0.017465515,0.090320252,0.987520695
57.792453,3.240901947,9.074897766,-0.888107300,0.017465515,0.090320252,0.987520695
57.793064,3.240901947,9.074897766,-0.888107300,0.017465515,0.090320252,0.987520695
57.793695,3.240901947,9.074897766,-0.888107300,0.017465515,0.090320252,0.987520695
57.794304,3.240901947,9.074897766,-0.888107300,0.017465515,0.090320252,0.987520695
57.794935,3.240901947,9.074897766,-0.888107300,0.017465515,0.090320252,0.987520695
57.795538,3.240901947,9.074897766,-0.888107300,0.017465515,0.090320252,0.987520695
57.796174,3.240901947,9.074897766,-0.888107300,0.017465515,0.090320252,0.987520695
57.796785,3.240901947,9.074897766,-0.888107300,0.017465515,0.090320252,0.987520695
57.797420,3.240901947,9.074897766,-0.888107300,0.017465515,0.090320252,0.987520695
57.798025,3.240901947,9.074897766,-0.888107300,0.017465515,0.090320252,0.987520695
57.798657,3.240901947,9.074897766,-0.888107300,0.017465515,0.090320252,0.987520695
57.799267,3.240901947,9.074897766,-0.888107300,0.017465515,0.090320252,0.987520695
57.799896,3.706295013,9.654731750,-1.200912476,0.019784851,0.103747986,0.960176945
57.800499,3.706295013,9.654731750,-1.200912476,0.019784851,0.103747986,0.960176945
57.801136,3.706295013,9.654731750,-1.200912476,0.019784851,0.103747986,0.960176945
57.801745,3.706295013,9.654731750,-1.200912476,0.019784851,0.103747986,0.960176945
57.802381,3.706295013,9.654731750,-1.200912476,0.019784851,0.103747986,0.960176945
57.802987,3.706295013,9.654731750,-1.200912476,0.019784851,0.103747986,0.960176945
57.803623,3.706295013,9.654731750,-1.200912476,0.019784851,0.103747986,0.960176945
57.804234,3.706295013,9.654731750,-1.200912476,0.019784851,0.103747986,0.960176945
57.804866,3.706295013,9.654731750,-1.200912476,0.019784851,0.103747986,0.960176945
57.806646,3.706295013,9.654731750,-1.200912476,0.019784851,0.103747986,0.960176945
57.807386,3.706295013,9.654731750,-1.200912476,0.019784851,0.103747986,0.960176945
57.807996,3.706295013,9.654731750,-1.200912476,0.019784851,0.103747986,0.960176945
57.808624,3.706295013,9.654731750,-1.200912476,0.019784851,0.103747986,0.960176945
57.809235,3.706295013,9.654731750,-1.200912476,0.019784851,0.103747986,0.960176945
57.809865,3.317195892,9.158821106,-1.544235229,0.019174499,0.093982361,0.934786320
57.810468,3.317195892,9.158821106,-1.544235229,0.019174499,0.093982361,0.934786320
57.811106,3.317195892,9.158821106,-1.544235229,0.019174499,0.093982361,0.934786320
57.811714,3.317195892,9.158821106,-1.544235229,0.019174499,0.093982361,0.934786320
57.812351,3.317195892,9.158821106,-1.544235229,0.019174499,0.093982361,0.934786320
57.812957,3.317195892,9.158821106,-1.544235229,0.019174499,0.093982361,0.934786320
57.813594,3.317195892,9.158821106,-1.544235229,0.019174499,0.093982361,0.934786320
57.814206,3.317195892,9.158821106,-1.544235229,0.019174499,0.093982361,0.934786320
57.814845,3.317195892,9.158821106,-1.544235229,0.019174499,0.093982361,0.934786320
57.815450,3.317195892,9.158821106,-1.544235229,0.019174499,0.093982361,0.934786320
57.816087,3.317195892,9.158821106,-1.544235229,0.019174499,0.093982361,0.934786320
57.816698,3.317195892,9.158821106,-1.544235229,0.019174499,0.093982361,0.934786320
57.817336,3.317195892,9.158821106,-1.544235229,0.019174499,0.093982361,0.934786320
57.817941,3.317195892,9.158821106,-1.544235229,0.019174499,0.093982361,0.934786320
57.831653,-1.557987213,5.817146301,-0.354049683,0.013193054,0.081042908,0.951998234
57.832481,-1.557987213,5.817146301,-0.354049683,0.013193054,0.081042908,0.951998234
57.833118,-1.557987213,5.817146301,-0.354049683,0.013193054,0.081042908,0.951998234
57.833749,-1.557987213,5.817146301,-0.354049683,0.013193054,0.081042908,0.951998234
57.834373,-1.557987213,5.817146301,-0.354049683,0.013193054,0.081042908,0.951998234
57.835011,-1.557987213,5.817146301,-0.354049683,0.013193054,0.081042908,0.951998234
57.835638,-1.557987213,5.817146301,-0.354049683,0.013193054,0.081042908,0.951998234
57.836282,-1.557987213,5.817146301,-0.354049683,0.013193054,0.081042908,0.951998234
57.836906,-1.557987213,5.817146301,-0.354049683,0.013193054,0.081042908,0.951998234
57.837542,-1.557987213,5.817146301,-0.354049683,0.013193054,0.081042908,0.951998234
57.838169,-1.557987213,5.817146301,-0.354049683,0.013193054,0.081042908,0.951998234
57.838815,-1.557987213,5.817146301,-0.354049683,0.013193054,0.081042908,0.951998234
57.839433,-1.428287506,3.825874329,0.187637329,0.010507507,0.095691346,0.986299992
57.840076,-1.428287506,3.825874329,0.187637329,0.010507507,0.095691346,0.986299992
57.840697,-1.428287506,3.825874329,0.187637329,0.010507507,0.095691346,0.986299992
57.841342,-1.428287506,3.825874329,0.187637329,0.010507507,0.095691346,0.986299992
57.841961,-1.428287506,3.825874329,0.187637329,0.010507507,0.095691346,0.986299992
57.842603,-1.428287506,3.825874329,0.187637329,0.010507507,0.095691346,0.986299992
57.843229,-1.428287506,3.825874329,0.187637329,0.010507507,0.095691346,0.986299992
57.843870,-1.428287506,3.825874329,0.187637329,0.010507507,0.095691346,0.986299992
57.844489,-1.428287506,3.825874329,0.187637329,0.010507507,0.095691346,0.986299992
57.845131,-1.428287506,3.825874329,0.187637329,0.010507507,0.095691346,0.986299992
57.845755,-1.428287506,3.825874329,0.187637329,0.010507507,0.095691346,0.986299992
57.846391,-1.428287506,3.825874329,0.187637329,0.010507507,0.095691346,0.986299992
57.847011,-1.428287506,3.825874329,0.187637329,0.010507507,0.095691346,0.986299992
57.847649,-1.428287506,3.825874329,0.187637329,0.010507507,0.095691346,0.986299992
57.848275,-1.428287506,3.825874329,0.187637329,0.010507507,0.095691346,0.986299992
57.848913,-1.428287506,3.825874329,0.187637329,0.010507507,0.095691346,0.986299992
57.849531,0.639278412,2.292366028,0.851394653,0.016977234,0.095203064,1.001680851
57.850170,0.639278412,2.292366028,0.851394653,0.016977234,0.095203064,1.001680851
57.851988,0.639278412,2.292366028,0.851394653,0.016977234,0.095203064,1.001680851
57.852722,0.639278412,2.292366028,0.851394653,0.016977234,0.095203064,1.001680851
57.853341,0.639278412,2.292366028,0.851394653,0.016977234,0.095203064,1.001680851
57.853963,0.639278412,2.292366028,0.851394653,0.016977234,0.095203064,1.001680851
57.854571,0.639278412,2.292366028,0.851394653,0.016977234,0.095203064,1.001680851
57.855202,0.639278412,2.292366028,0.851394653,0.016977234,0.095203064,1.001680851
57.855817,0.639278412,2.292366028,0.851394653,0.016977234,0.095203064,1.001680851
57.856436,0.639278412,2.292366028,0.851394653,0.016977234,0.095203064,1.001680851
57.857048,0.639278412,2.292366028,0.851394653,0.016977234,0.095203064,1.001680851
57.857670,0.639278412,2.292366028,0.851394653,0.016977234,0.095203064,1.001680851
57.858284,0.639278412,2.292366028,0.851394653,0.016977234,0.095203064,1.001680851
57.858909,0.639278412,2.292366028,0.851394653,0.016977234,0.095203064,1.001680851
57.859516,2.470333099,1.689643860,0.942947388,0.028085632,0.084827088,0.990084171
57.860148,2.470333099,1.689643860,0.942947388,0.028085632,0.084827088,0.990084171
57.860771,2.470333099,1.689643860,0.942947388,0.028085632,0.084827088,0.990084171
57.861401,2.470333099,1.689643860,0.942947388,0.028085632,0.084827088,0.990084171
57.862011,2.470333099,1.689643860,0.942947388,0.028085632,0.084827088,0.990084171
57.862645,2.470333099,1.689643860,0.942947388,0.028085632,0.084827088,0.990084171
57.863261,2.470333099,1.689643860,0.942947388,0.028085632,0.084827088,0.990084171
57.863886,2.470333099,1.689643860,0.942947388,0.028085632,0.084827088,0.990084171
57.877844,3.279048920,1.002998352,0.569107056,0.035165712,0.083850525,0.961153507
57.878681,3.279048920,1.002998352,0.569107056,0.035165712,0.083850525,0.961153507
57.879303,3.126461029,-0.004081726,0.225784302,0.042123720,0.085315369,0.936495304
57.879926,3.126461029,-0.004081726,0.225784302,0.042123720,0.085315369,0.936495304
57.880528,3.126461029,-0.004081726,0.225784302,0.042123720,0.085315369,0.936495304
57.881160,3.126461029,-0.004081726,0.225784302,0.042123720,0.085315369,0.936495304
57.881780,3.126461029,-0.004081726,0.225784302,0.042123720,0.085315369,0.936495304
57.882415,3.126461029,-0.004081726,0.225784302,0.042123720,0.085315369,0.936495304
57.883030,3.126461029,-0.004081726,0.225784302,0.042123720,0.085315369,0.936495304
57.883658,3.126461029,-0.004081726,0.225784302,0.042123720,0.085315369,0.936495304
57.884276,3.126461029,-0.004081726,0.225784302,0.042123720,0.085315369,0.936495304
57.884904,3.126461029,-0.004081726,0.225784302,0.042123720,0.085315369,0.936495304
57.885514,3.126461029,-0.004081726,0.225784302,0.042123720,0.085315369,0.936495304
57.886149,3.126461029,-0.004081726,0.225784302,0.042123720,0.085315369,0.936495304
57.886768,3.126461029,-0.004081726,0.225784302,0.042123720,0.085315369,0.936495304
57.887402,3.126461029,-0.004081726,0.225784302,0.042123720,0.085315369,0.936495304
57.888014,3.126461029,-0.004081726,0.225784302,0.042123720,0.085315369,0.936495304
57.888643,3.126461029,-0.004081726,0.225784302,0.042123720,0.085315369,0.936495304
57.889260,2.111751556,-2.041130066,-0.117538452,0.047372743,0.087512635,0.926363468
57.889891,2.111751556,-2.041130066,-0.117538452,0.047372743,0.087512635,0.926363468
57.890504,2.111751556,-2.041130066,-0.117538452,0.047372743,0.087512635,0.926363468
57.891140,2.111751556,-2.041130066,-0.117538452,0.047372743,0.087512635,0.926363468
57.891764,2.111751556,-2.041130066,-0.117538452,0.047372743,0.087512635,0.926363468
57.892393,2.111751556,-2.041130066,-0.117538452,0.047372743,0.087512635,0.926363468
57.893009,2.111751556,-2.041130066,-0.117538452,0.047372743,0.087512635,0.926363468
57.893643,2.111751556,-2.041130066,-0.117538452,0.047372743,0.087512635,0.926363468
57.894263,2.111751556,-2.041130066,-0.117538452,0.047372743,0.087512635,0.926363468
57.894893,2.111751556,-2.041130066,-0.117538452,0.047372743,0.087512635,0.926363468
57.895507,2.111751556,-2.041130066,-0.117538452,0.047372743,0.087512635,0.926363468
57.896142,2.111751556,-2.041130066,-0.117538452,0.047372743,0.087512635,0.926363468
57.897947,2.111751556,-2.041130066,-0.117538452,0.047372743,0.087512635,0.926363468
57.898691,2.111751556,-2.041130066,-0.117538452,0.047372743,0.087512635,0.926363468
57.899307,0.585872650,-5.520133972,-0.201461792,0.045175478,0.085681580,0.935518742
57.899933,0.585872650,-5.520133972,-0.201461792,0.045175478,0.085681580,0.935518742
57.900537,0.585872650,-5.520133972,-0.201461792,0.045175478,0.085681580,0.935518742
57.901165,0.585872650,-5.520133972,-0.201461792,0.045175478,0.085681580,0.935518742
57.901779,0.585872650,-5.520133972,-0.201461792,0.045175478,0.085681580,0.935518742
57.902414,0.585872650,-5.520133972,-0.201461792,0.045175478,0.085681580,0.935518742
57.903030,0.585872650,-5.520133972,-0.201461792,0.045175478,0.085681580,0.935518742
57.903659,0.585872650,-5.520133972,-0.201461792,0.045175478,0.085681580,0.935518742
57.904281,0.585872650,-5.520133972,-0.201461792,0.045175478,0.085681580,0.935518742
57.904912,0.585872650,-5.520133972,-0.201461792,0.045175478,0.085681580,0.935518742
57.905525,0.585872650,-5.520133972,-0.201461792,0.045175478,0.085681580,0.935518742
57.906163,0.585872650,-5.520133972,-0.201461792,0.045175478,0.085681580,0.935518742
57.906787,0.585872650,-5.520133972,-0.201461792,0.045175478,0.085681580,0.935518742
57.907423,0.585872650,-5.520133972,-0.201461792,0.045175478,0.085681580,0.935518742
57.908039,0.585872650,-5.520133972,-0.201461792,0.045175478,0.085681580,0.935518742
57.908668,0.585872650,-5.520133972,-0.201461792,0.045175478,0.085681580,0.935518742
57.909288,0.158626556,-9.876518250,0.576736450,0.039316103,0.089709900,0.961641788
57.923399,1.058895111,-14.507560730,1.873733521,0.038705751,0.097034119,0.983614445
57.924230,1.058895111,-14.507560730,1.873733521,0.038705751,0.097034119,0.983614445
57.924866,1.058895111,-14.507560730,1.873733521,0.038705751,0.097034119,0.983614445
57.925498,1.058895111,-14.507560730,1.873733521,0.038705751,0.097034119,0.983614445
57.926124,1.058895111,-14.507560730,1.873733521,0.038705751,0.097034119,0.983614445
57.926757,1.058895111,-14.507560730,1.873733521,0.038705751,0.097034119,0.983614445
57.927374,1.058895111,-14.507560730,1.873733521,0.038705751,0.097034119,0.983614445
57.928011,1.058895111,-14.507560730,1.873733521,0.038705751,0.097034119,0.983614445
57.928622,1.058895111,-14.507560730,1.873733521,0.038705751,0.097034119,0.983614445
57.929272,2.485591888,-17.910270691,2.400161743,0.047983095,0.097400330,0.991060734
57.929890,2.485591888,-17.910270691,2.400161743,0.047983095,0.097400330,0.991060734
57.930522,2.485591888,-17.910270691,2.400161743,0.047983095,0.097400330,0.991060734
57.931146,2.485591888,-17.910270691,2.400161743,0.047983095,0.097400330,0.991060734
57.931808,2.485591888,-17.910270691,2.400161743,0.047983095,0.097400330,0.991060734
57.932414,2.485591888,-17.910270691,2.400161743,0.047983095,0.097400330,0.991060734
57.933066,2.485591888,-17.910270691,2.400161743,0.047983095,0.097400330,0.991060734
57.933674,2.485591888,-17.910270691,2.400161743,0.047983095,0.097400330,0.991060734
57.934327,2.485591888,-17.910270691,2.400161743,0.047983095,0.097400330,0.991060734
57.934944,2.485591888,-17.910270691,2.400161743,0.047983095,0.097400330,0.991060734
57.935582,2.485591888,-17.910270691,2.400161743,0.047983095,0.097400330,0.991060734
57.936206,2.485591888,-17.910270691,2.400161743,0.047983095,0.097400330,0.991060734
57.936855,2.485591888,-17.910270691,2.400161743,0.047983095,0.097400330,0.991060734
57.937462,2.485591888,-17.910270691,2.400161743,0.047983095,0.097400330,0.991060734
57.938110,2.485591888,-17.910270691,2.400161743,0.047983095,0.097400330,0.991060734
57.938722,2.485591888,-17.910270691,2.400161743,0.047983095,0.097400330,0.991060734
57.939371,3.347713470,-19.985466003,2.102615356,0.050058290,0.098132752,0.986544132
57.939982,3.347713470,-19.985466003,2.102615356,0.050058290,0.098132752,0.986544132
57.940625,3.347713470,-19.985466003,2.102615356,0.050058290,0.098132752,0.986544132
57.941252,3.347713470,-19.985466003,2.102615356,0.050058290,0.098132752,0.986544132
57.941897,3.347713470,-19.985466003,2.102615356,0.050058290,0.098132752,0.986544132
57.943699,3.347713470,-19.985466003,2.102615356,0.050058290,0.098132752,0.986544132
57.944448,3.347713470,-19.985466003,2.102615356,0.050058290,0.098132752,0.986544132
57.945078,3.347713470,-19.985466003,2.102615356,0.050058290,0.098132752,0.986544132
57.945712,3.347713470,-19.985466003,2.102615356,0.050058290,0.098132752,0.986544132
57.946342,3.347713470,-19.985466003,2.102615356,0.050058290,0.098132752,0.986544132
57.946982,3.347713470,-19.985466003,2.102615356,0.050058290,0.098132752,0.986544132
57.947598,3.347713470,-19.985466003,2.102615356,0.050058290,0.098132752,0.986544132
57.948248,3.347713470,-19.985466003,2.102615356,0.050058290,0.098132752,0.986544132
57.948869,3.530818939,-21.312980652,1.690628052,0.042245790,0.097644471,0.966036320
57.949509,3.530818939,-21.312980652,1.690628052,0.042245790,0.097644471,0.966036320
57.950132,3.530818939,-21.312980652,1.690628052,0.042245790,0.097644471,0.966036320
57.950766,3.530818939,-21.312980652,1.690628052,0.042245790,0.097644471,0.966036320
57.951389,3.530818939,-21.312980652,1.690628052,0.042245790,0.097644471,0.966036320
57.952030,3.530818939,-21.312980652,1.690628052,0.042245790,0.097644471,0.966036320
57.952647,3.530818939,-21.312980652,1.690628052,0.042245790,0.097644471,0.966036320
57.953292,3.530818939,-21.312980652,1.690628052,0.042245790,0.097644471,0.966036320
57.953907,3.530818939,-21.312980652,1.690628052,0.042245790,0.097644471,0.966036320
57.954547,3.530818939,-21.312980652,1.690628052,0.042245790,0.097644471,0.966036320
57.955170,3.530818939,-21.312980652,1.690628052,0.042245790,0.097644471,0.966036320
57.970680,-0.161808014,-23.433952332,2.285720825,0.039804384,0.113147400,0.920992374
57.971519,-0.161808014,-23.433952332,2.285720825,0.039804384,0.113147400,0.920992374
57.972144,-0.161808014,-23.433952332,2.285720825,0.039804384,0.113147400,0.920992374
57.972769,-0.161808014,-23.433952332,2.285720825,0.039804384,0.113147400,0.920992374
57.973393,-0.161808014,-23.433952332,2.285720825,0.039804384,0.113147400,0.920992374
57.974035,-0.161808014,-23.433952332,2.285720825,0.039804384,0.113147400,0.920992374
57.974646,-0.161808014,-23.433952332,2.285720825,0.039804384,0.113147400,0.920992374
57.975294,-0.161808014,-23.433952332,2.285720825,0.039804384,0.113147400,0.920992374
57.975914,-0.161808014,-23.433952332,2.285720825,0.039804384,0.113147400,0.920992374
57.976555,-0.161808014,-23.433952332,2.285720825,0.039804384,0.113147400,0.920992374
57.977179,-0.161808014,-23.433952332,2.285720825,0.039804384,0.113147400,0.920992374
57.977827,-0.161808014,-23.433952332,2.285720825,0.039804384,0.113147400,0.920992374
57.978445,-0.161808014,-23.433952332,2.285720825,0.039804384,0.113147400,0.920992374
57.979093,-3.038089752,-26.378898621,3.002883911,0.038583681,0.073230408,1.033785343
57.979703,-3.038089752,-26.378898621,3.002883911,0.038583681,0.073230408,1.033785343
57.980351,-3.038089752,-26.378898621,3.002883911,0.038583681,0.073230408,1.033785343
57.980966,-3.038089752,-26.378898621,3.002883911,0.038583681,0.073230408,1.033785343
57.981607,-3.038089752,-26.378898621,3.002883911,0.038583681,0.073230408,1.033785343
57.982230,-3.038089752,-26.378898621,3.002883911,0.038583681,0.073230408,1.033785343
57.982866,-3.038089752,-26.378898621,3.002883911,0.038583681,0.073230408,1.033785343
57.983483,-3.038089752,-26.378898621,3.002883911,0.038583681,0.073230408,1.033785343
57.984129,-3.038089752,-26.378898621,3.002883911,0.038583681,0.073230408,1.033785343
57.984741,-3.038089752,-26.378898621,3.002883911,0.038583681,0.073230408,1.033785343
57.985389,-3.038089752,-26.378898621,3.002883911,0.038583681,0.073230408,1.033785343
57.986006,-3.038089752,-26.378898621,3.002883911,0.038583681,0.073230408,1.033785343
57.986641,-3.038089752,-26.378898621,3.002883911,0.038583681,0.073230408,1.033785343
57.987263,-3.038089752,-26.378898621,3.002883911,0.038583681,0.073230408,1.033785343
57.987896,-3.038089752,-26.378898621,3.002883911,0.038583681,0.073230408,1.033785343
57.988511,-3.038089752,-26.378898621,3.002883911,0.038583681,0.073230408,1.033785343
57.989158,-5.479496002,-26.821403503,4.315139771,0.046640322,0.094226502,1.043428898
57.990957,-5.479496002,-26.821403503,4.315139771,0.046640322,0.094226502,1.043428898
57.991700,-5.479496002,-26.821403503,4.315139771,0.046640322,0.094226502,1.043428898
57.992325,-5.479496002,-26.821403503,4.315139771,0.046640322,0.094226502,1.043428898
57.992957,-5.479496002,-26.821403503,4.315139771,0.046640322,0.094226502,1.043428898
57.993565,-5.479496002,-26.821403503,4.315139771,0.046640322,0.094226502,1.043428898
57.994204,-5.479496002,-26.821403503,4.315139771,0.046640322,0.094226502,1.043428898
57.994821,-5.479496002,-26.821403503,4.315139771,0.046640322,0.094226502,1.043428898
57.995443,-5.479496002,-26.821403503,4.315139771,0.046640322,0.094226502,1.043428898
57.996065,-5.479496002,-26.821403503,4.315139771,0.046640322,0.094226502,1.043428898
57.996701,-5.479496002,-26.821403503,4.315139771,0.046640322,0.094226502,1.043428898
57.997321,-5.479496002,-26.821403503,4.315139771,0.046640322,0.094226502,1.043428898
57.997954,-5.479496002,-26.821403503,4.315139771,0.046640322,0.094226502,1.043428898
57.998562,-5.212467194,-27.096061707,5.017044067,0.060434267,0.120837830,1.075289249
57.999207,-5.212467194,-27.096061707,5.017044067,0.060434267,0.120837830,1.075289249
57.999831,-5.212467194,-27.096061707,5.017044067,0.060434267,0.120837830,1.075289249
58.000459,-5.212467194,-27.096061707,5.017044067,0.060434267,0.120837830,1.075289249
58.001083,-5.212467194,-27.096061707,5.017044067,0.060434267,0.120837830,1.075289249
58.001728,-5.212467194,-27.096061707,5.017044067,0.060434267,0.120837830,1.075289249
58.017413,-1.619022369,-25.211601257,4.078628540,0.075937197,0.137073189,1.088716984
58.018252,-1.619022369,-25.211601257,4.078628540,0.075937197,0.137073189,1.088716984
58.018891,3.240901947,-21.656303406,2.255203247,0.084482118,0.134143502,1.085543156
58.019522,3.240901947,-21.656303406,2.255203247,0.084482118,0.134143502,1.085543156
58.020158,3.240901947,-21.656303406,2.255203247,0.084482118,0.134143502,1.085543156
58.020812,3.240901947,-21.656303406,2.255203247,0.084482118,0.134143502,1.085543156
58.021436,3.240901947,-21.656303406,2.255203247,0.084482118,0.134143502,1.085543156
58.022087,3.240901947,-21.656303406,2.255203247,0.084482118,0.134143502,1.085543156
58.022702,3.240901947,-21.656303406,2.255203247,0.084482118,0.134143502,1.085543156
58.023351,3.240901947,-21.656303406,2.255203247,0.084482118,0.134143502,1.085543156
58.023970,3.240901947,-21.656303406,2.255203247,0.084482118,0.134143502,1.085543156
58.024607,3.240901947,-21.656303406,2.255203247,0.084482118,0.134143502,1.085543156
58.025239,3.240901947,-21.656303406,2.255203247,0.084482118,0.134143502,1.085543156
58.025887,3.240901947,-21.656303406,2.255203247,0.084482118,0.134143502,1.085543156
58.026501,3.240901947,-21.656303406,2.255203247,0.084482118,0.134143502,1.085543156
58.027150,3.240901947,-21.656303406,2.255203247,0.084482118,0.134143502,1.085543156
58.027785,3.240901947,-21.656303406,2.255203247,0.084482118,0.134143502,1.085543156
58.028424,6.841976166,-16.292839050,0.401260376,0.084970400,0.113269471,1.055880070
58.029048,6.841976166,-16.292839050,0.401260376,0.084970400,0.113269471,1.055880070
58.029683,6.841976166,-16.292839050,0.401260376,0.084970400,0.113269471,1.055880070
58.030315,6.841976166,-16.292839050,0.401260376,0.084970400,0.113269471,1.055880070
58.030956,6.841976166,-16.292839050,0.401260376,0.084970400,0.113269471,1.055880070
58.031579,6.841976166,-16.292839050,0.401260376,0.084970400,0.113269471,1.055880070
58.032226,6.841976166,-16.292839050,0.401260376,0.084970400,0.113269471,1.055880070
58.032855,6.841976166,-16.292839050,0.401260376,0.084970400,0.113269471,1.055880070
58.033489,6.841976166,-16.292839050,0.401260376,0.084970400,0.113269471,1.055880070
58.034119,6.841976166,-16.292839050,0.401260376,0.084970400,0.113269471,1.055880070
58.034750,6.841976166,-16.292839050,0.401260376,0.084970400,0.113269471,1.055880070
58.035381,6.841976166,-16.292839050,0.401260376,0.084970400,0.113269471,1.055880070
58.036011,6.841976166,-16.292839050,0.401260376,0.084970400,0.113269471,1.055880070
58.037815,6.841976166,-16.292839050,0.401260376,0.084970400,0.113269471,1.055880070
58.038560,8.200008392,-10.021476746,-1.193283081,0.078500673,0.090076111,1.006319523
58.039193,8.200008392,-10.021476746,-1.193283081,0.078500673,0.090076111,1.006319523
58.039839,8.200008392,-10.021476746,-1.193283081,0.078500673,0.090076111,1.006319523
58.040466,8.200008392,-10.021476746,-1.193283081,0.078500673,0.090076111,1.006319523
58.041112,8.200008392,-10.021476746,-1.193283081,0.078500673,0.090076111,1.006319523
58.041729,8.200008392,-10.021476746,-1.193283081,0.078500673,0.090076111,1.006319523
58.042381,8.200008392,-10.021476746,-1.193283081,0.078500673,0.090076111,1.006319523
58.043002,8.200008392,-10.021476746,-1.193283081,0.078500673,0.090076111,1.006319523
58.043640,8.200008392,-10.021476746,-1.193283081,0.078500673,0.090076111,1.006319523
58.044273,8.200008392,-10.021476746,-1.193283081,0.078500673,0.090076111,1.006319523
58.044905,8.200008392,-10.021476746,-1.193283081,0.078500673,0.090076111,1.006319523
58.045529,8.200008392,-10.021476746,-1.193283081,0.078500673,0.090076111,1.006319523
58.046180,8.200008392,-10.021476746,-1.193283081,0.078500673,0.090076111,1.006319523
58.046797,8.200008392,-10.021476746,-1.193283081,0.078500673,0.090076111,1.006319523
58.047444,8.200008392,-10.021476746,-1.193283081,0.078500673,0.090076111,1.006319523
58.048078,8.200008392,-10.021476746,-1.193283081,0.078500673,0.090076111,1.006319523
58.048711,7.444698334,-3.322868347,-2.604721069,0.071542665,0.073840760,0.957613468
58.067580,5.102474213,3.032417297,-3.520248413,0.066171572,0.061633728,0.922579288
58.068426,1.951534271,8.014411926,-4.527328491,0.057870790,0.061511658,0.909395695
58.069061,1.951534271,8.014411926,-4.527328491,0.057870790,0.061511658,0.909395695
58.069691,1.951534271,8.014411926,-4.527328491,0.057870790,0.061511658,0.909395695
58.070308,1.951534271,8.014411926,-4.527328491,0.057870790,0.061511658,0.909395695
58.070933,1.951534271,8.014411926,-4.527328491,0.057870790,0.061511658,0.909395695
58.071540,1.951534271,8.014411926,-4.527328491,0.057870790,0.061511658,0.909395695
58.072176,1.951534271,8.014411926,-4.527328491,0.057870790,0.061511658,0.909395695
58.072781,1.951534271,8.014411926,-4.527328491,0.057870790,0.061511658,0.909395695
58.073412,1.951534271,8.014411926,-4.527328491,0.057870790,0.061511658,0.909395695
58.074022,1.951534271,8.014411926,-4.527328491,0.057870790,0.061511658,0.909395695
58.074649,1.951534271,8.014411926,-4.527328491,0.057870790,0.061511658,0.909395695
58.075263,1.951534271,8.014411926,-4.527328491,0.057870790,0.061511658,0.909395695
58.075891,1.951534271,8.014411926,-4.527328491,0.057870790,0.061511658,0.909395695
58.076495,1.951534271,8.014411926,-4.527328491,0.057870790,0.061511658,0.909395695
58.077127,1.951534271,8.014411926,-4.527328491,0.057870790,0.061511658,0.909395695
58.077738,1.951534271,8.014411926,-4.527328491,0.057870790,0.061511658,0.909395695
58.078368,-1.329105377,11.584968567,-5.458114624,0.051767275,0.066394471,0.921724796
58.078988,-1.329105377,11.584968567,-5.458114624,0.051767275,0.066394471,0.921724796
58.079629,-1.329105377,11.584968567,-5.458114624,0.051767275,0.066394471,0.921724796
58.080254,-1.329105377,11.584968567,-5.458114624,0.051767275,0.066394471,0.921724796
58.080884,-1.329105377,11.584968567,-5.458114624,0.051767275,0.066394471,0.921724796
58.081508,-1.329105377,11.584968567,-5.458114624,0.051767275,0.066394471,0.921724796
58.082150,-1.329105377,11.584968567,-5.458114624,0.051767275,0.066394471,0.921724796
58.082769,-1.329105377,11.584968567,-5.458114624,0.051767275,0.066394471,0.921724796
58.083417,-1.329105377,11.584968567,-5.458114624,0.051767275,0.066394471,0.921724796
58.084034,-1.329105377,11.584968567,-5.458114624,0.051767275,0.066394471,0.921724796
58.084664,-1.329105377,11.584968567,-5.458114624,0.051767275,0.066394471,0.921724796
58.085295,-1.329105377,11.584968567,-5.458114624,0.051767275,0.066394471,0.921724796
58.085927,-1.329105377,11.584968567,-5.458114624,0.051767275,0.066394471,0.921724796
58.087729,-1.329105377,11.584968567,-5.458114624,0.051767275,0.066394471,0.921724796
58.088476,-2.862613678,14.209480286,-5.503890991,0.042367861,0.072742127,0.943331242
58.089108,-2.862613678,14.209480286,-5.503890991,0.042367861,0.072742127,0.943331242
58.089743,-2.862613678,14.209480286,-5.503890991,0.042367861,0.072742127,0.943331242
58.090369,-2.862613678,14.209480286,-5.503890991,0.042367861,0.072742127,0.943331242
58.091008,-2.862613678,14.209480286,-5.503890991,0.042367861,0.072742127,0.943331242
58.091623,-2.862613678,14.209480286,-5.503890991,0.042367861,0.072742127,0.943331242
58.092270,-2.862613678,14.209480286,-5.503890991,0.042367861,0.072742127,0.943331242
58.092882,-2.862613678,14.209480286,-5.503890991,0.042367861,0.072742127,0.943331242
58.093523,-2.862613678,14.209480286,-5.503890991,0.042367861,0.072742127,0.943331242
58.094150,-2.862613678,14.209480286,-5.503890991,0.042367861,0.072742127,0.943331242
58.094787,-2.862613678,14.209480286,-5.503890991,0.042367861,0.072742127,0.943331242
58.095415,-2.862613678,14.209480286,-5.503890991,0.042367861,0.072742127,0.943331242
58.096062,-2.862613678,14.209480286,-5.503890991,0.042367861,0.072742127,0.943331242
58.096674,-2.862613678,14.209480286,-5.503890991,0.042367861,0.072742127,0.943331242
58.097325,-2.862613678,14.209480286,-5.503890991,0.042367861,0.072742127,0.943331242
58.097937,-2.862613678,14.209480286,-5.503890991,0.042367861,0.072742127,0.943331242
58.098583,-2.900760651,15.720100403,-5.351303101,0.041269228,0.082873963,0.959688663
58.099209,-2.900760651,15.720100403,-5.351303101,0.041269228,0.082873963,0.959688663
58.115873,-2.252262115,15.926094055,-5.442855835,0.041391298,0.084582947,0.965914249
58.116706,-2.252262115,15.926094055,-5.442855835,0.041391298,0.084582947,0.965914249
58.117345,-2.252262115,15.926094055,-5.442855835,0.041391298,0.084582947,0.965914249
58.117989,-1.619022369,15.193672180,-5.275009155,0.044931337,0.083240174,0.957369328
58.118612,-1.619022369,15.193672180,-5.275009155,0.044931337,0.083240174,0.957369328
58.119262,-1.619022369,15.193672180,-5.275009155,0.044931337,0.083240174,0.957369328
58.119878,-1.619022369,15.193672180,-5.275009155,0.044931337,0.083240174,0.957369328
58.120521,-1.619022369,15.193672180,-5.275009155,0.044931337,0.083240174,0.957369328
58.121147,-1.619022369,15.193672180,-5.275009155,0.044931337,0.083240174,0.957369328
58.121798,-1.619022369,15.193672180,-5.275009155,0.044931337,0.083240174,0.957369328
58.122421,-1.619022369,15.193672180,-5.275009155,0.044931337,0.083240174,0.957369328
58.123072,-1.619022369,15.193672180,-5.275009155,0.044931337,0.083240174,0.957369328
58.123700,-1.619022369,15.193672180,-5.275009155,0.044931337,0.083240174,0.957369328
58.124351,-1.619022369,15.193672180,-5.275009155,0.044931337,0.083240174,0.957369328
58.124970,-1.619022369,15.193672180,-5.275009155,0.044931337,0.083240174,0.957369328
58.125628,-1.619022369,15.193672180,-5.275009155,0.044931337,0.083240174,0.957369328
58.126257,-1.619022369,15.193672180,-5.275009155,0.044931337,0.083240174,0.957369328
58.126901,-1.619022369,15.193672180,-5.275009155,0.044931337,0.083240174,0.957369328
58.127523,-1.619022369,15.193672180,-5.275009155,0.044931337,0.083240174,0.957369328
58.128175,-2.008121490,13.324470520,-5.145309448,0.050058290,0.077380799,0.952730656
58.128798,-2.008121490,13.324470520,-5.145309448,0.050058290,0.077380799,0.952730656
58.129445,-2.008121490,13.324470520,-5.145309448,0.050058290,0.077380799,0.952730656
58.130072,-2.008121490,13.324470520,-5.145309448,0.050058290,0.077380799,0.952730656
58.130721,-2.008121490,13.324470520,-5.145309448,0.050058290,0.077380799,0.952730656
58.131350,-2.008121490,13.324470520,-5.145309448,0.050058290,0.077380799,0.952730656
58.131993,-2.008121490,13.324470520,-5.145309448,0.050058290,0.077380799,0.952730656
58.132624,-2.008121490,13.324470520,-5.145309448,0.050058290,0.077380799,0.952730656
58.133277,-2.008121490,13.324470520,-5.145309448,0.050058290,0.077380799,0.952730656
58.133896,-2.008121490,13.324470520,-5.145309448,0.050058290,0.077380799,0.952730656
58.134541,-2.008121490,13.324470520,-5.145309448,0.050058290,0.077380799,0.952730656
58.136360,-2.008121490,13.324470520,-5.145309448,0.050058290,0.077380799,0.952730656
58.137106,-2.008121490,13.324470520,-5.145309448,0.050058290,0.077380799,0.952730656
58.137731,-3.534000397,10.318489075,-5.160568237,0.048715517,0.073596619,0.958712101
58.138373,-3.534000397,10.318489075,-5.160568237,0.048715517,0.073596619,0.958712101
58.138995,-3.534000397,10.318489075,-5.160568237,0.048715517,0.073596619,0.958712101
58.139639,-3.534000397,10.318489075,-5.160568237,0.048715517,0.073596619,0.958712101
58.140271,-3.534000397,10.318489075,-5.160568237,0.048715517,0.073596619,0.958712101
58.140910,-3.534000397,10.318489075,-5.160568237,0.048715517,0.073596619,0.958712101
58.141526,-3.534000397,10.318489075,-5.160568237,0.048715517,0.073596619,0.958712101
58.142181,-3.534000397,10.318489075,-5.160568237,0.048715517,0.073596619,0.958712101
58.142810,-3.534000397,10.318489075,-5.160568237,0.048715517,0.073596619,0.958712101
58.143447,-3.534000397,10.318489075,-5.160568237,0.048715517,0.073596619,0.958712101
58.144080,-3.534000397,10.318489075,-5.160568237,0.048715517,0.073596619,0.958712101
58.144728,-3.534000397,10.318489075,-5.160568237,0.048715517,0.073596619,0.958712101
58.145354,-3.534000397,10.318489075,-5.160568237,0.048715517,0.073596619,0.958712101
58.146000,-3.534000397,10.318489075,-5.160568237,0.048715517,0.073596619,0.958712101
58.146622,-3.534000397,10.318489075,-5.160568237,0.048715517,0.073596619,0.958712101
58.147275,-3.534000397,10.318489075,-5.160568237,0.048715517,0.073596619,0.958712101
58.164795,-4.945438385,1.918525696,-3.848312378,0.037362978,0.086047791,1.012545109
58.165634,-4.945438385,1.918525696,-3.848312378,0.037362978,0.086047791,1.012545109
58.166256,-4.945438385,1.918525696,-3.848312378,0.037362978,0.086047791,1.012545109
58.166882,-4.945438385,1.918525696,-3.848312378,0.037362978,0.086047791,1.012545109
58.167483,-4.945438385,1.918525696,-3.848312378,0.037362978,0.086047791,1.012545109
58.168115,-3.404300690,-2.567558289,-2.749679565,0.036142275,0.098010682,1.035616398
58.168724,-3.404300690,-2.567558289,-2.749679565,0.036142275,0.098010682,1.035616398
58.169355,-3.404300690,-2.567558289,-2.749679565,0.036142275,0.098010682,1.035616398
58.169963,-3.404300690,-2.567558289,-2.749679565,0.036142275,0.098010682,1.035616398
58.170600,-3.404300690,-2.567558289,-2.749679565,0.036142275,0.098010682,1.035616398
58.171213,-3.404300690,-2.567558289,-2.749679565,0.036142275,0.098010682,1.035616398
58.171847,-3.404300690,-2.567558289,-2.749679565,0.036142275,0.098010682,1.035616398
58.172450,-3.404300690,-2.567558289,-2.749679565,0.036142275,0.098010682,1.035616398
58.173082,-3.404300690,-2.567558289,-2.749679565,0.036142275,0.098010682,1.035616398
58.173693,-3.404300690,-2.567558289,-2.749679565,0.036142275,0.098010682,1.035616398
58.174326,-3.404300690,-2.567558289,-2.749679565,0.036142275,0.098010682,1.035616398
58.174931,-3.404300690,-2.567558289,-2.749679565,0.036142275,0.098010682,1.035616398
58.175561,-3.404300690,-2.567558289,-2.749679565,0.036142275,0.098010682,1.035616398
58.176172,-3.404300690,-2.567558289,-2.749679565,0.036142275,0.098010682,1.035616398
58.176798,-3.404300690,-2.567558289,-2.749679565,0.036142275,0.098010682,1.035616398
58.177413,-3.404300690,-2.567558289,-2.749679565,0.036142275,0.098010682,1.035616398
58.178037,-1.031558990,-6.229667664,-2.337692261,0.034189150,0.105701111,1.044283390
58.178648,-1.031558990,-6.229667664,-2.337692261,0.034189150,0.105701111,1.044283390
58.179284,-1.031558990,-6.229667664,-2.337692261,0.034189150,0.105701111,1.044283390
58.179892,-1.031558990,-6.229667664,-2.337692261,0.034189150,0.105701111,1.044283390
58.180519,-1.031558990,-6.229667664,-2.337692261,0.034189150,0.105701111,1.044283390
58.181135,-1.031558990,-6.229667664,-2.337692261,0.034189150,0.105701111,1.044283390
58.181763,-1.031558990,-6.229667664,-2.337692261,0.034189150,0.105701111,1.044283390
58.182370,-1.031558990,-6.229667664,-2.337692261,0.034189150,0.105701111,1.044283390
58.183000,-1.031558990,-6.229667664,-2.337692261,0.034189150,0.105701111,1.044283390
58.184786,-1.031558990,-6.229667664,-2.337692261,0.034189150,0.105701111,1.044283390
58.185528,-1.031558990,-6.229667664,-2.337692261,0.034189150,0.105701111,1.044283390
58.186148,-1.031558990,-6.229667664,-2.337692261,0.034189150,0.105701111,1.044283390
58.186774,-1.031558990,-6.229667664,-2.337692261,0.034189150,0.105701111,1.044283390
58.187388,-1.031558990,-6.229667664,-2.337692261,0.034189150,0.105701111,1.044283390
58.188014,0.952083588,-8.289604187,-2.360580444,0.026132507,0.103015564,1.031832218
58.188625,0.952083588,-8.289604187,-2.360580444,0.026132507,0.103015564,1.031832218
58.189260,0.952083588,-8.289604187,-2.360580444,0.026132507,0.103015564,1.031832218
58.189869,0.952083588,-8.289604187,-2.360580444,0.026132507,0.103015564,1.031832218
58.190495,0.952083588,-8.289604187,-2.360580444,0.026132507,0.103015564,1.031832218
58.191112,0.952083588,-8.289604187,-2.360580444,0.026132507,0.103015564,1.031832218
58.191741,0.952083588,-8.289604187,-2.360580444,0.026132507,0.103015564,1.031832218
58.192357,0.952083588,-8.289604187,-2.360580444,0.026132507,0.103015564,1.031832218
58.192985,0.952083588,-8.289604187,-2.360580444,0.026132507,0.103015564,1.031832218
58.193600,0.952083588,-8.289604187,-2.360580444,0.026132507,0.103015564,1.031832218
58.194234,0.952083588,-8.289604187,-2.360580444,0.026132507,0.103015564,1.031832218
58.194847,0.952083588,-8.289604187,-2.360580444,0.026132507,0.103015564,1.031832218
58.195474,0.952083588,-8.289604187,-2.360580444,0.026132507,0.103015564,1.031832218
58.196088,0.952083588,-8.289604187,-2.360580444,0.026132507,0.103015564,1.031832218
58.213754,1.440364838,-10.257987976,-1.605270386,0.017587585,0.096057557,0.980196476
58.214585,1.440364838,-10.257987976,-1.605270386,0.017587585,0.096057557,0.980196476
58.215215,1.440364838,-10.257987976,-1.605270386,0.017587585,0.096057557,0.980196476
58.215844,1.440364838,-10.257987976,-1.605270386,0.017587585,0.096057557,0.980196476
58.216453,1.440364838,-10.257987976,-1.605270386,0.017587585,0.096057557,0.980196476
58.217100,1.440364838,-10.257987976,-1.605270386,0.017587585,0.096057557,0.980196476
58.217709,0.059444427,-10.952262878,-1.155136108,0.025888367,0.090076111,0.967257023
58.218360,0.059444427,-10.952262878,-1.155136108,0.025888367,0.090076111,0.967257023
58.218983,0.059444427,-10.952262878,-1.155136108,0.025888367,0.090076111,0.967257023
58.219627,0.059444427,-10.952262878,-1.155136108,0.025888367,0.090076111,0.967257023
58.220256,0.059444427,-10.952262878,-1.155136108,0.025888367,0.090076111,0.967257023
58.220895,0.059444427,-10.952262878,-1.155136108,0.025888367,0.090076111,0.967257023
58.221518,0.059444427,-10.952262878,-1.155136108,0.025888367,0.090076111,0.967257023
58.222170,0.059444427,-10.952262878,-1.155136108,0.025888367,0.090076111,0.967257023
58.222789,0.059444427,-10.952262878,-1.155136108,0.025888367,0.090076111,0.967257023
58.223442,0.059444427,-10.952262878,-1.155136108,0.025888367,0.090076111,0.967257023
58.224072,0.059444427,-10.952262878,-1.155136108,0.025888367,0.090076111,0.967257023
58.224710,0.059444427,-10.952262878,-1.155136108,0.025888367,0.090076111,0.967257023
58.225343,0.059444427,-10.952262878,-1.155136108,0.025888367,0.090076111,0.967257023
58.225986,0.059444427,-10.952262878,-1.155136108,0.025888367,0.090076111,0.967257023
58.226610,0.059444427,-10.952262878,-1.155136108,0.025888367,0.090076111,0.967257023
58.227261,-1.901309967,-11.646537781,-0.651596069,0.035409853,0.089709900,0.962862492
58.227880,-1.901309967,-11.646537781,-0.651596069,0.035409853,0.089709900,0.962862492
58.228525,-1.901309967,-11.646537781,-0.651596069,0.035409853,0.089709900,0.962862492
58.229156,-1.901309967,-11.646537781,-0.651596069,0.035409853,0.089709900,0.962862492
58.229810,-1.901309967,-11.646537781,-0.651596069,0.035409853,0.089709900,0.962862492
58.230435,-1.901309967,-11.646537781,-0.651596069,0.035409853,0.089709900,0.962862492
58.231086,-1.901309967,-11.646537781,-0.651596069,0.035409853,0.089709900,0.962862492
58.231702,-1.901309967,-11.646537781,-0.651596069,0.035409853,0.089709900,0.962862492
58.232356,-1.901309967,-11.646537781,-0.651596069,0.035409853,0.089709900,0.962862492
58.234164,-1.901309967,-11.646537781,-0.651596069,0.035409853,0.089709900,0.962862492
58.234900,-1.901309967,-11.646537781,-0.651596069,0.035409853,0.089709900,0.962862492
58.235500,-1.901309967,-11.646537781,-0.651596069,0.035409853,0.089709900,0.962862492
58.236144,-1.901309967,-11.646537781,-0.651596069,0.035409853,0.089709900,0.962862492
58.236752,-1.901309967,-11.646537781,-0.651596069,0.035409853,0.089709900,0.962862492
58.237392,-3.823917389,-12.142448425,-0.231979370,0.045175478,0.088245057,0.978121281
58.238008,-3.823917389,-12.142448425,-0.231979370,0.045175478,0.088245057,0.978121281
58.238645,-3.823917389,-12.142448425,-0.231979370,0.045175478,0.088245057,0.978121281
58.239278,-3.823917389,-12.142448425,-0.231979370,0.045175478,0.088245057,0.978121281
58.239924,-3.823917389,-12.142448425,-0.231979370,0.045175478,0.088245057,0.978121281
58.240539,-3.823917389,-12.142448425,-0.231979370,0.045175478,0.088245057,0.978121281
58.241191,-3.823917389,-12.142448425,-0.231979370,0.045175478,0.088245057,0.978121281
58.241829,-3.823917389,-12.142448425,-0.231979370,0.045175478,0.088245057,0.978121281
58.242462,-3.823917389,-12.142448425,-0.231979370,0.045175478,0.088245057,0.978121281
58.243096,-3.823917389,-12.142448425,-0.231979370,0.045175478,0.088245057,0.978121281
58.243734,-3.823917389,-12.142448425,-0.231979370,0.045175478,0.088245057,0.978121281
58.244367,-3.823917389,-12.142448425,-0.231979370,0.045175478,0.088245057,0.978121281
58.262255,-4.296939850,-12.531547546,-0.499008179,0.050546572,0.104602478,1.011690617
58.263082,-4.296939850,-12.531547546,-0.499008179,0.050546572,0.104602478,1.011690617
58.263704,-4.296939850,-12.531547546,-0.499008179,0.050546572,0.104602478,1.011690617
58.264338,-4.296939850,-12.531547546,-0.499008179,0.050546572,0.104602478,1.011690617
58.264942,-4.296939850,-12.531547546,-0.499008179,0.050546572,0.104602478,1.011690617
58.265579,-4.296939850,-12.531547546,-0.499008179,0.050546572,0.104602478,1.011690617
58.266201,-4.296939850,-12.531547546,-0.499008179,0.050546572,0.104602478,1.011690617
58.266846,-4.296939850,-12.531547546,-0.499008179,0.050546572,0.104602478,1.011690617
58.267453,-2.328556061,-11.959342957,-0.300643921,0.056650087,0.106433533,1.014864445
58.268101,-2.328556061,-11.959342957,-0.300643921,0.056650087,0.106433533,1.014864445
58.268721,-2.328556061,-11.959342957,-0.300643921,0.056650087,0.106433533,1.014864445
58.269362,-2.328556061,-11.959342957,-0.300643921,0.056650087,0.106433533,1.014864445
58.269982,-2.328556061,-11.959342957,-0.300643921,0.056650087,0.106433533,1.014864445
58.270625,-2.328556061,-11.959342957,-0.300643921,0.056650087,0.106433533,1.014864445
58.271248,-2.328556061,-11.959342957,-0.300643921,0.056650087,0.106433533,1.014864445
58.271884,-2.328556061,-11.959342957,-0.300643921,0.056650087,0.106433533,1.014864445
58.272490,-2.328556061,-11.959342957,-0.300643921,0.056650087,0.106433533,1.014864445
58.273140,-2.328556061,-11.959342957,-0.300643921,0.056650087,0.106433533,1.014864445
58.273755,-2.328556061,-11.959342957,-0.300643921,0.056650087,0.106433533,1.014864445
58.274387,-2.328556061,-11.959342957,-0.300643921,0.056650087,0.106433533,1.014864445
58.275003,-2.328556061,-11.959342957,-0.300643921,0.056650087,0.106433533,1.014864445
58.275641,-2.328556061,-11.959342957,-0.300643921,0.056650087,0.106433533,1.014864445
58.276263,-2.328556061,-11.959342957,-0.300643921,0.056650087,0.106433533,1.014864445
58.276898,-2.328556061,-11.959342957,-0.300643921,0.056650087,0.106433533,1.014864445
58.277504,-0.291507721,-10.937004089,-0.003097534,0.069467470,0.103625916,1.002413273
58.278151,-0.291507721,-10.937004089,-0.003097534,0.069467470,0.103625916,1.002413273
58.278768,-0.291507721,-10.937004089,-0.003097534,0.069467470,0.103625916,1.002413273
58.279406,-0.291507721,-10.937004089,-0.003097534,0.069467470,0.103625916,1.002413273
58.280020,-0.291507721,-10.937004089,-0.003097534,0.069467470,0.103625916,1.002413273
58.280655,-0.291507721,-10.937004089,-0.003097534,0.069467470,0.103625916,1.002413273
58.282462,-0.291507721,-10.937004089,-0.003097534,0.069467470,0.103625916,1.002413273
58.283208,-0.291507721,-10.937004089,-0.003097534,0.069467470,0.103625916,1.002413273
58.283834,-0.291507721,-10.937004089,-0.003097534,0.069467470,0.103625916,1.002413273
58.284462,-0.291507721,-10.937004089,-0.003097534,0.069467470,0.103625916,1.002413273
58.285085,-0.291507721,-10.937004089,-0.003097534,0.069467470,0.103625916,1.002413273
58.285727,-0.291507721,-10.937004089,-0.003097534,0.069467470,0.103625916,1.002413273
58.286343,-0.291507721,-10.937004089,-0.003097534,0.069467470,0.103625916,1.002413273
58.286983,0.700313568,-9.334831238,-0.598190308,0.085214540,0.096912049,0.983248234
58.287590,0.700313568,-9.334831238,-0.598190308,0.085214540,0.096912049,0.983248234
58.288222,0.700313568,-9.334831238,-0.598190308,0.085214540,0.096912049,0.983248234
58.288837,0.700313568,-9.334831238,-0.598190308,0.085214540,0.096912049,0.983248234
58.289463,0.700313568,-9.334831238,-0.598190308,0.085214540,0.096912049,0.983248234
58.290074,0.700313568,-9.334831238,-0.598190308,0.085214540,0.096912049,0.983248234
58.290702,0.700313568,-9.334831238,-0.598190308,0.085214540,0.096912049,0.983248234
58.291318,0.700313568,-9.334831238,-0.598190308,0.085214540,0.096912049,0.983248234
58.291943,0.700313568,-9.334831238,-0.598190308,0.085214540,0.096912049,0.983248234
58.292545,0.700313568,-9.334831238,-0.598190308,0.085214540,0.096912049,0.983248234
58.293179,0.700313568,-9.334831238,-0.598190308,0.085214540,0.096912049,0.983248234
58.311141,-1.313846588,-5.375175476,-2.673385620,0.096078798,0.085315369,0.968111515
58.311969,-1.313846588,-5.375175476,-2.673385620,0.096078798,0.085315369,0.968111515
58.312576,-1.313846588,-5.375175476,-2.673385620,0.096078798,0.085315369,0.968111515
58.313214,-1.313846588,-5.375175476,-2.673385620,0.096078798,0.085315369,0.968111515
58.313834,-1.313846588,-5.375175476,-2.673385620,0.096078798,0.085315369,0.968111515
58.314468,-1.313846588,-5.375175476,-2.673385620,0.096078798,0.085315369,0.968111515
58.315094,-1.313846588,-5.375175476,-2.673385620,0.096078798,0.085315369,0.968111515
58.315735,-1.313846588,-5.375175476,-2.673385620,0.096078798,0.085315369,0.968111515
58.316361,-1.313846588,-5.375175476,-2.673385620,0.096078798,0.085315369,0.968111515
58.316999,-2.565067291,-3.376274109,-3.581283569,0.092050478,0.092395447,0.974825382
58.317623,-2.565067291,-3.376274109,-3.581283569,0.092050478,0.092395447,0.974825382
58.318263,-2.565067291,-3.376274109,-3.581283569,0.092050478,0.092395447,0.974825382
58.318882,-2.565067291,-3.376274109,-3.581283569,0.092050478,0.092395447,0.974825382
58.319516,-2.565067291,-3.376274109,-3.581283569,0.092050478,0.092395447,0.974825382
58.320141,-2.565067291,-3.376274109,-3.581283569,0.092050478,0.092395447,0.974825382
58.320787,-2.565067291,-3.376274109,-3.581283569,0.092050478,0.092395447,0.974825382
58.321412,-2.565067291,-3.376274109,-3.581283569,0.092050478,0.092395447,0.974825382
58.322055,-2.565067291,-3.376274109,-3.581283569,0.092050478,0.092395447,0.974825382
58.322675,-2.565067291,-3.376274109,-3.581283569,0.092050478,0.092395447,0.974825382
58.323321,-2.565067291,-3.376274109,-3.581283569,0.092050478,0.092395447,0.974825382
58.323940,-2.565067291,-3.376274109,-3.581283569,0.092050478,0.092395447,0.974825382
58.324579,-2.565067291,-3.376274109,-3.581283569,0.092050478,0.092395447,0.974825382
58.325205,-2.565067291,-3.376274109,-3.581283569,0.092050478,0.092395447,0.974825382
58.325846,-2.565067291,-3.376274109,-3.581283569,0.092050478,0.092395447,0.974825382
58.326465,-2.565067291,-3.376274109,-3.581283569,0.092050478,0.092395447,0.974825382
58.327106,-2.801578522,-1.613883972,-4.153488159,0.085580751,0.101794861,0.982271671
58.327729,-2.801578522,-1.613883972,-4.153488159,0.085580751,0.101794861,0.982271671
58.328374,-2.801578522,-1.613883972,-4.153488159,0.085580751,0.101794861,0.982271671
58.328993,-2.801578522,-1.613883972,-4.153488159,0.085580751,0.101794861,0.982271671
58.329633,-2.801578522,-1.613883972,-4.153488159,0.085580751,0.101794861,0.982271671
58.331440,-2.801578522,-1.613883972,-4.153488159,0.085580751,0.101794861,0.982271671
58.332187,-2.801578522,-1.613883972,-4.153488159,0.085580751,0.101794861,0.982271671
58.332807,-2.801578522,-1.613883972,-4.153488159,0.085580751,0.101794861,0.982271671
58.333442,-2.801578522,-1.613883972,-4.153488159,0.085580751,0.101794861,0.982271671
58.334069,-2.801578522,-1.613883972,-4.153488159,0.085580751,0.101794861,0.982271671
58.334708,-2.801578522,-1.613883972,-4.153488159,0.085580751,0.101794861,0.982271671
58.335338,-2.801578522,-1.613883972,-4.153488159,0.085580751,0.101794861,0.982271671
58.335973,-2.801578522,-1.613883972,-4.153488159,0.085580751,0.101794861,0.982271671
58.336595,-1.977603912,-0.095634460,-4.397628784,0.081308290,0.110828064,0.981905460
58.337236,-1.977603912,-0.095634460,-4.397628784,0.081308290,0.110828064,0.981905460
58.337863,-1.977603912,-0.095634460,-4.397628784,0.081308290,0.110828064,0.981905460
58.338497,-1.977603912,-0.095634460,-4.397628784,0.081308290,0.110828064,0.981905460
58.339122,-1.977603912,-0.095634460,-4.397628784,0.081308290,0.110828064,0.981905460
58.339762,-1.977603912,-0.095634460,-4.397628784,0.081308290,0.110828064,0.981905460
58.340379,-1.977603912,-0.095634460,-4.397628784,0.081308290,0.110828064,0.981905460
58.341015,-1.977603912,-0.095634460,-4.397628784,0.081308290,0.110828064,0.981905460
58.341637,-1.977603912,-0.095634460,-4.397628784,0.081308290,0.110828064,0.981905460
58.342278,-1.977603912,-0.095634460,-4.397628784,0.081308290,0.110828064,0.981905460
58.342899,-1.977603912,-0.095634460,-4.397628784,0.081308290,0.110828064,0.981905460
58.356467,-0.764530182,2.505989075,-5.061386108,0.077157900,0.096912049,0.973726749
58.357283,-0.764530182,2.505989075,-5.061386108,0.077157900,0.096912049,0.973726749
58.357901,-0.764530182,2.505989075,-5.061386108,0.077157900,0.096912049,0.973726749
58.358535,-0.764530182,2.505989075,-5.061386108,0.077157900,0.096912049,0.973726749
58.359160,-0.764530182,2.505989075,-5.061386108,0.077157900,0.096912049,0.973726749
58.359798,-0.764530182,2.505989075,-5.061386108,0.077157900,0.096912049,0.973726749
58.360425,-0.764530182,2.505989075,-5.061386108,0.077157900,0.096912049,0.973726749
58.361068,-0.764530182,2.505989075,-5.061386108,0.077157900,0.096912049,0.973726749
58.361685,-0.764530182,2.505989075,-5.061386108,0.077157900,0.096912049,0.973726749
58.362333,-0.764530182,2.505989075,-5.061386108,0.077157900,0.096912049,0.973726749
58.362952,-0.764530182,2.505989075,-5.061386108,0.077157900,0.096912049,0.973726749
58.363594,-0.764530182,2.505989075,-5.061386108,0.077157900,0.096912049,0.973726749
58.364221,-0.764530182,2.505989075,-5.061386108,0.077157900,0.096912049,0.973726749
58.364868,-0.764530182,2.505989075,-5.061386108,0.077157900,0.096912049,0.973726749
58.365484,-0.764530182,2.505989075,-5.061386108,0.077157900,0.096912049,0.973726749
58.366129,-0.764530182,2.505989075,-5.061386108,0.077157900,0.096912049,0.973726749
58.366749,-1.611392975,3.642768860,-5.549667358,0.072153017,0.082873963,0.970797062
58.367384,-1.611392975,3.642768860,-5.549667358,0.072153017,0.082873963,0.970797062
58.368002,-1.611392975,3.642768860,-5.549667358,0.072153017,0.082873963,0.970797062
58.368640,-1.611392975,3.642768860,-5.549667358,0.072153017,0.082873963,0.970797062
58.369264,-1.611392975,3.642768860,-5.549667358,0.072153017,0.082873963,0.970797062
58.369899,-1.611392975,3.642768860,-5.549667358,0.072153017,0.082873963,0.970797062
58.370515,-1.611392975,3.642768860,-5.549667358,0.072153017,0.082873963,0.970797062
58.371156,-1.611392975,3.642768860,-5.549667358,0.072153017,0.082873963,0.970797062
58.371784,-1.611392975,3.642768860,-5.549667358,0.072153017,0.082873963,0.970797062
58.372425,-1.611392975,3.642768860,-5.549667358,0.072153017,0.082873963,0.970797062
58.373041,-1.611392975,3.642768860,-5.549667358,0.072153017,0.082873963,0.970797062
58.373677,-1.611392975,3.642768860,-5.549667358,0.072153017,0.082873963,0.970797062
58.374301,-1.611392975,3.642768860,-5.549667358,0.072153017,0.082873963,0.970797062
58.374938,-1.611392975,3.642768860,-5.549667358,0.072153017,0.082873963,0.970797062
58.376749,-2.732913971,4.565925598,-5.473373413,0.067636415,0.079089783,0.969576359
58.377491,-2.732913971,4.565925598,-5.473373413,0.067636415,0.079089783,0.969576359
58.378121,-2.732913971,4.565925598,-5.473373413,0.067636415,0.079089783,0.969576359
58.378750,-2.732913971,4.565925598,-5.473373413,0.067636415,0.079089783,0.969576359
58.379372,-2.732913971,4.565925598,-5.473373413,0.067636415,0.079089783,0.969576359
58.380007,-2.732913971,4.565925598,-5.473373413,0.067636415,0.079089783,0.969576359
58.380634,-2.732913971,4.565925598,-5.473373413,0.067636415,0.079089783,0.969576359
58.381276,-2.732913971,4.565925598,-5.473373413,0.067636415,0.079089783,0.969576359
58.381896,-2.732913971,4.565925598,-5.473373413,0.067636415,0.079089783,0.969576359
58.382531,-2.732913971,4.565925598,-5.473373413,0.067636415,0.079089783,0.969576359
58.383158,-2.732913971,4.565925598,-5.473373413,0.067636415,0.079089783,0.969576359
58.383798,-2.732913971,4.565925598,-5.473373413,0.067636415,0.079089783,0.969576359
58.384427,-2.732913971,4.565925598,-5.473373413,0.067636415,0.079089783,0.969576359
58.385070,-2.732913971,4.565925598,-5.473373413,0.067636415,0.079089783,0.969576359
58.385692,-2.732913971,4.565925598,-5.473373413,0.067636415,0.079089783,0.969576359
58.386338,-3.343265533,5.336494446,-5.542037964,0.064584658,0.084094666,0.968111515
58.386957,-3.343265533,5.336494446,-5.542037964,0.064584658,0.084094666,0.968111515
58.387597,-3.343265533,5.336494446,-5.542037964,0.064584658,0.084094666,0.968111515
58.401350,-3.289859772,5.496711731,-5.473373413,0.065195009,0.085437439,0.967623234
58.402180,-3.289859772,5.496711731,-5.473373413,0.065195009,0.085437439,0.967623234
58.402798,-3.289859772,5.496711731,-5.473373413,0.065195009,0.085437439,0.967623234
58.403438,-3.289859772,5.496711731,-5.473373413,0.065195009,0.085437439,0.967623234
58.404048,-3.289859772,5.496711731,-5.473373413,0.065195009,0.085437439,0.967623234
58.404683,-3.289859772,5.496711731,-5.473373413,0.065195009,0.085437439,0.967623234
58.405306,-3.289859772,5.496711731,-5.473373413,0.065195009,0.085437439,0.967623234
58.405945,-3.289859772,5.496711731,-5.473373413,0.065195009,0.085437439,0.967623234
58.406566,-3.083866119,4.939765930,-5.473373413,0.061654970,0.085071228,0.968843937
58.407210,-3.083866119,4.939765930,-5.473373413,0.061654970,0.085071228,0.968843937
58.407840,-3.083866119,4.939765930,-5.473373413,0.061654970,0.085071228,0.968843937
58.408477,-3.083866119,4.939765930,-5.473373413,0.061654970,0.085071228,0.968843937
58.409104,-3.083866119,4.939765930,-5.473373413,0.061654970,0.085071228,0.968843937
58.409742,-3.083866119,4.939765930,-5.473373413,0.061654970,0.085071228,0.968843937
58.410369,-3.083866119,4.939765930,-5.473373413,0.061654970,0.085071228,0.968843937
58.411007,-3.083866119,4.939765930,-5.473373413,0.061654970,0.085071228,0.968843937
58.411629,-3.083866119,4.939765930,-5.473373413,0.061654970,0.085071228,0.968843937
58.412273,-3.083866119,4.939765930,-5.473373413,0.061654970,0.085071228,0.968843937
58.412891,-3.083866119,4.939765930,-5.473373413,0.061654970,0.085071228,0.968843937
58.413527,-3.083866119,4.939765930,-5.473373413,0.061654970,0.085071228,0.968843937
58.414155,-3.083866119,4.939765930,-5.473373413,0.061654970,0.085071228,0.968843937
58.414797,-3.083866119,4.939765930,-5.473373413,0.061654970,0.085071228,0.968843937
58.415422,-3.083866119,4.939765930,-5.473373413,0.061654970,0.085071228,0.968843937
58.416067,-3.083866119,4.939765930,-5.473373413,0.061654970,0.085071228,0.968843937
58.416687,-3.106754303,3.711433411,-5.053756714,0.059335634,0.083484314,0.964815617
58.417332,-3.106754303,3.711433411,-5.053756714,0.059335634,0.083484314,0.964815617
58.417953,-3.106754303,3.711433411,-5.053756714,0.059335634,0.083484314,0.964815617
58.418596,-3.106754303,3.711433411,-5.053756714,0.059335634,0.083484314,0.964815617
58.419221,-3.106754303,3.711433411,-5.053756714,0.059335634,0.083484314,0.964815617
58.419868,-3.106754303,3.711433411,-5.053756714,0.059335634,0.083484314,0.964815617
58.421663,-3.106754303,3.711433411,-5.053756714,0.059335634,0.083484314,0.964815617
58.422409,-3.106754303,3.711433411,-5.053756714,0.059335634,0.083484314,0.964815617
58.423030,-3.106754303,3.711433411,-5.053756714,0.059335634,0.083484314,0.964815617
58.423659,-3.106754303,3.711433411,-5.053756714,0.059335634,0.083484314,0.964815617
58.424282,-3.106754303,3.711433411,-5.053756714,0.059335634,0.083484314,0.964815617
58.424914,-3.106754303,3.711433411,-5.053756714,0.059335634,0.083484314,0.964815617
58.425530,-3.106754303,3.711433411,-5.053756714,0.059335634,0.083484314,0.964815617
58.426173,-3.434818268,1.773567200,-4.412887573,0.057504579,0.082507752,0.970186710
58.426792,-3.434818268,1.773567200,-4.412887573,0.057504579,0.082507752,0.970186710
58.427434,-3.434818268,1.773567200,-4.412887573,0.057504579,0.082507752,0.970186710
58.428057,-3.434818268,1.773567200,-4.412887573,0.057504579,0.082507752,0.970186710
58.428696,-3.434818268,1.773567200,-4.412887573,0.057504579,0.082507752,0.970186710
58.429325,-3.434818268,1.773567200,-4.412887573,0.057504579,0.082507752,0.970186710
58.429960,-3.434818268,1.773567200,-4.412887573,0.057504579,0.082507752,0.970186710
58.430583,-3.434818268,1.773567200,-4.412887573,0.057504579,0.082507752,0.970186710
58.431226,-3.434818268,1.773567200,-4.412887573,0.057504579,0.082507752,0.970186710
58.431848,-3.434818268,1.773567200,-4.412887573,0.057504579,0.082507752,0.970186710
58.432484,-3.434818268,1.773567200,-4.412887573,0.057504579,0.082507752,0.970186710
58.433109,-3.434818268,1.773567200,-4.412887573,0.057504579,0.082507752,0.970186710
58.447115,-3.938358307,-1.629142761,-3.817794800,0.056405947,0.076526307,0.991182804
58.447945,-3.938358307,-1.629142761,-3.817794800,0.056405947,0.076526307,0.991182804
58.448539,-3.938358307,-1.629142761,-3.817794800,0.056405947,0.076526307,0.991182804
58.449174,-3.938358307,-1.629142761,-3.817794800,0.056405947,0.076526307,0.991182804
58.449764,-3.938358307,-1.629142761,-3.817794800,0.056405947,0.076526307,0.991182804
58.450392,-3.938358307,-1.629142761,-3.817794800,0.056405947,0.076526307,0.991182804
58.450996,-3.938358307,-1.629142761,-3.817794800,0.056405947,0.076526307,0.991182804
58.451634,-3.938358307,-1.629142761,-3.817794800,0.056405947,0.076526307,0.991182804
58.452245,-3.938358307,-1.629142761,-3.817794800,0.056405947,0.076526307,0.991182804
58.452881,-3.938358307,-1.629142761,-3.817794800,0.056405947,0.076526307,0.991182804
58.453485,-3.938358307,-1.629142761,-3.817794800,0.056405947,0.076526307,0.991182804
58.454125,-3.938358307,-1.629142761,-3.817794800,0.056405947,0.076526307,0.991182804
58.454730,-3.938358307,-1.629142761,-3.817794800,0.056405947,0.076526307,0.991182804
58.455369,-3.938358307,-1.629142761,-3.817794800,0.056405947,0.076526307,0.991182804
58.455974,-3.434818268,-2.598075867,-3.436325073,0.059213564,0.077502869,0.999971867
58.456613,-3.434818268,-2.598075867,-3.436325073,0.059213564,0.077502869,0.999971867
58.457226,-3.434818268,-2.598075867,-3.436325073,0.059213564,0.077502869,0.999971867
58.457862,-3.434818268,-2.598075867,-3.436325073,0.059213564,0.077502869,0.999971867
58.458467,-3.434818268,-2.598075867,-3.436325073,0.059213564,0.077502869,0.999971867
58.459106,-3.434818268,-2.598075867,-3.436325073,0.059213564,0.077502869,0.999971867
58.459713,-3.434818268,-2.598075867,-3.436325073,0.059213564,0.077502869,0.999971867
58.460353,-3.434818268,-2.598075867,-3.436325073,0.059213564,0.077502869,0.999971867
58.460958,-3.434818268,-2.598075867,-3.436325073,0.059213564,0.077502869,0.999971867
58.461599,-3.434818268,-2.598075867,-3.436325073,0.059213564,0.077502869,0.999971867
58.462212,-3.434818268,-2.598075867,-3.436325073,0.059213564,0.077502869,0.999971867
58.462849,-3.434818268,-2.598075867,-3.436325073,0.059213564,0.077502869,0.999971867
58.463455,-3.434818268,-2.598075867,-3.436325073,0.059213564,0.077502869,0.999971867
58.464095,-3.434818268,-2.598075867,-3.436325073,0.059213564,0.077502869,0.999971867
58.464702,-3.434818268,-2.598075867,-3.436325073,0.059213564,0.077502869,0.999971867
58.465343,-3.434818268,-2.598075867,-3.436325073,0.059213564,0.077502869,0.999971867
58.467127,-2.435367584,-3.025321960,-3.527877808,0.063608095,0.076770447,0.999727726
58.467870,-2.435367584,-3.025321960,-3.527877808,0.063608095,0.076770447,0.999727726
58.468467,-2.435367584,-3.025321960,-3.527877808,0.063608095,0.076770447,0.999727726
58.469101,-2.435367584,-3.025321960,-3.527877808,0.063608095,0.076770447,0.999727726
58.469699,-2.435367584,-3.025321960,-3.527877808,0.063608095,0.076770447,0.999727726
58.470338,-2.435367584,-3.025321960,-3.527877808,0.063608095,0.076770447,0.999727726
58.470949,-2.435367584,-3.025321960,-3.527877808,0.063608095,0.076770447,0.999727726
58.471586,-2.435367584,-3.025321960,-3.527877808,0.063608095,0.076770447,0.999727726
58.472203,-2.435367584,-3.025321960,-3.527877808,0.063608095,0.076770447,0.999727726
58.472844,-2.435367584,-3.025321960,-3.527877808,0.063608095,0.076770447,0.999727726
58.473452,-2.435367584,-3.025321960,-3.527877808,0.063608095,0.076770447,0.999727726
58.474092,-2.435367584,-3.025321960,-3.527877808,0.063608095,0.076770447,0.999727726
58.474701,-2.435367584,-3.025321960,-3.527877808,0.063608095,0.076770447,0.999727726
58.475340,-2.435367584,-3.025321960,-3.527877808,0.063608095,0.076770447,0.999727726
58.475951,-1.527469635,-3.124504089,-3.947494507,0.062265322,0.075061463,0.988985538
58.476589,-1.527469635,-3.124504089,-3.947494507,0.062265322,0.075061463,0.988985538
58.477204,-1.527469635,-3.124504089,-3.947494507,0.062265322,0.075061463,0.988985538
58.477846,-1.527469635,-3.124504089,-3.947494507,0.062265322,0.075061463,0.988985538
58.491962,-1.428287506,-3.223686218,-3.848312378,0.057260439,0.072009705,0.976046085
58.492797,-1.428287506,-3.223686218,-3.848312378,0.057260439,0.072009705,0.976046085
58.493428,-1.428287506,-3.223686218,-3.848312378,0.057260439,0.072009705,0.976046085
58.494067,-1.428287506,-3.223686218,-3.848312378,0.057260439,0.072009705,0.976046085
58.494678,-1.428287506,-3.223686218,-3.848312378,0.057260439,0.072009705,0.976046085
58.495324,-1.428287506,-3.223686218,-3.848312378,0.057260439,0.072009705,0.976046085
58.495936,-1.985233307,-3.467826843,-3.558395386,0.053598329,0.074329041,0.968355656
58.496575,-1.985233307,-3.467826843,-3.558395386,0.053598329,0.074329041,0.968355656
58.497194,-1.985233307,-3.467826843,-3.558395386,0.053598329,0.074329041,0.968355656
58.497839,-1.985233307,-3.467826843,-3.558395386,0.053598329,0.074329041,0.968355656
58.498451,-1.985233307,-3.467826843,-3.558395386,0.053598329,0.074329041,0.968355656
58.499092,-1.985233307,-3.467826843,-3.558395386,0.053598329,0.074329041,0.968355656
58.499706,-1.985233307,-3.467826843,-3.558395386,0.053598329,0.074329041,0.968355656
58.500349,-1.985233307,-3.467826843,-3.558395386,0.053598329,0.074329041,0.968355656
58.500960,-1.985233307,-3.467826843,-3.558395386,0.053598329,0.074329041,0.968355656
58.501603,-1.985233307,-3.467826843,-3.558395386,0.053598329,0.074329041,0.968355656
58.502222,-1.985233307,-3.467826843,-3.558395386,0.053598329,0.074329041,0.968355656
58.502867,-1.985233307,-3.467826843,-3.558395386,0.053598329,0.074329041,0.968355656
58.503479,-1.985233307,-3.467826843,-3.558395386,0.053598329,0.074329041,0.968355656
58.504121,-1.985233307,-3.467826843,-3.558395386,0.053598329,0.074329041,0.968355656
58.504735,-1.985233307,-3.467826843,-3.558395386,0.053598329,0.074329041,0.968355656
58.505376,-1.985233307,-3.467826843,-3.558395386,0.053598329,0.074329041,0.968355656
58.505987,-2.877872467,-3.238945007,-3.695724487,0.052987978,0.075671814,0.976046085
58.506629,-2.877872467,-3.238945007,-3.695724487,0.052987978,0.075671814,0.976046085
58.507249,-2.877872467,-3.238945007,-3.695724487,0.052987978,0.075671814,0.976046085
58.507885,-2.877872467,-3.238945007,-3.695724487,0.052987978,0.075671814,0.976046085
58.508498,-2.877872467,-3.238945007,-3.695724487,0.052987978,0.075671814,0.976046085
58.509142,-2.877872467,-3.238945007,-3.695724487,0.052987978,0.075671814,0.976046085
58.509757,-2.877872467,-3.238945007,-3.695724487,0.052987978,0.075671814,0.976046085
58.510392,-2.877872467,-3.238945007,-3.695724487,0.052987978,0.075671814,0.976046085
58.512183,-2.877872467,-3.238945007,-3.695724487,0.052987978,0.075671814,0.976046085
58.512923,-2.877872467,-3.238945007,-3.695724487,0.052987978,0.075671814,0.976046085
58.513526,-2.877872467,-3.238945007,-3.695724487,0.052987978,0.075671814,0.976046085
58.514166,-2.877872467,-3.238945007,-3.695724487,0.052987978,0.075671814,0.976046085
58.514774,-2.877872467,-3.238945007,-3.695724487,0.052987978,0.075671814,0.976046085
58.515414,-2.877872467,-3.238945007,-3.695724487,0.052987978,0.075671814,0.976046085
58.516030,-3.343265533,-2.643852234,-3.802536011,0.047372743,0.077014588,0.988253117
58.516665,-3.343265533,-2.643852234,-3.802536011,0.047372743,0.077014588,0.988253117
58.517284,-3.343265533,-2.643852234,-3.802536011,0.047372743,0.077014588,0.988253117
58.517920,-3.343265533,-2.643852234,-3.802536011,0.047372743,0.077014588,0.988253117
58.518531,-3.343265533,-2.643852234,-3.802536011,0.047372743,0.077014588,0.988253117
58.519173,-3.343265533,-2.643852234,-3.802536011,0.047372743,0.077014588,0.988253117
58.519787,-3.343265533,-2.643852234,-3.802536011,0.047372743,0.077014588,0.988253117
58.520428,-3.343265533,-2.643852234,-3.802536011,0.047372743,0.077014588,0.988253117
58.521040,-3.343265533,-2.643852234,-3.802536011,0.047372743,0.077014588,0.988253117
58.521677,-3.343265533,-2.643852234,-3.802536011,0.047372743,0.077014588,0.988253117
58.522296,-3.343265533,-2.643852234,-3.802536011,0.047372743,0.077014588,0.988253117
58.522933,-3.343265533,-2.643852234,-3.802536011,0.047372743,0.077014588,0.988253117
58.538471,-3.129642487,-1.247673035,-3.306625366,0.052499697,0.084338807,1.009005070
58.539296,-3.129642487,-1.247673035,-3.306625366,0.052499697,0.084338807,1.009005070
58.539913,-3.129642487,-1.247673035,-3.306625366,0.052499697,0.084338807,1.009005070
58.540532,-3.129642487,-1.247673035,-3.306625366,0.052499697,0.084338807,1.009005070
58.541142,-3.129642487,-1.247673035,-3.306625366,0.052499697,0.084338807,1.009005070
58.541767,-3.129642487,-1.247673035,-3.306625366,0.052499697,0.084338807,1.009005070
58.542374,-3.129642487,-1.247673035,-3.306625366,0.052499697,0.084338807,1.009005070
58.542999,-3.129642487,-1.247673035,-3.306625366,0.052499697,0.084338807,1.009005070
58.543604,-3.129642487,-1.247673035,-3.306625366,0.052499697,0.084338807,1.009005070
58.544232,-3.129642487,-1.247673035,-3.306625366,0.052499697,0.084338807,1.009005070
58.544843,-3.129642487,-1.247673035,-3.306625366,0.052499697,0.084338807,1.009005070
58.545464,-2.343814850,-0.377922058,-3.482101440,0.052865908,0.086414002,1.009127140
58.546069,-2.343814850,-0.377922058,-3.482101440,0.052865908,0.086414002,1.009127140
58.546697,-2.343814850,-0.377922058,-3.482101440,0.052865908,0.086414002,1.009127140
58.547302,-2.343814850,-0.377922058,-3.482101440,0.052865908,0.086414002,1.009127140
58.547924,-2.343814850,-0.377922058,-3.482101440,0.052865908,0.086414002,1.009127140
58.548527,-2.343814850,-0.377922058,-3.482101440,0.052865908,0.086414002,1.009127140
58.549156,-2.343814850,-0.377922058,-3.482101440,0.052865908,0.086414002,1.009127140
58.549761,-2.343814850,-0.377922058,-3.482101440,0.052865908,0.086414002,1.009127140
58.550387,-2.343814850,-0.377922058,-3.482101440,0.052865908,0.086414002,1.009127140
58.550985,-2.343814850,-0.377922058,-3.482101440,0.052865908,0.086414002,1.009127140
58.551614,-2.343814850,-0.377922058,-3.482101440,0.052865908,0.086414002,1.009127140
58.552225,-2.343814850,-0.377922058,-3.482101440,0.052865908,0.086414002,1.009127140
58.552850,-2.343814850,-0.377922058,-3.482101440,0.052865908,0.086414002,1.009127140
58.553449,-2.343814850,-0.377922058,-3.482101440,0.052865908,0.086414002,1.009127140
58.554081,-2.343814850,-0.377922058,-3.482101440,0.052865908,0.086414002,1.009127140
58.554682,-2.343814850,-0.377922058,-3.482101440,0.052865908,0.086414002,1.009127140
58.555311,-2.343814850,-0.377922058,-3.482101440,0.052865908,0.086414002,1.009127140
58.555914,-1.519840240,0.652046204,-3.390548706,0.055917665,0.085071228,0.999605656
58.556535,-1.519840240,0.652046204,-3.390548706,0.055917665,0.085071228,0.999605656
58.557142,-1.519840240,0.652046204,-3.390548706,0.055917665,0.085071228,0.999605656
58.558983,-1.519840240,0.652046204,-3.390548706,0.055917665,0.085071228,0.999605656
58.559728,-1.519840240,0.652046204,-3.390548706,0.055917665,0.085071228,0.999605656
58.560348,-1.519840240,0.652046204,-3.390548706,0.055917665,0.085071228,0.999605656
58.560971,-1.519840240,0.652046204,-3.390548706,0.055917665,0.085071228,0.999605656
58.561577,-1.519840240,0.652046204,-3.390548706,0.055917665,0.085071228,0.999605656
58.562208,-1.519840240,0.652046204,-3.390548706,0.055917665,0.085071228,0.999605656
58.562821,-1.519840240,0.652046204,-3.390548706,0.055917665,0.085071228,0.999605656
58.563444,-1.519840240,0.652046204,-3.390548706,0.055917665,0.085071228,0.999605656
58.564055,-1.519840240,0.652046204,-3.390548706,0.055917665,0.085071228,0.999605656
58.564678,-1.519840240,0.652046204,-3.390548706,0.055917665,0.085071228,0.999605656
58.565289,-1.359622955,1.414985657,-3.726242065,0.059335634,0.078601502,0.990206242
58.565915,-1.359622955,1.414985657,-3.726242065,0.059335634,0.078601502,0.990206242
58.566520,-1.359622955,1.414985657,-3.726242065,0.059335634,0.078601502,0.990206242
58.567156,-1.359622955,1.414985657,-3.726242065,0.059335634,0.078601502,0.990206242
58.567769,-1.359622955,1.414985657,-3.726242065,0.059335634,0.078601502,0.990206242
58.568404,-1.359622955,1.414985657,-3.726242065,0.059335634,0.078601502,0.990206242
58.569010,-1.359622955,1.414985657,-3.726242065,0.059335634,0.078601502,0.990206242
58.569643,-1.359622955,1.414985657,-3.726242065,0.059335634,0.078601502,0.990206242
58.585311,-2.450626373,0.949592590,-3.718612671,0.051889345,0.070789002,0.979708195
58.586144,-2.450626373,0.949592590,-3.718612671,0.051889345,0.070789002,0.979708195
58.586755,-2.450626373,0.949592590,-3.718612671,0.051889345,0.070789002,0.979708195
58.587385,-2.450626373,0.949592590,-3.718612671,0.051889345,0.070789002,0.979708195
58.587988,-2.450626373,0.949592590,-3.718612671,0.051889345,0.070789002,0.979708195
58.588625,-2.450626373,0.949592590,-3.718612671,0.051889345,0.070789002,0.979708195
58.589244,-2.450626373,0.949592590,-3.718612671,0.051889345,0.070789002,0.979708195
58.589881,-2.450626373,0.949592590,-3.718612671,0.051889345,0.070789002,0.979708195
58.590491,-2.450626373,0.949592590,-3.718612671,0.051889345,0.070789002,0.979708195
58.591133,-2.450626373,0.949592590,-3.718612671,0.051889345,0.070789002,0.979708195
58.591744,-2.450626373,0.949592590,-3.718612671,0.051889345,0.070789002,0.979708195
58.592384,-2.450626373,0.949592590,-3.718612671,0.051889345,0.070789002,0.979708195
58.592995,-2.450626373,0.949592590,-3.718612671,0.051889345,0.070789002,0.979708195
58.593633,-2.450626373,0.949592590,-3.718612671,0.051889345,0.070789002,0.979708195
58.594251,-2.450626373,0.949592590,-3.718612671,0.051889345,0.070789002,0.979708195
58.594885,-2.450626373,0.949592590,-3.718612671,0.051889345,0.070789002,0.979708195
58.595496,-3.114383698,-0.263481140,-3.451583862,0.051034853,0.073352478,0.979708195
58.596137,-3.114383698,-0.263481140,-3.451583862,0.051034853,0.073352478,0.979708195
58.596753,-3.114383698,-0.263481140,-3.451583862,0.051034853,0.073352478,0.979708195
58.597387,-3.114383698,-0.263481140,-3.451583862,0.051034853,0.073352478,0.979708195
58.597998,-3.114383698,-0.263481140,-3.451583862,0.051034853,0.073352478,0.979708195
58.598637,-3.114383698,-0.263481140,-3.451583862,0.051034853,0.073352478,0.979708195
58.599255,-3.114383698,-0.263481140,-3.451583862,0.051034853,0.073352478,0.979708195
58.599891,-3.114383698,-0.263481140,-3.451583862,0.051034853,0.073352478,0.979708195
58.600503,-3.114383698,-0.263481140,-3.451583862,0.051034853,0.073352478,0.979708195
58.601144,-3.114383698,-0.263481140,-3.451583862,0.051034853,0.073352478,0.979708195
58.601758,-3.114383698,-0.263481140,-3.451583862,0.051034853,0.073352478,0.979708195
58.602393,-3.114383698,-0.263481140,-3.451583862,0.051034853,0.073352478,0.979708195
58.603005,-3.114383698,-0.263481140,-3.451583862,0.051034853,0.073352478,0.979708195
58.603642,-3.114383698,-0.263481140,-3.451583862,0.051034853,0.073352478,0.979708195
58.605445,-3.556888580,-1.812248230,-2.894638062,0.051034853,0.076892518,0.986544132
58.606191,-3.556888580,-1.812248230,-2.894638062,0.051034853,0.076892518,0.986544132
58.606807,-3.556888580,-1.812248230,-2.894638062,0.051034853,0.076892518,0.986544132
58.607440,-3.556888580,-1.812248230,-2.894638062,0.051034853,0.076892518,0.986544132
58.608059,-3.556888580,-1.812248230,-2.894638062,0.051034853,0.076892518,0.986544132
58.608695,-3.556888580,-1.812248230,-2.894638062,0.051034853,0.076892518,0.986544132
58.609317,-3.556888580,-1.812248230,-2.894638062,0.051034853,0.076892518,0.986544132
58.609952,-3.556888580,-1.812248230,-2.894638062,0.051034853,0.076892518,0.986544132
58.610566,-3.556888580,-1.812248230,-2.894638062,0.051034853,0.076892518,0.986544132
58.611208,-3.556888580,-1.812248230,-2.894638062,0.051034853,0.076892518,0.986544132
58.611831,-3.556888580,-1.812248230,-2.894638062,0.051034853,0.076892518,0.986544132
58.612464,-3.556888580,-1.812248230,-2.894638062,0.051034853,0.076892518,0.986544132
58.613086,-3.556888580,-1.812248230,-2.894638062,0.051034853,0.076892518,0.986544132
58.613721,-3.556888580,-1.812248230,-2.894638062,0.051034853,0.076892518,0.986544132
58.614339,-3.556888580,-1.812248230,-2.894638062,0.051034853,0.076892518,0.986544132
58.614973,-3.556888580,-1.812248230,-2.894638062,0.051034853,0.076892518,0.986544132
58.615590,-3.610294342,-2.994804382,-2.413986206,0.053232118,0.081042908,0.994844913
58.616233,-3.610294342,-2.994804382,-2.413986206,0.053232118,0.081042908,0.994844913
58.632151,-3.251712799,-3.429679871,-2.391098022,0.056528017,0.081164978,1.007540226
58.632977,-3.251712799,-3.429679871,-2.391098022,0.056528017,0.081164978,1.007540226
58.633587,-3.251712799,-3.429679871,-2.391098022,0.056528017,0.081164978,1.007540226
58.634219,-3.251712799,-3.429679871,-2.391098022,0.056528017,0.081164978,1.007540226
58.634834,-3.251712799,-3.429679871,-2.391098022,0.056528017,0.081164978,1.007540226
58.635458,-2.671878815,-3.010063171,-2.703903198,0.056772158,0.081653260,1.008272648
58.636064,-2.671878815,-3.010063171,-2.703903198,0.056772158,0.081653260,1.008272648
58.636696,-2.671878815,-3.010063171,-2.703903198,0.056772158,0.081653260,1.008272648
58.637307,-2.671878815,-3.010063171,-2.703903198,0.056772158,0.081653260,1.008272648
58.637935,-2.671878815,-3.010063171,-2.703903198,0.056772158,0.081653260,1.008272648
58.638545,-2.671878815,-3.010063171,-2.703903198,0.056772158,0.081653260,1.008272648
58.639178,-2.671878815,-3.010063171,-2.703903198,0.056772158,0.081653260,1.008272648
58.639785,-2.671878815,-3.010063171,-2.703903198,0.056772158,0.081653260,1.008272648
58.640421,-2.671878815,-3.010063171,-2.703903198,0.056772158,0.081653260,1.008272648
58.641029,-2.671878815,-3.010063171,-2.703903198,0.056772158,0.081653260,1.008272648
58.641656,-2.671878815,-3.010063171,-2.703903198,0.056772158,0.081653260,1.008272648
58.642273,-2.671878815,-3.010063171,-2.703903198,0.056772158,0.081653260,1.008272648
58.642898,-2.671878815,-3.010063171,-2.703903198,0.056772158,0.081653260,1.008272648
58.643504,-2.671878815,-3.010063171,-2.703903198,0.056772158,0.081653260,1.008272648
58.644141,-2.671878815,-3.010063171,-2.703903198,0.056772158,0.081653260,1.008272648
58.644749,-2.671878815,-3.010063171,-2.703903198,0.056772158,0.081653260,1.008272648
58.645379,-2.168338776,-2.216606140,-2.673385620,0.055063173,0.078113221,1.011690617
58.645990,-2.168338776,-2.216606140,-2.673385620,0.055063173,0.078113221,1.011690617
58.646622,-2.168338776,-2.216606140,-2.673385620,0.055063173,0.078113221,1.011690617
58.647236,-2.168338776,-2.216606140,-2.673385620,0.055063173,0.078113221,1.011690617
58.647869,-2.168338776,-2.216606140,-2.673385620,0.055063173,0.078113221,1.011690617
58.648475,-2.168338776,-2.216606140,-2.673385620,0.055063173,0.078113221,1.011690617
58.649108,-2.168338776,-2.216606140,-2.673385620,0.055063173,0.078113221,1.011690617
58.649720,-2.168338776,-2.216606140,-2.673385620,0.055063173,0.078113221,1.011690617
58.650354,-2.168338776,-2.216606140,-2.673385620,0.055063173,0.078113221,1.011690617
58.652140,-2.168338776,-2.216606140,-2.673385620,0.055063173,0.078113221,1.011690617
58.652877,-2.168338776,-2.216606140,-2.673385620,0.055063173,0.078113221,1.011690617
58.653475,-2.168338776,-2.216606140,-2.673385620,0.055063173,0.078113221,1.011690617
58.654109,-2.168338776,-2.216606140,-2.673385620,0.055063173,0.078113221,1.011690617
58.654707,-2.168338776,-2.216606140,-2.673385620,0.055063173,0.078113221,1.011690617
58.655345,-1.779239655,-1.255302429,-2.757308960,0.056283876,0.075549744,1.010103703
58.655954,-1.779239655,-1.255302429,-2.757308960,0.056283876,0.075549744,1.010103703
58.656591,-1.779239655,-1.255302429,-2.757308960,0.056283876,0.075549744,1.010103703
58.657207,-1.779239655,-1.255302429,-2.757308960,0.056283876,0.075549744,1.010103703
58.657842,-1.779239655,-1.255302429,-2.757308960,0.056283876,0.075549744,1.010103703
58.658448,-1.779239655,-1.255302429,-2.757308960,0.056283876,0.075549744,1.010103703
58.659087,-1.779239655,-1.255302429,-2.757308960,0.056283876,0.075549744,1.010103703
58.659694,-1.779239655,-1.255302429,-2.757308960,0.056283876,0.075549744,1.010103703
58.660334,-1.779239655,-1.255302429,-2.757308960,0.056283876,0.075549744,1.010103703
58.660942,-1.779239655,-1.255302429,-2.757308960,0.056283876,0.075549744,1.010103703
58.661577,-1.779239655,-1.255302429,-2.757308960,0.056283876,0.075549744,1.010103703
58.662191,-1.779239655,-1.255302429,-2.757308960,0.056283876,0.075549744,1.010103703
58.662833,-1.779239655,-1.255302429,-2.757308960,0.056283876,0.075549744,1.010103703
58.679487,-0.764530182,-0.507621765,-2.841232300,0.051401064,0.073718689,0.997530460
58.680323,-0.764530182,-0.507621765,-2.841232300,0.051401064,0.073718689,0.997530460
58.680946,-0.764530182,-0.507621765,-2.841232300,0.051401064,0.073718689,0.997530460
58.681582,-0.764530182,-0.507621765,-2.841232300,0.051401064,0.073718689,0.997530460
58.682196,-0.764530182,-0.507621765,-2.841232300,0.051401064,0.073718689,0.997530460
58.682838,-0.764530182,-0.507621765,-2.841232300,0.051401064,0.073718689,0.997530460
58.683445,-0.764530182,-0.507621765,-2.841232300,0.051401064,0.073718689,0.997530460
58.684082,-0.764530182,-0.507621765,-2.841232300,0.051401064,0.073718689,0.997530460
58.684691,-0.955265045,-0.942497253,-2.696273804,0.054574892,0.068469666,0.995699406
58.685333,-0.955265045,-0.942497253,-2.696273804,0.054574892,0.068469666,0.995699406
58.685938,-0.955265045,-0.942497253,-2.696273804,0.054574892,0.068469666,0.995699406
58.686574,-0.955265045,-0.942497253,-2.696273804,0.054574892,0.068469666,0.995699406
58.687188,-0.955265045,-0.942497253,-2.696273804,0.054574892,0.068469666,0.995699406
58.687827,-0.955265045,-0.942497253,-2.696273804,0.054574892,0.068469666,0.995699406
58.688433,-0.955265045,-0.942497253,-2.696273804,0.054574892,0.068469666,0.995699406
58.689071,-0.955265045,-0.942497253,-2.696273804,0.054574892,0.068469666,0.995699406
58.689677,-0.955265045,-0.942497253,-2.696273804,0.054574892,0.068469666,0.995699406
58.690317,-0.955265045,-0.942497253,-2.696273804,0.054574892,0.068469666,0.995699406
58.690923,-0.955265045,-0.942497253,-2.696273804,0.054574892,0.068469666,0.995699406
58.691553,-0.955265045,-0.942497253,-2.696273804,0.054574892,0.068469666,0.995699406
58.692166,-0.955265045,-0.942497253,-2.696273804,0.054574892,0.068469666,0.995699406
58.692798,-0.955265045,-0.942497253,-2.696273804,0.054574892,0.068469666,0.995699406
58.693411,-0.955265045,-0.942497253,-2.696273804,0.054574892,0.068469666,0.995699406
58.694041,-0.955265045,-0.942497253,-2.696273804,0.054574892,0.068469666,0.995699406
58.694651,-1.619022369,-1.789360046,-2.719161987,0.053964540,0.069812439,0.994600773
58.695289,-1.619022369,-1.789360046,-2.719161987,0.053964540,0.069812439,0.994600773
58.695896,-1.619022369,-1.789360046,-2.719161987,0.053964540,0.069812439,0.994600773
58.696528,-1.619022369,-1.789360046,-2.719161987,0.053964540,0.069812439,0.994600773
58.697142,-1.619022369,-1.789360046,-2.719161987,0.053964540,0.069812439,0.994600773
58.697777,-1.619022369,-1.789360046,-2.719161987,0.053964540,0.069812439,0.994600773
58.699568,-1.619022369,-1.789360046,-2.719161987,0.053964540,0.069812439,0.994600773
58.700318,-1.619022369,-1.789360046,-2.719161987,0.053964540,0.069812439,0.994600773
58.700928,-1.619022369,-1.789360046,-2.719161987,0.053964540,0.069812439,0.994600773
58.701563,-1.619022369,-1.789360046,-2.719161987,0.053964540,0.069812439,0.994600773
58.702177,-1.619022369,-1.789360046,-2.719161987,0.053964540,0.069812439,0.994600773
58.702817,-1.619022369,-1.789360046,-2.719161987,0.053964540,0.069812439,0.994600773
58.703423,-1.619022369,-1.789360046,-2.719161987,0.053964540,0.069812439,0.994600773
58.704062,-1.619022369,-1.789360046,-2.719161987,0.053964540,0.069812439,0.994600773
58.704669,-2.252262115,-2.773551941,-2.810714722,0.049814150,0.077624939,0.997530460
58.705310,-2.252262115,-2.773551941,-2.810714722,0.049814150,0.077624939,0.997530460
58.705917,-2.252262115,-2.773551941,-2.810714722,0.049814150,0.077624939,0.997530460
58.706549,-2.252262115,-2.773551941,-2.810714722,0.049814150,0.077624939,0.997530460
58.707164,-2.252262115,-2.773551941,-2.810714722,0.049814150,0.077624939,0.997530460
58.707796,-2.252262115,-2.773551941,-2.810714722,0.049814150,0.077624939,0.997530460
58.708410,-2.252262115,-2.773551941,-2.810714722,0.049814150,0.077624939,0.997530460
58.709042,-2.252262115,-2.773551941,-2.810714722,0.049814150,0.077624939,0.997530460
58.709651,-2.252262115,-2.773551941,-2.810714722,0.049814150,0.077624939,0.997530460
58.710290,-2.252262115,-2.773551941,-2.810714722,0.049814150,0.077624939,0.997530460
58.710900,-2.252262115,-2.773551941,-2.810714722,0.049814150,0.077624939,0.997530460
58.728416,-1.191776276,-3.818778992,-2.131698608,0.045297548,0.090564393,0.998140812
58.729235,-1.191776276,-3.818778992,-2.131698608,0.045297548,0.090564393,0.998140812
58.729854,-1.191776276,-3.818778992,-2.131698608,0.045297548,0.090564393,0.998140812
58.730488,-1.191776276,-3.818778992,-2.131698608,0.045297548,0.090564393,0.998140812
58.731108,-1.191776276,-3.818778992,-2.131698608,0.045297548,0.090564393,0.998140812
58.731746,-1.191776276,-3.818778992,-2.131698608,0.045297548,0.090564393,0.998140812
58.732368,-1.191776276,-3.818778992,-2.131698608,0.045297548,0.090564393,0.998140812
58.733003,-1.191776276,-3.818778992,-2.131698608,0.045297548,0.090564393,0.998140812
58.733620,-1.191776276,-3.818778992,-2.131698608,0.045297548,0.090564393,0.998140812
58.734263,-1.191776276,-3.818778992,-2.131698608,0.045297548,0.090564393,0.998140812
58.734876,-0.802677155,-3.376274109,-1.933334351,0.041391298,0.087390564,0.994966984
58.735511,-0.802677155,-3.376274109,-1.933334351,0.041391298,0.087390564,0.994966984
58.736131,-0.802677155,-3.376274109,-1.933334351,0.041391298,0.087390564,0.994966984
58.736769,-0.802677155,-3.376274109,-1.933334351,0.041391298,0.087390564,0.994966984
58.737388,-0.802677155,-3.376274109,-1.933334351,0.041391298,0.087390564,0.994966984
58.738024,-0.802677155,-3.376274109,-1.933334351,0.041391298,0.087390564,0.994966984
58.738642,-0.802677155,-3.376274109,-1.933334351,0.041391298,0.087390564,0.994966984
58.739285,-0.802677155,-3.376274109,-1.933334351,0.041391298,0.087390564,0.994966984
58.739899,-0.802677155,-3.376274109,-1.933334351,0.041391298,0.087390564,0.994966984
58.740529,-0.802677155,-3.376274109,-1.933334351,0.041391298,0.087390564,0.994966984
58.741151,-0.802677155,-3.376274109,-1.933334351,0.041391298,0.087390564,0.994966984
58.741790,-0.802677155,-3.376274109,-1.933334351,0.041391298,0.087390564,0.994966984
58.742412,-0.802677155,-3.376274109,-1.933334351,0.041391298,0.087390564,0.994966984
58.743045,-0.802677155,-3.376274109,-1.933334351,0.041391298,0.087390564,0.994966984
58.743662,-0.802677155,-3.376274109,-1.933334351,0.041391298,0.087390564,0.994966984
58.744302,-0.894229889,-2.933769226,-1.544235229,0.043710634,0.083606385,0.994112492
58.744918,-0.894229889,-2.933769226,-1.544235229,0.043710634,0.083606385,0.994112492
58.745554,-0.894229889,-2.933769226,-1.544235229,0.043710634,0.083606385,0.994112492
58.746176,-0.894229889,-2.933769226,-1.544235229,0.043710634,0.083606385,0.994112492
58.746821,-0.894229889,-2.933769226,-1.544235229,0.043710634,0.083606385,0.994112492
58.748625,-0.894229889,-2.933769226,-1.544235229,0.043710634,0.083606385,0.994112492
58.749359,-0.894229889,-2.933769226,-1.544235229,0.043710634,0.083606385,0.994112492
58.749977,-0.894229889,-2.933769226,-1.544235229,0.043710634,0.083606385,0.994112492
58.750619,-0.894229889,-2.933769226,-1.544235229,0.043710634,0.083606385,0.994112492
58.751242,-0.894229889,-2.933769226,-1.544235229,0.043710634,0.083606385,0.994112492
58.751881,-0.894229889,-2.933769226,-1.544235229,0.043710634,0.083606385,0.994112492
58.752499,-0.894229889,-2.933769226,-1.544235229,0.043710634,0.083606385,0.994112492
58.753139,-0.894229889,-2.933769226,-1.544235229,0.043710634,0.083606385,0.994112492
58.753757,-0.894229889,-2.933769226,-1.544235229,0.043710634,0.083606385,0.994112492
58.754392,-0.978153229,-2.331047058,-1.483200073,0.047861025,0.081653260,0.995455265
58.755008,-0.978153229,-2.331047058,-1.483200073,0.047861025,0.081653260,0.995455265
58.755645,-0.978153229,-2.331047058,-1.483200073,0.047861025,0.081653260,0.995455265
58.756269,-0.978153229,-2.331047058,-1.483200073,0.047861025,0.081653260,0.995455265
58.756900,-0.978153229,-2.331047058,-1.483200073,0.047861025,0.081653260,0.995455265
58.757515,-0.978153229,-2.331047058,-1.483200073,0.047861025,0.081653260,0.995455265
58.758156,-0.978153229,-2.331047058,-1.483200073,0.047861025,0.081653260,0.995455265
58.758776,-0.978153229,-2.331047058,-1.483200073,0.047861025,0.081653260,0.995455265
58.759413,-0.978153229,-2.331047058,-1.483200073,0.047861025,0.081653260,0.995455265
58.777091,-1.321475983,-0.927238464,-1.780746460,0.040170595,0.077258728,1.006929874
58.777927,-1.321475983,-0.927238464,-1.780746460,0.040170595,0.077258728,1.006929874
58.778555,-1.321475983,-0.927238464,-1.780746460,0.040170595,0.077258728,1.006929874
58.779198,-1.321475983,-0.927238464,-1.780746460,0.040170595,0.077258728,1.006929874
58.779822,-1.321475983,-0.927238464,-1.780746460,0.040170595,0.077258728,1.006929874
58.780456,-1.321475983,-0.927238464,-1.780746460,0.040170595,0.077258728,1.006929874
58.781075,-1.321475983,-0.927238464,-1.780746460,0.040170595,0.077258728,1.006929874
58.781710,-1.321475983,-0.927238464,-1.780746460,0.040170595,0.077258728,1.006929874
58.782338,-1.321475983,-0.927238464,-1.780746460,0.040170595,0.077258728,1.006929874
58.782969,-1.321475983,-0.927238464,-1.780746460,0.040170595,0.077258728,1.006929874
58.783592,-1.321475983,-0.927238464,-1.780746460,0.040170595,0.077258728,1.006929874
58.784235,-1.428287506,-0.767021179,-1.406906128,0.040903017,0.078845643,1.013765812
58.784856,-1.428287506,-0.767021179,-1.406906128,0.040903017,0.078845643,1.013765812
58.785490,-1.428287506,-0.767021179,-1.406906128,0.040903017,0.078845643,1.013765812
58.786115,-1.428287506,-0.767021179,-1.406906128,0.040903017,0.078845643,1.013765812
58.786750,-1.428287506,-0.767021179,-1.406906128,0.040903017,0.078845643,1.013765812
58.787370,-1.428287506,-0.767021179,-1.406906128,0.040903017,0.078845643,1.013765812
58.788007,-1.428287506,-0.767021179,-1.406906128,0.040903017,0.078845643,1.013765812
58.788626,-1.428287506,-0.767021179,-1.406906128,0.040903017,0.078845643,1.013765812
58.789268,-1.428287506,-0.767021179,-1.406906128,0.040903017,0.078845643,1.013765812
58.789885,-1.428287506,-0.767021179,-1.406906128,0.040903017,0.078845643,1.013765812
58.790520,-1.428287506,-0.767021179,-1.406906128,0.040903017,0.078845643,1.013765812
58.791143,-1.428287506,-0.767021179,-1.406906128,0.040903017,0.078845643,1.013765812
58.791784,-1.428287506,-0.767021179,-1.406906128,0.040903017,0.078845643,1.013765812
58.792407,-1.428287506,-0.767021179,-1.406906128,0.040903017,0.078845643,1.013765812
58.793041,-1.428287506,-0.767021179,-1.406906128,0.040903017,0.078845643,1.013765812
58.793660,-1.428287506,-0.767021179,-1.406906128,0.040903017,0.078845643,1.013765812
58.794301,-0.940006256,-0.767021179,-1.139877319,0.040903017,0.086658143,1.015230656
58.794922,-0.940006256,-0.767021179,-1.139877319,0.040903017,0.086658143,1.015230656
58.795559,-0.940006256,-0.767021179,-1.139877319,0.040903017,0.086658143,1.015230656
58.797362,-0.940006256,-0.767021179,-1.139877319,0.040903017,0.086658143,1.015230656
58.798105,-0.940006256,-0.767021179,-1.139877319,0.040903017,0.086658143,1.015230656
58.798721,-0.940006256,-0.767021179,-1.139877319,0.040903017,0.086658143,1.015230656
58.799361,-0.940006256,-0.767021179,-1.139877319,0.040903017,0.086658143,1.015230656
58.799978,-0.940006256,-0.767021179,-1.139877319,0.040903017,0.086658143,1.015230656
58.800622,-0.940006256,-0.767021179,-1.139877319,0.040903017,0.086658143,1.015230656
58.801247,-0.940006256,-0.767021179,-1.139877319,0.040903017,0.086658143,1.015230656
58.801886,-0.940006256,-0.767021179,-1.139877319,0.040903017,0.086658143,1.015230656
58.802504,-0.940006256,-0.767021179,-1.139877319,0.040903017,0.086658143,1.015230656
58.803146,-0.940006256,-0.767021179,-1.139877319,0.040903017,0.086658143,1.015230656
58.803769,-0.940006256,-0.767021179,-1.139877319,0.040903017,0.086658143,1.015230656
58.804411,-0.390689850,-0.835685730,-0.842330933,0.038949892,0.087390564,1.014376163
58.805031,-0.390689850,-0.835685730,-0.842330933,0.038949892,0.087390564,1.014376163
58.805668,-0.390689850,-0.835685730,-0.842330933,0.038949892,0.087390564,1.014376163
58.806292,-0.390689850,-0.835685730,-0.842330933,0.038949892,0.087390564,1.014376163
58.806934,-0.390689850,-0.835685730,-0.842330933,0.038949892,0.087390564,1.014376163
58.807552,-0.390689850,-0.835685730,-0.842330933,0.038949892,0.087390564,1.014376163
58.808195,-0.390689850,-0.835685730,-0.842330933,0.038949892,0.087390564,1.014376163
58.826116,0.631649017,-0.690727234,-0.018356323,0.050424501,0.088733338,0.997896671
58.826926,0.631649017,-0.690727234,-0.018356323,0.050424501,0.088733338,0.997896671
58.827516,0.631649017,-0.690727234,-0.018356323,0.050424501,0.088733338,0.997896671
58.828132,0.631649017,-0.690727234,-0.018356323,0.050424501,0.088733338,0.997896671
58.828731,0.631649017,-0.690727234,-0.018356323,0.050424501,0.088733338,0.997896671
58.829348,0.631649017,-0.690727234,-0.018356323,0.050424501,0.088733338,0.997896671
58.829942,0.631649017,-0.690727234,-0.018356323,0.050424501,0.088733338,0.997896671
58.830554,0.631649017,-0.690727234,-0.018356323,0.050424501,0.088733338,0.997896671
58.831154,0.631649017,-0.690727234,-0.018356323,0.050424501,0.088733338,0.997896671
58.831765,0.631649017,-0.690727234,-0.018356323,0.050424501,0.088733338,0.997896671
58.832373,0.631649017,-0.690727234,-0.018356323,0.050424501,0.088733338,0.997896671
58.832983,0.631649017,-0.690727234,-0.018356323,0.050424501,0.088733338,0.997896671
58.833579,0.631649017,-0.690727234,-0.018356323,0.050424501,0.088733338,0.997896671
58.834202,0.662166595,-0.347404480,0.042678833,0.054941103,0.085437439,0.990938663
58.834806,0.662166595,-0.347404480,0.042678833,0.054941103,0.085437439,0.990938663
58.835414,0.662166595,-0.347404480,0.042678833,0.054941103,0.085437439,0.990938663
58.836012,0.662166595,-0.347404480,0.042678833,0.054941103,0.085437439,0.990938663
58.836623,0.662166595,-0.347404480,0.042678833,0.054941103,0.085437439,0.990938663
58.837224,0.662166595,-0.347404480,0.042678833,0.054941103,0.085437439,0.990938663
58.837845,0.662166595,-0.347404480,0.042678833,0.054941103,0.085437439,0.990938663
58.838438,0.662166595,-0.347404480,0.042678833,0.054941103,0.085437439,0.990938663
58.839055,0.662166595,-0.347404480,0.042678833,0.054941103,0.085437439,0.990938663
58.839651,0.662166595,-0.347404480,0.042678833,0.054941103,0.085437439,0.990938663
58.840268,0.662166595,-0.347404480,0.042678833,0.054941103,0.085437439,0.990938663
58.840868,0.662166595,-0.347404480,0.042678833,0.054941103,0.085437439,0.990938663
58.841480,0.662166595,-0.347404480,0.042678833,0.054941103,0.085437439,0.990938663
58.842081,0.662166595,-0.347404480,0.042678833,0.054941103,0.085437439,0.990938663
58.842693,0.662166595,-0.347404480,0.042678833,0.054941103,0.085437439,0.990938663
58.843296,0.662166595,-0.347404480,0.042678833,0.054941103,0.085437439,0.990938663
58.843910,0.479061127,-0.057487488,-0.041244507,0.057870790,0.078601502,0.991426945
58.844497,0.479061127,-0.057487488,-0.041244507,0.057870790,0.078601502,0.991426945
58.846333,0.479061127,-0.057487488,-0.041244507,0.057870790,0.078601502,0.991426945
58.847036,0.479061127,-0.057487488,-0.041244507,0.057870790,0.078601502,0.991426945
58.847631,0.479061127,-0.057487488,-0.041244507,0.057870790,0.078601502,0.991426945
58.848254,0.479061127,-0.057487488,-0.041244507,0.057870790,0.078601502,0.991426945
58.848843,0.479061127,-0.057487488,-0.041244507,0.057870790,0.078601502,0.991426945
58.849450,0.479061127,-0.057487488,-0.041244507,0.057870790,0.078601502,0.991426945
58.850053,0.479061127,-0.057487488,-0.041244507,0.057870790,0.078601502,0.991426945
58.850657,0.479061127,-0.057487488,-0.041244507,0.057870790,0.078601502,0.991426945
58.851259,0.479061127,-0.057487488,-0.041244507,0.057870790,0.078601502,0.991426945
58.851862,0.479061127,-0.057487488,-0.041244507,0.057870790,0.078601502,0.991426945
58.852450,0.479061127,-0.057487488,-0.041244507,0.057870790,0.078601502,0.991426945
58.853076,0.479061127,-0.057487488,-0.041244507,0.057870790,0.078601502,0.991426945
58.853667,0.295955658,-0.149040222,0.302078247,0.062387392,0.075793885,0.990816593
58.854294,0.295955658,-0.149040222,0.302078247,0.062387392,0.075793885,0.990816593
58.854888,0.295955658,-0.149040222,0.302078247,0.062387392,0.075793885,0.990816593
58.855499,0.295955658,-0.149040222,0.302078247,0.062387392,0.075793885,0.990816593
58.856104,0.295955658,-0.149040222,0.302078247,0.062387392,0.075793885,0.990816593
58.856717,0.295955658,-0.149040222,0.302078247,0.062387392,0.075793885,0.990816593
58.874770,0.250179291,-0.995903015,0.263931274,0.069223329,0.072864197,0.984957218
58.875592,0.250179291,-0.995903015,0.263931274,0.069223329,0.072864197,0.984957218
58.876212,0.250179291,-0.995903015,0.263931274,0.069223329,0.072864197,0.984957218
58.876838,0.250179291,-0.995903015,0.263931274,0.069223329,0.072864197,0.984957218
58.877434,0.250179291,-0.995903015,0.263931274,0.069223329,0.072864197,0.984957218
58.878060,0.250179291,-0.995903015,0.263931274,0.069223329,0.072864197,0.984957218
58.878659,0.250179291,-0.995903015,0.263931274,0.069223329,0.072864197,0.984957218
58.879289,0.250179291,-0.995903015,0.263931274,0.069223329,0.072864197,0.984957218
58.879889,0.250179291,-0.995903015,0.263931274,0.069223329,0.072864197,0.984957218
58.880507,0.250179291,-0.995903015,0.263931274,0.069223329,0.072864197,0.984957218
58.881118,0.250179291,-0.995903015,0.263931274,0.069223329,0.072864197,0.984957218
58.881738,0.250179291,-0.995903015,0.263931274,0.069223329,0.072864197,0.984957218
58.882345,0.250179291,-0.995903015,0.263931274,0.069223329,0.072864197,0.984957218
58.882969,0.250179291,-0.995903015,0.263931274,0.069223329,0.072864197,0.984957218
58.883573,0.280696869,-1.529960632,0.233413696,0.070077822,0.074939393,0.983980656
58.884215,0.280696869,-1.529960632,0.233413696,0.070077822,0.074939393,0.983980656
58.884835,0.280696869,-1.529960632,0.233413696,0.070077822,0.074939393,0.983980656
58.885459,0.280696869,-1.529960632,0.233413696,0.070077822,0.074939393,0.983980656
58.886076,0.280696869,-1.529960632,0.233413696,0.070077822,0.074939393,0.983980656
58.886700,0.280696869,-1.529960632,0.233413696,0.070077822,0.074939393,0.983980656
58.887317,0.280696869,-1.529960632,0.233413696,0.070077822,0.074939393,0.983980656
58.887942,0.280696869,-1.529960632,0.233413696,0.070077822,0.074939393,0.983980656
58.888549,0.280696869,-1.529960632,0.233413696,0.070077822,0.074939393,0.983980656
58.889179,0.280696869,-1.529960632,0.233413696,0.070077822,0.074939393,0.983980656
58.889790,0.280696869,-1.529960632,0.233413696,0.070077822,0.074939393,0.983980656
58.890421,0.280696869,-1.529960632,0.233413696,0.070077822,0.074939393,0.983980656
58.891030,0.280696869,-1.529960632,0.233413696,0.070077822,0.074939393,0.983980656
58.891655,0.280696869,-1.529960632,0.233413696,0.070077822,0.074939393,0.983980656
58.892268,0.280696869,-1.529960632,0.233413696,0.070077822,0.074939393,0.983980656
58.892891,0.280696869,-1.529960632,0.233413696,0.070077822,0.074939393,0.983980656
58.893500,0.280696869,-1.720695496,0.218154907,0.070077822,0.073962830,0.978487492
58.895342,0.280696869,-1.720695496,0.218154907,0.070077822,0.073962830,0.978487492
58.896085,0.280696869,-1.720695496,0.218154907,0.070077822,0.073962830,0.978487492
58.896702,0.280696869,-1.720695496,0.218154907,0.070077822,0.073962830,0.978487492
58.897338,0.280696869,-1.720695496,0.218154907,0.070077822,0.073962830,0.978487492
58.897941,0.280696869,-1.720695496,0.218154907,0.070077822,0.073962830,0.978487492
58.898575,0.280696869,-1.720695496,0.218154907,0.070077822,0.073962830,0.978487492
58.899186,0.280696869,-1.720695496,0.218154907,0.070077822,0.073962830,0.978487492
58.899822,0.280696869,-1.720695496,0.218154907,0.070077822,0.073962830,0.978487492
58.900428,0.280696869,-1.720695496,0.218154907,0.070077822,0.073962830,0.978487492
58.901062,0.280696869,-1.720695496,0.218154907,0.070077822,0.073962830,0.978487492
58.901668,0.280696869,-1.720695496,0.218154907,0.070077822,0.073962830,0.978487492
58.902303,0.280696869,-1.720695496,0.218154907,0.070077822,0.073962830,0.978487492
58.902907,0.280696869,-1.720695496,0.218154907,0.070077822,0.073962830,0.978487492
58.903534,0.021297455,-1.621513367,0.065567017,0.073984072,0.072253846,0.978975773
58.904146,0.021297455,-1.621513367,0.065567017,0.073984072,0.072253846,0.978975773
58.904775,0.021297455,-1.621513367,0.065567017,0.073984072,0.072253846,0.978975773
58.905383,0.021297455,-1.621513367,0.065567017,0.073984072,0.072253846,0.978975773
58.906011,0.021297455,-1.621513367,0.065567017,0.073984072,0.072253846,0.978975773
58.919570,-0.421207428,-1.087455750,-0.193832397,0.072397158,0.072375916,0.984591007
58.920387,-0.421207428,-1.087455750,-0.193832397,0.072397158,0.072375916,0.984591007
58.921005,-0.421207428,-1.087455750,-0.193832397,0.072397158,0.072375916,0.984591007
58.921627,-0.421207428,-1.087455750,-0.193832397,0.072397158,0.072375916,0.984591007
58.922235,-0.421207428,-1.087455750,-0.193832397,0.072397158,0.072375916,0.984591007
58.922851,-0.421207428,-1.087455750,-0.193832397,0.072397158,0.072375916,0.984591007
58.923449,-0.581424713,-0.271110535,-0.270126343,0.072275087,0.072620057,0.993135929
58.924076,-0.581424713,-0.271110535,-0.270126343,0.072275087,0.072620057,0.993135929
58.924669,-0.581424713,-0.271110535,-0.270126343,0.072275087,0.072620057,0.993135929
58.925291,-0.581424713,-0.271110535,-0.270126343,0.072275087,0.072620057,0.993135929
58.925891,-0.581424713,-0.271110535,-0.270126343,0.072275087,0.072620057,0.993135929
58.926497,-0.581424713,-0.271110535,-0.270126343,0.072275087,0.072620057,0.993135929
58.927103,-0.581424713,-0.271110535,-0.270126343,0.072275087,0.072620057,0.993135929
58.927719,-0.581424713,-0.271110535,-0.270126343,0.072275087,0.072620057,0.993135929
58.928325,-0.581424713,-0.271110535,-0.270126343,0.072275087,0.072620057,0.993135929
58.928935,-0.581424713,-0.271110535,-0.270126343,0.072275087,0.072620057,0.993135929
58.929530,-0.581424713,-0.271110535,-0.270126343,0.072275087,0.072620057,0.993135929
58.930153,-0.581424713,-0.271110535,-0.270126343,0.072275087,0.072620057,0.993135929
58.930751,-0.581424713,-0.271110535,-0.270126343,0.072275087,0.072620057,0.993135929
58.931374,-0.581424713,-0.271110535,-0.270126343,0.072275087,0.072620057,0.993135929
58.931968,-0.581424713,-0.271110535,-0.270126343,0.072275087,0.072620057,0.993135929
58.932581,-0.581424713,-0.271110535,-0.270126343,0.072275087,0.072620057,0.993135929
58.933192,-0.581424713,-0.271110535,-0.270126343,0.072275087,0.072620057,0.993135929
58.933812,-0.413578033,0.652046204,-0.270126343,0.072885439,0.074817322,1.000093937
58.934423,-0.413578033,0.652046204,-0.270126343,0.072885439,0.074817322,1.000093937
58.935042,-0.413578033,0.652046204,-0.270126343,0.072885439,0.074817322,1.000093937
58.935649,-0.413578033,0.652046204,-0.270126343,0.072885439,0.074817322,1.000093937
58.936270,-0.413578033,0.652046204,-0.270126343,0.072885439,0.074817322,1.000093937
58.936879,-0.413578033,0.652046204,-0.270126343,0.072885439,0.074817322,1.000093937
58.937492,-0.413578033,0.652046204,-0.270126343,0.072885439,0.074817322,1.000093937
58.938102,-0.413578033,0.652046204,-0.270126343,0.072885439,0.074817322,1.000093937
58.939941,-0.413578033,0.652046204,-0.270126343,0.072885439,0.074817322,1.000093937
58.940678,-0.413578033,0.652046204,-0.270126343,0.072885439,0.074817322,1.000093937
58.941293,-0.413578033,0.652046204,-0.270126343,0.072885439,0.074817322,1.000093937
58.941918,-0.413578033,0.652046204,-0.270126343,0.072885439,0.074817322,1.000093937
58.942515,-0.413578033,0.652046204,-0.270126343,0.072885439,0.074817322,1.000093937
58.943148,-0.413578033,0.652046204,-0.270126343,0.072885439,0.074817322,1.000093937
58.943748,0.112850189,1.201362610,-0.392196655,0.075204775,0.077014588,1.001436710
58.944381,0.112850189,1.201362610,-0.392196655,0.075204775,0.077014588,1.001436710
58.944980,0.112850189,1.201362610,-0.392196655,0.075204775,0.077014588,1.001436710
58.945610,0.112850189,1.201362610,-0.392196655,0.075204775,0.077014588,1.001436710
58.946218,0.112850189,1.201362610,-0.392196655,0.075204775,0.077014588,1.001436710
58.946846,0.112850189,1.201362610,-0.392196655,0.075204775,0.077014588,1.001436710
58.947444,0.112850189,1.201362610,-0.392196655,0.075204775,0.077014588,1.001436710
58.948078,0.112850189,1.201362610,-0.392196655,0.075204775,0.077014588,1.001436710
58.948678,0.112850189,1.201362610,-0.392196655,0.075204775,0.077014588,1.001436710
58.949312,0.112850189,1.201362610,-0.392196655,0.075204775,0.077014588,1.001436710
58.949912,0.112850189,1.201362610,-0.392196655,0.075204775,0.077014588,1.001436710
58.950537,0.112850189,1.201362610,-0.392196655,0.075204775,0.077014588,1.001436710
58.964236,0.669795990,1.048774719,-0.918624878,0.074594423,0.073352478,0.995943546
58.965062,0.669795990,1.048774719,-0.918624878,0.074594423,0.073352478,0.995943546
58.965681,0.669795990,1.048774719,-0.918624878,0.074594423,0.073352478,0.995943546
58.966320,0.669795990,1.048774719,-0.918624878,0.074594423,0.073352478,0.995943546
58.966922,0.669795990,1.048774719,-0.918624878,0.074594423,0.073352478,0.995943546
58.967555,0.669795990,1.048774719,-0.918624878,0.074594423,0.073352478,0.995943546
58.968172,0.669795990,1.048774719,-0.918624878,0.074594423,0.073352478,0.995943546
58.968813,0.669795990,1.048774719,-0.918624878,0.074594423,0.073352478,0.995943546
58.969425,0.669795990,1.048774719,-0.918624878,0.074594423,0.073352478,0.995943546
58.970066,0.669795990,1.048774719,-0.918624878,0.074594423,0.073352478,0.995943546
58.970677,0.669795990,1.048774719,-0.918624878,0.074594423,0.073352478,0.995943546
58.971323,0.669795990,1.048774719,-0.918624878,0.074594423,0.073352478,0.995943546
58.971931,0.669795990,1.048774719,-0.918624878,0.074594423,0.073352478,0.995943546
58.972569,0.669795990,1.048774719,-0.918624878,0.074594423,0.073352478,0.995943546
58.973188,0.326473236,0.407905579,-1.086471558,0.069711611,0.069080018,0.995577335
58.973831,0.326473236,0.407905579,-1.086471558,0.069711611,0.069080018,0.995577335
58.974438,0.326473236,0.407905579,-1.086471558,0.069711611,0.069080018,0.995577335
58.975077,0.326473236,0.407905579,-1.086471558,0.069711611,0.069080018,0.995577335
58.975686,0.326473236,0.407905579,-1.086471558,0.069711611,0.069080018,0.995577335
58.976326,0.326473236,0.407905579,-1.086471558,0.069711611,0.069080018,0.995577335
58.976935,0.326473236,0.407905579,-1.086471558,0.069711611,0.069080018,0.995577335
58.977572,0.326473236,0.407905579,-1.086471558,0.069711611,0.069080018,0.995577335
58.978187,0.326473236,0.407905579,-1.086471558,0.069711611,0.069080018,0.995577335
58.978831,0.326473236,0.407905579,-1.086471558,0.069711611,0.069080018,0.995577335
58.979438,0.326473236,0.407905579,-1.086471558,0.069711611,0.069080018,0.995577335
58.980076,0.326473236,0.407905579,-1.086471558,0.069711611,0.069080018,0.995577335
58.980686,0.326473236,0.407905579,-1.086471558,0.069711611,0.069080018,0.995577335
58.981327,0.326473236,0.407905579,-1.086471558,0.069711611,0.069080018,0.995577335
58.981934,0.326473236,0.407905579,-1.086471558,0.069711611,0.069080018,0.995577335
58.982573,0.326473236,0.407905579,-1.086471558,0.069711611,0.069080018,0.995577335
58.984365,-0.123661041,-0.599174500,-0.781295776,0.062387392,0.067004822,0.997896671
58.985097,-0.123661041,-0.599174500,-0.781295776,0.062387392,0.067004822,0.997896671
58.985706,-0.123661041,-0.599174500,-0.781295776,0.062387392,0.067004822,0.997896671
58.986343,-0.123661041,-0.599174500,-0.781295776,0.062387392,0.067004822,0.997896671
58.986948,-0.123661041,-0.599174500,-0.781295776,0.062387392,0.067004822,0.997896671
58.987574,-0.123661041,-0.599174500,-0.781295776,0.062387392,0.067004822,0.997896671
58.988192,-0.123661041,-0.599174500,-0.781295776,0.062387392,0.067004822,0.997896671
58.988826,-0.123661041,-0.599174500,-0.781295776,0.062387392,0.067004822,0.997896671
58.989437,-0.123661041,-0.599174500,-0.781295776,0.062387392,0.067004822,0.997896671
58.990068,-0.123661041,-0.599174500,-0.781295776,0.062387392,0.067004822,0.997896671
58.990673,-0.123661041,-0.599174500,-0.781295776,0.062387392,0.067004822,0.997896671
58.991308,-0.123661041,-0.599174500,-0.781295776,0.062387392,0.067004822,0.997896671
58.991915,-0.123661041,-0.599174500,-0.781295776,0.062387392,0.067004822,0.997896671
58.992536,-0.123661041,-0.599174500,-0.781295776,0.062387392,0.067004822,0.997896671
58.993154,-0.093143463,-1.858024597,0.042678833,0.070688173,0.076404236,0.999605656
58.993798,-0.093143463,-1.858024597,0.042678833,0.070688173,0.076404236,0.999605656
58.994421,-0.093143463,-1.858024597,0.042678833,0.070688173,0.076404236,0.999605656
58.995055,-0.093143463,-1.858024597,0.042678833,0.070688173,0.076404236,0.999605656
58.995673,-0.093143463,-1.858024597,0.042678833,0.070688173,0.076404236,0.999605656
59.009634,0.280696869,-2.384452820,-0.025985718,0.071664736,0.079211853,1.000704288
59.010455,0.280696869,-2.384452820,-0.025985718,0.071664736,0.079211853,1.000704288
59.011080,0.280696869,-2.384452820,-0.025985718,0.071664736,0.079211853,1.000704288
59.011710,0.280696869,-2.384452820,-0.025985718,0.071664736,0.079211853,1.000704288
59.012318,0.280696869,-2.384452820,-0.025985718,0.071664736,0.079211853,1.000704288
59.012945,0.730831146,-2.132682800,-0.254867554,0.077890322,0.073596619,0.998751163
59.013549,0.730831146,-2.132682800,-0.254867554,0.077890322,0.073596619,0.998751163
59.014191,0.730831146,-2.132682800,-0.254867554,0.077890322,0.073596619,0.998751163
59.014797,0.730831146,-2.132682800,-0.254867554,0.077890322,0.073596619,0.998751163
59.015441,0.730831146,-2.132682800,-0.254867554,0.077890322,0.073596619,0.998751163
59.016043,0.730831146,-2.132682800,-0.254867554,0.077890322,0.073596619,0.998751163
59.016680,0.730831146,-2.132682800,-0.254867554,0.077890322,0.073596619,0.998751163
59.017291,0.730831146,-2.132682800,-0.254867554,0.077890322,0.073596619,0.998751163
59.017931,0.730831146,-2.132682800,-0.254867554,0.077890322,0.073596619,0.998751163
59.018533,0.730831146,-2.132682800,-0.254867554,0.077890322,0.073596619,0.998751163
59.019178,0.730831146,-2.132682800,-0.254867554,0.077890322,0.073596619,0.998751163
59.019781,0.730831146,-2.132682800,-0.254867554,0.077890322,0.073596619,0.998751163
59.020422,0.730831146,-2.132682800,-0.254867554,0.077890322,0.073596619,0.998751163
59.021029,0.730831146,-2.132682800,-0.254867554,0.077890322,0.073596619,0.998751163
59.021665,0.730831146,-2.132682800,-0.254867554,0.077890322,0.073596619,0.998751163
59.022275,0.730831146,-2.132682800,-0.254867554,0.077890322,0.073596619,0.998751163
59.022912,0.616390228,-1.003532410,-0.689743042,0.083749697,0.074206971,0.993013859
59.023511,0.616390228,-1.003532410,-0.689743042,0.083749697,0.074206971,0.993013859
59.024150,0.616390228,-1.003532410,-0.689743042,0.083749697,0.074206971,0.993013859
59.024755,0.616390228,-1.003532410,-0.689743042,0.083749697,0.074206971,0.993013859
59.025387,0.616390228,-1.003532410,-0.689743042,0.083749697,0.074206971,0.993013859
59.025987,0.616390228,-1.003532410,-0.689743042,0.083749697,0.074206971,0.993013859
59.026628,0.616390228,-1.003532410,-0.689743042,0.083749697,0.074206971,0.993013859
59.027235,0.616390228,-1.003532410,-0.689743042,0.083749697,0.074206971,0.993013859
59.027870,0.616390228,-1.003532410,-0.689743042,0.083749697,0.074206971,0.993013859
59.029658,0.616390228,-1.003532410,-0.689743042,0.083749697,0.074206971,0.993013859
59.030395,0.616390228,-1.003532410,-0.689743042,0.083749697,0.074206971,0.993013859
59.030999,0.616390228,-1.003532410,-0.689743042,0.083749697,0.074206971,0.993013859
59.031633,0.616390228,-1.003532410,-0.689743042,0.083749697,0.074206971,0.993013859
59.032240,0.616390228,-1.003532410,-0.689743042,0.083749697,0.074206971,0.993013859
59.032865,0.189144135,0.278205872,-1.467941284,0.083627626,0.075427674,0.987642765
59.033468,0.189144135,0.278205872,-1.467941284,0.083627626,0.075427674,0.987642765
59.034108,0.189144135,0.278205872,-1.467941284,0.083627626,0.075427674,0.987642765
59.034714,0.189144135,0.278205872,-1.467941284,0.083627626,0.075427674,0.987642765
59.035355,0.189144135,0.278205872,-1.467941284,0.083627626,0.075427674,0.987642765
59.035957,0.189144135,0.278205872,-1.467941284,0.083627626,0.075427674,0.987642765
59.036597,0.189144135,0.278205872,-1.467941284,0.083627626,0.075427674,0.987642765
59.037209,0.189144135,0.278205872,-1.467941284,0.083627626,0.075427674,0.987642765
59.037845,0.189144135,0.278205872,-1.467941284,0.083627626,0.075427674,0.987642765
59.038448,0.189144135,0.278205872,-1.467941284,0.083627626,0.075427674,0.987642765
59.039089,0.189144135,0.278205872,-1.467941284,0.083627626,0.075427674,0.987642765
59.039693,0.189144135,0.278205872,-1.467941284,0.083627626,0.075427674,0.987642765
59.040334,0.189144135,0.278205872,-1.467941284,0.083627626,0.075427674,0.987642765
59.040937,0.189144135,0.278205872,-1.467941284,0.083627626,0.075427674,0.987642765
59.055048,-0.054996490,1.369209290,-1.788375854,0.076059267,0.082996033,0.979708195
59.055873,-0.054996490,1.369209290,-1.788375854,0.076059267,0.082996033,0.979708195
59.056489,-0.054996490,1.369209290,-1.788375854,0.076059267,0.082996033,0.979708195
59.057127,-0.054996490,1.369209290,-1.788375854,0.076059267,0.082996033,0.979708195
59.057733,-0.054996490,1.369209290,-1.788375854,0.076059267,0.082996033,0.979708195
59.058374,-0.054996490,1.369209290,-1.788375854,0.076059267,0.082996033,0.979708195
59.058983,-0.054996490,1.369209290,-1.788375854,0.076059267,0.082996033,0.979708195
59.059622,-0.054996490,1.369209290,-1.788375854,0.076059267,0.082996033,0.979708195
59.060239,-0.054996490,1.369209290,-1.788375854,0.076059267,0.082996033,0.979708195
59.060881,-0.054996490,1.369209290,-1.788375854,0.076059267,0.082996033,0.979708195
59.061489,-0.054996490,1.369209290,-1.788375854,0.076059267,0.082996033,0.979708195
59.062130,-0.054996490,1.369209290,-1.788375854,0.076059267,0.082996033,0.979708195
59.062742,0.334102631,0.980110168,-1.864669800,0.074350283,0.081775330,0.971651554
