time,gyro x,gyro y,gyro z,accel x,accel y,accel z
21.788989,0.080162048,-0.751930237,0.026233673,-0.036091000,0.003287904,0.992306828
21.827507,0.103050232,-0.439125061,-0.111095428,-0.037555844,-0.005867369,0.997799993
21.841731,-0.080055237,-0.721412659,-0.057689667,-0.034259945,-0.000618346,0.997799993
21.857060,0.179344177,-1.591163635,-0.217906952,-0.037189633,-0.002693541,1.005368352
21.895325,0.797325134,-2.727943420,0.339038849,-0.034137875,0.002067201,1.009762883
21.933662,0.759178162,-2.529579163,0.392444611,-0.039508969,-0.000862487,0.998654485
21.947902,0.774436951,-3.216224670,0.514514923,-0.037189633,-0.001106627,0.998898625
21.963254,0.591331482,-2.964454651,0.339038849,-0.039020687,-0.002693541,0.999508977
22.001513,1.255088806,1.582664490,0.415332794,-0.051960140,0.014518373,0.971921086
22.039856,-0.629371643,4.252952576,-0.355236053,-0.033039242,-0.006721862,0.997433782
22.054107,-1.064247131,2.063316345,0.155933380,-0.021686703,-0.003425963,0.995114446
22.069469,-1.209205627,0.613731384,-0.019542694,-0.016925961,-0.000862487,0.999264836
22.107745,0.141197205,-4.452186584,0.407703400,-0.026813656,0.002189271,0.999875188
22.146071,-0.057167053,-6.138282776,0.377185822,-0.037555844,-0.007942565,0.999875188
22.160334,-0.316566467,-7.030921936,0.796802521,-0.039386898,-0.007820494,0.988278508
22.175693,-0.705665588,-4.032569885,0.346668243,-0.043659359,-0.000984557,1.023068547
22.213994,-0.240272522,2.208274841,0.751026154,-0.035480648,-0.011360534,1.008053899
22.252310,-0.202125549,2.528709412,-0.271312714,-0.028766781,0.000236146,1.008786321
22.266586,0.186973572,2.139610291,-0.057689667,-0.026813656,0.001945131,1.003537297
22.281962,0.164085388,2.215904236,-0.263683319,-0.026081234,-0.004890807,1.000973821
22.320236,-0.293678284,0.377220154,-0.019542694,-0.034382015,-0.003670104,0.994748235
22.358533,0.095420837,-0.278907776,0.033863068,-0.024738461,-0.005012877,0.995968938
22.372744,-0.171607971,-0.431495667,-0.217906952,-0.032917172,-0.003181823,1.002194524
22.388093,-0.232643127,-0.645118713,-0.019542694,-0.035724789,-0.003792174,1.005002141
22.438449,-0.148719788,0.461143494,0.026233673,-0.034992367,-0.002693541,0.996945500
22.476874,0.141197205,0.842613220,-0.248424530,-0.031818539,-0.002571471,1.001462102
22.491112,-0.011390686,0.415367126,0.148303986,-0.031818539,-0.005379088,0.998288274
22.506419,-0.133460999,0.491661072,0.148303986,-0.027301937,-0.003181823,0.999875188
22.544687,0.148826599,0.857872009,0.262744904,-0.035358578,-0.003425963,1.002194524
22.582994,-0.324195862,2.330345154,0.072010040,-0.041462094,-0.002937682,1.002926946
22.597250,-0.217384338,2.727073669,0.323780060,-0.042682797,-0.002449401,1.001095891
22.612574,-0.446266174,4.024070740,0.216968536,-0.027546078,-0.004280455,0.997922063
22.650879,-2.246803284,6.030601501,2.215869904,-0.060871273,-0.016853698,1.011349797
22.689207,0.148826599,10.425132751,0.010974884,-0.058674008,0.003287904,1.008542180
22.703471,0.194602966,10.516685486,-0.103466034,-0.050495297,-0.005989440,1.000729680
22.718794,-1.872962952,10.692161560,0.278003693,-0.037555844,0.006827943,0.987546086
22.757104,-0.141090393,8.212608337,-0.835887909,-0.046222836,-0.007820494,1.008542180
22.795440,-1.026100159,1.040977478,0.529773712,-0.060505062,-0.014534362,1.003293157
22.809708,-0.537818909,0.804466248,0.552661896,-0.053547055,-0.000862487,1.002438664
22.825036,-0.232643127,1.147789001,-0.011913300,-0.052936703,-0.004158385,1.004147649
22.863328,-0.949806213,-0.324684143,1.361377716,-0.049640805,-0.008797057,1.001340032
22.901664,0.103050232,1.452964783,1.483448029,-0.050861508,-0.008797057,0.993161321
22.915926,-0.522560120,3.192466736,1.071460724,-0.017536312,-0.011604674,0.996823430
22.931239,-2.086585999,7.915061951,-0.820629120,-0.004718930,-0.004524596,1.007199407
22.969538,-0.705665588,11.371177673,-3.880016327,-0.020832211,0.008903138,1.001706243
23.007875,-0.537818909,4.512351990,-4.421703339,-0.063434750,-0.016487487,1.001462102
23.022143,-0.850624084,0.308555603,-4.383556366,-0.063678890,-0.012825377,0.994870305
23.049502,-0.347084045,-7.778602600,-3.078929901,-0.031818539,-0.018928893,0.982297063
23.087897,-1.018470764,-18.032508850,-3.254405975,-0.034504086,0.006339662,0.977780461
23.139731,-1.331275940,-16.766029358,-5.413524628,-0.022907406,-0.009163268,0.982541203
23.154069,-1.766151428,-15.278297424,-5.321971893,-0.091022640,-0.017952330,0.993161321
23.169418,-2.498573303,-14.683204651,-0.812999725,-0.049884945,-0.021248229,1.036740422
23.207745,2.269798279,-20.946937561,0.133045197,-0.155964047,-0.005134948,1.032712102
23.246092,-2.651161194,-11.585670471,0.216968536,-0.039631039,-0.016487487,1.038205266
23.260417,-1.766151428,-9.380775452,-0.782482147,-0.081134945,-0.001472838,1.095090032
23.275769,4.985862732,-6.206947327,4.649646759,-0.042682797,0.018180482,0.980954289
23.314092,-2.361244202,13.743919373,-2.163402557,0.003093570,-0.059822448,0.995602727
23.352417,-3.597206116,29.445213318,-3.559581757,-0.000934750,0.075309388,0.999997258
23.366722,1.033836365,31.337303162,-5.817882538,-0.011799008,0.032584779,1.052975774
23.382067,0.499778748,28.537315369,-4.749767303,-0.033161312,0.017936341,1.089963078
23.420378,3.437095642,25.455039978,-4.765026093,0.056560367,0.090201966,1.152707219
23.458689,11.570030212,25.157493591,-8.800975800,0.012859195,0.041495912,1.057126164
23.473023,10.906272888,20.587486267,-7.603160858,0.005046695,0.023917787,1.052243352
23.488385,6.694847107,11.745018005,-6.664745331,0.014934391,0.016105287,1.058346868
23.526695,7.785850525,-5.215126038,-7.946483612,-0.005329281,0.026237123,1.021725774
23.565013,7.289939880,-20.672279358,-7.847301483,-0.016681820,0.014640443,1.097653508
23.579326,8.968406677,-23.884254456,-7.366649628,-0.011432797,0.019767396,1.090451360
23.594665,12.073570251,-27.508216858,-7.267467499,-0.007160336,0.016349427,1.052243352
23.632988,11.974388123,-28.034645081,-8.465282440,-0.029010922,-0.001106627,1.049069524
23.671290,10.936790466,-25.181251526,-6.153575897,0.013347477,0.023429506,1.109494328
23.700408,12.638145447,-12.463050842,-9.296886444,-0.013263851,0.042472474,1.055417180
23.714745,12.477928162,-4.307228088,-8.953563690,-0.023761898,0.041007631,1.067868352
23.752942,14.553123474,10.356468201,-9.563915253,-0.004108578,0.062125795,1.061154485
23.791288,14.324241638,20.076316833,-10.197154999,-0.044391781,0.058707826,1.005246282
23.805607,14.171653748,23.807090759,-9.296886444,-0.003498226,0.062614076,0.986325383
23.820987,14.217430115,25.592369080,-10.601512909,-0.012897640,0.055900209,0.998044133
23.859302,13.248497009,11.989158630,-4.429332733,-0.065021664,0.075675599,0.891354680
23.897669,11.554771423,-6.199317932,1.109607697,-0.034504086,0.071036927,0.880490422
23.911972,8.625083923,-9.220558167,-1.125804901,-0.060749203,0.060783021,0.824948430
23.927317,7.244163513,-11.776405334,0.453479767,-0.075397640,0.053702943,0.810177922
23.965662,1.026206970,-24.563270569,3.009326935,-0.046955258,0.031852357,0.921628118
24.003994,-3.215736389,-17.773109436,1.178272247,-0.078205258,0.067618959,0.925412297
24.018301,-2.551979065,-17.879920959,2.048023224,-0.092121273,0.064933412,0.927853703
24.033651,-1.728004456,-13.828712463,3.673084259,-0.073078305,0.026481263,0.951535344
24.071973,-5.626625061,-0.881629944,4.214771271,-0.092365414,0.047477357,0.875729680
24.110283,-7.930702209,23.532432556,6.320484161,-0.053180844,0.061149232,0.943112493
24.124597,-6.336158752,27.652305603,5.649097443,-0.066486508,0.068229310,0.957516789
24.139925,-1.689857483,30.101341248,7.274158478,-0.091999203,0.073722474,0.909787297
24.178258,-1.819557190,22.738975525,10.753162384,-0.074909359,0.045768373,0.852170110
24.216572,-2.208656311,4.954856873,16.276844025,-0.021930844,0.037101381,0.962887883
24.230875,-1.918739319,-8.022743225,11.317737579,-0.040485531,0.017203920,1.087887883
24.246223,-0.980323792,-19.604164124,11.310108185,-0.091877133,0.028800599,1.107174993
24.284543,8.510643005,-58.300453186,25.660999298,-0.025592953,0.053092591,0.971432805
24.322889,8.289390564,-42.232948303,17.886646271,-0.010578305,0.062125795,0.997555852
24.352132,9.296470642,-42.522865295,20.923145294,0.001506656,0.020011537,1.093136907
24.366466,9.265953064,-42.820411682,21.235950470,0.013347477,0.027457826,1.128171086
24.451301,12.172752380,17.398399353,19.214160919,0.043010563,0.083243959,1.034665227
24.489708,17.246299744,53.432029724,16.185291290,0.001750797,0.146964669,0.993893743
24.504020,17.940574646,56.102317810,15.132434845,0.012370914,0.121451966,0.986081243
24.519390,14.576011658,61.229270935,16.383655548,0.016155094,0.105704896,0.954342961
24.557733,11.005455017,64.296287537,11.127002716,0.017009586,0.128287911,0.900632024
24.596105,5.634361267,49.411338806,11.409290314,0.005657047,0.100089662,0.997677922
24.610427,1.995140076,36.265892029,13.774402618,0.007976383,0.144157052,1.006222844
24.625794,3.070884705,29.742759705,13.026721954,0.016521305,0.161735177,0.990109563
24.664146,3.360801697,6.198448181,9.860523224,0.001628727,0.122184388,0.900876164
24.702486,-4.161781311,-25.463539124,12.698657990,-0.050983578,0.182487130,0.953732610
24.716819,-2.063697815,-34.969764709,11.622913361,0.000896305,0.198112130,0.973019719
24.732190,0.408226013,-35.976844788,8.952625275,0.009563297,0.189689279,0.943600774
24.770508,-5.329078674,-37.174659729,3.016956329,-0.017170101,0.118522279,0.961056828
24.808885,-4.650062561,-32.818275452,-0.187389374,0.020427555,0.207145333,0.998898625
24.823214,-1.079505920,-28.042274475,-3.056041718,0.019817203,0.190299630,0.974484563
24.838592,-0.728553772,-18.101173401,-7.008068085,0.005901188,0.119987123,0.968991399
24.876926,-9.181922913,-9.869056702,-7.549755096,-0.054401547,0.168082833,1.033932805
24.915271,0.743919373,-0.416236877,-9.510509491,-0.013019711,0.134757638,1.030514836
24.929568,6.031089783,5.069297791,-9.396068573,0.002727360,0.064323060,1.045651555
24.944902,5.634361267,5.549949646,-10.189525604,-0.020710140,0.073844545,1.039059758
24.983236,11.882835388,-4.345375061,-3.780834198,0.048015445,0.184196115,1.141232610
25.021547,17.047935486,1.811546326,-7.206432343,-0.017902523,0.179801583,0.937619328
25.035867,10.639244080,2.017539978,-4.757396698,-0.036335140,0.196525216,0.917721868
25.051208,11.150413513,-1.499610901,-0.271312714,-0.049884945,0.181632638,0.988400578
25.104681,19.550376892,-8.221107483,0.651844025,-0.070270687,0.158561349,0.913571477
25.143125,17.726951599,-13.866859436,5.633838654,0.032024235,0.128898263,0.869259953
25.157446,11.066490173,-12.463050842,4.817493439,0.018230289,0.166862130,0.907834172
25.172788,9.670310974,-12.417274475,5.473621368,0.014324039,0.193107247,0.916012883
25.211119,14.255577087,-10.174232483,2.391345978,0.035442203,0.148551583,0.895993352
25.249457,2.803855896,-9.884315491,5.977161407,0.015422672,0.224967599,0.895993352
25.263747,4.077964783,0.506919861,2.688892365,0.124919742,0.254142404,0.870602727
25.279071,3.826194763,7.487815857,-2.422801971,0.106120914,0.234977365,0.858273625
25.317400,-3.261512756,11.081260681,0.400074005,0.019206852,0.180045724,0.894772649
25.355716,-4.154151917,8.586448669,-0.652782440,0.043742985,0.189445138,0.855343938
25.370016,-4.589027405,8.739036560,-1.270763397,0.039714664,0.165641427,0.833615422
25.385325,-10.700172424,5.313438416,-0.927440643,0.004924625,0.156486154,0.843747258
25.423669,-10.097450256,-8.274513245,2.963550568,0.013713688,0.223380685,0.910275578
25.461989,-7.762855530,-13.203102112,4.695423126,0.014201969,0.182975411,0.883908391
25.476283,-12.248939514,-12.417274475,5.038745880,0.014079899,0.173820138,0.878781438
25.491634,-14.057106018,-11.700111389,5.450733185,0.016765445,0.188346505,0.886471868
25.529948,-16.612953186,-10.815101624,5.946643829,0.023601383,0.267081857,0.967282414
25.568281,-12.340492249,-1.759010315,7.312305450,0.049358219,0.310416818,0.928830266
25.582582,-11.806434631,5.061668396,6.236560822,0.068523258,0.276847482,0.959591985
25.597919,-13.507789612,6.434959412,5.687244415,0.049358219,0.290885568,0.974484563
25.636271,-4.024452209,8.288902283,8.243091583,0.088176578,0.275260568,1.030758977
25.674600,-4.154151917,17.940086365,0.377185822,0.104656070,0.206412911,1.043332219
25.688908,-6.137794495,20.213645935,-2.476207733,0.105022281,0.228019357,1.051022649
25.704263,-4.054969788,19.732994080,-6.451122284,0.053996891,0.264762521,1.085202336
25.758022,6.343894958,-1.171546936,-3.635875702,0.042400211,0.183219552,1.010861516
25.812116,9.304100037,-8.579689026,1.071460724,0.033977360,0.184318185,1.104489446
25.826423,10.257774353,-8.648353577,2.620227814,0.032146305,0.150504708,1.127682805
25.841782,6.412559509,-5.062538147,5.244739532,0.058391422,0.140006661,1.099972844
25.880109,-0.194496155,9.654563904,6.434925079,0.110515445,0.137565255,1.093381047
25.918456,-5.741065979,28.453392029,-0.660411835,0.149700016,0.166007638,1.209225774
25.932755,0.728660583,38.585227966,-3.826610565,0.129192203,0.164420724,1.194821477
25.948114,2.300315857,42.422813416,-4.383556366,0.129680485,0.152457833,1.161496282
25.986464,-8.220619202,55.026573181,-10.258190155,0.143962711,0.165275216,1.211423039
26.024794,8.434349060,37.929100037,-11.181346893,0.057292789,0.157950997,1.171383977
26.039109,7.404380798,21.777671814,-11.288158417,0.061199039,0.117789857,1.079709172
26.054468,2.712303162,16.894859314,-9.785167694,0.077068180,0.118033998,1.084836125
26.092785,4.909568787,-15.598731995,-8.732311249,-0.053424984,0.141593575,0.999631047
26.131112,0.873619080,-57.308631897,3.474720001,-0.064655453,0.086783998,0.871091008
26.145425,-5.603736877,-63.175636292,6.968982697,-0.059650570,0.093619935,0.875241399
26.160791,-12.813514709,-70.042091370,12.614734650,-0.026081234,0.119498841,0.930295110
26.199135,-14.858192444,-51.517921448,14.194019318,0.049114078,0.132682443,0.901120305
26.237490,-18.268531799,-25.478797913,14.247425079,0.075115055,0.191764474,0.961178899
26.251832,-13.286537170,-0.011878967,8.685596466,0.136028141,0.228263497,0.931515813
26.267189,-11.646217346,13.026756287,3.062732697,0.152507633,0.190909982,0.961300969
26.305508,-4.169410706,50.418418884,-4.345409393,0.094158024,0.192008615,1.004880071
26.343860,-0.301307678,66.516441345,-12.043468475,0.072795719,0.071403138,1.031857610
26.358167,-4.795021057,64.021629333,-8.480541229,0.035686344,0.123283021,0.977292180
26.373518,-7.511085510,61.236900330,-6.123058319,0.047160953,0.163566232,0.983395696
26.411868,3.734642029,41.583580017,-8.686534882,0.015544742,0.270621896,1.006589055
26.466075,5.817466736,4.771751404,-1.232616425,0.008464664,0.226554513,0.991574407
26.480420,14.064842224,-6.840187073,-2.232067108,-0.014728695,0.209830880,1.021725774
26.495780,16.529136658,-14.927345276,-1.080028534,-0.007892758,0.191276193,0.977170110
26.534106,11.615806580,-43.583351135,8.403308868,-0.005817562,0.183951974,0.961423039
26.572470,20.374351501,-53.684669495,2.276905060,-0.021076351,0.124137513,0.996945500
26.586785,19.794517517,-55.744606018,10.158069611,-0.020710140,0.102042787,0.940915227
26.602136,14.217430115,-54.188209534,12.591846466,0.015666813,0.115348451,0.971432805
26.640463,23.021751404,-31.483131409,3.497608185,0.043254703,0.233146310,1.025143743
26.678797,24.646812439,-14.408546448,4.321582794,-0.035724789,0.102897279,0.965451360
26.693113,22.991233826,-9.930091858,9.524829865,-0.016437680,0.100333802,1.012570500
26.708472,24.547630310,1.506370544,4.512317657,0.029094547,0.129630685,1.052731633
26.746790,33.519798279,16.154808044,4.916675568,-0.016803890,0.033195131,0.956906438
26.785152,32.604270935,28.049034119,5.359180450,-0.010212094,0.015617006,1.027707219
26.799462,34.107261658,31.261009216,7.213123322,0.010906070,-0.002815612,1.017575383
26.814831,33.199363708,31.901878357,0.026233673,-0.008136898,-0.038704284,0.940549016
26.853157,23.235374451,15.040916443,16.032703400,-0.065265805,-0.067024596,0.979611516
26.891500,31.642967224,-0.507789612,16.192920685,-0.048053890,-0.043709166,0.938351750
26.905828,28.270774841,-7.938819885,19.641407013,-0.043903500,-0.095344909,0.834103703
26.921202,20.809226990,-9.441810608,21.808155060,-0.028766781,-0.083504088,0.805417180
26.959494,10.662132263,-1.270729065,20.762928009,0.016643375,0.045035951,0.814572453
26.997841,1.583152771,16.047996521,14.430530548,0.033611149,0.028190248,0.831418157
27.012138,0.728660583,20.251792908,12.683399200,0.043742985,0.052360170,0.853024602
27.027500,4.596763611,28.331321716,8.090503693,0.055827945,0.082999818,0.821774602
27.065839,2.445274353,36.624473572,2.406604767,0.062663883,0.095817201,0.835446477
27.115421,7.732444763,37.585777283,-11.799327850,0.023601383,0.157584786,0.782101750
27.129769,8.663230896,35.640281677,-11.806957245,0.012248844,0.166373849,0.737790227
27.145144,2.689414978,30.772727966,-14.988414764,0.022991031,0.193961740,0.679562688
27.198077,-8.663124084,0.278038025,-20.237438202,-0.054401547,0.273307443,0.643063664
27.236521,-26.546424866,-33.871131897,-11.967174530,-0.108112484,0.259269357,0.654049993
27.250837,-31.848854065,-42.644935608,-11.509410858,-0.111042172,0.285636544,0.664425969
27.266177,-36.434120178,-62.344032288,-7.671825409,-0.161335140,0.309684396,0.690671086
27.304501,-43.331092834,-94.273048401,9.578235626,-0.132648617,0.286735177,0.745602727
27.342894,-52.974647522,-98.034339905,19.053943634,-0.092609555,0.276359200,0.873776555
27.357207,-52.867835999,-94.364601135,19.801624298,-0.087482601,0.270621896,0.905881047
27.372580,-48.511451721,-82.409339905,24.829395294,-0.089191586,0.222282052,0.981686711
27.410906,-43.659156799,-43.377357483,26.935108185,0.008220524,0.172843575,1.099118352
27.449280,-27.584022522,19.565147400,22.838123322,0.049236149,0.113151185,1.178219914
27.463607,-21.373695374,51.967185974,21.914966583,0.109172672,0.088492982,1.186276555
27.478987,-21.617835999,68.461936951,18.001087189,0.147014469,0.078727357,1.231686711
27.517301,-11.684364319,120.143455505,2.116687775,0.140544742,0.164420724,1.234494328
27.555672,-5.649513245,129.176666260,-10.014049530,0.073406070,0.222404122,1.232419133
27.569981,-2.948707581,120.517295837,-12.775890350,0.015056461,0.249503732,1.198483586
27.585324,12.943321228,93.066734314,-7.267467499,-0.044880062,0.207633615,1.132443547
27.623666,14.308982849,21.785301208,-0.393383026,-0.124347836,0.053214662,0.983273625
27.662015,1.750999451,-52.204566956,20.221240997,-0.144855648,0.132072091,0.859250188
27.676320,-0.553077698,-65.250831604,26.324756622,-0.120075375,0.160758615,0.819333196
27.691647,-9.311622620,-78.587013245,30.772693634,-0.036335140,0.212394357,0.800168157
27.729975,-9.258216858,-84.858375549,24.684436798,-0.047565609,0.229240060,0.960934758
27.768312,6.038719177,-88.825660706,29.033191681,-0.069660336,-0.013435729,1.136960149
27.782624,3.971153259,-75.817543030,40.004261017,0.025188297,-0.087044127,1.105954289
27.797980,-0.492042542,-59.902626038,39.363391876,0.115154117,-0.091926940,1.091305852
27.836284,-8.792823792,29.964012146,26.431568146,0.161662906,0.031730287,1.102414250
27.874628,1.850181580,60.725730896,18.947132111,0.064372867,0.052116029,1.130734563
27.888933,5.016380310,83.598655701,8.281238556,0.234783024,0.060050599,1.135251164
27.915955,1.758628845,111.316246033,-5.039684296,0.218303531,0.119987123,1.088498235
27.954348,-4.054969788,145.793487549,-27.447216034,0.193523258,0.263541818,1.146725774
27.992709,19.260459900,88.153404236,-20.634166718,-0.034748226,0.163077950,1.042477727
28.007024,19.611412048,60.763877869,-18.627635956,-0.072101742,0.109244935,1.007199407
28.022394,14.171653748,-5.100685120,-9.548656464,-0.174274594,0.066886537,0.948483586
28.060716,7.640892029,-94.479042053,17.451770782,-0.016803890,0.219352365,0.893796086
28.099087,11.470848083,-93.197303772,18.779285431,0.177287906,0.126090646,1.060422063
28.113422,12.966209412,-80.509620667,5.321033478,0.246379703,0.107902162,1.106320500
28.128791,19.466453552,-51.624732971,-16.911022186,0.192180485,0.007682435,1.131833196
28.167140,7.991844177,-42.217689514,-20.260326385,-0.102985531,0.074454896,0.918820500
28.205485,5.268150330,-63.351112366,2.727039337,-0.090778500,0.195914865,0.898800969
28.219823,11.035972595,-61.161476135,7.495410919,0.023723453,0.166984200,0.942746282
28.235201,11.470848083,-52.471595764,5.725391388,0.069743961,0.143058419,0.953244328
28.273521,4.802757263,10.432762146,-15.408031464,0.157756656,0.122306459,0.954709172
28.311885,-0.774330139,38.249534607,-19.344799042,0.018230289,0.172721505,0.945798039
28.326210,-0.728553772,35.480064392,-11.936656952,0.002971500,0.196769357,0.965451360
28.341587,1.865440369,34.465354919,-9.220592499,0.032634586,0.193107247,0.981686711
28.391846,4.756980896,40.980857849,-12.936107635,0.109905094,0.151725411,1.014523625
28.430276,4.489952087,42.949241638,-21.069042206,0.060954899,0.167594552,0.966794133
28.444614,4.428916931,38.295310974,-21.152965546,0.040325016,0.169303536,0.964963078
28.460001,4.886680603,20.778221130,-20.054332733,-0.017902523,0.177970529,0.944089055
28.498317,8.602195740,-24.105506897,-8.312694550,-0.035480648,0.152824044,0.917721868
28.536659,4.825645447,-52.845436096,-2.964488983,-0.026569515,0.176627755,0.923337102
28.550970,5.611473083,-57.697731018,-2.628795624,-0.021320492,0.186759591,0.925412297
28.566319,6.794029236,-65.617042542,-1.461498260,-0.035968930,0.218497872,0.891476750
28.604659,2.292686462,-64.693885803,6.213672638,0.012248844,0.299796700,0.882565618
28.656181,0.782066345,-14.561134338,-0.378124237,0.088054508,0.358024240,0.947018743
28.670510,1.201683044,-1.881080627,-1.667491913,0.093669742,0.370475411,0.954098821
28.685874,2.140098572,19.870323181,-5.108348846,0.115520328,0.383659005,0.964108586
28.724181,6.366783142,44.177574158,-8.038036346,0.062541813,0.332511544,0.986203313
28.762507,11.470848083,42.926353455,-6.733409882,0.035686344,0.236564279,1.002804875
28.776825,13.065391541,35.045188904,-4.963390350,0.021037906,0.185172677,0.986447453
28.792187,14.095359802,29.559654236,-4.398815155,0.013835758,0.158073068,0.970334172
28.830496,6.107383728,-0.637489319,3.230579376,-0.034382015,0.113029115,0.905514836
28.868846,5.306297302,-20.718055725,8.159168243,-0.003742367,0.199576974,0.945675969
28.883145,3.360801697,-22.343116760,9.555347443,0.011272281,0.239249825,0.957028508
28.898493,1.697593689,-21.023231506,10.058887482,0.025066227,0.263175607,0.971310735
28.936838,12.241416931,-2.758460999,4.489429474,0.053874820,0.223380685,0.947873235
28.975169,0.057273865,9.524864197,-3.658763885,0.012492985,0.083976381,0.911374211
28.989459,-4.276222229,7.014793396,-3.628246307,-0.023151547,0.094474427,0.928708196
29.004792,-4.611915588,-4.673439026,0.018604279,-0.072223812,0.142570138,0.962643743
29.043102,7.221275330,-28.820472717,11.516101837,-0.033893734,0.096305482,0.973508000
29.081457,1.659446716,-23.884254456,11.035449982,0.038249820,0.105094545,0.947384953
29.095767,-2.445167542,-9.365516663,6.984241486,0.068767399,0.161368966,0.942746282
29.111116,-3.314918518,-0.675636292,3.856189728,0.073528141,0.187003732,0.940915227
29.149442,-4.283851624,23.486656189,-3.841869354,0.055339664,0.235587716,0.954465032
29.187763,-4.497474670,29.079002380,-5.634777069,0.048015445,0.250602365,1.015866399
29.202071,-0.759071350,27.247947693,-5.970470428,0.045207828,0.243400216,1.033322453
29.217407,0.713401794,25.554222107,-6.062023163,0.047771305,0.235465646,1.032956243
29.255706,3.803306580,17.039817810,-7.954113007,0.057536930,0.223746896,1.031979680
29.294047,8.098655701,4.970115662,-12.150279999,0.022746891,0.171134591,0.981076360
29.308355,6.923728943,-0.248390198,-11.929027557,0.010173649,0.159171700,0.974728703
29.323691,3.986412048,-12.882667542,-10.128490448,-0.015339047,0.153434396,0.978512883
29.375483,3.612571716,-35.374122620,-4.726879120,0.015300602,0.208732247,1.089474797
29.413920,12.851768494,-29.949623108,-11.661998749,0.035075992,0.213370919,1.134518743
29.428235,16.033226013,-28.561073303,-12.821666718,0.017986149,0.215079904,1.114377141
29.443609,18.375450134,-29.430824280,-13.439647675,-0.018879086,0.226432443,1.037350774
29.481927,13.713890076,-42.850929260,-7.977001190,-0.072223812,0.247550607,0.987912297
29.520281,19.290977478,-49.213844299,-1.926891327,-0.058185726,0.287833810,0.946408391
29.534599,21.656089783,-46.383338928,-1.942150116,-0.047687680,0.278068185,0.918698430
29.549979,22.182518005,-35.633522034,-3.536693573,-0.028766781,0.230094552,0.863278508
29.588272,10.791831970,-15.911537170,-5.520336151,-0.053058773,0.172233224,0.839718938
29.626592,3.269248962,5.992454529,0.529773712,-0.067707211,0.240714669,0.891842961
29.640886,7.175498962,15.208763123,4.695423126,-0.035846859,0.244498849,0.889035344
29.656227,7.473045349,19.649070740,5.244739532,-0.019489437,0.231681466,0.884152532
29.708232,-1.590675354,62.915367126,2.810962677,0.090373844,0.238151193,0.882077336
29.746660,-3.360694885,80.394309998,-2.613536835,0.077556461,0.255973458,0.921139836
29.760980,-4.047340393,82.316917419,-3.239147186,0.048992008,0.274650216,0.943478703
29.776337,-2.971595764,80.600303650,-2.285472870,0.035075992,0.279655099,0.953732610
29.814668,3.727012634,65.814537048,1.369007111,0.054851383,0.251212716,0.951413274
29.853017,-0.034278870,49.960655212,-0.233165741,0.068767399,0.255241036,0.933957219
29.867326,-0.163978577,40.599388123,-1.560680389,0.063152164,0.276237130,0.929684758
29.882678,-0.034278870,35.602134705,-2.155773163,0.064983219,0.279533029,0.941891789
29.921000,3.307395935,4.550498962,-2.865306854,0.003581852,0.269279122,0.968503118
29.959312,9.395652771,-27.142005920,3.589160919,0.017253727,0.261588693,0.921506047
29.973629,9.151512146,-31.208473206,3.299243927,0.032390445,0.252921700,0.904416203
29.988982,5.130821228,-33.894020081,2.460010529,0.054118961,0.250968575,0.890378118
30.027277,-0.080055237,-28.919654846,-2.010814667,0.049480289,0.296378732,0.950436711
30.065650,4.306846619,-22.625404358,-3.208629608,0.057536930,0.325431466,0.960080266
30.079964,6.565147400,-16.109901428,-4.925243378,0.061076969,0.328605294,0.932492375
30.109148,5.435997009,-3.467994690,-7.832042694,0.063152164,0.315543771,0.882809758
30.147529,1.216941833,4.825157166,-9.937755585,0.037639469,0.294059396,0.875973821
30.185869,-0.537818909,-8.793312073,-8.480541229,0.014201969,0.306632638,0.904049993
30.200164,0.042015076,-13.103919983,-8.182994843,0.005412906,0.316520333,0.912961125
30.215478,2.269798279,-19.772010803,-6.779186249,-0.006916195,0.326652169,0.918576360
30.253816,4.688316345,-26.363807678,-5.230419159,-0.001789242,0.303214669,0.903805852
30.292154,1.895957947,-33.985572815,-4.490367889,-0.032428890,0.304191232,0.868527532
30.306459,2.651268005,-40.188270569,-1.247875214,-0.052326351,0.320060372,0.833127141
30.321816,3.994041443,-42.385536194,0.911243439,-0.047199398,0.314445138,0.822140813
30.360131,1.911216736,-41.218238831,3.711231232,-0.013019711,0.244376779,0.754269719
30.398487,-10.898536682,-26.279884338,4.207141876,-0.001667172,0.269523263,0.812863469
30.412823,-11.539405823,-21.145301819,5.107410431,0.005168766,0.286246896,0.844967961
30.428177,-9.311622620,-8.610206604,4.603870392,0.022991031,0.315665841,0.882687688
30.466477,-5.733436584,15.666526794,1.277454376,0.046672672,0.285758615,0.870358586
30.504822,-15.712684631,24.798912048,1.330860138,0.019450992,0.300162911,0.962155461
30.519124,-14.980262756,23.791831970,2.063282013,0.014690250,0.322867990,0.995968938
30.534486,-5.626625061,18.825096130,3.192432404,-0.001423031,0.315665841,1.010251164
30.572808,-0.133460999,6.267112732,6.930835724,-0.017780453,0.194327950,0.973508000
30.611137,-11.943763733,-2.468544006,13.560779572,-0.004963070,0.268912911,1.001217961
30.625443,-7.221168518,1.071495056,12.256153107,0.024089664,0.331290841,1.024289250
30.640794,-3.581947327,4.931968689,11.409290314,0.032634586,0.337394357,1.023312688
30.679119,-5.069679260,23.486656189,3.901966095,0.060100406,0.276847482,1.019650578
30.717475,-0.232643127,14.270347595,2.048023224,-0.042926937,0.284415841,1.009274602
30.731776,1.247459412,6.900352478,4.352100372,-0.058429867,0.270621896,0.996945500
30.747112,2.361351013,-5.794960022,8.807666779,-0.057697445,0.255729318,0.986935735
30.785424,0.095420837,-9.418922424,12.637622833,0.003337711,0.292228341,0.954587102
30.823751,-5.390113831,14.476341248,5.679615021,0.048503727,0.346671700,1.035153508
30.854416,0.255638123,23.982566833,1.002796173,0.021037906,0.356803536,1.078610539
30.868743,2.628379822,22.883934021,1.460559845,-0.002277523,0.347282052,1.078854680
30.906933,8.915000916,6.297630310,7.930286407,-0.024494320,0.304313302,1.039303899
30.945266,8.129173279,2.345603943,9.982593536,0.016643375,0.297721505,1.012692571
30.959557,6.694847107,4.901451111,9.028919220,0.020549625,0.307609200,1.013913274
30.974888,6.397300720,10.821861267,7.831104279,0.017619938,0.340446115,1.039181828
31.013214,14.881187439,12.607139587,7.266529083,0.020061344,0.347037911,0.981442571
31.067022,14.492088318,17.749351501,5.145557404,0.045940250,0.304069161,0.887326360
31.081367,11.753135681,19.954246521,2.833850861,0.036907047,0.307365060,0.862179875
31.096730,10.334068298,20.167869568,2.429492950,0.027507633,0.318107247,0.856076360
31.135068,9.044700623,13.789695740,1.292713165,0.003459781,0.353141427,0.870480657
31.173393,13.126426697,-0.500160217,1.994617462,-0.005939633,0.351554513,0.837887883
31.187697,12.348228455,-3.643470764,1.529224396,-0.006672055,0.344596505,0.826047063
31.203054,9.578758240,-7.152992249,0.735767365,-0.026569515,0.352775216,0.816159368
31.241356,6.313377380,-15.659767151,1.620777130,-0.049762875,0.326530099,0.829831243
31.279689,2.285057068,-23.380714417,4.382617950,-0.048786312,0.411857247,0.889035344
31.294018,4.627281189,-23.334938049,4.771717072,-0.044147640,0.424430490,0.889889836
31.309380,10.479026794,-18.345314026,4.634387970,-0.006672055,0.403434396,0.886105657
31.347673,9.151512146,-5.390602112,-2.987377167,-0.018146664,0.332023263,0.841183782
31.385981,3.795677185,-5.176979065,2.269275665,-0.082966000,0.430289865,0.807492375
31.400264,7.213645935,-3.864723206,5.130298615,-0.042316586,0.403190255,0.794552922
31.415601,6.023460388,-0.950294495,4.336841583,-0.019733578,0.379142404,0.790036321
31.453894,-1.857704163,10.692161560,-0.889293671,-0.023517758,0.427726388,0.833371282
31.492240,4.612022400,6.305259705,0.461109161,-0.028766781,0.413444161,0.770383000
31.506532,3.437095642,4.741233826,-0.050060272,-0.027912289,0.398429513,0.760739446
31.521871,-0.255531311,1.018089294,0.400074005,-0.046100765,0.408195138,0.734616399
31.560165,-0.583595276,1.994651794,1.986988068,-0.006061703,0.369376779,0.720822453
31.614115,-14.369911194,7.937950134,-1.369945526,-0.004352719,0.476188302,0.792355657
31.628451,-10.402626038,10.089439392,-1.789562225,0.029216617,0.507560372,0.826901555
31.643811,-8.937782288,12.492698669,-3.536693573,0.044597477,0.512443185,0.834103703
31.682115,-9.235328674,26.507896423,-7.885448456,0.086101383,0.516959786,0.889035344
31.720456,-7.099098206,40.507835388,-24.975292206,0.049236149,0.464957833,0.894894719
31.734752,-10.494178772,35.640281677,-25.715343475,-0.003254086,0.480216622,0.908200383
31.750093,-12.004798889,14.415306091,-19.917003632,-0.072956234,0.525626779,0.947629094
31.804481,7.564598083,-32.062965393,-18.230907440,-0.021320492,0.382560372,0.931759953
31.842901,-0.568336487,-51.228004456,-15.781871796,-0.030964047,0.363395333,0.980954289
31.857213,9.685569763,-50.556617737,-15.995494843,0.010906070,0.326163888,0.929684758
31.872569,8.716636658,-45.696693420,-16.987316132,0.040569156,0.323112130,0.840573430
31.910869,-19.451087952,-18.505531311,-23.647777557,0.026286930,0.421256661,0.836300969
31.949217,-6.610816956,16.139549255,-31.757823944,0.104656070,0.151237130,0.930539250
31.963511,-11.379188538,22.304100037,-36.427013397,0.103679508,0.077994935,0.961178899
31.978859,-31.795448303,25.821250916,-42.057506561,0.020671695,0.023795716,1.048459172
32.017161,-22.624916077,-13.019996643,-25.524608612,-0.122516781,0.194572091,1.140011907
32.055479,-7.488197327,-47.878700256,-10.159008026,-0.025104672,0.046134584,0.974606633
32.069794,-15.834754944,-46.642738342,-8.869640350,0.001750797,0.062858216,0.951169133
32.085149,-29.537147522,-36.701637268,-11.532299042,0.034099430,0.181144357,0.954587102
32.123454,-25.257057190,-15.087562561,-20.184032440,0.030681461,0.324454904,1.022458196
32.161787,-9.151405334,-18.078285217,-16.575328827,-0.068317562,0.269034982,1.049435735
32.176099,-7.945960999,-28.629737854,-9.434215546,-0.086994320,0.242423654,1.055783391
32.191436,-6.427711487,-32.040077209,-5.711071014,-0.064655453,0.230094552,1.058713078
32.229712,-1.911109924,-28.606849670,-3.811351776,-0.005207211,0.192496896,1.081906438
32.268069,5.970054626,-15.797096252,-4.711620331,-0.057453305,0.220573068,0.962643743
32.282366,4.840904236,-14.965492249,-2.941600800,-0.065509945,0.205680490,0.932004094
32.297700,-0.568336487,-12.714820862,2.086170197,-0.065509945,0.191520333,0.939206243
32.347349,3.414207458,6.160301208,7.419116974,0.001872867,0.303947091,1.009396672
32.397262,6.198936462,23.387474060,4.359729767,0.017253727,0.244620919,0.945431828
32.411607,4.879051208,25.279563904,4.550464630,0.015422672,0.265617013,0.935422063
32.427001,5.146080017,27.354759216,5.542285919,0.000896305,0.313712716,0.916989446
32.465297,6.580406189,29.994529724,5.282886505,0.009685367,0.331046700,0.874753118
32.503659,7.480674744,32.344383240,3.032215118,0.006023258,0.321281075,0.877560735
32.517964,7.915550232,32.138389587,2.772815704,-0.000202328,0.314689279,0.885739446
32.533301,9.487205505,30.398887634,3.329761505,-0.023395687,0.306388497,0.854855657
32.571645,7.892662048,23.196739197,3.299243927,-0.023761898,0.240592599,0.808957219
32.610001,-6.214088440,12.218040466,6.404407501,-0.082477719,0.385612130,0.804074407
32.624302,5.130821228,4.199546814,8.632190704,-0.090412289,0.384391427,0.824704289
32.639627,8.144432068,-1.591163635,9.608753204,-0.074054867,0.333732247,0.868893743
32.677914,5.237632751,-8.083778381,17.413623810,-0.041950375,0.234489083,0.769772649
32.716267,-22.327369690,20.366233826,14.781482697,0.090495914,0.563346505,0.898678899
32.730568,-13.332313538,28.560203552,8.395679474,0.087077945,0.598991036,0.930417180
32.745913,3.360801697,42.514366150,0.384815216,0.080608219,0.539542794,0.996823430
32.784238,-14.026588440,42.354148865,-1.629344940,0.024577945,0.669059396,1.125363469
32.822571,23.746543884,2.536338806,-0.484935760,-0.029865414,0.526847482,1.118893743
32.836873,28.286033630,-10.174232483,1.689441681,-0.034137875,0.411368966,1.140988469
32.852215,40.493064880,-30.071693420,3.428943634,0.013469547,0.251456857,1.050290227
32.890504,34.977012634,-50.411659241,7.487781525,0.053020328,-0.122078307,1.082516789
32.928872,-32.024330139,-38.395362854,10.173328400,0.068889469,0.011832826,1.035763860
32.943171,-50.525611877,-24.456459045,11.348255157,0.117839664,0.413810372,1.233761907
32.958538,-35.167640686,-18.719154358,2.765186310,0.122600406,0.465201974,1.314084172
32.996860,43.827110291,-8.373695374,-6.123058319,-0.018757015,0.396354318,1.140622258
33.035208,18.482261658,-11.417823792,2.406604767,0.039714664,0.340446115,0.742062688
33.049510,12.783103943,-3.025489807,-0.416271210,0.098796695,0.270743966,0.720334172
33.064871,8.228355408,2.605003357,-2.277843475,0.112102360,0.237907052,0.728390813
33.103161,2.643638611,24.577659607,-15.339366913,0.116130680,0.271110177,0.902096868
33.141497,15.750938416,13.293785095,-15.629283905,-0.029377133,0.281119943,0.797238469
33.155826,18.558555603,5.481285095,-12.646190643,-0.073810726,0.217765450,0.764401555
33.182914,7.793479919,-12.028175354,1.208789825,-0.041828305,0.192252755,0.717648625
33.221296,0.576072693,-4.688697815,-5.726329803,0.033855289,0.359489083,0.749753118
33.259640,-3.848976135,19.336265564,-12.157909393,-0.004963070,0.465934396,0.628537297
33.273954,-5.245155334,23.791831970,-13.256542206,0.011394352,0.371818185,0.772702336
33.289288,7.076316833,23.509544373,-16.178600311,-0.020588070,0.333610177,0.738278508
33.327618,-6.946510315,28.590721130,-13.111583710,-0.031086117,0.447013497,0.841672063
33.365952,2.353721619,28.430503845,-16.743175507,-0.050983578,0.405265450,0.946042180
33.380248,5.611473083,23.578208923,-16.285411835,-0.072834164,0.354850411,0.971432805
33.395594,4.383140564,20.114463806,-14.835826874,-0.074665219,0.346549630,0.985715032
33.433892,0.392967224,17.383140564,-12.936107635,-0.006305844,0.411124825,1.137936711
33.472257,5.458885193,26.698631287,-19.031993866,0.034465641,0.656974435,0.952389836
33.486559,2.376609802,29.178184509,-27.744762421,0.074260563,0.609611154,0.969113469
33.501896,14.064842224,30.673545837,-34.260265350,0.100993961,0.437125802,1.129269719
33.540222,21.099143982,11.165184021,-35.946361542,0.005412906,0.064933412,0.937375188
33.578551,-7.938331604,-40.600257874,-25.494091034,-0.154621273,0.250480294,0.931882024
33.592864,-2.605384827,-58.262306213,-22.594921112,-0.177814633,0.282462716,0.914425969
33.608202,5.046897888,-90.786415100,-12.379161835,-0.184406430,0.318961740,0.877804875
33.646501,-0.026649475,-105.808692932,-7.191173553,-0.028278500,0.364371896,0.831784368
33.696770,2.559715271,-40.584999084,-21.664134979,0.034343570,0.322867990,0.768796086
33.711120,-0.171607971,-26.462989807,-24.326793671,0.025920719,0.313346505,0.744992375
33.726472,-8.441871643,-2.422767639,-27.081005096,-0.020954281,0.328483224,0.746457219
33.764792,-9.784645081,19.809288025,-25.272838593,-0.072590023,0.323966622,0.826413274
33.803147,-3.169960022,23.837608337,-22.724620819,-0.081379086,0.322745919,0.844601750
33.817462,-1.544898987,17.589134216,-22.114269257,-0.106525570,0.331290841,0.830441594
33.832817,0.454002380,14.918846130,-21.633617401,-0.113727719,0.328849435,0.819333196
33.871128,-4.939979553,-1.095252991,-16.384593964,-0.173175961,0.359244943,0.741330266
33.922691,-13.729042053,-26.485877991,-9.327404022,-0.164386898,0.478019357,0.923825383
33.937030,-5.229896545,-34.138160706,-8.327953339,-0.160114437,0.517814279,0.989621282
33.952379,0.804954529,-37.159400940,-7.366649628,-0.155475765,0.512443185,1.000973821
33.990681,6.748252869,-42.904335022,-3.361217499,-0.129230648,0.384879708,0.976071477
34.029027,1.705223083,-35.870033264,3.200061798,-0.104694515,0.381095529,1.053708196
34.043326,1.911216736,-29.995399475,3.947742462,-0.084552914,0.402579904,1.071652532
34.058651,7.450157166,-12.096839905,1.498706818,-0.041828305,0.411613107,1.068478703
34.096950,13.401084900,18.230003357,-2.369396210,-0.049274594,0.262443185,0.910153508
34.135262,-5.145973206,22.029441833,4.268177032,-0.065632015,0.184196115,0.811398625
34.149562,-9.372657776,21.937889099,5.099781036,-0.051349789,0.187858224,0.819455266
34.164891,-15.407508850,22.502464294,5.321033478,-0.035602719,0.241935372,0.828000188
34.203239,-20.069068909,20.030540466,5.778797150,-0.039264828,0.380118966,0.863888860
34.241567,-16.643470764,17.825645447,4.542835236,-0.015094906,0.375602365,0.900509953
34.255873,-17.726844788,17.909568787,4.542835236,-0.001545101,0.390739083,0.923337102
34.271196,-16.612953186,17.947715759,3.543384552,0.007121891,0.391959786,0.935788274
34.309508,-10.303443909,10.272544861,-0.973217010,-0.018146664,0.282950997,1.013302922
34.347879,-0.316566467,-14.904457092,2.871997833,-0.110431820,0.256095529,0.995602727
34.362193,3.673606873,-27.019935608,6.488330841,-0.102497250,0.267936349,0.917477727
34.377521,2.391868591,-30.704933167,8.533008575,-0.093219906,0.273551583,0.892697453
34.415875,-1.392311096,-24.364906311,8.288867950,-0.036823422,0.333488107,0.855343938
34.454227,-3.002113342,8.502525330,2.414234161,0.004924625,0.385734200,0.880002141
34.468509,-2.582496643,15.414756775,0.186450958,0.000408024,0.371818185,0.895993352
34.477320,-2.124732971,19.656700134,-1.446239471,-0.000080258,0.357047677,0.911862493
34.485070,-2.483314514,21.434349060,-3.071300507,-0.013996273,0.342765450,0.931759953
34.492725,-3.467506409,21.579307556,-2.094738007,-0.026447445,0.333610177,0.966183782
34.501605,-3.597206116,20.320457458,-0.401012421,-0.020710140,0.329093575,1.006222844
34.509332,-3.597206116,20.320457458,-0.401012421,-0.020710140,0.329093575,1.006222844
34.517002,-3.314918518,18.153709412,0.461109161,-0.010700375,0.327262521,1.044797063
34.525880,-2.376502991,15.399497986,1.323230743,0.002483219,0.321281075,1.100705266
34.533604,-0.736183167,13.370079041,2.215869904,0.017619938,0.317496896,1.157712102
34.541267,1.689964294,12.523216248,2.772815704,0.042400211,0.322135568,1.211545110
34.550228,1.689964294,12.523216248,2.772815704,0.042400211,0.322135568,1.211545110
34.558003,5.443626404,13.766807556,2.765186310,0.073284000,0.336661935,1.250363469
34.565671,10.211997986,17.398399353,1.597888947,0.105388492,0.353751779,1.263913274
34.574564,16.246849060,23.013633728,-0.935070038,0.131267399,0.365714669,1.248166203
34.582297,22.335105896,30.055564880,-4.406444550,0.143718570,0.365104318,1.196042180
34.589978,22.335105896,30.055564880,-4.406444550,0.143718570,0.365104318,1.196042180
34.598868,26.210838318,37.417930603,-8.427135468,0.140788883,0.347892404,1.123898625
34.606602,26.416831970,44.406455994,-11.440746307,0.125774235,0.330314279,1.046383977
34.628981,19.519859314,55.423301697,-15.446178436,0.098064274,0.296744943,0.924191594
34.636811,15.178733826,59.146446228,-17.796031952,0.087444156,0.289786935,0.868283391
34.644569,11.203819275,61.015647888,-20.817272186,0.074504703,0.255851388,0.848508000
34.653506,7.396751404,59.596580505,-23.441783905,0.035930485,0.227775216,0.829342961
34.661271,1.094871521,53.561729431,-24.891368866,-0.015094906,0.214347482,0.827145696
34.668950,1.094871521,53.561729431,-24.891368866,-0.015094906,0.214347482,0.827145696
34.677833,-4.901832581,42.186302185,-23.617259979,-0.094196469,0.197990060,0.861569524
34.685577,-5.992835999,28.316062927,-17.002574921,-0.144855648,0.222037911,0.867306828
34.693268,-9.090370178,11.104148865,-13.386241913,-0.154132992,0.279533029,0.868771672
34.702148,-7.137245178,-7.862525940,-9.830944061,-0.192829281,0.264640450,0.890744328
34.709880,-2.765602112,-25.532203674,-2.201549530,-0.190632015,0.261954904,0.897946477
34.717548,-2.765602112,-25.532203674,-2.201549530,-0.190632015,0.261954904,0.897946477
34.726528,-1.270240784,-40.813880920,4.680164337,-0.151081234,0.258903146,0.892209172
34.734296,-1.911109924,-52.074867249,7.701404572,-0.103840023,0.247428536,0.903805852
34.741980,-3.925270081,-58.399635315,9.318836212,-0.054401547,0.256217599,0.921139836
34.750871,-5.588478088,-59.444862366,9.486682892,-0.010944515,0.285880685,0.934689641
34.758606,-5.588478088,-59.444862366,9.486682892,-0.010944515,0.285880685,0.934689641
34.766287,-6.252235413,-55.561500549,7.365711212,0.026164860,0.335441232,0.931637883
34.775166,-5.908912659,-48.267799377,3.459461212,0.055583805,0.379752755,0.918454289
34.782898,-3.581947327,-38.547950745,-1.186840057,0.070354313,0.405997872,0.902707219
34.790581,0.209861755,-27.393775940,-4.627696991,0.069621891,0.407218575,0.882809758
34.799472,2.826744080,-15.858131409,-6.855480194,0.070110172,0.385490060,0.853634953
34.807288,2.826744080,-15.858131409,-6.855480194,0.070110172,0.385490060,0.853634953
34.815028,2.201133728,-5.405860901,-9.724132538,0.056316227,0.350455880,0.830929875
34.823909,0.156455994,3.085655212,-12.104503632,0.026897281,0.323478341,0.813962102
34.831643,-2.780860901,9.303611755,-12.669078827,-0.000202328,0.313102365,0.806027532
34.839333,-5.069679260,12.591880798,-12.653820038,-0.025470883,0.320670724,0.804318547
34.848222,-5.069679260,12.591880798,-12.653820038,-0.025470883,0.320670724,0.804318547
34.855966,-5.939430237,13.202232361,-11.990062714,-0.051471859,0.327506661,0.810299993
34.863655,-5.222267151,11.027854919,-10.197154999,-0.068805844,0.328727365,0.819821477
34.872554,-3.910011292,6.984275818,-8.343212128,-0.074543148,0.321891427,0.830563664
34.880282,-2.574867249,1.948875427,-6.947032928,-0.081012875,0.305045724,0.842770696
34.888034,-2.574867249,1.948875427,-6.947032928,-0.081012875,0.305045724,0.842770696
34.896922,-1.033729553,-2.933937073,-5.527965546,-0.083942562,0.290275216,0.853512883
34.904666,0.515037537,-7.137733459,-4.238597870,-0.083820492,0.280265450,0.852536321
34.912353,1.766258240,-10.738807678,-2.956859589,-0.080158383,0.277701974,0.843258977
34.921244,3.009849548,-13.454872131,-2.163402557,-0.075153500,0.275626779,0.829953313
34.928988,3.704124451,-15.659767151,-1.629344940,-0.075641781,0.277701974,0.810299993
34.936691,3.704124451,-15.659767151,-1.629344940,-0.075641781,0.277701974,0.810299993
34.945586,3.864341736,-17.414527893,-1.110546112,-0.079303890,0.278556466,0.790646672
34.953332,3.078514099,-19.306617737,-0.790111542,-0.084430844,0.280997872,0.753659368
34.961025,-0.720924377,-20.657020569,1.307971954,-0.093341976,0.296378732,0.737546086
34.970005,-2.872413635,-21.351295471,3.245838165,-0.078693539,0.310660958,0.745114446
34.977767,-2.872413635,-21.351295471,3.245838165,-0.078693539,0.310660958,0.745114446
34.985463,-4.650062561,-20.344215393,4.390247345,-0.064045101,0.327018380,0.760251164
34.994355,-4.886573792,-18.177467346,3.436573029,-0.042438656,0.347892404,0.773678899
35.002094,-6.214088440,-15.507179260,1.315601349,-0.043171078,0.378409982,0.769406438
35.009772,-7.007545471,-12.363868713,0.720508575,-0.057331234,0.395255685,0.780392766
35.032349,-7.144874573,-8.259254456,1.719959259,-0.068439633,0.419913888,0.827389836
35.040133,-6.084388733,-6.885963440,2.826221466,-0.067341000,0.428336740,0.846676946
35.047811,-6.114906311,-6.008583069,3.367908478,-0.059528500,0.435416818,0.866086125
35.056681,-6.114906311,-6.008583069,3.367908478,-0.059528500,0.435416818,0.866086125
35.064506,-6.694740295,-5.611854553,3.413684845,-0.060260922,0.445426583,0.887692571
35.072249,-7.121986389,-5.382972717,4.024036407,-0.059284359,0.459342599,0.906491399
35.081145,-7.068580627,-5.657630920,4.703052521,-0.053058773,0.473624825,0.927487493
35.088874,-5.916542053,-6.054359436,5.328662872,-0.046955258,0.480216622,0.948605657
35.096556,-5.916542053,-6.054359436,5.328662872,-0.046955258,0.480216622,0.948605657
35.105429,-3.803199768,-6.664710999,6.183155060,-0.037677914,0.483390450,0.956906438
35.113153,-1.384681702,-7.008033752,6.618030548,-0.025470883,0.461661935,0.971432805
35.120843,-1.453346252,-6.802040100,7.167346954,-0.012043148,0.441276193,0.976437688
35.129719,-3.879493713,-5.779701233,7.930286407,-0.000690609,0.421500802,0.999508977
35.137451,-5.191749573,-3.750282288,8.090503693,0.014079899,0.405021310,1.046261907
35.145212,-5.191749573,-3.750282288,8.090503693,0.014079899,0.405021310,1.046261907
35.154111,-7.152503967,-0.774818420,7.945545197,0.036296695,0.416617990,1.084225774
35.161852,-7.396644592,2.704185486,6.663806915,0.048747867,0.430411935,1.131589055
35.169537,-6.252235413,6.808799744,5.931385040,0.060100406,0.458854318,1.163571477
35.178419,-2.910560608,12.225669861,5.473621368,0.079021305,0.474967599,1.182980657
35.186155,-2.910560608,12.225669861,5.473621368,0.079021305,0.474967599,1.182980657
35.193862,2.056175232,18.916648865,3.909595490,0.097698063,0.485465646,1.171994328
35.202755,-1.888221741,25.523704529,0.483997345,0.143962711,0.535636544,1.124508977
35.210485,13.217979431,31.802696228,-8.427135468,0.132976383,0.369376779,1.184567571
35.218200,26.844078064,34.976524353,-12.974254608,0.099895328,0.269157052,1.135129094
35.227198,29.476219177,35.213035583,-15.095226288,0.050578922,0.206657052,1.025143743
35.234968,29.476219177,35.213035583,-15.095226288,0.050578922,0.206657052,1.025143743
35.242663,19.535118103,29.826683044,-15.552989960,-0.001300961,0.181388497,0.939572453
35.251577,6.687217712,20.793479919,-13.844005585,-0.059894711,0.146964669,0.893307805
35.259320,0.148826599,8.136314392,-8.968822479,-0.122882992,0.131827950,0.885739446
35.266999,-1.850074768,-7.320838928,-5.459300995,-0.147052914,0.156730294,0.859372258
35.275878,-1.850074768,-7.320838928,-5.459300995,-0.147052914,0.156730294,0.859372258
35.283603,-3.040260315,-25.669532776,-2.392284393,-0.188190609,0.153190255,0.854733586
35.291297,-5.084938049,-45.849281311,3.680713654,-0.216510922,0.154044747,0.854855657
35.300196,-8.159584045,-65.494972229,11.516101837,-0.222126156,0.163444161,0.877926946
35.308022,-11.211341858,-82.157569885,19.893177032,-0.191608578,0.185905099,0.915646672
35.315772,-11.211341858,-82.157569885,19.893177032,-0.191608578,0.185905099,0.915646672
35.324702,-13.080543518,-92.709022522,26.835926056,-0.132770687,0.215568185,0.963254094
35.332449,-11.974281311,-95.905738831,29.483325958,-0.061237484,0.252677560,0.997555852
35.340167,-8.892005920,-91.526466370,27.743824005,0.018474430,0.273063302,1.029049993
35.349069,-4.405921936,-80.257850647,23.234851837,0.064006656,0.284171700,1.028195500
35.356819,-0.698036194,-64.236122131,17.337329865,0.094890445,0.275504708,1.020993352
35.364532,-0.698036194,-64.236122131,17.337329865,0.094890445,0.275504708,1.020993352
35.373434,0.980430603,-45.582252502,12.057788849,0.111125797,0.258170724,1.009030461
35.381173,0.583702087,-26.348548889,7.335193634,0.104778141,0.264518380,0.976681828
35.388955,-1.064247131,-8.488136292,3.283985138,0.101482242,0.241569161,0.969723821
35.397864,0.614219666,5.672019958,-0.629894257,0.069621891,0.259025216,0.935910344
35.405603,0.614219666,5.672019958,-0.629894257,0.069621891,0.259025216,0.935910344
35.413292,-5.824989319,16.498130798,-2.476207733,0.063030094,0.288322091,0.920285344
35.436075,-1.857704163,25.287193298,-4.803173065,-0.036823422,0.282462716,0.863644719
35.443877,-1.857704163,25.287193298,-4.803173065,-0.036823422,0.282462716,0.863644719
35.451549,-0.240272522,22.922080994,-0.561229706,-0.059162289,0.239982247,0.871457219
35.460419,-1.003211975,21.350425720,2.948291779,-0.071979672,0.207145333,0.845578313
35.468160,-4.947608948,19.641441345,5.641468048,-0.054645687,0.218009591,0.876950383
35.475845,-5.413002014,17.612022400,5.374439240,-0.069416195,0.214591622,0.881711125
35.484821,-5.413002014,17.612022400,5.374439240,-0.069416195,0.214591622,0.881711125
35.492595,-7.144874573,16.444725037,7.548816681,-0.090412289,0.259513497,0.875485539
35.500290,-9.807533264,16.620201111,10.608203888,-0.079548031,0.292106271,0.885617375
35.509179,-10.700172424,17.444175720,9.936817169,-0.042682797,0.310783029,0.921750188
35.516907,-8.686012268,16.810935974,8.113391876,-0.031818539,0.317985177,0.951291203
35.524594,-8.686012268,16.810935974,8.113391876,-0.031818539,0.317985177,0.951291203
35.533482,-3.147071838,16.704124451,7.350452423,-0.030353695,0.311515450,0.970090032
35.541206,2.437644958,17.917198181,8.433826447,-0.012165219,0.286735177,0.967038274
35.548886,5.619102478,20.404380798,8.334644318,0.014446110,0.249503732,0.963864446
35.557767,14.652305603,28.598350525,8.212574005,0.027629703,0.228385568,0.944577336
35.565576,8.136802673,35.510581970,8.265979767,0.069988102,0.284415841,0.843991399
35.573299,8.136802673,35.510581970,8.265979767,0.069988102,0.284415841,0.843991399
35.582198,2.193504333,43.628257751,0.911243439,0.082073063,0.286979318,0.825802922
35.589930,-0.453895569,49.556297302,-3.231517792,0.050334781,0.317985177,0.801755071
35.597616,0.057273865,55.522483826,-3.071300507,0.036784977,0.326285958,0.803586125
35.606493,-0.781959534,59.199851990,-3.490917206,0.044719547,0.353263497,0.757565618
35.614225,-0.781959534,59.199851990,-3.490917206,0.044719547,0.353263497,0.757565618
35.621926,-2.277320862,60.901206970,-7.534496307,0.042522281,0.306144357,0.791134953
35.630812,-2.780860901,60.008567810,-8.144847870,0.006267399,0.276725411,0.807126164
35.638541,-4.619544983,57.757896423,-4.955760956,-0.004108578,0.269157052,0.831051946
35.646324,-7.862037659,54.088157654,-2.682201385,0.003581852,0.284537911,0.852292180
35.655221,-11.516517639,49.884361267,-2.850048065,0.011638492,0.326774240,0.870846868
35.662969,-11.516517639,49.884361267,-2.850048065,0.011638492,0.326774240,0.870846868
35.670657,-14.347023010,45.550865173,-2.941600800,0.015544742,0.377555490,0.898678899
35.679550,-14.629310608,41.675132751,-2.575389862,0.026775211,0.429801583,0.931149602
35.687283,-12.584632874,38.264793396,-3.635875702,0.044231266,0.481803536,0.956662297
35.694991,-8.144325256,34.770530701,-6.664745331,0.051433414,0.507438302,0.981198430
35.703870,-8.144325256,34.770530701,-6.664745331,0.051433414,0.507438302,0.981198430
35.711604,-1.178688049,30.398887634,-10.311595917,0.046794742,0.501090646,0.999753118
35.719293,5.291038513,24.707359314,-12.951366425,0.036052555,0.479484200,0.992673039
35.728265,7.930809021,16.330284119,-15.064708710,-0.001178890,0.413077950,1.009884953
35.736034,9.761863708,6.663841248,-14.469615936,-0.020466000,0.347526193,1.022580266
35.743716,10.273033142,-3.307777405,-12.730113983,-0.015583187,0.295524240,1.037228703
35.752612,10.273033142,-3.307777405,-12.730113983,-0.015583187,0.295524240,1.037228703
35.760359,7.373863220,-13.920265198,-11.867992401,-0.012043148,0.268058419,1.046261907
35.768055,2.712303162,-23.457008362,-12.012950897,-0.010700375,0.265861154,1.063473821
35.776922,-0.255531311,-31.856971741,-12.905590057,-0.029499203,0.298087716,1.075558782
35.784660,0.186973572,-40.142494202,-12.119762421,-0.057697445,0.335441232,1.070675969
35.792352,0.186973572,-40.142494202,-12.119762421,-0.057697445,0.335441232,1.070675969
35.801251,2.834373474,-48.359352112,-9.991161346,-0.069416195,0.375846505,1.047604680
35.809072,5.519920349,-55.851417542,-8.091442108,-0.074421078,0.397575021,1.018063664
35.816823,9.403282166,-61.581092834,-6.344310760,-0.064289242,0.374015450,1.003537297
35.840938,17.673545837,-65.220314026,-5.505077362,-0.018512875,0.234489083,0.958493352
35.848737,17.055564880,-63.465553284,-6.618968964,-0.000934750,0.150016427,0.942013860
35.856430,15.285545349,-58.392005920,-6.336681366,0.004802555,0.056510560,0.937619328
35.865318,8.335166931,-51.426368713,-5.634777069,0.038860172,0.025504701,0.932614446
35.873052,-4.505104065,-43.354469299,-6.283275604,0.033122867,0.024772279,0.932980657
35.880725,-4.505104065,-43.354469299,-6.283275604,0.033122867,0.024772279,0.932980657
35.889613,-17.032569885,-34.290748596,-7.076732635,0.033122867,0.067741029,0.968014836
35.897355,-26.225990295,-23.113685608,-7.236949921,0.048503727,0.158317208,1.009640813
35.905121,-29.514259338,-11.539894104,-9.312145233,0.060832828,0.254386544,1.035397649
35.914047,-25.814002991,0.842613220,-13.447277069,0.057659000,0.337272286,1.080075383
35.921806,-25.814002991,0.842613220,-13.447277069,0.057659000,0.337272286,1.080075383
35.929483,-15.804237366,12.187522888,-16.941539764,0.055583805,0.386222482,1.097165227
35.938376,-3.520912170,21.960777283,-18.581859589,0.051067203,0.397330880,1.078244328
35.946116,5.870872498,29.857200623,-21.236888885,0.051311344,0.358512521,1.038083196
35.953809,9.944969177,35.281700134,-23.304454803,0.032634586,0.294303536,0.983151555
35.962701,8.998924255,39.081138611,-23.830883026,0.017742008,0.250846505,0.933346868
35.970434,8.998924255,39.081138611,-23.830883026,0.017742008,0.250846505,0.933346868
35.978119,5.512290955,40.454429626,-23.807994843,-0.007160336,0.212882638,0.896359563
35.987093,0.614219666,39.310020447,-23.556224823,-0.029132992,0.195548654,0.873410344
35.994840,-3.414100647,35.792869568,-22.526256561,-0.049762875,0.195060372,0.862179875
36.002535,-4.657691956,30.414146423,-20.336620331,-0.060138851,0.196891427,0.861569524
36.011444,-4.657691956,30.414146423,-20.336620331,-0.060138851,0.196891427,0.861569524
36.019179,-5.672401428,23.112815857,-18.810741425,-0.063800961,0.207267404,0.858639836
36.026873,-5.489295959,14.537376404,-17.452709198,-0.072590023,0.209830880,0.866696477
36.035768,-4.856056213,5.397361755,-15.461437225,-0.079548031,0.230216622,0.864621282
36.043505,-4.199928284,-3.429847717,-13.546459198,-0.083820492,0.255729318,0.865231633
36.051208,-4.199928284,-3.429847717,-13.546459198,-0.083820492,0.255729318,0.865231633
36.060100,-3.101295471,-11.036354065,-12.707225800,-0.089801937,0.282218575,0.856320500
36.067921,-1.880592346,-17.147499084,-11.562816620,-0.095295101,0.304801583,0.844723821
36.075662,-1.140541077,-22.411781311,-10.326854706,-0.096515805,0.316276193,0.839841008
36.084578,0.347190857,-27.172523499,-9.991161346,-0.100055844,0.307853341,0.839108586
36.092323,1.049095154,-31.551795959,-9.510509491,-0.107746273,0.301505685,0.831296086
36.100028,1.049095154,-31.551795959,-9.510509491,-0.107746273,0.301505685,0.831296086
36.108916,0.736289978,-35.450416565,-8.762828827,-0.112507015,0.294913888,0.824948430
36.116648,0.934654236,-38.898902893,-7.771007538,-0.121906430,0.273551583,0.830197453
36.124353,0.972801208,-41.828590393,-7.267467499,-0.127033383,0.271720529,0.815304875
36.133251,-0.614112854,-45.002418518,-6.176464081,-0.144001156,0.270621896,0.808957219
36.140978,-0.614112854,-45.002418518,-6.176464081,-0.144001156,0.270621896,0.808957219
36.148750,-2.605384827,-47.367530823,-4.337779999,-0.149738461,0.280021310,0.811520696
36.157661,-3.856605530,-49.717384338,-3.117076874,-0.149982601,0.282950997,0.823239446
36.165410,-4.283851624,-51.510292053,-1.583568573,-0.155597836,0.293204904,0.823605657
36.173122,-4.230445862,-52.174049377,0.834949493,-0.152546078,0.295280099,0.841183782
36.182034,-4.657691956,-51.388221741,2.871997833,-0.140461117,0.308707833,0.843503118
36.189764,-4.657691956,-51.388221741,2.871997833,-0.140461117,0.308707833,0.843503118
36.197469,-6.229347229,-48.855262756,3.894336700,-0.123371273,0.333854318,0.848385930
36.206366,-7.282203674,-44.491249084,3.924854279,-0.117267758,0.356315255,0.849728703
36.214102,-7.030433655,-38.334327698,3.909595490,-0.106891781,0.374747872,0.865964055
36.221796,-6.412452698,-31.063514709,3.779895782,-0.104328305,0.389274240,0.872922063
36.246231,-7.327980042,-15.346961975,3.840930939,-0.092365414,0.396232247,0.904416203
36.254046,-8.335060120,-7.595497131,4.130847931,-0.090046078,0.399894357,0.934811711
36.261699,-9.014076233,-0.050025940,4.489429474,-0.083454281,0.401237130,0.973996282
36.270568,-9.014076233,-0.050025940,4.489429474,-0.083454281,0.401237130,0.973996282
36.278305,-8.892005920,6.076377869,4.916675568,-0.069782406,0.408439279,1.008298039
36.285965,-8.106178284,11.409324646,5.160816193,-0.052936703,0.403922677,1.050900578
36.294841,-5.878395081,16.925376892,4.825122833,-0.034870297,0.400504708,1.082394719
36.302578,-3.032630920,22.334617615,3.909595490,-0.019123226,0.384757638,1.104001164
36.310240,-3.032630920,22.334617615,3.909595490,-0.019123226,0.384757638,1.104001164
36.319119,-0.087684631,26.881736755,2.620227814,-0.015827328,0.350455880,1.129391789
36.326939,1.804405212,29.948753357,1.864917755,-0.027912289,0.325553536,1.137204289
36.334677,1.339012146,31.230491638,2.078540802,-0.040485531,0.317985177,1.143307805
36.343590,0.530296326,30.986351013,2.810962677,-0.052814633,0.317618966,1.157101750
36.351325,1.354270935,29.811424255,4.039295197,-0.062336117,0.330436349,1.168088078
36.359020,1.354270935,29.811424255,4.039295197,-0.062336117,0.330436349,1.168088078
36.367906,3.437095642,28.209251404,5.610950470,-0.057331234,0.351554513,1.164670110
36.375637,7.923179626,26.546043396,5.900867462,-0.046344906,0.348991036,1.154049993
36.383331,14.179283142,25.310081482,5.557544708,-0.039631039,0.315421700,1.123898625
36.392227,19.474082947,24.325889587,5.473621368,-0.034992367,0.267081857,1.067868352
36.399965,21.823936462,23.852867126,5.389698029,-0.037189633,0.207877755,1.012204289
36.407741,21.823936462,23.852867126,5.389698029,-0.037189633,0.207877755,1.012204289
36.416660,18.375450134,22.784751892,4.832752228,-0.036579281,0.173698068,0.953244328
36.424422,10.448509216,19.908470154,3.871448517,-0.059040219,0.155997872,0.921017766
36.432125,1.155906677,15.826744080,4.489429474,-0.084186703,0.172965646,0.908444524
36.441017,-5.130714417,10.386985779,7.190235138,-0.107502133,0.207877755,0.921261907
36.448741,-5.130714417,10.386985779,7.190235138,-0.107502133,0.207877755,0.921261907
36.456432,-7.236427307,4.443687439,9.303577423,-0.114093930,0.246329904,0.933346868
36.465312,-5.916542053,-1.865821838,10.486133575,-0.118976742,0.258170724,0.962155461
36.473051,-2.834266663,-7.824378967,12.477405548,-0.130695492,0.245963693,0.986447453
36.480739,-0.102943420,-12.531715393,16.185291290,-0.122150570,0.219718575,1.004269719
36.489708,1.636558533,-15.324073792,18.397815704,-0.094318539,0.192374825,1.022336125
36.497473,1.636558533,-15.324073792,18.397815704,-0.094318539,0.192374825,1.022336125
36.505184,2.101951599,-15.621620178,18.619068146,-0.072834164,0.180778146,1.030881047
36.514090,2.185874939,-12.981849670,18.298633575,-0.061847836,0.189567208,1.028439641
36.521841,2.971702576,-7.328468323,17.955310822,-0.033161312,0.197379708,1.026364446
36.529530,3.963523865,-0.538307190,14.705188751,-0.011676937,0.188956857,1.018307805
36.538418,3.963523865,-0.538307190,14.705188751,-0.011676937,0.188956857,1.018307805
36.546157,4.077964783,6.236595154,11.416919708,-0.023761898,0.180045724,0.991818547
36.553853,2.491050720,11.905235291,10.562427521,-0.042072445,0.174308419,0.977292180
36.562751,0.438743591,15.925926208,11.287220001,-0.050983578,0.190299630,0.960934758
36.570572,-1.712745667,17.650169373,11.577136993,-0.056598812,0.232047677,0.948117375
36.578323,-1.712745667,17.650169373,11.577136993,-0.056598812,0.232047677,0.948117375
36.587232,-2.407020569,17.978233337,11.477954865,-0.068927914,0.277824044,0.932126164
36.594970,-1.117652893,17.543357849,12.500293732,-0.073444515,0.312492013,0.925534368
36.602671,1.331382751,16.536277771,13.103015900,-0.073810726,0.332999825,0.906857610
36.611568,4.550987244,15.437644958,12.675769806,-0.075519711,0.314445138,0.897946477
36.619314,4.306846619,14.590782166,11.462696075,-0.079914242,0.305045724,0.869259953
36.627025,4.306846619,14.590782166,11.462696075,-0.079914242,0.305045724,0.869259953
36.651593,1.926475525,5.977195740,15.498645782,-0.160480648,0.208732247,0.927853703
36.659403,2.376609802,1.727622986,16.841419220,-0.149982601,0.205558419,0.924435735
36.667158,2.376609802,1.727622986,16.841419220,-0.149982601,0.205558419,0.924435735
36.676092,2.162986755,-2.628761292,18.214710236,-0.157184750,0.207389474,0.925778508
36.683851,3.452354431,-5.695777893,21.190174103,-0.152057797,0.220206857,0.927365422
36.691531,6.137901306,-6.870704651,22.777088165,-0.137531430,0.225211740,0.921017766
36.700420,8.556419373,-5.329566956,24.234302521,-0.117633969,0.223136544,0.903195500
36.708161,8.556419373,-5.329566956,24.234302521,-0.117633969,0.223136544,0.903195500
36.715848,8.274131775,-0.591712952,24.547107697,-0.088337094,0.233024240,0.883786321
36.724740,5.893760681,6.587547302,23.326404572,-0.069049984,0.251700997,0.865231633
36.732472,3.574424744,16.192955017,21.617420197,-0.049884945,0.278678536,0.854489446
36.740157,2.544456482,25.989097595,20.648487091,-0.034137875,0.303825021,0.843014836
36.749140,2.796226501,34.846824646,18.519886017,-0.007770687,0.319450021,0.833859563
36.756902,2.796226501,34.846824646,18.519886017,-0.007770687,0.319450021,0.833859563
36.764602,3.597312927,43.300193787,15.285022736,0.006755680,0.319450021,0.810177922
36.773502,3.841453552,51.013511658,12.904651642,0.013469547,0.305534005,0.799557805
36.781235,2.643638611,57.826560974,10.966785431,0.019084781,0.300040841,0.777463078
36.788930,-0.484413147,63.670677185,8.494861603,0.022624820,0.281486154,0.775265813
36.797827,-3.444618225,69.690269470,8.372791290,0.061565250,0.258292794,0.853879094
36.805561,-3.444618225,69.690269470,8.372791290,0.061565250,0.258292794,0.853879094
36.813257,-8.541053772,74.443382263,2.734668732,0.058635563,0.297111154,0.805783391
36.822145,-11.714881897,75.496238708,-2.438060760,0.025432438,0.279655099,0.891110539
36.829963,-11.875099182,75.015586853,-1.179210663,0.009807438,0.292838693,0.953854680
36.837706,-11.806434631,73.115867615,-0.507823944,0.015788883,0.320670724,0.983029485
36.846635,-11.806434631,73.115867615,-0.507823944,0.015788883,0.320670724,0.983029485
36.854381,-9.479469299,69.026512146,-2.087108612,0.017253727,0.346061349,1.018551946
36.862098,-5.046791077,63.083213806,-2.888195038,0.006877750,0.371574044,1.034299016
36.871006,0.827842712,56.087059021,-3.612987518,-0.002643734,0.393058419,1.017819524
36.878736,6.153160095,46.939414978,-6.168834686,-0.012653500,0.394889474,0.992673039
36.886443,6.153160095,46.939414978,-6.168834686,-0.012653500,0.394889474,0.992673039
36.895344,10.776573181,35.586875916,-8.808605194,-0.038532406,0.348991036,0.991330266
36.903081,13.477378845,22.243064880,-9.266368866,-0.075275570,0.298087716,0.969113469
36.910873,13.889366150,6.656211853,-7.694713593,-0.079425961,0.240348458,1.006589055
36.919792,11.974388123,-9.724098206,-4.406444550,-0.093586117,0.205070138,1.029294133
36.927547,7.190757751,-25.074440002,-3.239147186,-0.159504086,0.217765450,0.960568547
36.935258,7.190757751,-25.074440002,-3.239147186,-0.159504086,0.217765450,0.960568547
36.944146,7.213645935,-37.769752502,2.566822052,-0.084186703,0.251823068,1.033688664
36.951886,2.201133728,-50.602394104,6.198413849,-0.077350765,0.296378732,0.998898625
36.959593,4.444175720,-56.538063049,6.724842072,-0.054523617,0.327872872,0.994626164
36.968493,4.238182068,-61.848121643,3.932483673,-0.024616390,0.404533029,0.981198430
36.976231,4.238182068,-61.848121643,3.932483673,-0.024616390,0.404533029,0.981198430
36.983942,6.519371033,-64.465003967,0.834949493,-0.017536312,0.409049630,0.991696477
36.992920,10.990196228,-64.220863342,-0.294200897,-0.028034359,0.390494943,0.984006047
37.000675,14.652305603,-61.558204651,-0.141613007,-0.013507992,0.339713693,0.973996282
37.008382,16.246849060,-57.087379456,-1.369945526,0.006633610,0.277946115,0.956540227
37.017283,15.316062927,-51.388221741,-3.765575409,0.020915836,0.208243966,0.944211125
37.025021,15.316062927,-51.388221741,-3.765575409,0.020915836,0.208243966,0.944211125
37.032712,13.279014587,-44.437843323,-5.833141327,0.016399235,0.153312325,0.923092961
37.057547,-1.636451721,-23.304420471,-6.809703827,-0.012775570,0.047355287,0.923947453
37.065363,-1.636451721,-23.304420471,-6.809703827,-0.012775570,0.047355287,0.923947453
37.073033,-9.120887756,-16.201454163,-5.260936737,-0.014240414,0.083976381,0.926022649
37.081886,-16.422218323,-8.900123596,-4.612438202,-0.000568539,0.162833810,0.938595891
37.089703,-20.328468323,-1.316505432,-5.009166718,0.007976383,0.255729318,0.950436711
37.097447,-19.359535217,6.175559998,-6.481639862,0.014690250,0.337638497,0.963254094
37.106362,-13.790077209,13.705772400,-8.793346405,0.015544742,0.406730294,0.946408391
37.114097,-13.790077209,13.705772400,-8.793346405,0.015544742,0.406730294,0.946408391
37.121792,-6.427711487,20.114463806,-11.387340546,0.012126774,0.437003732,0.932004094
37.130689,0.515037537,25.096458435,-13.943187714,0.000896305,0.429435372,0.891354680
37.138430,4.291587830,27.072471619,-15.995494843,-0.022297055,0.366325021,0.859616399
37.146122,4.253440857,26.416343689,-16.094676971,-0.047077328,0.300162911,0.829220891
37.155015,4.253440857,26.416343689,-16.094676971,-0.047077328,0.300162911,0.829220891
37.162744,0.309043884,23.540061951,-14.843456268,-0.063312680,0.249992013,0.813107610
37.170508,-5.321449280,18.397850037,-13.683788300,-0.079548031,0.218131661,0.809201360
37.179420,-10.364479065,11.104148865,-12.234203339,-0.100544125,0.205680490,0.823727727
37.187164,-13.217872620,2.200645447,-9.655467987,-0.118366390,0.223991036,0.836545110
37.194856,-13.217872620,2.200645447,-9.655467987,-0.118366390,0.223991036,0.836545110
37.203749,-12.889808655,-7.481056213,-6.512157440,-0.125812680,0.245109200,0.864133000
37.211486,-11.501258850,-16.247230530,-3.757946014,-0.131427914,0.264030099,0.873166203
37.219183,-9.235328674,-22.884803772,-0.957958221,-0.126423031,0.284049630,0.877926946
37.228070,-7.457679749,-28.210121155,1.437671661,-0.111774594,0.303702950,0.874997258
37.235815,-6.137794495,-31.376319885,2.284534454,-0.100544125,0.310050607,0.873166203
37.243492,-6.137794495,-31.376319885,2.284534454,-0.100544125,0.310050607,0.873166203
37.252458,-4.802650452,-31.971412659,1.765735626,-0.090412289,0.329948068,0.852048039
37.260216,-4.146522522,-31.010108948,1.025684357,-0.076374203,0.329825997,0.851071477
37.267892,-4.146522522,-28.820472717,-0.355236053,-0.078815609,0.325553536,0.835446477
37.276777,-3.887123108,-26.134925842,-1.636974335,-0.088459164,0.312492013,0.828610539
37.284518,-3.887123108,-26.134925842,-1.636974335,-0.088459164,0.312492013,0.828610539
37.292207,-3.589576721,-23.266273499,-1.827709198,-0.099323422,0.295035958,0.824093938
37.301098,-3.475135803,-20.657020569,-0.896923065,-0.107624203,0.268790841,0.818966985
37.308842,-4.199928284,-18.047767639,0.346668243,-0.110798031,0.243644357,0.817380071
37.316521,-6.618446350,-15.407997131,1.735218048,-0.106525570,0.233512521,0.811032414
37.325416,-10.662025452,-12.592750549,2.673633575,-0.098346859,0.240226388,0.819577336
37.333234,-10.662025452,-12.592750549,2.673633575,-0.098346859,0.240226388,0.819577336
37.340971,-14.270729065,-9.769874573,3.253467560,-0.091144711,0.262931466,0.841672063
37.349872,-16.200965881,-7.206398010,4.008777618,-0.082477719,0.301749825,0.860959172
37.357600,-16.605323792,-5.642372131,4.199512482,-0.068683773,0.344108224,0.880246282
37.365295,-15.720314026,-4.787879944,3.192432404,-0.061725765,0.379630685,0.894772649
37.374170,-15.720314026,-4.787879944,3.192432404,-0.061725765,0.379630685,0.894772649
37.381898,-13.210243225,-4.528480530,2.246387482,-0.063678890,0.401725411,0.907345891
37.389588,-9.616798401,-4.826026917,2.040393829,-0.072834164,0.410392404,0.915280461
37.398469,-5.939430237,-5.833106995,2.490528107,-0.081501156,0.399528146,0.911862493
37.406194,-4.383033752,-7.404762268,3.131397247,-0.086383969,0.380729318,0.899045110
37.413940,-4.383033752,-7.404762268,3.131397247,-0.086383969,0.380729318,0.899045110
37.422840,-5.023902893,-9.052711487,4.039295197,-0.093830258,0.362907052,0.899289250
37.430581,-6.580299377,-10.235267639,5.565174103,-0.099811703,0.363761544,0.903683782
37.450752,-7.259315491,-10.349708557,7.220752716,-0.090168148,0.396354318,0.925534368
37.458577,-6.244606018,-9.716468811,7.342823029,-0.090778500,0.395377755,0.938717961
37.466240,-5.191749573,-8.701759338,7.960803986,-0.092609555,0.377555490,0.953122258
37.475102,-4.726356506,-7.793861389,8.731372833,-0.090290219,0.353873849,0.970700383
37.482838,-4.726356506,-7.793861389,8.731372833,-0.090290219,0.353873849,0.970700383
37.490491,-5.191749573,-6.733375549,9.486682892,-0.087360531,0.334464669,0.988888860
37.499343,-6.130165100,-5.474525452,10.180957794,-0.083576351,0.323600411,1.011960149
37.507154,-6.587928772,-4.124122620,10.921009064,-0.078571469,0.319083810,1.038327336
37.514889,-5.824989319,-2.392250061,11.531360626,-0.074299008,0.318717599,1.067135930
37.523796,-4.116004944,0.300926208,12.164600372,-0.068317562,0.326896310,1.083005071
37.531534,-4.116004944,0.300926208,12.164600372,-0.068317562,0.326896310,1.083005071
37.539225,-3.292030334,3.360313416,12.385852814,-0.058185726,0.341300607,1.089108586
37.548106,-2.551979065,6.816429138,11.615283966,-0.050617367,0.348380685,1.102536321
37.555842,-1.117652893,9.929222107,11.821277618,-0.046466976,0.365592599,1.097409368
37.563524,-0.179237366,12.324851990,11.241443634,-0.033039242,0.388419747,1.078122258
37.572416,-0.179237366,12.324851990,11.241443634,-0.033039242,0.388419747,1.078122258
37.580149,1.079612732,13.598960876,8.700855255,-0.034748226,0.388663888,1.061642766
37.587913,2.979331970,13.835472107,7.815845490,-0.054523617,0.357291818,1.050046086
37.596821,4.627281189,12.805503845,8.464344025,-0.066974789,0.312858224,1.028439641
37.604574,4.268699646,10.699790955,9.738452911,-0.077961117,0.262199044,1.009884953
37.612263,4.268699646,10.699790955,9.738452911,-0.077961117,0.262199044,1.009884953
37.621140,1.613670349,8.182090759,11.615283966,-0.081501156,0.221671700,1.002926946
37.628870,-2.590126038,6.015342712,13.972766876,-0.079181820,0.201408029,1.007809758
37.636552,-7.183021545,4.680198669,15.552051544,-0.067096859,0.207877755,1.018918157
37.645428,-10.013526917,4.176658630,15.323169708,-0.058063656,0.234122872,1.041257024
37.653162,-9.929603577,4.336875916,14.300830841,-0.061603695,0.261954904,1.059567571
37.660846,-9.929603577,4.336875916,14.300830841,-0.061603695,0.261954904,1.059567571
37.669812,-7.190650940,4.703086853,13.537891388,-0.072101742,0.266837716,1.080685735
37.677571,-2.727455139,5.008262634,13.774402618,-0.085773617,0.244742990,1.090573430
37.685264,1.163536072,4.634422302,14.323719025,-0.093219906,0.206290841,1.084347844
37.694147,3.162437439,3.818077087,14.728076935,-0.099201351,0.171134591,1.070553899
37.701869,3.162437439,3.818077087,14.728076935,-0.099201351,0.171134591,1.070553899
37.709549,3.261619568,2.795738220,15.643604279,-0.107380062,0.145377755,1.052243352
37.718423,2.368980408,1.964134216,16.513355255,-0.109821469,0.129142404,1.042477727
37.726147,1.712852478,1.399559021,17.276294708,-0.111286312,0.119742982,1.026486516
37.733837,0.942283630,0.972312927,17.787464142,-0.109333187,0.122550599,1.007809758
37.742718,0.240379333,0.651878357,17.970569611,-0.110798031,0.130973458,0.989499211
37.750530,0.240379333,0.651878357,17.970569611,-0.110798031,0.130973458,0.989499211
37.758263,-0.331825256,0.491661072,18.535144806,-0.116413265,0.144034982,0.970822453
37.767158,-0.873512268,0.484031677,19.176013947,-0.118610531,0.158561349,0.955929875
37.774890,-1.247352600,0.644248962,19.679553986,-0.121540219,0.165397286,0.946896672
37.782576,-1.506752014,1.124900818,20.366199493,-0.125690609,0.169425607,0.940304875
37.791469,-1.506752014,1.124900818,20.366199493,-0.125690609,0.169425607,0.940304875
37.799199,-2.117103577,1.918357849,21.464832306,-0.127277523,0.178458810,0.931882024
37.806888,-3.208106995,3.001731873,22.471912384,-0.123615414,0.192374825,0.926999211
37.815770,-4.146522522,4.527610779,22.975452423,-0.118976742,0.209342599,0.924924016
37.823505,-4.390663147,6.244224548,23.158557892,-0.114948422,0.228141427,0.926388860
37.831279,-4.390663147,6.244224548,23.158557892,-0.114948422,0.228141427,0.926388860
37.840198,-3.665870667,7.731956482,23.250110626,-0.111896664,0.245109200,0.925046086
37.860754,0.354820251,8.433860779,24.013050079,-0.110187680,0.243156075,0.925534368
37.868562,3.223472595,8.525413513,24.852283478,-0.112751156,0.223624825,0.916867375
37.876242,4.886680603,9.181541443,26.233203888,-0.106281430,0.206901193,0.895383000
37.885111,4.665428162,10.089439392,27.591236115,-0.091999203,0.196647286,0.866208196
37.892849,2.582603455,11.539024353,27.850635529,-0.073444515,0.197379708,0.846554875
37.900531,2.582603455,11.539024353,27.850635529,-0.073444515,0.197379708,0.846554875
37.909396,-0.163978577,13.385337830,27.514942169,-0.056476742,0.208732247,0.837643743
37.917121,-2.155250549,15.544456482,27.141101837,-0.041828305,0.221671700,0.838009953
37.924874,-2.925819397,17.932456970,26.927478790,-0.025837094,0.240348458,0.839108586
37.933794,-1.605934143,20.984214783,26.134021759,-0.009235531,0.239005685,0.853390813
37.941539,-0.759071350,24.501365662,24.913318634,0.008952945,0.272452950,0.822629094
37.949219,-0.759071350,24.501365662,24.913318634,0.008952945,0.272452950,0.822629094
37.958096,1.354270935,29.056114197,24.013050079,0.008586735,0.252067208,0.833859563
37.965828,2.941184998,33.984703064,22.479541779,0.024333805,0.242179513,0.804196477
37.973487,0.774436951,38.501304626,19.076831818,0.034221500,0.219596505,0.794919133
37.982348,-4.886573792,42.468589783,16.208179474,0.030925602,0.217765450,0.795651555
37.990075,-4.886573792,42.468589783,16.208179474,0.030925602,0.217765450,0.795651555
37.997733,-9.578651428,45.398277283,14.613636017,0.025188297,0.223991036,0.819943547
38.006698,-8.655494690,46.512168884,12.828357697,0.022258610,0.198356271,0.870236516
38.014450,-12.226051331,45.405906677,11.416919708,0.013469547,0.260612130,0.835812688
38.022161,-14.308876038,45.306724548,13.110645294,0.012370914,0.266959786,0.894650578
38.031064,-8.037513733,45.253318787,15.231616974,0.027751774,0.267936349,0.914914250
38.038792,-8.037513733,45.253318787,15.231616974,0.027751774,0.267936349,0.914914250
38.046475,-5.100196838,44.086021423,12.752063751,0.058635563,0.268668771,0.921139836
38.055370,-3.765052795,42.636436462,9.265430450,0.056682438,0.250114083,0.937863469
38.063096,-5.176490784,41.461509705,8.365161896,0.052287906,0.250602365,0.956174016
38.070775,-8.151954651,39.912742615,6.923206329,0.063030094,0.270743966,0.977658391
38.079656,-8.151954651,39.912742615,6.923206329,0.063030094,0.270743966,0.977658391
38.087468,-10.234779358,37.379783630,3.787525177,0.058513492,0.298698068,1.004391789
38.095212,-10.211891174,33.130210876,1.231678009,0.043254703,0.332145333,1.024899602
38.104107,-8.121437073,26.843589783,-0.576488495,0.024700016,0.360831857,1.041134953
38.111842,-3.566688538,17.985862732,-2.125255585,0.001018375,0.364371896,1.063351750
38.119548,-3.566688538,17.985862732,-2.125255585,0.001018375,0.364371896,1.063351750
38.128435,1.804405212,6.572288513,-2.766124725,-0.031330258,0.339957833,1.080441594
38.136158,5.474143982,-6.481605530,-1.995555878,-0.064411312,0.295768380,1.092038274
38.143859,6.404930115,-19.443946838,1.269824982,-0.083454281,0.260245919,1.108639836
38.152756,3.223472595,-31.696754456,6.038196564,-0.078083187,0.272819161,1.108029485
38.160487,-1.628822327,-42.454200745,7.800586700,-0.048175961,0.318717599,1.132321477
38.168282,-1.628822327,-42.454200745,7.800586700,-0.048175961,0.318717599,1.132321477
38.177211,-2.910560608,-51.266151428,6.831653595,-0.035114437,0.368156075,1.158200383
38.184952,1.117759705,-57.865577698,6.274707794,-0.031818539,0.399161935,1.170285344
38.192658,7.129722595,-61.665016174,6.488330841,-0.021076351,0.415153146,1.159299016
38.201564,11.760765076,-63.557106018,5.702503204,-0.004963070,0.396232247,1.140744328
38.209296,11.760765076,-63.557106018,5.702503204,-0.004963070,0.396232247,1.140744328
38.217018,12.783103943,-64.152198792,3.734119415,0.003581852,0.363029122,1.123776555
38.225916,10.761314392,-63.465553284,2.086170197,0.001750797,0.313346505,1.133664250
38.233643,8.167320251,-60.924964905,2.124317169,-0.001789242,0.277213693,1.147458196
38.241350,4.108482361,-56.217628479,3.345020294,0.007121891,0.272819161,1.148068547
38.262059,0.896507263,-39.814430237,1.254566193,0.045451969,0.289542794,1.157101750
38.269867,2.475791931,-28.255897522,-1.049510956,0.060344547,0.294547677,1.139035344
38.277544,2.475791931,-28.255897522,-1.049510956,0.060344547,0.294547677,1.139035344
38.286421,4.322105408,-16.148048401,-5.276195526,0.067180485,0.270377755,1.125241399
38.294147,7.442527771,-5.306678772,-9.380809784,0.037029117,0.198478341,1.121091008
38.301822,9.311729431,4.008811951,-9.068004608,0.006389469,0.146354318,1.082028508
38.310678,6.382041931,12.179893494,-6.664745331,0.006633610,0.115348451,1.044308782
38.318407,6.382041931,12.179893494,-6.664745331,0.006633610,0.115348451,1.044308782
38.326080,1.003318787,18.138450623,-5.451671600,0.011882633,0.097892396,1.016232610
38.334944,-4.878944397,22.723716736,-4.940502167,0.012859195,0.114005677,1.001095891
38.342753,-9.494728088,28.003257751,-2.926342010,0.024455875,0.169303536,0.993527532
38.350503,-11.486000061,34.511131287,-2.224437714,0.049480289,0.246574044,0.981320500
38.359420,-9.914344788,42.140525818,-4.147045135,0.072795719,0.300773263,0.952511907
38.367147,-9.914344788,42.140525818,-4.147045135,0.072795719,0.300773263,0.952511907
38.374846,-5.344337463,50.891441345,-7.984630585,0.098796695,0.318717599,0.937619328
38.383744,-1.270240784,59.749168396,-12.371532440,0.107585758,0.312980294,0.882199407
38.391474,-0.278419495,67.248863220,-16.911022186,0.105998844,0.264396310,0.848385930
38.399182,-1.125282288,73.413414001,-20.145885468,0.082561344,0.202384591,0.849240422
38.408087,-1.125282288,73.413414001,-20.145885468,0.082561344,0.202384591,0.849240422
38.415833,-4.238075256,79.570335388,-20.367137909,0.083049625,0.189567208,0.787839055
38.423616,-10.417884827,85.475486755,-21.641246796,0.110881656,0.177848458,0.777707219
38.432543,-16.895240784,90.480369568,-26.501171112,0.116130680,0.182853341,0.779782414
38.440281,-21.480506897,92.952293396,-32.902233124,0.091594547,0.188956857,0.795163274
38.447979,-21.480506897,92.952293396,-32.902233124,0.091594547,0.188956857,0.795163274
38.456875,-23.143714905,91.922325134,-36.900035858,0.048259586,0.181876779,0.849362493
38.464602,-18.405860901,88.443321228,-34.473888397,0.005534977,0.184684396,0.849118352
38.472305,-14.736122131,84.880393982,-30.712596893,0.038127750,0.202628732,0.821652532
38.481200,-11.432594299,79.989952087,-33.688060760,0.058635563,0.175284982,0.814572453
38.488937,-10.982460022,71.666282654,-39.196483612,0.033611149,0.148429513,0.825314641
38.496634,-10.982460022,71.666282654,-39.196483612,0.033611149,0.148429513,0.825314641
38.505609,-10.639137268,60.817283630,-40.523998260,-0.026813656,0.107902162,0.869626164
38.513384,-8.579200745,48.640769958,-35.656444550,-0.048664242,0.104728334,0.856808782
38.521082,-8.327430725,36.853355408,-35.183422089,-0.014362484,0.104850404,0.866330266
38.529978,-7.404273987,21.915000916,-39.524547577,-0.033405453,0.095084779,0.870846868
38.537702,-7.404273987,21.915000916,-39.524547577,-0.033405453,0.095084779,0.870846868
38.545381,-4.573768616,4.695457458,-38.738719940,-0.093097836,0.076774232,0.867673039
38.554265,-0.141090393,-12.180763245,-32.856456757,-0.105426937,0.053580873,0.867428899
38.561984,2.132469177,-26.417213440,-29.987804413,-0.084674984,0.040763490,0.858029485
38.569682,0.392967224,-40.745216370,-29.240123749,-0.076862484,0.037711732,0.887570500
38.578586,-2.361244202,-54.310279846,-28.507701874,-0.093830258,0.056754701,0.903073430
38.586402,-2.361244202,-54.310279846,-28.507701874,-0.093830258,0.056754701,0.903073430
38.594146,-2.628273010,-66.486793518,-25.883190155,-0.107380062,0.087272279,0.915890813
38.603050,-0.881141663,-76.267677307,-22.358409882,-0.088337094,0.122062318,0.916257024
38.610787,1.789146423,-83.111244202,-21.313182831,-0.055622250,0.135978341,0.909176946
38.618495,5.413108826,-87.498146057,-22.938243866,-0.029499203,0.128776193,0.906735539
38.627390,6.191307068,-90.153175354,-24.830333710,-0.022419125,0.128409982,0.892209172
38.635118,6.191307068,-90.153175354,-24.830333710,-0.022419125,0.128409982,0.892209172
38.655943,4.055076599,-92.144447327,-28.408519745,-0.049640805,0.066032045,0.959469914
38.663743,3.528648376,-89.817481995,-26.112071991,-0.045124203,0.058707826,0.971188664
38.671424,0.362449646,-83.675819397,-24.822704315,-0.019611508,0.082267396,0.956296086
38.680392,-2.269691467,-76.076942444,-28.530590057,-0.004352719,0.076163881,0.957150578
38.688165,-2.773231506,-68.447547913,-33.520214081,-0.017048031,0.055533998,0.977902532
38.695864,-2.773231506,-68.447547913,-33.520214081,-0.017048031,0.055533998,0.977902532
38.704755,-0.186866760,-59.231239319,-33.619396210,-0.048298031,0.021476381,1.002072453
38.712487,1.689964294,-47.779518127,-30.712596893,-0.044757992,0.006461732,0.999386907
38.720182,1.506858826,-35.511451721,-29.667369843,-0.029987484,-0.021370299,1.010251164
38.729072,0.110679626,-21.862464905,-30.636302948,-0.022052914,-0.033699401,1.009884953
38.736819,-2.353614807,-6.847816467,-31.895153046,-0.009235531,-0.013557799,0.992062688
38.744493,-2.353614807,-6.847816467,-31.895153046,-0.009235531,-0.013557799,0.992062688
38.753381,-5.603736877,8.525413513,-33.596508026,0.006023258,0.021354310,0.974606633
38.761185,-8.243507385,20.991844177,-36.694042206,0.010417789,0.040153138,0.982419133
38.768930,-8.129066467,30.467552185,-40.104381561,-0.002155453,0.052360170,0.998044133
38.777835,-5.207008362,37.097496033,-40.829174042,-0.026325375,0.061881654,0.991574407
38.785564,-5.207008362,37.097496033,-40.829174042,-0.026325375,0.061881654,0.991574407
38.793248,-0.911659241,41.797203064,-39.219371796,-0.042072445,0.061759584,0.952145696
38.802116,1.163536072,44.299644470,-38.265697479,-0.038532406,0.034415834,0.934323430
38.809854,0.835472107,45.154136658,-38.235179901,-0.039142758,0.016349427,0.916012883
38.817546,-2.567237854,45.398277283,-37.800304413,-0.044635922,0.030997865,0.881589055
38.826427,-5.306190491,44.078392029,-37.899486542,-0.055622250,0.034293763,0.869259953
38.834149,-5.306190491,44.078392029,-37.899486542,-0.055622250,0.034293763,0.869259953
38.841912,-7.511085510,41.766685486,-37.273876190,-0.068927914,0.032096498,0.868039250
38.850827,-10.852760315,38.608116150,-37.624828339,-0.059528500,0.035880677,0.887326360
38.858575,-12.065834045,33.153099060,-39.638988495,-0.073566586,0.024772279,0.894528508
38.866258,-12.844032288,26.324790955,-38.967601776,-0.097004086,0.033195131,0.853634953
38.875133,-12.844032288,26.324790955,-38.967601776,-0.097004086,0.033195131,0.853634953
38.882876,-17.391151428,17.711204529,-37.312023163,-0.093830258,0.045524232,0.823849797
38.890565,-22.151893616,7.945579529,-37.586681366,-0.086506039,0.033317201,0.848630071
38.899437,-24.555152893,-3.345924377,-37.220470428,-0.111286312,0.022575013,0.867917180
38.907166,-25.440162659,-14.301734924,-34.290782928,-0.119953305,0.022208802,0.884884953
38.914872,-25.440162659,-14.301734924,-34.290782928,-0.119953305,0.022208802,0.884884953
38.923849,-26.874488831,-24.219947815,-32.978527069,-0.092975765,0.035514466,0.871701360
38.931617,-28.232521057,-34.595924377,-36.594860077,-0.098102719,0.014030091,0.890378118
38.939326,-28.331703186,-45.429664612,-36.625377655,-0.151813656,-0.001716979,0.893307805
38.948219,-27.477210999,-56.736427307,-30.994884491,-0.185749203,-0.012825377,0.874142766
38.955953,-27.118629456,-67.234474182,-25.310985565,-0.166950375,-0.027229674,0.842526555
38.963649,-27.118629456,-67.234474182,-25.310985565,-0.166950375,-0.027229674,0.842526555
38.972547,-30.971473694,-75.977760315,-22.617809296,-0.137531430,-0.031624205,0.836911321
38.980277,-37.792152405,-81.814247131,-20.924083710,-0.125202328,-0.011848815,0.851803899
38.987970,-43.666786194,-84.888893127,-19.558422089,-0.119098812,0.026115052,0.902463078
38.996863,-46.672767639,-85.613685608,-19.024364471,-0.120807797,0.068107240,0.951901555
39.004681,-46.672767639,-85.613685608,-19.024364471,-0.120807797,0.068107240,0.951901555
39.012437,-43.209022522,-83.820777893,-18.970958710,-0.124836117,0.090324037,0.998410344
39.021349,-35.236305237,-79.899269104,-17.963878632,-0.128742367,0.093864076,1.014401555
39.029093,-28.743690491,-73.078590393,-16.552440643,-0.114582211,0.089835756,0.974240422
39.051316,-28.362220764,-55.279212952,-14.591686249,-0.087604672,0.032340638,0.934201360
39.059115,-34.229225159,-43.423133850,-14.446727753,-0.074299008,0.009269349,1.016232610
39.066816,-37.921852112,-27.340370178,-13.302318573,-0.047321469,0.072135560,0.975949407
39.075702,-43.285316467,-8.747535706,-17.437450409,0.003093570,0.137443185,0.984250188
39.083441,-43.285316467,-8.747535706,-17.437450409,0.003093570,0.137443185,0.984250188
39.091129,-42.293495178,4.802268982,-27.317516327,-0.008014828,0.140861154,1.056515813
39.100095,-33.214515686,13.736289978,-31.483165741,-0.086383969,0.129630685,1.079831243
39.107879,-23.837989807,21.266502380,-26.234142303,-0.095661312,0.118033998,1.038937688
39.115577,-18.665260315,26.210350037,-24.265758514,-0.050495297,0.070426576,1.000729680
39.124479,-20.038551331,28.583091736,-27.431957245,-0.042560726,0.037955873,0.978268743
39.132216,-20.038551331,28.583091736,-27.431957245,-0.042560726,0.037955873,0.978268743
39.139899,-26.699012756,29.971641541,-29.530040741,-0.060749203,0.028068177,0.997311711
39.148796,-31.635231018,29.994529724,-27.340404510,-0.087360531,0.062980287,1.025509953
39.156548,-31.932777405,29.162925720,-25.913707733,-0.079181820,0.103751771,1.051877141
39.164244,-26.531166077,24.890464783,-29.842845917,-0.089435726,0.112174623,1.067380071
39.173128,-26.531166077,24.890464783,-29.842845917,-0.089435726,0.112174623,1.067380071
39.180950,-31.848854065,14.689964294,-38.441173553,-0.148029476,0.270866036,0.976437688
39.188691,-44.422096252,-31.071144104,-50.381175995,-0.431720883,0.055533998,1.383420110
39.197610,-11.867469788,-70.591407776,-34.435741425,-0.656574368,0.007682435,1.499020696
39.205366,-1.384681702,-101.658302307,6.366260529,-0.524494290,0.063468568,1.238278508
39.213072,-1.384681702,-101.658302307,6.366260529,-0.524494290,0.063468568,1.238278508
39.221954,12.668663025,-99.178749084,38.135059357,-0.179523617,0.079093568,1.101193547
39.229697,7.267051697,-85.972267151,30.253894806,0.122112125,0.124747865,0.992795110
39.237393,-5.077308655,-73.902565002,-6.161205292,0.085246891,0.018058412,1.064450383
39.246275,-6.008094788,-64.686256409,-25.425426483,-0.101032406,-0.033455260,1.125851750
39.254019,-5.428260803,-46.200233459,-8.511058807,-0.194294125,0.001700990,1.130612493
39.261792,-5.428260803,-46.200233459,-8.511058807,-0.194294125,0.001700990,1.130612493
39.270714,-2.666419983,-18.894630432,10.043628693,-0.080646664,0.038932435,1.111325383
39.278471,-0.659889221,5.359214783,3.016956329,0.035930485,0.038810365,1.077389836
39.286161,-0.011390686,24.600547791,-8.755199432,0.038738102,0.008292787,1.076779485
39.295045,-1.155799866,49.502891541,-6.863109589,0.035808414,0.049430482,1.025998235
39.302774,-1.155799866,49.502891541,-6.863109589,0.035808414,0.049430482,1.025998235
39.310470,-4.207557678,75.664085388,-8.411876678,0.137248844,0.132804513,0.974728703
39.319361,-8.663124084,98.117393494,-21.160594940,0.205242008,0.162711740,0.978024602
39.327104,-10.005897522,117.068809509,-34.321300507,0.141643375,0.146598458,0.985348821
39.334815,-4.878944397,129.825164795,-41.332714081,0.078533024,0.123038881,1.003903508
39.343787,4.055076599,135.684539795,-42.171947479,0.031169742,0.082389466,1.011349797
39.351563,4.055076599,135.684539795,-42.171947479,0.031169742,0.082389466,1.011349797
39.359264,10.868125916,137.340118408,-41.851512909,-0.000446469,0.014274232,1.001706243
39.368148,15.323692322,135.272552490,-42.042247772,-0.014606625,-0.068367369,0.976315618
39.375895,15.399986267,129.436065674,-40.516368866,-0.020343930,-0.119881041,0.934079289
39.383584,10.036521912,121.844810486,-38.204662323,-0.017292172,-0.130379081,0.904782414
39.392475,10.036521912,121.844810486,-38.204662323,-0.017292172,-0.130379081,0.904782414
39.400213,1.430564880,111.568016052,-36.327831268,-0.019611508,-0.165169120,0.899167180
39.407911,-7.114356995,99.574607849,-35.213939667,-0.031452328,-0.143806815,0.898800969
39.416818,-11.630958557,86.848777771,-34.519664764,-0.049396664,-0.089363463,0.880612493
39.424645,-12.782997131,74.008506775,-33.794872284,-0.056965023,-0.072761901,0.896359563
39.447086,-9.563392639,44.917625427,-33.680431366,-0.083820492,-0.098396666,0.967892766
39.454890,-10.150856018,21.571678162,-36.961071014,-0.153278500,-0.148567557,0.986325383
39.462567,-13.904518127,-4.482704163,-31.216136932,-0.194416195,-0.157966971,1.124142766
39.471436,-13.904518127,-4.482704163,-31.216136932,-0.194416195,-0.157966971,1.124142766
39.479174,-18.726295471,-30.498939514,-22.846691132,-0.232135922,-0.070442565,1.064084172
39.486862,-21.289772034,-54.844337463,-20.115367889,-0.196857601,-0.042488463,1.147214055
39.495754,-22.350257874,-80.799537659,-19.154064178,-0.191486508,-0.014168151,1.206906438
39.503491,-16.963905334,-101.063209534,-14.027111053,-0.181476742,-0.001350768,1.229123235
39.511172,-16.963905334,-101.063209534,-14.027111053,-0.181476742,-0.001350768,1.229123235
39.520126,-7.884925842,-113.468605042,-6.161205292,-0.123127133,0.003776185,1.215573430
39.527898,-1.621192932,-118.175941467,-2.224437714,-0.030841976,-0.010017760,1.189084172
39.535604,-0.530189514,-115.414100647,-4.230968475,0.039714664,-0.029793151,1.178341985
39.544497,-1.903480530,-106.708961487,-8.717052460,0.074504703,-0.040291198,1.157834172
39.552232,-5.298561096,-93.136268616,-12.875072479,0.093303531,-0.025642760,1.125607610
39.559931,-5.298561096,-93.136268616,-12.875072479,0.093303531,-0.025642760,1.125607610
39.568830,-9.067481995,-76.427894592,-17.170421600,0.103679508,-0.021736510,1.136227727
39.576568,-10.745948792,-57.369667053,-24.075023651,0.120403141,-0.015877135,1.161862493
39.584260,-10.623878479,-39.257484436,-31.460277557,0.098430485,0.000968568,1.167843938
39.593144,-8.106178284,-22.503334045,-37.922374725,0.065349430,-0.005134948,1.191769719
39.600959,-8.106178284,-22.503334045,-37.922374725,0.065349430,-0.005134948,1.191769719
39.608698,-3.589576721,-8.961158752,-39.974681854,0.021892399,-0.030281432,1.219845891
39.617610,-0.514930725,1.102012634,-38.654796600,0.013591617,-0.039558776,1.236691594
39.625350,0.209861755,8.380455017,-38.364879608,0.030071110,-0.029915221,1.250851750
39.633053,0.621849060,16.223472595,-38.937084198,0.058391422,0.001823060,1.282345891
39.641928,3.475242615,26.156944275,-39.867870331,0.093791813,0.045035951,1.292966008
39.649663,3.475242615,26.156944275,-39.867870331,0.093791813,0.045035951,1.292966008
39.657353,9.059959412,37.189048767,-43.186656952,0.125896305,0.081901185,1.293088078
39.666238,16.758018494,47.664207458,-48.794261932,0.135173649,0.093497865,1.281125188
39.673971,24.494224548,55.743736267,-53.684703827,0.113811344,0.087516420,1.244382024
39.681748,31.047874451,61.076683044,-55.851451874,0.080730289,0.058951966,1.210324407
39.690667,31.047874451,61.076683044,-55.851451874,0.080730289,0.058951966,1.210324407
39.698428,36.052757263,63.037437439,-56.210033417,0.058147281,0.038200013,1.157590032
39.706134,36.571556091,62.381309509,-56.316844940,0.045940250,0.018302552,1.124386907
39.715029,37.509971619,60.763877869,-55.935375214,0.044597477,-0.003914244,1.111569524
39.722772,39.363914490,58.589500427,-56.133739471,0.049724430,-0.011360534,1.087277532
39.730470,39.363914490,58.589500427,-56.133739471,0.049724430,-0.011360534,1.087277532
39.739359,40.599876404,56.003135681,-57.690135956,0.052898258,-0.013191588,1.051755071
39.747099,42.316490173,52.325767517,-59.566967010,0.043376774,-0.029182799,1.030148625
39.754798,43.300682068,46.962303162,-60.131542206,0.021648258,-0.039436705,1.017209172
39.763770,43.247276306,40.339988708,-58.460704803,-0.003009945,-0.040169127,1.011349797
39.771542,43.384605408,32.313865662,-56.652538300,-0.020588070,-0.021492369,1.001217961
39.779251,43.384605408,32.313865662,-56.652538300,-0.020588070,-0.021492369,1.001217961
39.788133,44.673973083,23.517173767,-56.652538300,-0.030841976,-0.005989440,0.995724797
39.795881,47.534996033,13.812583923,-56.637279510,-0.060138851,-0.008552916,0.976559758
39.803565,49.388938904,3.161949158,-54.592601776,-0.085163265,-0.018318541,0.944699407
39.812449,48.687034607,-8.594947815,-52.349559784,-0.088459164,-0.036262877,0.921872258
39.848881,37.624412537,-41.988807678,-48.672191620,-0.087360531,-0.030159362,0.931149602
39.857894,34.725242615,-50.533729553,-47.482006073,-0.071369320,0.002799623,0.935544133
39.865621,33.245140076,-57.323890686,-47.955028534,-0.056354672,0.034415834,0.926877141
39.873383,32.756858826,-62.923866272,-49.541942596,-0.048053890,0.052970521,0.922970891
39.882313,32.993370056,-67.730384827,-50.938121796,-0.050617367,0.055289857,0.922848821
39.890053,32.993370056,-67.730384827,-50.938121796,-0.050617367,0.055289857,0.922848821
39.897735,33.229881287,-71.926551819,-51.029674530,-0.058063656,0.040885560,0.916012883
39.906636,31.177574158,-75.748878479,-50.693981171,-0.055500180,0.033439271,0.901364446
39.914374,26.638084412,-78.800636292,-50.091259003,-0.046711117,0.026969545,0.907956243
39.922057,21.427207947,-80.151039124,-49.763195038,-0.027912289,0.039542787,0.920895696
39.930931,16.796165466,-79.906898499,-50.884716034,-0.005939633,0.065543763,0.935788274
39.938654,16.796165466,-79.906898499,-50.884716034,-0.005939633,0.065543763,0.935788274
39.946331,14.911705017,-77.717262268,-52.242748260,0.003703922,0.082389466,0.942380071
39.955307,15.529685974,-74.337440491,-53.745738983,0.009807438,0.087638490,0.927487493
39.963063,16.239219666,-70.927101135,-55.698863983,0.007121891,0.069450013,0.907590032
39.970760,14.339500427,-67.944007874,-56.034557343,-0.004108578,0.036368959,0.898800969
39.979661,9.731346130,-64.770179749,-54.745189667,0.002727360,0.013053529,0.906979680
39.987403,9.731346130,-64.770179749,-54.745189667,0.002727360,0.013053529,0.906979680
39.995097,3.902488708,-60.306983948,-53.631298065,0.028606266,0.006339662,0.931027532
40.003997,-0.308937073,-52.952247620,-54.356090546,0.064861149,0.024650209,0.947873235
40.011719,-1.285499573,-43.415504456,-57.980052948,0.094524235,0.044669740,0.952878118
40.019410,-0.804847717,-33.070045471,-62.763683319,0.091350406,0.055411927,0.942990422
40.028311,-0.804847717,-33.070045471,-62.763683319,0.091350406,0.055411927,0.942990422
40.036116,-0.682777405,-23.540931702,-65.929885864,0.067058414,0.045646302,0.941403508
40.043872,-0.415748596,-16.102272034,-67.547317505,0.041179508,0.022208802,0.941769719
40.052782,-0.148719788,-11.036354065,-68.134780884,0.012981266,0.002311341,0.929684758
40.060517,-1.522010803,-7.633644104,-67.074295044,-0.000812680,-0.005134948,0.911862493
40.068218,-1.522010803,-7.633644104,-67.074295044,-0.000812680,-0.005134948,0.911862493
40.077101,-4.589027405,-5.268531799,-65.243240356,0.014446110,-0.000862487,0.901730657
40.084842,-8.144325256,-2.453285217,-65.418716431,0.048381656,0.010734193,0.919308782
40.092535,-9.830421448,1.826805115,-67.593093872,0.069621891,0.023551576,0.947629094
40.101426,-8.541053772,7.808250427,-69.805618286,0.076213688,0.034904115,0.957394719
40.109148,-7.099098206,14.140647888,-72.628494263,0.079875797,0.034293763,0.947629094
40.116923,-7.099098206,14.140647888,-72.628494263,0.079875797,0.034293763,0.947629094
40.125854,-7.251686096,18.313926697,-75.474258423,0.062419742,0.013541810,0.948117375
40.133601,-7.228797913,20.717185974,-75.939651489,0.035198063,-0.014412291,0.943844914
40.141304,-6.397193909,20.785850525,-76.961990356,0.022380680,-0.043342955,0.939572453
40.150202,-6.282752991,18.207115173,-77.457901001,-0.002155453,-0.066780455,0.925168157
40.157935,-6.282752991,18.207115173,-77.457901001,-0.002155453,-0.066780455,0.925168157
40.165632,-8.388465881,14.117759705,-76.023574829,-0.014606625,-0.070930846,0.907712102
40.174533,-12.210792542,9.669822693,-74.162002563,-0.008381039,-0.058357604,0.897580266
40.182265,-15.262550354,5.893272400,-73.009963989,0.002849430,-0.028694518,0.894772649
40.189964,-16.590065002,3.787559509,-73.276992798,0.016399235,0.015494935,0.892087102
40.198924,-16.689247131,2.627891541,-76.168533325,0.013347477,0.048209779,0.893185735
40.206680,-16.689247131,2.627891541,-76.168533325,0.013347477,0.048209779,0.893185735
40.214386,-14.858192444,0.888389587,-78.251358032,-0.014728695,0.049674623,0.920773625
40.223289,-10.822242737,-1.400428772,-76.961990356,-0.040119320,0.025138490,0.945431828
40.247440,-9.342140198,-8.472877502,-73.917861938,-0.032062680,-0.019050963,0.940915227
40.255237,-12.241310120,-13.027626038,-73.086257935,-0.018146664,-0.041267760,0.964963078
40.262910,-13.606971741,-17.948585510,-73.276992798,-0.010456234,-0.054207213,0.987790227
40.271788,-12.020057678,-22.602516174,-73.605056763,-0.008625180,-0.066902526,1.007565618
40.279544,-9.845680237,-26.958900452,-72.842117310,-0.008136898,-0.059090026,0.978757024
40.287205,-9.845680237,-26.958900452,-72.842117310,-0.008136898,-0.059090026,0.978757024
40.296164,-8.754676819,-31.300025940,-72.468276978,-0.004718930,-0.062630065,0.958615422
40.303928,-7.366127014,-36.816078186,-72.803970337,-0.016803890,-0.084236510,0.943722844
40.311631,-7.068580627,-42.126136780,-72.796340942,-0.023761898,-0.090950377,0.930905461
40.320523,-7.274574280,-47.543006897,-72.704788208,-0.041950375,-0.085579284,0.918942571
40.328259,-7.930702209,-52.692848206,-70.621963501,-0.058551937,-0.082039244,0.922604680
40.335934,-7.930702209,-52.692848206,-70.621963501,-0.058551937,-0.082039244,0.922604680
40.344819,-8.373207092,-57.850318909,-69.996353149,-0.036823422,-0.059700377,0.925534368
40.352560,-7.327980042,-63.824134827,-71.995254517,-0.031208187,-0.054573424,0.935299993
40.360244,-5.458778381,-70.118385315,-72.193618774,-0.037067562,-0.042244323,0.942624211
40.369127,-5.290931702,-75.985389709,-71.278091431,-0.021442562,-0.015510924,0.933224797
40.376948,-5.290931702,-75.985389709,-71.278091431,-0.021442562,-0.015510924,0.933224797
40.384685,-5.542701721,-80.723243713,-72.704788208,0.004070133,-0.015144713,0.943600774
40.393592,-5.969947815,-84.438758850,-74.718948364,0.010173649,-0.005867369,0.931637883
40.401328,-8.373207092,-86.056190491,-73.620315552,0.027141422,0.014518373,0.942258000
40.409023,-10.669654846,-85.850196838,-73.681350708,0.065349430,0.024772279,0.960690618
40.417917,-12.203163147,-83.294349670,-75.932022095,0.096965641,0.020866029,0.987057805
40.425652,-12.203163147,-83.294349670,-75.932022095,0.096965641,0.020866029,0.987057805
40.433337,-12.790626526,-79.365211487,-78.205581665,0.125041813,0.013297670,1.029172063
40.442231,-11.829322815,-76.954322815,-82.996841431,0.119792789,0.007926576,1.022580266
40.449967,-10.829872131,-78.533607483,-88.596817017,0.108928531,-0.005867369,1.021115422
40.457727,-8.777565002,-79.769569397,-88.116165161,0.057903141,-0.053596862,1.010373235
40.466649,-8.777565002,-79.769569397,-88.116165161,0.057903141,-0.053596862,1.010373235
40.474397,-5.573219299,-79.761940002,-82.302566528,0.092449039,-0.082893737,0.994504094
40.482086,-6.107276917,-79.136329651,-81.196304321,0.139812320,-0.092659362,0.929074407
40.490982,-15.888160706,-80.387550354,-84.972854614,0.163005680,-0.138679862,0.852048039
40.498718,-29.964393616,-82.264381409,-87.482925415,0.163616031,-0.093757994,0.876217961
40.506406,-29.964393616,-82.264381409,-87.482925415,0.163616031,-0.093757994,0.876217961
40.515304,-33.969825745,-82.836585999,-86.262222290,0.160198063,-0.006477721,0.946896672
40.523042,-32.405799866,-79.739051819,-84.148880005,0.171794742,0.014396302,0.942746282
40.530722,-25.463050842,-74.688392639,-84.232803345,0.213420719,-0.000374205,0.930295110
40.539691,-18.444007874,-69.248634338,-83.157058716,0.231853336,-0.092171080,0.925168157
40.547456,-24.074501038,-59.063392639,-83.988662720,0.315837711,-0.250618339,0.912106633
40.555159,-24.074501038,-59.063392639,-83.988662720,0.315837711,-0.250618339,0.912106633
40.564052,-40.264076233,-47.871070862,-89.291091919,0.276286930,-0.224251151,0.941037297
40.571797,-42.232460022,-33.558326721,-89.619155884,0.216350406,-0.141365409,1.007321477
40.579487,-38.585609436,-16.605812073,-83.553787231,0.208171695,-0.098640807,1.031003118
40.588386,-38.654273987,3.978294373,-82.355972290,0.273601383,-0.034920104,1.002194524
40.596118,-42.858070374,23.456138611,-88.253494263,0.296062320,0.025382631,0.970456243
40.603816,-42.858070374,23.456138611,-88.253494263,0.296062320,0.025382631,0.970456243
40.612712,-43.933815002,50.403160095,-98.972793579,0.320720524,0.000236146,1.023678899
40.620528,-39.188331604,75.015586853,-107.540603638,0.299358219,-0.048836119,1.094967961
40.644949,-25.485939026,112.887901306,-125.065322876,0.144939274,-0.140755057,1.141110539
40.652760,-29.399818420,117.198509216,-131.367202759,0.013347477,-0.229988456,1.093991399
40.660451,-35.724586487,113.147300720,-129.795547485,-0.138507992,-0.229744315,1.141598821
40.669333,-33.389991760,102.389854431,-120.098587036,-0.229328305,-0.176033378,1.227048039
40.677070,-28.064674377,88.740867615,-108.883377075,-0.246051937,-0.136238456,1.262814641
40.684754,-28.064674377,88.740867615,-108.883377075,-0.246051937,-0.136238456,1.262814641
40.693636,-25.623268127,72.894615173,-101.391311646,-0.209308773,-0.069954284,1.272946477
40.701379,-23.006385803,58.314842224,-97.805496216,-0.185138851,-0.017586119,1.266110539
40.709062,-19.229835510,47.099632263,-93.571182251,-0.166950375,0.020499818,1.236813664
40.718033,-15.827125549,38.325828552,-86.857315063,-0.140461117,0.042350404,1.205441594
40.725818,-12.348121643,29.918235779,-83.279129028,-0.107868344,0.045402162,1.159421086
40.733513,-12.348121643,29.918235779,-83.279129028,-0.107868344,0.045402162,1.159421086
40.742412,-10.196632385,20.679039001,-82.050796509,-0.124103695,0.029777162,1.086056828
40.750151,-10.257667542,10.890525818,-76.885696411,-0.158649594,0.011710756,1.024533391
40.757846,-13.423866272,0.621360779,-69.195266724,-0.159992367,0.004142396,0.999142766
40.766727,-17.513221741,-8.991676331,-63.808910370,-0.135090023,0.005485170,1.009884953
40.774463,-17.513221741,-8.991676331,-63.808910370,-0.135090023,0.005485170,1.009884953
40.782151,-19.283241272,-15.194374084,-61.687938690,-0.117023617,0.036979310,1.023800969
40.791035,-18.825477600,-17.155128479,-58.575145721,-0.098102719,0.083366029,1.015378118
40.798858,-17.085975647,-14.027076721,-56.316844940,-0.057697445,0.106559388,1.017819524
40.806597,-12.584632874,-7.519203186,-58.033458710,-0.017536312,0.088492982,1.033810735
40.815502,-7.038063049,1.071495056,-61.977855682,-0.006794125,0.044791810,1.042843938
40.823237,-7.038063049,1.071495056,-61.977855682,-0.006794125,0.044791810,1.042843938
40.830927,-5.512184143,10.432762146,-64.014907837,-0.010700375,0.003287904,1.040280461
40.839816,-8.846229553,18.825096130,-64.938064575,-0.011188656,-0.015266784,1.043820500
40.847558,-14.636940002,24.699729919,-65.609451294,-0.012775570,-0.005745299,1.061886907
40.855260,-19.412940979,29.124778748,-65.876480103,-0.023273617,0.037711732,1.092770696
40.864147,-19.412940979,29.124778748,-65.876480103,-0.023273617,0.037711732,1.092770696
40.871884,-19.374794006,34.251731873,-65.014358521,-0.013630062,0.096305482,1.119504094
40.879655,-14.568275452,39.378684998,-66.433425903,0.003337711,0.137565255,1.123898625
40.888579,-7.488197327,43.529075623,-69.431777954,0.006267399,0.148429513,1.108395696
40.896334,0.782066345,46.344322205,-71.812149048,-0.000324398,0.113517396,1.088376164
40.904032,0.782066345,46.344322205,-71.812149048,-0.000324398,0.113517396,1.088376164
40.912915,7.099205017,46.557945251,-73.956008911,-0.018390805,0.050040834,1.060788274
40.920651,9.372764587,43.979209900,-74.650283813,-0.047199398,-0.008064635,1.048215032
40.928348,8.045249939,39.790672302,-72.720046997,-0.071735531,-0.038582213,1.029904485
40.937250,3.559165955,34.846824646,-70.736404419,-0.076130062,-0.035652526,1.019406438
40.944981,-0.087684631,30.009788513,-70.950027466,-0.071003109,-0.000984557,1.021359563
40.952677,-0.087684631,30.009788513,-70.950027466,-0.071003109,-0.000984557,1.021359563
40.961646,-1.224464417,25.340599060,-71.644302368,-0.063923031,0.059684388,1.013913274
40.969413,-1.827186584,18.840354919,-72.964187622,-0.045490414,0.106803529,1.020138860
40.977114,5.306297302,12.515586853,-74.589248657,-0.065754086,0.100089662,1.050900578
40.986027,14.980369568,7.724327087,-73.276992798,-0.081257015,0.090690248,1.020505071
40.993763,14.980369568,7.724327087,-73.276992798,-0.081257015,0.090690248,1.020505071
41.001442,18.383079529,2.460044861,-73.376174927,-0.083698422,0.051261537,0.999264836
41.010337,16.956382751,-5.581336975,-73.658462524,-0.117633969,-0.001350768,1.015500188
41.034942,12.874656677,-31.513648987,-63.076488495,-0.144733578,-0.021736510,1.006589055
41.042738,12.874656677,-31.513648987,-63.076488495,-0.144733578,-0.021736510,1.006589055
41.050421,11.013084412,-38.212257385,-63.717357635,-0.132160336,0.017081849,0.965329289
41.059396,10.524803162,-43.819862366,-64.671035767,-0.135822445,0.020133607,0.955075383
41.067156,11.188560486,-48.031288147,-64.190383911,-0.139118344,0.037711732,0.935177922
41.074856,9.235435486,-51.495033264,-63.320629120,-0.133381039,0.061515443,0.926144719
41.083756,7.358604431,-54.722267151,-63.724987030,-0.139484555,0.074943177,0.919186711
41.091494,7.358604431,-54.722267151,-63.724987030,-0.139484555,0.074943177,0.919186711
41.099188,6.458335876,-57.613807678,-63.145153046,-0.147052914,0.085197084,0.919674993
41.108070,5.535179138,-59.566932678,-60.368053436,-0.148273617,0.084952943,0.930173039
41.115817,3.704124451,-60.337501526,-58.063976288,-0.129963070,0.100211732,0.914425969
41.123504,0.568443298,-59.872108459,-57.713024139,-0.122516781,0.107169740,0.908932805
41.132390,0.568443298,-59.872108459,-57.713024139,-0.122516781,0.107169740,0.908932805
41.140203,-2.033180237,-57.560401917,-56.301586151,-0.121662289,0.105094545,0.924069524
41.147952,-3.940528870,-53.867774963,-55.759899139,-0.112262875,0.112418763,0.920895696
41.156869,-7.389015198,-50.091224670,-56.507579803,-0.116535336,0.127799630,0.910641789
41.164611,-11.577552795,-45.551734924,-55.683605194,-0.131916195,0.146720529,0.904904485
41.172324,-11.577552795,-45.551734924,-55.683605194,-0.131916195,0.146720529,0.904904485
41.181224,-14.614051819,-39.097267151,-52.807323456,-0.132160336,0.151603341,0.912839055
41.188960,-14.118141174,-30.453163147,-50.312511444,-0.118000180,0.129630685,0.933468938
41.196665,-10.639137268,-20.046669006,-50.327770233,-0.107868344,0.088126771,0.948605657
41.205576,-8.380836487,-8.465248108,-50.899974823,-0.110309750,0.043204896,0.942258000
41.213304,-10.585731506,2.414268494,-51.350109100,-0.119098812,-0.010994323,0.943966985
41.221078,-10.585731506,2.414268494,-51.350109100,-0.119098812,-0.010994323,0.943966985
41.230010,-14.171546936,12.172264099,-52.074901581,-0.147297055,-0.052498229,0.951291203
41.237758,-17.360633850,20.625633240,-49.969188690,-0.178302914,-0.071907409,0.947751164
41.245461,-21.343177795,29.262107849,-47.092906952,-0.176960140,-0.065437682,0.947507024
41.254357,-24.860328674,38.386863708,-47.482006073,-0.159870297,-0.048714049,0.972165227
41.262093,-24.860328674,38.386863708,-47.482006073,-0.159870297,-0.048714049,0.972165227
41.269806,-25.814002991,47.160667419,-49.221508026,-0.160358578,-0.025398619,0.985226750
41.278704,-23.174232483,53.485435486,-49.274913788,-0.168049008,-0.007210143,0.985959172
41.286435,-20.397132874,58.215660095,-47.749034882,-0.177204281,-0.008186705,0.985837102
41.294135,-18.726295471,62.076133728,-47.428600311,-0.180500180,-0.019050963,0.982907414
41.303106,-19.824928284,66.203636169,-47.207347870,-0.196369320,-0.031868346,1.001462102
41.310864,-19.824928284,66.203636169,-47.207347870,-0.196369320,-0.031868346,1.001462102
41.318578,-18.985694885,71.712059021,-45.605175018,-0.203327328,-0.053108580,1.047604680
41.327492,-15.842384338,77.342552185,-45.200817108,-0.189533383,-0.046150573,1.042355657
41.335231,-16.132301331,83.644432068,-46.505443573,-0.186481625,-0.015632994,1.002560735
41.342938,-18.032020569,90.251487732,-47.482006073,-0.185016781,0.015739076,0.987668157
41.351834,-16.048377991,95.614952087,-48.557750702,-0.189045101,-0.013801940,1.020871282
41.359568,-16.048377991,95.614952087,-48.557750702,-0.189045101,-0.013801940,1.020871282
41.367275,-9.906715393,96.225303650,-49.664012909,-0.203571469,-0.065803893,1.036618352
41.376158,-8.922523499,90.610069275,-50.320140839,-0.236652523,-0.088386901,1.036008000
41.383975,-12.981361389,79.989952087,-47.298900604,-0.276935726,-0.083504088,1.054684758
41.391721,-17.787879944,67.180198669,-39.539806366,-0.302326351,-0.053718932,1.091061711
41.400643,-17.787879944,67.180198669,-39.539806366,-0.302326351,-0.053718932,1.091061711
41.408397,-16.262001038,54.904502869,-32.825939178,-0.272052914,-0.026497252,1.141720891
41.433206,-3.795570374,14.232200623,-23.922435760,-0.277179867,0.055045716,1.052853703
41.441004,-3.795570374,14.232200623,-23.922435760,-0.277179867,0.055045716,1.052853703
41.448686,-6.641334534,0.926536560,-20.878307343,-0.256672055,0.089347474,1.033078313
41.457572,-8.655494690,-9.830909729,-19.558422089,-0.262409359,0.104728334,1.052731633
41.465312,-4.390663147,-18.635231018,-17.551891327,-0.266559750,0.078727357,1.104733586
41.473004,4.871421814,-27.965980530,-15.560619354,-0.276081234,0.004142396,1.120602727
41.481984,10.845237732,-41.508155823,-11.890880585,-0.274982601,-0.089241393,1.139035344
41.489748,10.845237732,-41.508155823,-11.890880585,-0.274982601,-0.089241393,1.139035344
41.497461,12.470298767,-57.690101624,-10.120861053,-0.285724789,-0.141853690,1.104123235
41.506369,10.982566833,-77.358680725,-7.717601776,-0.300495297,-0.178352714,1.087399602
41.514105,6.412559509,-98.682838440,-1.400463104,-0.312946469,-0.179817557,1.067135930
41.521808,0.888877869,-118.656593323,7.037647247,-0.280109555,-0.147957206,1.070798039
41.530698,0.888877869,-118.656593323,7.037647247,-0.280109555,-0.147957206,1.070798039
41.538438,-3.589576721,-135.693023682,13.965137482,-0.220539242,-0.083626159,1.068600774
41.546145,-6.244606018,-148.052642822,16.543872833,-0.141315609,0.006217591,1.050534368
41.555039,-5.107826233,-155.918548584,16.055591583,-0.085041195,0.066032045,1.044674993
41.562859,0.095420837,-160.129974365,14.300830841,-0.040119320,0.087150209,1.065182805
41.570598,6.610923767,-162.037322998,11.897571564,-0.012775570,0.074821107,1.082883000
41.579510,6.610923767,-162.037322998,11.897571564,-0.012775570,0.074821107,1.082883000
41.587249,11.188560486,-162.174652100,10.180957794,0.007976383,0.052970521,1.098263860
41.594960,13.217979431,-159.153411865,11.043079376,0.025554508,0.012565248,1.114010930
41.603861,15.323692322,-150.570343018,13.972766876,0.070720524,-0.052132018,1.136349797
41.611606,13.515525818,-136.684844971,14.651782990,0.138469547,-0.054573424,1.095822453
41.619305,13.515525818,-136.684844971,14.651782990,0.138469547,-0.054573424,1.095822453
41.628202,3.772789001,-121.921974182,9.158618927,0.172893375,0.003043763,1.013058782
41.635929,-6.504005432,-107.006507874,3.573902130,0.154338688,0.039420716,1.002926946
41.643699,-6.397193909,-89.405494690,4.519947052,0.126140445,0.042472474,1.033566594
41.652620,0.515037537,-68.165260315,6.541736603,0.137492985,0.053825013,1.012692571
41.660362,7.251792908,-45.727210999,3.573902130,0.174968570,0.024650209,0.980710149
41.668068,7.251792908,-45.727210999,3.573902130,0.174968570,0.024650209,0.980710149
41.676954,9.021812439,-23.487525940,-3.948680878,0.181072086,-0.019417174,0.941891789
41.684686,5.855613708,-2.949195862,-7.969371796,0.156413883,-0.098762877,0.977536321
41.692368,3.353172302,15.407127380,-7.885448456,0.158244938,-0.140266776,0.994137883
41.701259,0.110679626,31.779808044,-11.349193573,0.191081852,-0.142708182,1.008053899
41.708995,0.110679626,31.779808044,-11.349193573,0.191081852,-0.142708182,1.008053899
41.716690,-1.178688049,48.816246033,-16.499034882,0.215007633,-0.144783378,0.983029485
41.725658,0.354820251,68.622154236,-22.175304413,0.245036930,-0.145149589,0.940426946
41.733416,-5.535072327,90.259117126,-31.246654510,0.299968570,-0.035896666,0.855343938
41.741125,-19.039100647,108.897727966,-43.201915741,0.258464664,0.010612123,0.879025578
41.750031,-18.558448792,124.049705505,-49.541942596,0.203899235,-0.005745299,0.940182805
41.757772,-18.558448792,124.049705505,-49.541942596,0.203899235,-0.005745299,0.940182805
41.765469,-12.058204651,132.800628662,-51.670543671,0.148357242,0.014152162,0.960446477
41.774371,-6.664222717,135.379364014,-53.333751678,0.092937320,0.021964662,0.964596868
41.782107,-3.566688538,131.358673096,-52.189342499,0.019450992,0.004020326,0.961911321
41.789812,-1.827186584,123.401206970,-45.849315643,-0.006549984,-0.012947448,0.940426946
41.798711,-1.827186584,123.401206970,-45.849315643,-0.006549984,-0.012947448,0.940426946
41.806523,-1.712745667,115.108055115,-40.119640350,0.012859195,-0.039802916,0.930050969
41.826721,-5.763954163,95.332664490,-40.913097382,0.042034000,-0.084968932,0.958859563
41.834514,-7.106727600,84.590476990,-42.179576874,0.028606266,-0.088508971,0.977658391
41.842203,-8.060401917,73.390525818,-41.958324432,0.012737125,-0.070930846,0.973508000
41.851066,-8.769935608,61.160606384,-40.646068573,-0.001789242,-0.039314635,0.957638860
41.858818,-8.769935608,61.160606384,-40.646068573,-0.001789242,-0.039314635,0.957638860
41.866493,-7.694190979,48.442405701,-38.670055389,-0.001300961,-0.025398619,0.967892766
41.875355,-4.222816467,35.647911072,-36.449901581,0.014812320,-0.006477721,0.970700383
41.883088,1.331382751,19.580406189,-38.723461151,-0.038776547,-0.036995299,0.982297063
41.890768,6.519371033,2.933067322,-38.807384491,-0.085163265,-0.063362487,0.967770696
41.899721,11.409812927,-15.087562561,-33.161632538,-0.126300961,-0.109749205,0.957028508
41.907490,11.409812927,-15.087562561,-33.161632538,-0.126300961,-0.109749205,0.957028508
41.915198,14.476829529,-31.124549866,-26.203624725,-0.106403500,-0.153572440,0.934689641
41.924093,9.822898865,-44.048744202,-25.288097382,-0.043049008,-0.176399589,0.858517766
41.931836,2.033287048,-57.392555237,-30.422679901,-0.049030453,-0.142586112,0.892819524
41.939512,-2.513832092,-72.575050354,-30.979625702,-0.118000180,-0.080452330,0.958981633
41.948399,-2.773231506,-89.046913147,-25.280467987,-0.154255062,-0.038338073,1.019894719
41.956134,-2.773231506,-89.046913147,-25.280467987,-0.154255062,-0.038338073,1.019894719
41.963830,0.957542419,-105.556922913,-17.490856171,-0.148639828,0.012443177,1.035763860
41.972720,6.534629822,-119.015174866,-11.158458710,-0.118854672,0.028312318,1.023800969
41.980541,12.081199646,-129.444549561,-7.664196014,-0.082843930,0.030021302,1.006711125
41.988273,15.178733826,-136.394927979,-5.009166718,-0.047931820,-0.011970885,0.993039250
41.997158,15.178733826,-136.394927979,-5.009166718,-0.047931820,-0.011970885,0.993039250
42.004903,16.239219666,-137.310455322,-1.240245819,-0.003620297,-0.059212096,0.989987493
42.012600,14.141136169,-131.046722412,1.422412872,0.075115055,-0.137459159,1.016598821
42.021491,3.368431091,-116.962867737,-3.223888397,0.167888492,-0.219246268,0.989010930
42.029227,-5.710548401,-100.414710999,-12.653820038,0.175212711,-0.157234550,1.034909368
42.036925,-5.710548401,-100.414710999,-12.653820038,0.175212711,-0.157234550,1.034909368
42.045819,-9.677833557,-83.866554260,-19.001476288,0.137248844,-0.075447448,1.029172063
42.053562,-11.829322815,-67.951637268,-21.839611053,0.112346500,-0.042366393,1.042721868
42.061358,-11.501258850,-53.120094299,-22.732250214,0.100871891,-0.005257018,1.041623235
42.070278,-10.707801819,-37.922340393,-22.228710175,0.102458805,0.008536927,1.046994328
42.078036,-9.777015686,-21.183448792,-21.992198944,0.117229313,-0.010628112,1.074093938
42.085730,-9.777015686,-21.183448792,-21.992198944,0.117229313,-0.010628112,1.074093938
42.094635,-8.167213440,-3.345924377,-23.602001190,0.147624820,-0.011360534,1.098019719
42.102380,-6.084388733,15.056175232,-27.386180878,0.152751774,-0.004280455,1.073849797
42.110077,-4.108375549,32.702964783,-31.818859100,0.157024235,-0.001594909,1.034909368
42.118984,-4.390663147,46.329063416,-35.747997284,0.135417789,0.000480287,1.001217961
42.126721,-4.390663147,46.329063416,-35.747997284,0.135417789,0.000480287,1.001217961
42.134410,-5.138343811,56.346458435,-38.464061737,0.113323063,0.003654115,0.990353703
42.143380,-6.725257874,63.243431091,-38.509838104,0.092326969,0.009025209,0.988034368
42.151137,-8.418983459,68.423789978,-37.197582245,0.092449039,0.002555482,1.024899602
42.158845,-8.930152893,71.155113220,-36.503307343,0.101970524,-0.003792174,1.086423039
42.167753,-7.526344299,71.391624451,-36.694042206,0.095867008,0.008292787,1.109250188
42.175488,-7.526344299,71.391624451,-36.694042206,0.095867008,0.008292787,1.109250188
42.183174,-4.810279846,69.354576111,-36.083690643,0.075359195,0.036002748,1.076535344
42.192065,-1.361793518,65.211814880,-34.733287811,0.053508610,0.056266420,1.037106633
42.212538,2.315574646,50.273460388,-33.154003143,0.009807438,0.074576966,0.983273625
42.220339,2.941184998,40.637535095,-30.750743866,0.007732242,0.068229310,0.979733586
42.228015,2.933555603,30.993980408,-27.752391815,0.010417789,0.047965638,0.981442571
42.236986,2.712303162,21.525901794,-25.394908905,0.036418766,0.029044740,1.009396672
42.244743,2.712303162,21.525901794,-25.394908905,0.036418766,0.029044740,1.009396672
42.252447,2.315574646,11.844200134,-24.960033417,0.047405094,0.017570131,1.030270696
42.261343,1.415306091,2.070945740,-25.089733124,0.032024235,0.021476381,1.026974797
42.269073,1.064353943,-6.580787659,-24.097911835,0.011394352,0.040031068,1.026364446
42.276760,1.422935486,-13.897377014,-21.305553436,-0.006672055,0.064445131,0.995602727
42.285655,1.422935486,-13.897377014,-21.305553436,-0.006672055,0.064445131,0.995602727
42.293394,1.781517029,-20.611244202,-18.459789276,-0.000934750,0.077262513,0.980466008
42.301083,2.719932556,-26.012855530,-17.185680389,0.009929508,0.077628724,0.972043157
42.309975,3.704124451,-29.880958557,-16.849987030,0.024455875,0.079337709,0.966549993
