time,gyro x,gyro y,gyro z,accel x,accel y,accel z
18.140253,8.118453979,-3.813552856,-10.956436157,-0.162488893,0.045208372,1.012915254
18.140879,8.278671265,-4.141616821,-11.391311646,-0.165296510,0.039104857,1.013281465
18.141505,8.377853394,-4.500198364,-11.421829224,-0.163953736,0.035564817,1.019018769
18.142132,8.484664917,-4.744338989,-11.398941040,-0.163831666,0.034588255,1.017798066
18.142758,8.461776733,-4.866409302,-11.490493774,-0.167859986,0.031048218,1.016455293
18.143383,8.683029175,-5.209732056,-11.711746216,-0.166883424,0.028973022,1.021093965
18.144010,8.637252808,-5.377578735,-11.475234985,-0.167493775,0.026287476,1.023657441
18.144636,8.858505249,-5.644607544,-11.833816528,-0.167859986,0.021038452,1.021216035
18.145262,8.820358276,-5.690383911,-11.902481079,-0.171522096,0.021770874,1.024878144
18.145889,8.713546753,-5.965042114,-11.925369263,-0.171522096,0.017864624,1.025976777
18.146514,8.866134644,-6.193923950,-12.131362915,-0.171766236,0.016033569,1.026587129
18.147141,8.850875854,-6.491470337,-12.207656860,-0.175672486,0.012127319,1.027563691
18.147767,8.721176147,-6.323623657,-12.200027466,-0.178846315,0.011516968,1.031347871
18.148392,8.805099487,-6.506729126,-12.306838989,-0.177137330,0.008098999,1.035254121
18.149019,8.675399780,-6.750869751,-12.398391724,-0.179090455,0.002972046,1.037085176
18.150728,8.385482788,-7.002639771,-12.459426880,-0.174329713,-0.010089478,1.049048066
18.151355,8.309188843,-6.911087036,-12.543350220,-0.174451783,-0.012408813,1.055273652
18.151982,8.240524292,-6.872940063,-12.657791138,-0.175306275,-0.013385376,1.061865449
18.152607,7.805648804,-7.010269165,-12.596755981,-0.174940065,-0.013141235,1.065405488
18.153233,7.683578491,-6.911087036,-12.619644165,-0.182264283,-0.019244751,1.064917207
18.153858,7.134262085,-6.804275513,-12.573867798,-0.185682252,-0.022174438,1.069433808
18.154483,6.653610229,-7.132339478,-12.406021118,-0.187635377,-0.024127563,1.071020722
18.155108,6.333175659,-7.056045532,-12.299209595,-0.189466432,-0.030841431,1.074560761
18.155734,5.890670776,-6.949234009,-12.299209595,-0.193616822,-0.036456667,1.078833222
18.156359,5.051437378,-7.216262817,-12.322097778,-0.195081666,-0.043292604,1.082373261
18.156984,4.547897339,-7.086563110,-12.329727173,-0.199842408,-0.042193972,1.086157441
18.157609,4.174057007,-7.201004028,-11.994033813,-0.202283815,-0.048663698,1.085791230
18.171104,-2.593215942,-5.972671509,-8.919387817,-0.200086549,-0.119708620,1.184424043
18.171803,-2.806838989,-5.873489380,-8.492141724,-0.197156861,-0.121417604,1.191748261
18.172429,-3.073867798,-5.781936646,-8.286148071,-0.192151979,-0.120318972,1.199072480
18.173054,-3.348526001,-5.385208130,-8.133560181,-0.183607057,-0.118732058,1.204809785
18.173680,-3.462966919,-5.102920532,-8.057266235,-0.183607057,-0.117511354,1.208838105
18.174305,-3.951248169,-4.530715942,-7.584243774,-0.174329713,-0.117633425,1.215063691
18.174930,-4.561599731,-4.278945923,-7.706314087,-0.171155885,-0.118976198,1.220556855
18.175556,-4.927810669,-3.851699829,-7.202774048,-0.164564088,-0.114459597,1.228857636
18.176182,-5.339797974,-3.317642212,-7.103591919,-0.158460572,-0.112750612,1.233618379
18.176809,-6.049331665,-2.806472778,-6.935745239,-0.153455690,-0.112994753,1.237524629
18.177435,-6.552871704,-2.257156372,-6.889968872,-0.144666627,-0.110309206,1.239355683
18.178062,-7.476028442,-1.723098755,-6.523757935,-0.135877565,-0.106769167,1.246313691
18.178689,-8.078750610,-1.036453247,-6.355911255,-0.130506471,-0.109820925,1.250097871
18.179314,-8.864578247,-0.548171997,-5.943923950,-0.124769166,-0.106647097,1.251928926
18.179941,-9.711441040,0.329208374,-5.661636353,-0.114149049,-0.108356081,1.250586152
18.180566,-10.543045044,0.962448120,-5.501419067,-0.110609010,-0.106647097,1.255346894
18.181193,-11.595901489,1.626205444,-5.112319946,-0.106824830,-0.111041628,1.256201386
18.181818,-12.549575806,2.389144897,-4.814773560,-0.100355104,-0.109942995,1.255468965
18.182443,-13.213333130,3.106307983,-4.669815063,-0.098157838,-0.112018190,1.253271699
18.183069,-14.105972290,3.678512573,-4.242568970,-0.092298463,-0.113971315,1.252783418
18.183694,-14.937576294,4.319381714,-4.089981079,-0.088148072,-0.112140261,1.250342011
18.184320,-15.731033325,4.891586304,-3.853469849,-0.082532838,-0.116290651,1.247778535
18.184945,-16.448196411,5.433273315,-3.357559204,-0.083143190,-0.112872683,1.243506074
18.185572,-16.936477661,6.119918823,-3.258377075,-0.082654908,-0.115680300,1.240210176
18.186198,-17.447647095,6.547164917,-2.785354614,-0.078016236,-0.119464479,1.234961152
18.186824,-18.126663208,6.890487671,-2.525955200,-0.073743775,-0.118976198,1.229712129
18.187449,-18.515762329,7.287216187,-2.045303345,-0.068738893,-0.119830690,1.228125215
18.188075,-18.775161743,7.806015015,-2.007156372,-0.064344361,-0.120196901,1.224829316
18.188701,-18.820938110,7.935714722,-1.747756958,-0.062635377,-0.119586550,1.220190644
18.189328,-19.065078735,8.172225952,-1.541763306,-0.055921510,-0.119708620,1.213965058
18.189953,-19.103225708,8.500289917,-1.343399048,-0.051404908,-0.119952761,1.209936738
18.190579,-19.217666626,8.660507202,-1.061111450,-0.045911744,-0.118487917,1.208838105
18.191205,-18.714126587,8.729171753,-0.870376587,-0.038587525,-0.121783815,1.202734590
18.191830,-18.706497192,8.698654175,-0.855117798,-0.028699830,-0.121417604,1.200537324
18.192455,-18.317398071,8.530807495,-0.359207153,-0.021863893,-0.118121706,1.192114472
18.193081,-18.088516235,8.858871460,-0.488906860,-0.012952760,-0.117267214,1.188330293
18.193707,-17.394241333,8.767318726,-0.336318970,-0.005872682,-0.115314089,1.189917207
18.194333,-16.883071899,8.332443237,0.045150757,0.002428100,-0.112018190,1.185766816
18.194960,-16.524490356,8.568954468,0.243515015,0.017442748,-0.107623659,1.184057832
18.195585,-16.066726685,8.553695679,0.289291382,0.024034545,-0.106525026,1.182226777
18.196212,-15.441116333,8.202743530,0.487655640,0.032213256,-0.104693972,1.179785371
18.196838,-14.540847778,8.164596558,0.525802612,0.045030639,-0.098102175,1.179907441
18.197464,-14.220413208,8.393478394,0.830978394,0.053819701,-0.095172487,1.178198457
18.198091,-13.701614380,8.347702026,0.960678101,0.061632201,-0.084186159,1.178808808
18.198717,-13.182815552,8.027267456,1.113265991,0.070787475,-0.078326784,1.178076386
18.199343,-12.961563110,8.187484741,1.105636597,0.080186889,-0.069903933,1.180517793
18.199969,-12.465652466,8.240890503,1.456588745,0.087266967,-0.063067995,1.181372285
18.212586,-23.184951782,16.442489624,2.761215210,0.093248412,0.065227903,1.151953340
18.213332,-24.329360962,16.884994507,2.593368530,0.084459350,0.067791380,1.149267793
18.214008,-24.985488892,17.144393921,2.494186401,0.074327514,0.067058958,1.140722871
18.214635,-25.611099243,17.762374878,2.509445190,0.068834350,0.068279661,1.136938691
18.215261,-26.175674438,17.968368530,2.433151245,0.063341185,0.065838255,1.131445527
18.215888,-26.602920532,18.105697632,2.318710327,0.053331420,0.065105833,1.124365449
18.216513,-27.136978149,18.655014038,2.158493042,0.046373412,0.062054075,1.118750215
18.217138,-27.121719360,18.830490112,1.983016968,0.037950560,0.056927122,1.112158418
18.217763,-27.266677856,18.677902222,1.853317261,0.032457396,0.054851927,1.107397676
18.218388,-27.388748169,18.960189819,1.601547241,0.025987670,0.051556028,1.103491426
18.219013,-27.083572388,18.952560425,1.365036011,0.018785521,0.049114622,1.097387910
18.219638,-26.786026001,18.822860718,1.334518433,0.010606810,0.049724974,1.094092011
18.220263,-26.564773560,18.784713745,1.212448120,0.003892943,0.048382200,1.087622285
18.220889,-26.038345337,18.662643433,1.006454468,-0.005750611,0.046307005,1.080542207
18.221515,-25.336441040,18.067550659,1.036972046,-0.013318971,0.041912474,1.075781465
18.222141,-24.367507935,17.739486694,0.724166870,-0.019788697,0.037395872,1.069800019
18.222767,-23.635086060,17.548751831,0.449508667,-0.031019166,0.032390989,1.065283418
18.223393,-22.925552368,17.197799683,0.258773804,-0.039075807,0.028362671,1.058691621
18.224020,-22.185501099,16.846847534,0.136703491,-0.047864869,0.030437866,1.055884004
18.224645,-21.269973755,16.503524780,-0.229507446,-0.056653932,0.028728882,1.053808808
18.225272,-20.407852173,15.862655640,-0.305801392,-0.063978150,0.029705444,1.050146699
18.225897,-19.377883911,15.633773804,-0.748306274,-0.069715455,0.025188843,1.048071504
18.226524,-18.233474731,15.061569214,-1.053482056,-0.077405885,0.028362671,1.041113496
18.227149,-16.921218872,14.435958862,-1.343399048,-0.083021119,0.023479858,1.043188691
18.227776,-15.692886353,13.779830933,-1.618057251,-0.084974244,0.020916382,1.039892793
18.228402,-14.617141724,13.535690308,-1.892715454,-0.089124635,0.022503296,1.040014863
18.229027,-13.419326782,12.772750854,-2.213150024,-0.092420533,0.021160522,1.037817597
18.229654,-12.488540649,12.429428101,-2.800613403,-0.093763307,0.022991577,1.038550019
18.230279,-11.511978149,11.979293823,-3.090530396,-0.093763307,0.018963257,1.035009980
18.230904,-10.596450806,11.460494995,-3.121047974,-0.094984010,0.023235718,1.035742402
18.231529,-9.772476196,11.109542847,-3.616958618,-0.092298463,0.020183960,1.031836152
18.232154,-9.047683716,10.773849487,-3.655105591,-0.090955690,0.021770874,1.030005097
18.232781,-8.254226685,10.064315796,-4.059463501,-0.090955690,0.021282593,1.032812715
18.233407,-7.460769653,9.949874878,-4.181533813,-0.091077760,0.021038452,1.032080293
18.234039,-6.331619263,9.087753296,-4.570632935,-0.088514283,0.024700562,1.028662324
18.234665,-5.973037720,9.095382690,-4.570632935,-0.086439088,0.019451538,1.026709199
18.235290,-5.522903442,8.797836304,-4.929214478,-0.087781861,0.021282593,1.026342988
18.235915,-5.332168579,8.515548706,-4.959732056,-0.088026002,0.021282593,1.024023652
18.236540,-5.004104614,8.355331421,-5.051284790,-0.088758424,0.019817749,1.023779511
18.237165,-4.805740356,8.012008667,-5.341201782,-0.087781861,0.018230835,1.021460176
18.237792,-4.607376099,7.813644409,-5.318313599,-0.086072877,0.014812866,1.019873261
18.238418,-4.676040649,7.882308960,-5.562454224,-0.089612916,0.013470093,1.018774629
18.239045,-4.500564575,7.828903198,-5.669265747,-0.089246705,0.010662476,1.015234590
18.239670,-4.523452759,7.386398315,-5.829483032,-0.090223268,0.009807983,1.011450410
18.240295,-4.302200317,7.394027710,-5.776077271,-0.095106080,0.005779663,1.006445527
18.240920,-4.477676392,7.233810425,-6.043106079,-0.095228150,0.007244507,1.000219941
18.241547,-4.172500610,6.989669800,-5.737930298,-0.098768190,0.002239624,0.999609590
18.242182,-4.180130005,6.669235229,-6.058364868,-0.101575807,-0.002399048,0.995215058
18.255975,1.374069214,-6.491470337,-6.104141235,-0.114271119,-0.050128542,0.930639863
18.256673,1.595321655,-7.246780396,-6.111770630,-0.106946900,-0.051105104,0.933325410
18.257299,1.580062866,-7.635879517,-5.974441528,-0.105115846,-0.052936159,0.939550996
18.257925,1.702133179,-8.269119263,-5.875259399,-0.105604127,-0.052325808,0.943823457
18.258550,1.694503784,-8.948135376,-5.623489380,-0.101209596,-0.048907839,0.947363496
18.259175,1.747909546,-9.436416626,-5.615859985,-0.096815065,-0.049762331,0.950293183
18.259801,1.511398315,-9.863662720,-5.821853638,-0.095472291,-0.045856081,0.957007051
18.260427,1.427474976,-10.374832153,-5.364089966,-0.094129518,-0.050738893,0.963598847
18.261054,1.267257690,-11.061477661,-5.272537231,-0.090223268,-0.044025026,0.968359590
18.261680,1.015487671,-11.198806763,-5.310684204,-0.085706666,-0.045489870,0.976416230
18.262305,0.687423706,-11.633682251,-5.119949341,-0.086561158,-0.046832643,0.977636933
18.262931,0.588241577,-12.114334106,-4.845291138,-0.086561158,-0.046954714,0.986059785
18.263558,0.061813354,-12.335586548,-4.852920532,-0.082532838,-0.043658815,0.987646699
18.264184,-0.380691528,-12.327957153,-4.784255981,-0.078138307,-0.041949831,0.993017793
18.264811,-0.853713989,-12.640762329,-4.524856567,-0.073255494,-0.044635378,0.999853730
18.265437,-1.166519165,-13.052749634,-4.585891724,-0.069959596,-0.041095339,1.002905488
18.266062,-1.761611938,-12.915420532,-4.227310181,-0.069959596,-0.045978151,1.009619355
18.266687,-2.013381958,-12.999343872,-4.166275024,-0.063856080,-0.040118776,1.015600801
18.267313,-2.707656860,-13.266372681,-3.945022583,-0.061902955,-0.037921511,1.017431855
18.267938,-3.134902954,-12.900161743,-3.830581665,-0.062757447,-0.037189089,1.022070527
18.268564,-3.760513306,-13.014602661,-3.624588013,-0.057142213,-0.039630495,1.028296113
18.269189,-4.454788208,-12.999343872,-3.578811646,-0.056409791,-0.038898073,1.034521699
18.269815,-4.805740356,-12.953567505,-3.288894653,-0.056043580,-0.037555300,1.035254121
18.270440,-5.576309204,-12.717056274,-3.464370728,-0.054578736,-0.035235964,1.038305879
18.271066,-5.850967407,-12.625503540,-3.159194946,-0.052137330,-0.035235964,1.042944551
18.271691,-6.713088989,-12.404251099,-3.052383423,-0.051038697,-0.031573854,1.048071504
18.272316,-7.056411743,-12.327957153,-2.922683716,-0.051160768,-0.034137331,1.048803926
18.272941,-7.552322388,-12.007522583,-2.602249146,-0.049207643,-0.033526979,1.054297090
18.273566,-7.888015747,-11.725234985,-2.655654907,-0.047498658,-0.031940065,1.057104707
18.274193,-8.361038208,-11.702346802,-2.426773071,-0.048841432,-0.033404909,1.060278535
18.274818,-8.963760376,-11.259841919,-2.457290649,-0.049329713,-0.031329714,1.063330293
18.275445,-9.299453735,-11.168289185,-2.358108521,-0.050062135,-0.035113893,1.065405488
18.276071,-9.581741333,-11.069107056,-2.243667603,-0.051893190,-0.033404909,1.066504121
18.276696,-9.917434692,-10.535049438,-2.449661255,-0.048475221,-0.031207642,1.065649629
18.277323,-10.298904419,-10.779190063,-2.045303345,-0.048963502,-0.035358034,1.072241426
18.277949,-10.543045044,-10.191726685,-2.037673950,-0.049451783,-0.033038698,1.070166230
18.278576,-10.787185669,-10.283279419,-1.991897583,-0.048109010,-0.031817995,1.072607636
18.279202,-11.016067505,-10.145950317,-1.930862427,-0.048231080,-0.035724245,1.073584199
18.279828,-11.199172974,-9.939956665,-1.839309692,-0.043104127,-0.035602175,1.076269746
18.280453,-11.542495728,-9.634780884,-1.854568481,-0.040906861,-0.036090456,1.074316621
18.281079,-11.420425415,-9.505081177,-1.740127563,-0.041639283,-0.036334597,1.075415254
18.281705,-11.557754517,-9.222793579,-1.495986938,-0.038953736,-0.032916628,1.076269746
18.282331,-11.634048462,-9.291458130,-1.640945435,-0.037610963,-0.032672487,1.073706269
18.282957,-11.687454224,-9.161758423,-1.495986938,-0.035169557,-0.036334597,1.076513886
18.283582,-11.710342407,-8.986282349,-1.457839966,-0.031873658,-0.030963501,1.073584199
18.284209,-11.412796021,-8.978652954,-1.503616333,-0.027479127,-0.030231079,1.071875215
18.284834,-11.367019653,-8.795547485,-1.244216919,-0.023328736,-0.030109009,1.074804902
18.304129,-0.121292114,-4.690933228,-0.649124146,-0.031629518,-0.037311159,1.011938691
18.304835,0.290695190,-4.591751099,-0.824600220,-0.030897096,-0.036944948,1.005591035
18.305461,0.885787964,-4.813003540,-0.900894165,-0.033826783,-0.036212526,1.004736543
18.306088,1.648727417,-4.874038696,-0.748306274,-0.034437135,-0.036700808,1.000342011
18.306713,2.243820190,-4.797744751,-0.931411743,-0.039808229,-0.037677370,0.998022676
18.307340,3.159347534,-4.744338989,-0.908523560,-0.037366822,-0.039874636,0.993384004
18.307966,3.769699097,-5.018997192,-0.908523560,-0.039075807,-0.038653933,0.994726777
18.308591,4.700485229,-5.072402954,-0.931411743,-0.038465455,-0.038653933,0.990210176
18.309217,5.310836792,-5.484390259,-0.893264771,-0.041639283,-0.037189089,0.986914277
18.309842,5.928817749,-5.530166626,-1.053482056,-0.044324830,-0.036334597,0.985327363
18.310467,6.554428101,-5.812454224,-1.038223267,-0.044568971,-0.034381472,0.982519746
18.311092,6.897750854,-5.949783325,-0.702529907,-0.044568971,-0.032672487,0.980078340
18.311717,7.637802124,-6.148147583,-0.984817505,-0.044446900,-0.034503542,0.976050019
18.312344,8.042160034,-6.636428833,-0.969558716,-0.047498658,-0.031695925,0.973120332
18.312971,8.477035522,-7.101821899,-0.748306274,-0.048719361,-0.031573854,0.966040254
18.313596,8.827987671,-7.330703735,-1.030593872,-0.048231080,-0.030841431,0.962134004
18.314221,9.140792847,-7.773208618,-0.778823853,-0.051526979,-0.027179321,0.956884980
18.314846,9.316268921,-7.948684692,-0.755935669,-0.054456666,-0.029010376,0.951391816
18.315472,9.705368042,-8.177566528,-0.740676880,-0.050794557,-0.026324829,0.945044160
18.316151,9.980026245,-8.810806274,-0.717788696,-0.055433229,-0.025592407,0.943701386
18.316777,10.033432007,-8.963394165,-0.656753540,-0.058607057,-0.023517212,0.939428926
18.317403,10.071578979,-9.215164185,-0.481277466,-0.061170533,-0.023883423,0.936743379
18.318040,10.262313843,-9.802627563,-0.687271118,-0.060193971,-0.017047485,0.929175019
18.318666,10.422531128,-10.222244263,-0.572830200,-0.061902955,-0.016925415,0.920996308
18.319292,10.216537476,-10.634231567,-0.305801392,-0.059583619,-0.017657837,0.916845918
18.319918,10.262313843,-10.886001587,-0.298171997,-0.061170533,-0.014117798,0.916723847
18.320544,10.308090210,-11.351394653,-0.275283813,-0.065320924,-0.015948853,0.913305879
18.321170,10.430160522,-11.557388306,-0.397354126,-0.065931275,-0.008380493,0.907812715
18.321797,10.124984741,-12.038040161,-0.038772583,-0.070081666,-0.006671509,0.900610566
18.322422,10.018173218,-12.350845337,-0.099807739,-0.071058229,-0.002154907,0.902929902
18.323049,9.812179565,-12.701797485,0.045150757,-0.071546510,-0.005328735,0.899756074
18.323675,9.514633179,-12.923049927,0.045150757,-0.070692018,-0.002521118,0.896704316
18.324300,9.514633179,-13.670730591,0.113815308,-0.072523072,0.000774780,0.898291230
18.324927,9.362045288,-13.754653931,0.190109253,-0.071302369,0.002239624,0.895483613
18.325553,9.270492554,-14.044570923,0.098556519,-0.073987916,0.005047241,0.894629121
18.326178,8.705917358,-14.487075806,0.190109253,-0.076307252,0.006512085,0.898047090
18.326804,8.568588257,-14.876174927,0.113815308,-0.077650025,0.010784546,0.899145722
18.327429,8.080307007,-15.372085571,0.274032593,-0.074476197,0.012249390,0.898657441
18.328054,7.988754272,-15.593338013,0.373214722,-0.074476197,0.014202515,0.900488496
18.328681,7.683578491,-15.959548950,0.434249878,-0.078016236,0.014812866,0.902807832
18.329307,7.035079956,-16.440200806,0.319808960,-0.075208619,0.016888062,0.901098847
18.329933,6.508651733,-16.852188110,0.411361694,-0.074354127,0.020183960,0.904272676
18.330559,6.295028687,-17.226028442,0.579208374,-0.068738893,0.023113647,0.904516816
18.331186,5.631271362,-17.775344849,0.640243530,-0.067762330,0.023723999,0.911718965
18.331812,5.471054077,-18.072891235,0.830978394,-0.068860963,0.028240601,0.909887910
18.332437,4.845443726,-18.294143677,0.495285034,-0.068372682,0.025921265,0.912451386
18.333063,4.372421265,-18.774795532,0.769943237,-0.065442994,0.027630249,0.912573457
18.345727,-7.003005981,-24.039077759,0.991195679,-0.079725221,0.066326536,0.939184785
18.346454,-7.453140259,-24.069595337,1.067489624,-0.083387330,0.069500364,0.946264863
18.347101,-7.918533325,-24.176406860,1.235336304,-0.081190065,0.066448607,0.951269746
18.347807,-8.429702759,-24.458694458,0.861495972,-0.078992799,0.068767942,0.957251191
18.348432,-8.765396118,-24.847793579,0.861495972,-0.080701783,0.072552122,0.959814668
18.349057,-9.268936157,-24.748611450,0.808090210,-0.079847291,0.073650755,0.966528535
18.349682,-9.345230103,-24.740982056,0.701278687,-0.080579713,0.070476927,0.973242402
18.350307,-9.787734985,-24.817276001,0.602096558,-0.078016236,0.072674192,0.974707246
18.350933,-9.963211060,-24.817276001,0.632614136,-0.081678346,0.072674192,0.982031465
18.351560,-10.283645630,-24.924087524,0.563949585,-0.079114869,0.075237669,0.986425996
18.352186,-10.688003540,-24.702835083,0.510543823,-0.080579713,0.073284544,0.991552949
18.352811,-10.970291138,-24.573135376,0.686019897,-0.080335572,0.075481810,0.996313691
18.353438,-11.214431763,-24.733352661,0.449508667,-0.083021119,0.073162474,1.001196504
18.354063,-11.389907837,-24.367141724,0.121444702,-0.081434205,0.076336302,1.002661347
18.354689,-11.412796021,-24.206924438,0.182479858,-0.081067994,0.074383177,1.006811738
18.356398,-11.885818481,-23.627090454,-0.153213501,-0.078870729,0.068523802,1.020605683
18.357023,-11.870559692,-23.512649536,-0.092178345,-0.081067994,0.066814817,1.027563691
18.357648,-11.855300903,-23.207473755,-0.244766235,-0.079236940,0.067791380,1.028296113
18.358275,-11.794265747,-22.795486450,-0.473648071,-0.083387330,0.064861692,1.029638886
18.358902,-11.771377563,-22.612380981,-0.450759888,-0.083631471,0.065838255,1.033789277
18.359527,-11.878189087,-22.436904907,-0.321060181,-0.083509400,0.062664427,1.035376191
18.360154,-11.573013306,-22.497940063,-0.504165649,-0.088148072,0.060589232,1.039648652
18.360780,-11.573013306,-21.910476685,-0.610977173,-0.085340455,0.063763060,1.041479707
18.361405,-11.099990845,-21.910476685,-0.618606567,-0.089002565,0.061199583,1.040625215
18.362039,-10.939773560,-21.857070923,-0.931411743,-0.092298463,0.057781614,1.041601777
18.362664,-10.543045044,-21.536636353,-1.045852661,-0.093152955,0.060955442,1.041845918
18.363290,-10.398086548,-21.361160278,-1.228958130,-0.097303346,0.058636107,1.042090058
18.363915,-10.031875610,-21.414566040,-1.267105103,-0.096326783,0.056316771,1.039892793
18.364541,-9.383377075,-21.391677856,-1.419692993,-0.104017213,0.054851927,1.038427949
18.365167,-9.108718872,-21.315383911,-1.518875122,-0.101942018,0.053020872,1.039648652
18.365792,-8.330520630,-21.216201782,-1.679092407,-0.105359986,0.050945677,1.038305879
18.366419,-7.689651489,-21.536636353,-1.854568481,-0.105359986,0.048382200,1.036841035
18.367045,-7.308181763,-21.345901489,-2.030044556,-0.106458619,0.045330442,1.034033418
18.367671,-6.545242310,-21.353530884,-2.014785767,-0.103895143,0.047283567,1.031225801
18.368298,-5.683120728,-21.605300903,-2.129226685,-0.107679322,0.049114622,1.031469941
18.368924,-4.836257935,-21.612930298,-2.388626099,-0.107435182,0.048138060,1.031469941
18.369549,-4.553970337,-21.200942993,-2.380996704,-0.110609010,0.044231810,1.027929902
18.370174,-3.653701782,-21.544265747,-2.586990356,-0.110242799,0.042889036,1.026342988
18.370800,-2.867874146,-21.490859985,-2.648025513,-0.110242799,0.042644896,1.025366426
18.371427,-2.135452271,-21.384048462,-2.716690063,-0.111585572,0.045330442,1.024389863
18.372053,-1.624282837,-21.368789673,-2.976089478,-0.111707643,0.042034544,1.026098847
18.372678,-0.556167603,-21.323013306,-2.869277954,-0.109754518,0.046917357,1.025976777
18.373304,-0.106033325,-21.300125122,-2.907424927,-0.115369752,0.045086302,1.025610566
18.373929,0.542465210,-21.139907837,-3.296524048,-0.115980104,0.043743528,1.025488496
18.374555,1.198593140,-21.384048462,-3.159194946,-0.116468385,0.046795286,1.028174043
18.375182,1.602951050,-20.956802368,-3.037124634,-0.118665650,0.046673216,1.028906465
18.375808,2.213302612,-20.743179321,-3.548294067,-0.118177369,0.048015989,1.030615449
18.388405,-0.266250610,-14.746475220,-4.112869263,-0.146375611,0.040081419,1.058325410
18.389108,-0.998672485,-14.700698853,-4.059463501,-0.151624635,0.040691771,1.056616426
18.389734,-1.433547974,-14.273452759,-4.036575317,-0.150403932,0.041912474,1.050024629
18.390361,-2.333816528,-13.777542114,-4.089981079,-0.153943971,0.041790403,1.046972871
18.390987,-2.928909302,-13.647842407,-3.807693481,-0.158216432,0.034710325,1.041967988
18.391613,-3.607925415,-13.006973267,-3.800064087,-0.158094361,0.032757200,1.036474824
18.392239,-4.225906372,-12.968826294,-3.685623169,-0.165296510,0.028606812,1.033545136
18.392864,-4.676040649,-12.373733521,-3.586441040,-0.164930299,0.026531616,1.029150605
18.393490,-5.149063110,-12.289810181,-3.754287720,-0.163831666,0.026043335,1.028051972
18.394116,-5.881484985,-11.748123169,-3.731399536,-0.164564088,0.022503296,1.025366426
18.394743,-6.079849243,-11.145401001,-3.571182251,-0.167982057,0.023113647,1.023291230
18.395368,-6.652053833,-10.870742798,-3.616958618,-0.167615846,0.022381226,1.019384980
18.395995,-6.697830200,-10.733413696,-3.563552856,-0.167859986,0.022137085,1.017798066
18.396621,-7.384475708,-10.329055786,-3.342300415,-0.172376588,0.020916382,1.019629121
18.397247,-7.888015747,-9.863662720,-3.060012817,-0.171644166,0.017986694,1.015722871
18.397873,-8.376296997,-9.627151489,-3.220230103,-0.173475221,0.017254272,1.015844941
18.398499,-8.689102173,-9.085464478,-2.937942505,-0.175794557,0.014690796,1.017431855
18.399124,-9.337600708,-8.917617798,-2.998977661,-0.176038697,0.011028687,1.012793183
18.399750,-9.696182251,-8.665847778,-3.014236450,-0.177503541,0.011516968,1.014502168
18.400376,-10.344680786,-8.368301392,-2.678543091,-0.179700807,0.011394897,1.012915254
18.401001,-10.794815063,-8.131790161,-2.678543091,-0.183973268,0.009197632,1.012426972
18.401627,-11.191543579,-7.902908325,-2.518325806,-0.185560182,0.013592163,1.009497285
18.402254,-11.771377563,-7.948684692,-2.594619751,-0.188489869,0.011516968,1.010595918
18.402879,-12.091812134,-7.468032837,-2.236038208,-0.191663697,0.008343140,1.011816621
18.403504,-12.679275513,-7.345962524,-2.274185181,-0.192151979,0.004803101,1.004858613
18.404129,-12.961563110,-7.208633423,-2.335220337,-0.193616822,0.003460327,1.006323457
18.404754,-13.274368286,-7.002639771,-2.190261841,-0.193860963,0.001263062,1.000342011
18.405381,-13.564285278,-6.895828247,-2.197891235,-0.193860963,-0.000812134,1.004126191
18.406007,-13.899978638,-6.415176392,-2.022415161,-0.191419557,0.000408569,1.000219941
18.406632,-13.777908325,-6.453323364,-2.091079712,-0.195203736,-0.001544556,0.997778535
18.407257,-14.212783813,-6.216812134,-1.946121216,-0.190565065,-0.005694946,0.995703340
18.407883,-14.395889282,-5.980300903,-2.037673950,-0.188734010,-0.006915649,0.996313691
18.408508,-14.479812622,-6.041336060,-2.022415161,-0.187879518,-0.008380493,0.994726777
18.409133,-14.716323853,-5.537796021,-1.923233032,-0.183484986,-0.011676392,0.995581269
18.409759,-14.716323853,-5.499649048,-1.808792114,-0.180433229,-0.012652954,0.990698457
18.410384,-14.983352661,-5.041885376,-1.541763306,-0.180189088,-0.015338501,0.991186738
18.411009,-15.044387817,-4.736709595,-1.557022095,-0.177259400,-0.016070923,0.990088105
18.411636,-15.120681763,-4.751968384,-1.473098755,-0.178968385,-0.015582642,0.988257051
18.412261,-15.250381470,-4.362869263,-1.297622681,-0.178846315,-0.016925415,0.983374238
18.412886,-15.494522095,-4.111099243,-1.167922974,-0.177259400,-0.021442017,0.981421113
18.413512,-15.555557251,-3.844070435,-0.816970825,-0.180555299,-0.025348267,0.978857636
18.414138,-15.540298462,-3.393936157,-0.931411743,-0.182874635,-0.021075806,0.978491426
18.414763,-15.586074829,-3.058242798,-0.679641724,-0.186170533,-0.024249634,0.976538301
18.415390,-15.372451782,-2.844619751,-0.557571411,-0.188856080,-0.023761353,0.976294160
18.416015,-15.616592407,-2.798843384,-0.488906860,-0.196912721,-0.024859985,0.971411347
18.416641,-15.250381470,-2.531814575,-0.366836548,-0.200941041,-0.027301392,0.969092011
18.417266,-15.135940552,-2.379226685,-0.206619263,-0.201307252,-0.028644165,0.967993379
18.429864,-2.989944458,-3.668594360,1.174301147,-0.210218385,-0.042682253,0.921850801
18.430571,-2.143081665,-3.630447388,1.517623901,-0.211072877,-0.039142214,0.922949433
18.431196,-1.326736450,-3.889846802,1.548141479,-0.211561158,-0.036578737,0.923681855
18.431822,-0.662979126,-3.973770142,1.502365112,-0.207654908,-0.032062136,0.922827363
18.432447,-0.113662720,-3.828811646,1.632064819,-0.207044557,-0.027667603,0.926245332
18.433073,0.489059448,-3.775405884,1.769393921,-0.205335572,-0.023761353,0.926855683
18.433700,0.931564331,-3.973770142,1.632064819,-0.201063111,-0.019610962,0.928564668
18.434326,1.633468628,-4.065322876,1.838058472,-0.198255494,-0.018512329,0.930761933
18.434951,1.839462280,-3.760147095,1.731246948,-0.197767213,-0.014484009,0.931372285
18.435577,1.770797729,-3.722000122,1.883834839,-0.195203736,-0.008624634,0.929663301
18.436203,2.243820190,-3.691482544,1.975387573,-0.195447877,-0.006427368,0.935156465
18.436830,2.274337769,-3.592300415,2.066940308,-0.192274049,-0.000690063,0.936255097
18.437456,2.304855347,-3.142166138,2.082199097,-0.191297486,-0.000079712,0.935034394
18.438082,2.487960815,-2.898025513,2.074569702,-0.191053346,0.004070679,0.934424043
18.438707,2.449813843,-2.852249146,2.372116089,-0.189344361,0.010662476,0.935034394
18.439334,2.365890503,-2.493667603,2.410263062,-0.192029908,0.010784546,0.940527558
18.439960,2.083602905,-1.860427856,2.311080933,-0.192274049,0.016155640,0.939428926
18.440585,1.946273804,-1.753616333,2.265304565,-0.188611940,0.020183960,0.939062715
18.441211,1.725021362,-1.448440552,2.539962769,-0.186658815,0.021160522,0.937964082
18.441837,1.389328003,-0.990676880,2.501815796,-0.184339479,0.025188843,0.937109590
18.442463,1.091781616,-0.387954712,2.433151245,-0.183484986,0.028484741,0.937964082
18.443089,0.527206421,-0.098037720,2.616256714,-0.182020143,0.029949585,0.937842011
18.443714,0.092330933,0.138473511,2.425521851,-0.185316041,0.030559937,0.937475801
18.444341,-0.304397583,0.451278687,2.677291870,-0.184949830,0.032268919,0.934424043
18.444967,-0.632461548,0.657272339,2.768844604,-0.185926393,0.029095093,0.931250215
18.445592,-1.265701294,1.107406616,2.723068237,-0.183484986,0.030804077,0.930639863
18.446219,-1.738723755,1.290512085,2.959579468,-0.183484986,0.032146849,0.924902558
18.446845,-2.204116821,1.549911499,2.791732788,-0.183240846,0.035076536,0.924536347
18.447472,-2.692398071,1.916122437,2.845138550,-0.180921510,0.033977903,0.917700410
18.448098,-2.867874146,1.900863647,3.135055542,-0.179090455,0.032879271,0.916723847
18.448725,-3.028091431,1.977157593,2.997726440,-0.180067018,0.033977903,0.910498261
18.449350,-3.325637817,2.412033081,3.028244019,-0.179212525,0.034710325,0.908789277
18.449975,-3.668960571,2.267074585,2.929061890,-0.179944947,0.035564817,0.901342988
18.450600,-3.897842407,2.648544312,2.982467651,-0.180189088,0.036663450,0.899023652
18.451225,-4.004653931,2.999496460,3.241867065,-0.180677369,0.034222044,0.893530488
18.451850,-4.058059692,2.869796753,3.157943726,-0.175428346,0.037273802,0.887060761
18.452476,-4.271682739,3.022384644,3.394454956,-0.178724244,0.033977903,0.887060761
18.453102,-4.485305786,3.113937378,3.211349487,-0.179212525,0.034099974,0.880591035
18.453727,-4.401382446,3.411483765,3.226608276,-0.179700807,0.034832396,0.878637910
18.454353,-4.454788208,3.419113159,3.295272827,-0.177625611,0.035442747,0.874243379
18.454978,-4.325088501,3.541183472,3.348678589,-0.177381471,0.035198607,0.873633027
18.456653,-4.531082153,3.686141968,3.402084351,-0.181653932,0.038128294,0.867407441
18.457279,-4.508193970,3.953170776,3.379196167,-0.178724244,0.038982786,0.866308808
18.457904,-4.531082153,4.113388062,3.417343140,-0.182508424,0.037517942,0.865210176
18.458531,-4.805740356,4.174423218,3.165573120,-0.182386354,0.040691771,0.864721894
18.459158,-4.805740356,4.265975952,3.707260132,-0.182508424,0.042156614,0.861181855
18.459783,-4.790481567,4.365158081,3.127426147,-0.189222291,0.041668333,0.863623261
18.460410,-5.103286743,4.227828979,3.424972534,-0.189100221,0.039348997,0.865332246
18.461037,-5.385574341,4.464340210,3.333419800,-0.188001588,0.041668333,0.863501191
18.473583,-9.726699829,5.135726929,3.196090698,-0.168226197,0.045574583,0.809546113
18.474266,-9.947952271,4.929733276,3.005355835,-0.169568971,0.047039427,0.803808808
18.474892,-9.635147095,4.792404175,3.081649780,-0.167982057,0.045940794,0.799902558
18.475518,-9.741958618,4.784774780,3.089279175,-0.170545533,0.046062864,0.797339082
18.476143,-9.513076782,4.708480835,2.700180054,-0.172742799,0.046673216,0.795019746
18.476769,-9.375747681,4.502487183,2.738327026,-0.173719361,0.044964232,0.790625215
18.477395,-9.307083130,4.418563843,2.967208862,-0.177991822,0.044109739,0.786841035
18.478022,-9.139236450,4.166793823,2.791732788,-0.176771119,0.043743528,0.787207246
18.478648,-9.070571899,3.953170776,2.562850952,-0.180311158,0.043743528,0.785864472
18.479274,-8.689102173,3.724288940,2.631515503,-0.181776002,0.041668333,0.783789277
18.479899,-8.307632446,3.327560425,2.410263062,-0.186048463,0.043499388,0.780371308
18.480525,-8.338150024,3.152084351,2.372116089,-0.183484986,0.040813841,0.772680879
18.481151,-7.842239380,2.709579468,2.379745483,-0.185560182,0.039715208,0.772070527
18.481776,-7.811721802,2.442550659,2.265304565,-0.190565065,0.038982786,0.771216035
18.482403,-7.453140259,2.007675171,2.135604858,-0.190565065,0.035686888,0.770239472
18.483029,-7.163223267,1.610946655,2.082199097,-0.191297486,0.036785521,0.766699433
18.483655,-6.972488403,1.435470581,2.120346069,-0.190320924,0.034710325,0.765356660
18.484281,-6.652053833,0.809860229,1.883834839,-0.193128541,0.035931028,0.761084199
18.484906,-6.323989868,0.138473511,1.891464233,-0.191541627,0.034588255,0.763281465
18.485532,-5.927261353,0.207138062,1.822799683,-0.192640260,0.033245482,0.760595918
18.486159,-5.454238892,-0.418472290,1.441329956,-0.191419557,0.032390989,0.759497285
18.486785,-5.164321899,-0.960159302,1.571029663,-0.191541627,0.033977903,0.753882051
18.487410,-4.927810669,-1.349258423,1.555770874,-0.189466432,0.033367552,0.753149629
18.488039,-4.721817017,-2.127456665,1.509994507,-0.188001588,0.031902708,0.749243379
18.488665,-4.195388794,-2.592849731,1.273483276,-0.189222291,0.032268919,0.749487519
18.489292,-4.058059692,-2.898025513,1.319259644,-0.188978150,0.032024778,0.748999238
18.489917,-3.638442993,-3.622817993,1.159042358,-0.184461549,0.033001341,0.748999238
18.490544,-3.455337524,-3.966140747,1.174301147,-0.185804322,0.034954466,0.744726777
18.491171,-3.295120239,-4.477310181,1.242965698,-0.186170533,0.032635130,0.747168183
18.491796,-2.623733521,-4.973220825,0.983566284,-0.187513307,0.034466185,0.743017793
18.492423,-2.593215942,-5.408096313,0.937789917,-0.185926393,0.031780638,0.745337129
18.493050,-2.387222290,-5.659866333,1.281112671,-0.183484986,0.035564817,0.745337129
18.493676,-2.173599243,-6.521987915,0.762313843,-0.185926393,0.037395872,0.749243379
18.494352,-1.952346802,-6.575393677,1.075119019,-0.185193971,0.036907591,0.750464082
18.495088,-1.616653442,-7.147598267,1.281112671,-0.183484986,0.033245482,0.754492402
18.495800,-1.525100708,-7.330703735,0.892013550,-0.182752565,0.040081419,0.756079316
18.496503,-1.418289185,-7.780838013,0.998825073,-0.183362916,0.041180052,0.755835176
18.497200,-1.052078247,-8.276748657,0.953048706,-0.183118775,0.043499388,0.760351777
18.497826,-1.174148560,-8.322525024,1.090377808,-0.185193971,0.046184935,0.765356660
18.498451,-0.907119751,-8.841323853,0.899642944,-0.185560182,0.048992552,0.767187715
18.499077,-1.197036743,-9.161758423,1.113265991,-0.182630494,0.050823607,0.775488496
18.499702,-1.273330688,-9.329605103,0.892013550,-0.184583619,0.051922239,0.780737519
18.500327,-0.991043091,-9.466934204,0.861495972,-0.182264283,0.055462278,0.786596894
18.500953,-1.128372192,-9.779739380,0.892013550,-0.180189088,0.057781614,0.790869355
18.501579,-1.403030396,-9.901809692,0.670761108,-0.186170533,0.056927122,0.794165254
18.502206,-1.502212524,-9.756851196,0.823348999,-0.182874635,0.061932005,0.802343965
18.502832,-1.738723755,-10.145950317,0.769943237,-0.182264283,0.064129271,0.811255097
18.503458,-1.952346802,-10.275650024,0.373214722,-0.179212525,0.066936888,0.818091035
18.516090,-10.794815063,-7.727432251,-0.633865356,-0.127088502,0.072185911,0.875464082
18.516777,-11.077102661,-7.300186157,-0.664382935,-0.123548463,0.072918333,0.876806855
18.517403,-11.290725708,-7.124710083,-0.466018677,-0.126844361,0.070354857,0.879370332
18.518037,-11.458572388,-6.850051880,-0.771194458,-0.127088502,0.067547239,0.879126191
18.518664,-11.733230591,-6.674575806,-0.649124146,-0.128919557,0.065716185,0.881323457
18.519290,-11.817153931,-6.514358521,-0.816970825,-0.130384400,0.059856810,0.882910371
18.519915,-12.007888794,-6.140518188,-0.931411743,-0.129529908,0.061443724,0.883398652
18.520541,-12.129959106,-6.056594849,-1.061111450,-0.130384400,0.060589232,0.888281465
18.521267,-12.030776978,-5.972671509,-1.045852661,-0.132093385,0.059978880,0.888525605
18.521892,-12.137588501,-5.995559692,-0.839859009,-0.133558229,0.056927122,0.891333222
18.522518,-12.137588501,-5.675125122,-0.862747192,-0.132581666,0.052410521,0.890967011
18.523144,-11.832412720,-5.583572388,-1.228958130,-0.130994752,0.050091185,0.894751191
18.523771,-11.832412720,-5.606460571,-1.022964478,-0.129285768,0.050457396,0.896826386
18.524398,-11.771377563,-5.507278442,-1.045852661,-0.127942994,0.048138060,0.899634004
18.525025,-11.672195435,-5.362319946,-1.511245728,-0.125623658,0.045330442,0.901098847
18.525650,-11.367019653,-5.430984497,-1.595169067,-0.123060182,0.044231810,0.904272676
18.526277,-11.031326294,-5.469131470,-1.541763306,-0.120008424,0.041057982,0.902319551
18.526903,-11.008438110,-5.278396606,-1.511245728,-0.117444947,0.037640013,0.909155488
18.527529,-10.688003540,-5.179214478,-1.885086060,-0.112195924,0.039226927,0.909399629
18.528154,-10.466751099,-5.186843872,-1.755386353,-0.109144166,0.036663450,0.908423066
18.528779,-10.398086548,-5.003738403,-1.602798462,-0.105115846,0.033977903,0.908178926
18.529405,-10.008987427,-4.912185669,-1.663833618,-0.099988893,0.031658567,0.913550019
18.530037,-9.886917114,-4.767227173,-1.831680298,-0.098279908,0.030559937,0.912329316
18.530663,-9.253677368,-4.523086548,-1.785903931,-0.097547486,0.030682007,0.913427949
18.531288,-9.093460083,-4.324722290,-1.801162720,-0.095228150,0.027630249,0.914282441
18.531915,-9.047683716,-4.050064087,-2.106338501,-0.093763307,0.027019897,0.916601777
18.532542,-8.734878540,-4.004287720,-1.854568481,-0.092664674,0.025677124,0.919165254
18.533167,-8.452590942,-3.577041626,-1.701980591,-0.090467408,0.022259155,0.919531465
18.533792,-8.116897583,-3.554153442,-1.953750610,-0.089002565,0.023846069,0.923681855
18.534417,-7.956680298,-3.165054321,-1.785903931,-0.092054322,0.023113647,0.926733613
18.535044,-7.659133911,-2.852249146,-1.671463013,-0.089979127,0.018597046,0.924292207
18.535669,-7.506546021,-2.676773071,-1.900344849,-0.089002565,0.018841187,0.930884004
18.536296,-7.163223267,-2.440261841,-1.816421509,-0.091443971,0.019939819,0.933203340
18.536921,-7.071670532,-1.868057251,-1.656204224,-0.090345338,0.013592163,0.932470918
18.537547,-6.880935669,-1.494216919,-2.060562134,-0.088026002,0.013348022,0.936133027
18.538173,-6.766494751,-1.486587524,-1.785903931,-0.090833619,0.013103882,0.938574433
18.538798,-6.529983521,-1.059341431,-1.534133911,-0.089002565,0.007488647,0.936865449
18.539423,-6.468948364,-0.479507446,-1.717239380,-0.092298463,0.008709351,0.939673066
18.540049,-6.278213501,-0.242996216,-1.778274536,-0.094373658,0.006390015,0.941137910
18.540674,-6.468948364,-0.067520142,-1.656204224,-0.101453736,0.005291382,0.942846894
18.541300,-6.217178345,0.260543823,-1.465469360,-0.097791627,0.003338257,0.947485566
18.541927,-6.179031372,0.573348999,-1.740127563,-0.096815065,-0.000201782,0.948828340
18.542552,-5.774673462,0.657272339,-1.595169067,-0.100965455,-0.001422485,0.945532441
18.543177,-5.942520142,1.183700562,-1.686721802,-0.103162721,-0.001910767,0.948706269
18.543802,-5.797561646,1.519393921,-1.541763306,-0.102918580,-0.004352173,0.947363496
18.544429,-5.629714966,1.458358765,-1.389175415,-0.105359986,-0.007526001,0.945410371
18.545054,-5.568679810,1.786422729,-1.351028442,-0.104139283,-0.008746704,0.944922090
18.545679,-5.225357056,2.244186401,-1.442581177,-0.104505494,-0.011676392,0.943091035
18.566127,-5.355056763,4.426193237,0.869125366,-0.142835572,0.011272827,0.870092988
18.566794,-5.606826782,4.388046265,1.006454468,-0.139417604,0.013348022,0.866064668
18.567421,-5.957778931,4.059982300,1.159042358,-0.142957643,0.015667358,0.867041230
18.568047,-6.430801392,4.037094116,1.174301147,-0.143201783,0.016277710,0.864966035
18.568673,-6.941970825,3.953170776,1.365036011,-0.146741822,0.018474976,0.864233613
18.569298,-7.193740845,3.770065308,1.242965698,-0.145887330,0.021770874,0.863012910
18.569923,-7.620986938,3.647994995,1.311630249,-0.146009400,0.021160522,0.863501191
18.570549,-7.926162720,3.655624390,1.304000854,-0.147962525,0.025799194,0.865820527
18.571176,-8.208450317,3.556442261,1.426071167,-0.148939088,0.029095093,0.865576386
18.571803,-8.879837036,3.510665894,1.471847534,-0.147474244,0.029461304,0.866186738
18.572428,-9.368118286,3.464889526,1.502365112,-0.148939088,0.030926147,0.869970918
18.573054,-9.696182251,3.274154663,1.647323608,-0.148206666,0.036419310,0.869970918
18.573679,-9.978469849,3.335189819,1.380294800,-0.152357057,0.034466185,0.870581269
18.574305,-10.298904419,3.167343140,1.456588745,-0.147962525,0.035564817,0.875708222
18.574931,-10.787185669,3.319931030,1.578659058,-0.150281861,0.038494505,0.880102754
18.575557,-11.145767212,3.159713745,1.517623901,-0.150403932,0.035076536,0.882177949
18.576183,-11.763748169,3.342819214,1.418441772,-0.151746705,0.038494505,0.888891816
18.576810,-12.053665161,3.075790405,1.433700562,-0.148450807,0.036785521,0.894262910
18.577435,-12.465652466,3.182601929,1.654953003,-0.145887330,0.039226927,0.899511933
18.578062,-12.709793091,3.220748901,1.426071167,-0.148694947,0.034954466,0.901098847
18.578689,-13.236221313,3.403854370,1.372665405,-0.147718385,0.036663450,0.906958222
18.579315,-13.594802856,3.503036499,1.540512085,-0.147474244,0.037151732,0.911841035
18.579940,-13.999160767,3.258895874,1.548141479,-0.144788697,0.034588255,0.917456269
18.580567,-14.167007446,3.724288940,1.647323608,-0.143445924,0.034466185,0.920752168
18.581192,-14.334854126,3.678512573,1.433700562,-0.144056275,0.031780638,0.925024629
18.581819,-14.685806274,3.831100464,1.494735718,-0.142347291,0.029827515,0.928686738
18.582445,-14.823135376,3.945541382,1.448959351,-0.142347291,0.025921265,0.931128144
18.583070,-15.074905396,3.976058960,1.532882690,-0.143934205,0.025555054,0.933325410
18.583695,-14.952835083,4.342269897,1.471847534,-0.143567994,0.021404663,0.936743379
18.584320,-14.899429321,4.243087769,1.380294800,-0.143567994,0.016033569,0.941015840
18.584946,-14.952835083,4.449081421,1.204818726,-0.141492799,0.014324585,0.945166230
18.585571,-14.701065063,5.028915405,1.365036011,-0.147840455,0.010540405,0.948340058
18.586197,-14.403518677,4.990768433,1.456588745,-0.148450807,0.007488647,0.951269746
18.586822,-14.304336548,5.318832397,1.387924194,-0.150526002,0.002849976,0.951269746
18.587447,-13.365921021,5.486679077,1.281112671,-0.148328736,0.001385132,0.954565644
18.588074,-13.243850708,5.746078491,1.281112671,-0.151014283,-0.002154907,0.955786347
18.588699,-12.412246704,5.891036987,1.220077515,-0.151014283,-0.007403931,0.957129121
18.589324,-11.748489380,6.074142456,1.235336304,-0.155897096,-0.009234985,0.960669160
18.589949,-11.084732056,6.058883667,1.197189331,-0.154554322,-0.010943970,0.965063691
18.590574,-10.352310181,6.524276733,1.151412964,-0.155775025,-0.016925415,0.966406465
18.591200,-9.268936157,6.379318237,1.082748413,-0.153699830,-0.022662720,0.967138886
18.591827,-8.399185181,6.615829468,0.991195679,-0.154310182,-0.023273071,0.971167207
18.592452,-7.285293579,6.844711304,1.197189331,-0.156629518,-0.027423462,0.970923066
18.593078,-6.278213501,6.905746460,0.975936890,-0.158826783,-0.030841431,0.971533418
18.593705,-5.049880981,6.791305542,0.800460815,-0.157972291,-0.031573854,0.973974824
18.594330,-4.157241821,6.997299194,1.014083862,-0.160047486,-0.035358034,0.975439668
18.594957,-2.898391724,7.073593140,0.968307495,-0.163831666,-0.037433229,0.976294160
18.595583,-1.540359497,6.951522827,0.945419312,-0.159559205,-0.038776003,0.978857636
18.608237,19.615951538,8.401107788,0.556320190,-0.157606080,-0.013629517,0.962256074
18.608938,20.005050659,8.568954468,0.716537476,-0.161512330,-0.013141235,0.957251191
18.609563,19.997421265,8.675765991,0.396102905,-0.162488893,-0.008380493,0.955175996
18.610189,20.088973999,8.584213257,0.609725952,-0.159559205,-0.005084595,0.952368379
18.610816,19.936386108,8.881759644,0.762313843,-0.165784791,-0.004718384,0.950049043
18.611441,19.669357300,8.736801147,0.808090210,-0.162000611,-0.001300415,0.945776582
18.612068,19.585433960,8.858871460,0.960678101,-0.163221315,-0.001300415,0.942846894
18.612693,19.211593628,9.041976929,0.808090210,-0.159315065,0.002727905,0.939184785
18.613318,18.715682983,8.889389038,0.930160522,-0.158704713,0.005535522,0.936987519
18.613944,18.280807495,8.958053589,1.044601440,-0.158704713,0.007488647,0.933203340
18.614570,17.845932007,8.881759644,1.090377808,-0.157728150,0.006756226,0.926977754
18.615196,17.121139526,8.973312378,1.418441772,-0.156385377,0.009807983,0.922461152
18.615822,16.541305542,8.835983276,1.311630249,-0.156385377,0.013103882,0.916601777
18.616447,15.854660034,8.629989624,1.494735718,-0.154676393,0.015301147,0.912451386
18.617073,15.229049683,8.599472046,1.685470581,-0.157850221,0.016277710,0.908300996
18.617698,14.366928101,8.614730835,1.738876343,-0.157728150,0.013103882,0.901220918
18.618324,13.382736206,8.637619019,1.998275757,-0.157606080,0.018352905,0.898779511
18.618951,12.818161011,8.629989624,2.059310913,-0.157606080,0.020061890,0.892798066
18.619577,11.933151245,8.591842651,2.364486694,-0.158948854,0.021160522,0.887549043
18.620202,10.826889038,8.622360229,2.578109741,-0.161878541,0.020183960,0.884985566
18.620828,10.063949585,8.530807495,2.608627319,-0.164319947,0.019451538,0.879492402
18.621453,9.117904663,8.446884155,2.738327026,-0.167249635,0.021526733,0.878149629
18.622079,8.400741577,8.485031128,2.906173706,-0.167615846,0.017742554,0.873633027
18.622764,7.332626343,8.233261108,3.089279175,-0.172132447,0.020183960,0.871435761
18.623389,6.188217163,8.210372925,3.371566772,-0.173475221,0.022747437,0.869116426
18.624015,5.539718628,8.080673218,3.478378296,-0.175184205,0.020306030,0.867285371
18.624642,4.509750366,7.790756226,3.600448608,-0.179700807,0.017864624,0.869360566
18.625267,3.464523315,7.859420776,3.798812866,-0.181776002,0.018963257,0.867041230
18.625894,2.587142944,7.424545288,3.966659546,-0.186658815,0.017010132,0.866430879
18.626520,1.801315308,6.913375854,4.119247437,-0.193494752,0.020306030,0.866797090
18.627147,0.809494019,6.806564331,4.668563843,-0.194349244,0.017742554,0.867895722
18.627772,-0.151809692,6.814193726,4.691452026,-0.197156861,0.018230835,0.869604707
18.628397,-1.158889771,6.577682495,4.783004761,-0.202161744,0.019329468,0.866552949
18.629023,-2.196487427,6.051254272,4.882186890,-0.208631471,0.020672241,0.868750215
18.629650,-3.371414185,5.784225464,4.889816284,-0.213148072,0.018841187,0.868139863
18.630275,-4.080947876,5.265426636,5.217880249,-0.214490846,0.017986694,0.872168183
18.630902,-4.912551880,4.838180542,5.309432983,-0.213514283,0.017132202,0.872290254
18.631527,-5.461868286,4.677963257,5.408615112,-0.207532838,0.016155640,0.878149629
18.632154,-6.041702271,4.571151733,5.355209351,-0.204114869,0.021160522,0.884863496
18.632780,-6.499465942,4.006576538,5.400985718,-0.195569947,0.021404663,0.889258027
18.633405,-6.789382935,3.731918335,5.652755737,-0.194471315,0.027752319,0.893896699
18.634037,-7.399734497,3.541183472,5.469650269,-0.192396119,0.031902708,0.899023652
18.634662,-7.849868774,2.885055542,5.561203003,-0.187757447,0.034344114,0.895849824
18.635288,-8.551773071,2.785873413,5.759567261,-0.187513307,0.036053099,0.898413301
18.635914,-9.329971313,2.190780640,5.591720581,-0.185316041,0.038128294,0.900976777
18.636540,-10.306533813,2.076339722,5.889266968,-0.186048463,0.037029661,0.902197480
18.637167,-10.726150513,1.671981812,6.125778198,-0.183729127,0.036541380,0.899878144
18.637793,-11.557754517,1.275253296,6.224960327,-0.180189088,0.037762083,0.901098847
18.638419,-12.343582153,0.848007202,6.285995483,-0.181409791,0.042889036,0.901587129
18.651011,-16.440567017,-5.713272095,6.469100952,-0.160657838,0.054363646,0.919287324
18.651696,-16.043838501,-6.178665161,6.163925171,-0.158338502,0.052044310,0.922705293
18.652321,-16.043838501,-6.529617310,6.049484253,-0.159315065,0.050823607,0.926245332
18.652947,-15.959915161,-7.078933716,6.018966675,-0.156507447,0.048260130,0.933203340
18.653572,-15.067276001,-7.406997681,5.759567261,-0.156873658,0.047893919,0.940161347
18.654197,-14.548477173,-7.849502563,5.767196655,-0.157239869,0.043621458,0.942358613
18.654822,-13.800796509,-8.292007446,5.706161499,-0.156141236,0.044475950,0.946997285
18.655447,-13.037857056,-8.726882935,5.423873901,-0.154676393,0.040325560,0.952002168
18.656073,-12.076553345,-9.321975708,5.431503296,-0.155652955,0.036907591,0.958838105
18.656700,-11.298355103,-9.924697876,5.156845093,-0.153211549,0.034344114,0.962011933
18.657326,-10.512527466,-10.290908813,5.347579956,-0.152112916,0.033977903,0.966528535
18.657952,-9.673294067,-10.855484009,4.973739624,-0.152112916,0.035564817,0.976416230
18.658579,-8.551773071,-11.183547974,4.905075073,-0.148328736,0.033001341,0.977026582
18.659204,-7.582839966,-11.755752563,5.103439331,-0.149061158,0.032757200,0.983374238
18.659831,-6.705459595,-11.977005005,4.882186890,-0.151624635,0.034588255,0.989477754
18.660457,-5.538162231,-12.472915649,4.813522339,-0.153455690,0.036053099,0.993261933
18.661083,-4.347976685,-12.732315063,4.706710815,-0.154554322,0.033611692,0.999975801
18.661708,-3.447708130,-12.938308716,4.676193237,-0.153211549,0.041424192,1.006811738
18.662334,-2.333816528,-13.243484497,4.401535034,-0.153455690,0.043865599,1.011328340
18.662960,-1.448806763,-13.388442993,4.378646851,-0.157728150,0.043255247,1.018896699
18.663585,-0.258621216,-13.541030884,4.004806519,-0.157484010,0.042889036,1.025366426
18.664210,0.885787964,-13.891983032,3.981918335,-0.162366822,0.047527708,1.032324433
18.664837,1.694503784,-14.143753052,3.905624390,-0.158216432,0.045208372,1.036963105
18.666550,4.792037964,-14.693069458,3.211349487,-0.160291627,0.049480833,1.056006074
18.667175,5.768600464,-15.051651001,3.142684937,-0.159070924,0.053020872,1.063452363
18.667800,6.737533569,-15.127944946,3.226608276,-0.163343385,0.059978880,1.066992402
18.668427,7.317367554,-15.295791626,2.806991577,-0.158582643,0.062908567,1.076391816
18.669052,8.164230347,-15.501785278,2.662033081,-0.156629518,0.066082396,1.080420136
18.669677,8.873764038,-15.669631958,2.578109741,-0.154920533,0.072796263,1.088110566
18.670303,9.529891968,-15.784072876,2.547592163,-0.153333619,0.075115599,1.094336152
18.670929,9.949508667,-15.654373169,2.250045776,-0.156873658,0.080242552,1.097143769
18.671555,10.521713257,-15.791702271,2.189010620,-0.155042604,0.081585325,1.099829316
18.672181,10.750595093,-15.684890747,1.998275757,-0.153821900,0.087444700,1.105200410
18.672806,10.956588745,-15.547561646,1.784652710,-0.154310182,0.092449583,1.106543183
18.673432,11.231246948,-15.417861938,1.586288452,-0.157850221,0.094036497,1.109839082
18.674058,11.231246948,-15.349197388,1.708358765,-0.157239869,0.097820677,1.113134980
18.674684,11.322799683,-14.860916138,1.700729370,-0.157239869,0.102337278,1.116064668
18.675311,11.231246948,-14.693069458,1.372665405,-0.155530885,0.105633177,1.122412324
18.675936,11.429611206,-14.387893677,1.174301147,-0.160291627,0.107342161,1.124731660
18.676562,11.284652710,-14.105606079,1.105636597,-0.157728150,0.114788450,1.128759980
18.677189,11.086288452,-13.884353638,0.922531128,-0.155652955,0.114056028,1.131811738
18.677816,10.826889038,-13.266372681,0.731796265,-0.156385377,0.119915403,1.137182832
18.678442,10.521713257,-12.823867798,0.640243530,-0.159070924,0.122600950,1.140967011
18.679068,10.392013550,-12.503433228,0.373214722,-0.159925416,0.121990599,1.147802949
18.679695,9.827438354,-12.015151978,0.327438354,-0.162733033,0.126018927,1.148291230
18.680321,9.468856812,-11.481094360,0.327438354,-0.162122682,0.125042364,1.154150605
18.680948,8.995834351,-10.977554321,0.037521362,-0.159681275,0.125530645,1.157202363
18.681575,8.454147339,-10.634231567,-0.313430786,-0.159681275,0.128826544,1.161596894
18.694225,-7.361587524,-1.105117798,-2.106338501,-0.201429322,0.063640989,1.177954316
18.694940,-8.597549438,0.031661987,-2.014785767,-0.203870729,0.049724974,1.174170136
18.695566,-8.597549438,0.031661987,-2.014785767,-0.203870729,0.049724974,1.174170136
18.696192,-9.268936157,0.710678101,-1.946121216,-0.207166627,0.029583374,1.174658418
18.696818,-9.658035278,1.191329956,-2.129226685,-0.207288697,0.020672241,1.178808808
18.697445,-10.047134399,1.511764526,-2.136856079,-0.210706666,0.010906616,1.177954316
18.698071,-10.268386841,1.664352417,-1.824050903,-0.205579713,0.001140991,1.177954316
18.698698,-10.184463501,2.236557007,-2.037673950,-0.204603150,-0.011188110,1.178320527
18.699324,-9.978469849,2.244186401,-2.083450317,-0.205701783,-0.013995728,1.180029511
18.699950,-9.795364380,2.434921265,-1.755386353,-0.202405885,-0.031817995,1.177832246
18.700575,-9.673294067,2.640914917,-1.885086060,-0.203626588,-0.035235964,1.176489472
18.701201,-9.406265259,2.671432495,-1.625686646,-0.199964479,-0.045245729,1.179907441
18.701826,-8.902725220,2.579879761,-1.557022095,-0.199720338,-0.055865847,1.177343965
18.702451,-8.223709106,2.732467651,-1.679092407,-0.195203736,-0.061969362,1.174292207
18.703078,-7.659133911,2.663803101,-1.518875122,-0.198255494,-0.072345339,1.174170136
18.703703,-6.980117798,2.648544312,-1.373916626,-0.193860963,-0.079181276,1.171972871
18.704330,-6.278213501,2.541732788,-1.190811157,-0.193738893,-0.086383425,1.170630097
18.704955,-5.324539185,2.541732788,-1.145034790,-0.192884400,-0.097613893,1.167212129
18.705581,-4.645523071,2.061080933,-0.870376587,-0.192029908,-0.099444948,1.164404511
18.706206,-3.531631470,1.992416382,-0.832229614,-0.189954713,-0.111529909,1.160498261
18.706832,-2.730545044,2.007675171,-0.778823853,-0.191785768,-0.117511354,1.153784394
18.707457,-1.464065552,1.908493042,-0.527053833,-0.188734010,-0.120807253,1.151831269
18.708083,-0.533279419,1.237106323,-0.366836548,-0.187391236,-0.127154902,1.145239472
18.708708,0.672164917,1.298141479,-0.069290161,-0.185438111,-0.134357050,1.139502168
18.709334,1.885238647,0.603866577,-0.023513794,-0.182752565,-0.135943964,1.137060761
18.709961,2.999130249,0.428390503,0.121444702,-0.182020143,-0.140216425,1.135473847
18.710587,4.128280640,0.008773804,0.167221069,-0.177259400,-0.142535761,1.124609590
18.711212,5.524459839,-0.258255005,0.327438354,-0.174940065,-0.144610956,1.122778535
18.711837,6.584945679,-0.754165649,0.754684448,-0.174451783,-0.144855097,1.116552949
18.712462,7.691207886,-1.341629028,1.036972046,-0.172742799,-0.147052363,1.113012910
18.713089,8.850875854,-1.715469360,1.098007202,-0.166639283,-0.149615839,1.107763886
18.713716,10.056320190,-2.432632446,1.357406616,-0.160657838,-0.147418573,1.104223847
18.714343,11.002365112,-2.867507935,1.540512085,-0.157850221,-0.144610956,1.100317597
18.714968,11.895004272,-3.706741333,1.838058472,-0.153455690,-0.145465448,1.093969941
18.715594,12.902084351,-4.309463501,2.051681519,-0.148817018,-0.142535761,1.089819551
18.716220,13.916793823,-5.171585083,2.478927612,-0.144666627,-0.133868769,1.086035371
18.716847,14.565292358,-5.820083618,2.555221558,-0.141004518,-0.131549433,1.080542207
18.717474,15.511337280,-6.750869751,2.761215210,-0.137464479,-0.129840448,1.075293183
18.718099,16.342941284,-7.391738892,3.066390991,-0.130628541,-0.123126589,1.069555879
18.718725,16.876998901,-8.406448364,3.165573120,-0.124525025,-0.117999636,1.062842011
18.719351,17.540756226,-9.337234497,3.501266479,-0.118665650,-0.112384401,1.057592988
18.719978,18.029037476,-10.130691528,3.699630737,-0.108655885,-0.109088503,1.056250215
18.720604,18.227401733,-10.939407349,3.684371948,-0.100477174,-0.098834597,1.055395722
18.721231,18.532577515,-11.778640747,4.027694702,-0.089246705,-0.096149050,1.051245332
18.721856,18.555465698,-13.006973267,4.470199585,-0.078260377,-0.084918581,1.050757051
18.722482,18.578353882,-13.251113892,4.493087769,-0.068006471,-0.076617800,1.049780488
18.723107,18.578353882,-14.174270630,4.752487183,-0.054578736,-0.066852175,1.049780488
18.735748,-7.605728149,-21.323013306,10.146469116,-0.009534791,0.105999388,1.136694551
18.736460,-9.474929810,-21.475601196,10.062545776,-0.008192018,0.110271849,1.145117402
18.737087,-11.237319946,-21.460342407,10.085433960,-0.009412721,0.114666380,1.153540254
18.737713,-13.465103149,-21.254348755,10.466903687,-0.009778932,0.120647825,1.160254121
18.738338,-15.090164185,-21.437454224,10.436386108,-0.009168580,0.127117559,1.166235566
18.738963,-16.852554321,-21.368789673,10.367721558,-0.008802369,0.126629278,1.173559785
18.739590,-18.111404419,-21.223831177,10.375350952,-0.010877565,0.131023809,1.180029511
18.740215,-20.171340942,-20.926284790,10.283798218,-0.007459596,0.137127325,1.188574433
18.740840,-21.407302856,-20.941543579,10.505050659,-0.007337525,0.139690802,1.198095918
18.741465,-22.811111450,-20.796585083,10.276168823,-0.006971315,0.142132208,1.205175996
18.742091,-23.818191528,-20.674514771,10.398239136,-0.002088502,0.144207403,1.212500215
18.742717,-24.954971313,-20.590591431,10.321945190,-0.002942994,0.147381231,1.220556855
18.743343,-25.954421997,-20.346450806,10.108322144,-0.000135377,0.147015020,1.230810761
18.743970,-26.908096313,-20.132827759,9.902328491,-0.001356080,0.146648809,1.238012910
18.744595,-27.434524536,-19.804763794,9.719223022,0.003038451,0.149090216,1.247778535
18.745220,-28.319534302,-19.682693481,9.650558472,0.006090209,0.151287481,1.258398652
18.745845,-28.739151001,-19.530105591,9.101242065,0.010484740,0.151775762,1.263647676
18.746472,-29.074844360,-18.950271606,9.024948120,0.014513060,0.153240606,1.275976777
18.747097,-29.181655884,-18.904495239,8.704513550,0.018907592,0.149334356,1.287085176
18.747722,-29.311355591,-18.683242798,8.635848999,0.023912475,0.153484747,1.292700410
18.748347,-29.311355591,-18.477249146,8.208602905,0.025987670,0.154217169,1.299902558
18.748972,-29.311355591,-18.255996704,8.086532593,0.030138060,0.152752325,1.307959199
18.749597,-29.380020142,-18.027114868,7.735580444,0.027208373,0.155804083,1.314795136
18.750223,-29.097732544,-17.927932739,7.575363159,0.030626342,0.155559942,1.319433808
18.750848,-29.006179810,-17.615127563,7.209152222,0.031602904,0.158367559,1.328467011
18.751474,-28.517898560,-17.142105103,6.812423706,0.033189818,0.156414434,1.332495332
18.752100,-28.273757935,-17.073440552,6.728500366,0.034776732,0.160076544,1.335058808
18.752725,-27.762588501,-16.684341431,6.133407593,0.035753295,0.160320684,1.340918183
18.753351,-27.480300903,-16.272354126,5.767196655,0.033922240,0.161785528,1.344702363
18.753978,-26.915725708,-16.058731079,5.408615112,0.033067748,0.161785528,1.349096894
18.754605,-26.244338989,-15.784072876,5.050033569,0.032091185,0.158855841,1.346899629
18.755232,-25.473770142,-15.463638306,4.691452026,0.033800170,0.159954473,1.351782441
18.755859,-24.687942505,-14.982986450,4.172653198,0.031114623,0.160808966,1.352148652
18.756485,-24.115737915,-14.792251587,3.821701050,0.033556029,0.159954473,1.355200410
18.757110,-23.253616333,-14.273452759,3.409713745,0.032335326,0.158977911,1.353613496
18.757736,-22.109207153,-13.953018188,2.761215210,0.030504271,0.159222052,1.354712129
18.758361,-20.850357056,-13.663101196,2.501815796,0.031358764,0.156536505,1.359106660
18.758986,-19.988235474,-13.274002075,1.853317261,0.031847045,0.156170294,1.358374238
18.759612,-19.057449341,-12.762832642,1.479476929,0.031480834,0.152752325,1.360693574
18.760237,-17.775711060,-12.282180786,1.166671753,0.029283568,0.151165411,1.361059785
18.760863,-16.654190063,-11.824417114,0.487655640,0.032091185,0.155682012,1.363867402
18.761490,-14.990982056,-11.511611938,0.052780151,0.029283568,0.150188848,1.363012910
18.762116,-13.823684692,-11.130142212,-0.275283813,0.031602904,0.150432989,1.367773652
18.762743,-12.473281860,-10.832595825,-1.007705688,0.028062865,0.148846075,1.370092988
18.763369,-10.962661743,-10.535049438,-1.473098755,0.031847045,0.146160528,1.367773652
18.763995,-9.917434692,-10.062026978,-2.030044556,0.030015990,0.145061895,1.372168183
18.764621,-8.429702759,-9.817886353,-2.533584595,0.030626342,0.140789434,1.371069551
18.765246,-7.071670532,-9.543228149,-2.983718872,0.031114623,0.145183966,1.373266816
18.779082,20.546737671,-3.439712524,-12.138992310,-0.002942994,0.051922239,1.321875215
18.779830,21.141830444,-3.165054321,-12.314468384,-0.006483033,0.048748411,1.321386933
18.780455,21.637741089,-2.966690063,-12.634902954,-0.013074830,0.042400755,1.317236543
18.781080,22.080245972,-2.875137329,-13.077407837,-0.012952760,0.038616575,1.313330293
18.781706,22.393051147,-2.669143677,-13.039260864,-0.018934205,0.035198607,1.312231660
18.782332,22.812667847,-2.425003052,-13.237625122,-0.023817018,0.030682007,1.306128144
18.782959,23.133102417,-2.486038208,-13.413101196,-0.023328736,0.026043335,1.300390840
18.783586,23.094955444,-2.341079712,-13.603836060,-0.029798463,0.020916382,1.300146699
18.784211,23.285690308,-2.219009399,-13.527542114,-0.031995729,0.018108765,1.297094941
18.784836,23.377243042,-2.135086060,-13.733535767,-0.033460572,0.015911499,1.294653535
18.785462,23.217025757,-1.936721802,-13.840347290,-0.037122682,0.011394897,1.289770722
18.786089,23.171249390,-1.868057251,-13.909011841,-0.037488893,0.006634155,1.283667207
18.786715,22.888961792,-1.616287231,-13.985305786,-0.042127565,0.004314819,1.280249238
18.787340,22.507492065,-1.623916626,-13.992935181,-0.044935182,-0.000201782,1.276831269
18.787967,22.515121460,-1.326370239,-13.954788208,-0.050550416,-0.006305298,1.274634004
18.788593,21.927658081,-1.066970825,-13.992935181,-0.053480104,-0.007037720,1.267920136
18.789218,21.393600464,-1.021194458,-13.947158813,-0.054090455,-0.012042603,1.265356660
18.789845,20.668807983,-0.716018677,-13.802200317,-0.058607057,-0.016925415,1.264013886
18.790471,19.959274292,-0.479507446,-13.611465454,-0.062879518,-0.017779907,1.256811738
18.791098,19.356552124,-0.227737427,-13.718276978,-0.065809205,-0.024493774,1.256567597
18.791724,18.364730835,0.001144409,-13.695388794,-0.068738893,-0.025714478,1.252539277
18.792351,17.685714722,0.367355347,-13.451248169,-0.073255494,-0.026935181,1.249365449
18.792978,16.884628296,0.664901733,-13.535171509,-0.077772096,-0.032184206,1.250830293
18.793605,15.900436401,1.107406616,-13.489395142,-0.082532838,-0.037799440,1.247046113
18.794230,15.023056030,1.176071167,-13.382583618,-0.084363893,-0.044147097,1.244116426
18.794856,13.924423218,1.610946655,-13.451248169,-0.082044557,-0.049274050,1.245581269
18.795482,12.917343140,1.809310913,-13.184219360,-0.088636354,-0.053912722,1.241430879
18.796109,11.627975464,2.190780640,-12.985855103,-0.089612916,-0.061236940,1.242529511
18.796735,10.628524780,2.305221558,-12.802749634,-0.089246705,-0.067706667,1.237890840
18.797362,9.468856812,2.564620972,-12.680679321,-0.099622682,-0.079913698,1.233130097
18.797987,8.019271851,2.785873413,-12.390762329,-0.099866822,-0.084430300,1.230444551
18.798613,7.157150269,2.831649780,-12.062698364,-0.104383424,-0.088214479,1.228125215
18.799240,5.982223511,3.030014038,-12.116104126,-0.109388307,-0.098468386,1.222143769
18.799865,4.830184937,3.022384644,-11.795669556,-0.112684205,-0.104571901,1.221411347
18.800490,3.952804565,3.152084351,-11.376052856,-0.116956666,-0.112506472,1.212378144
18.801117,2.983871460,3.091049194,-11.170059204,-0.125135377,-0.122027956,1.206030488
18.801743,2.175155640,2.968978882,-11.055618286,-0.132581666,-0.129474238,1.202734590
18.802370,1.335922241,2.961349487,-10.483413696,-0.133680299,-0.140338495,1.197485566
18.802995,0.840011597,2.801132202,-10.552078247,-0.138318971,-0.146075800,1.191992402
18.803621,0.389877319,2.671432495,-10.208755493,-0.139295533,-0.156329706,1.185888886
18.804248,-0.174697876,2.350997925,-9.850173950,-0.139051393,-0.165607050,1.180639863
18.804874,-0.380691528,2.198410034,-9.857803345,-0.141492799,-0.171222284,1.175634980
18.805500,-0.441726685,1.992416382,-9.262710571,-0.145765260,-0.181720331,1.169775605
18.806125,-0.403579712,1.229476929,-9.239822388,-0.145154908,-0.188556269,1.168066621
18.806750,-0.357803345,1.099777222,-8.995681763,-0.146375611,-0.194781855,1.161718965
18.807377,-0.189956665,0.512313843,-8.438735962,-0.147474244,-0.203692988,1.156592011
18.808003,0.191513062,0.046920776,-8.316665649,-0.146863893,-0.207477167,1.156103730
18.827284,6.317916870,-3.882217407,2.440780640,-0.088270143,-0.204059198,1.259253144
18.828109,5.997482300,-3.607559204,2.814620972,-0.086805299,-0.202350214,1.256323457
18.828734,5.623641968,-3.096389771,3.135055542,-0.081434205,-0.196002558,1.259253144
18.829360,5.287948608,-2.814102173,3.692001343,-0.076795533,-0.189899042,1.259619355
18.829986,4.952255249,-2.455520630,3.737777710,-0.074232057,-0.185382441,1.256323457
18.830694,4.380050659,-1.936721802,4.042953491,-0.071058229,-0.181354120,1.256201386
18.831325,4.013839722,-1.654434204,4.760116577,-0.067518190,-0.179156855,1.254126191
18.831950,3.594223022,-1.211929321,5.080551147,-0.063734010,-0.170734003,1.250830293
18.832577,3.372970581,-0.922012329,5.187362671,-0.060926393,-0.167438105,1.250097871
18.833202,3.151718140,-0.571060181,5.233139038,-0.060071900,-0.165118769,1.250830293
18.833828,3.067794800,-0.120925903,5.751937866,-0.053358033,-0.158282831,1.248755097
18.834454,2.556625366,0.230026245,5.980819702,-0.050550416,-0.156085566,1.244726777
18.835081,2.838912964,0.535202026,6.285995483,-0.044202760,-0.149982050,1.244848847
18.835707,2.724472046,0.985336304,6.491989136,-0.041639283,-0.144000605,1.241064668
18.836334,2.434555054,1.290512085,6.530136108,-0.036390260,-0.140582636,1.241186738
18.836961,2.274337769,1.778793335,6.919235229,-0.028211549,-0.135821894,1.236670136
18.837586,2.365890503,1.946640015,7.109970093,-0.026990846,-0.128619745,1.237158418
18.838212,2.220932007,2.427291870,7.201522827,-0.022840455,-0.121661745,1.236303926
18.838837,2.434555054,2.366256714,7.346481323,-0.012830690,-0.114825808,1.237280488
18.839463,2.274337769,2.778244019,7.705062866,-0.007825807,-0.112994753,1.234717011
18.840089,2.266708374,2.968978882,7.644027710,-0.000745729,-0.106402956,1.236303926
18.840715,2.480331421,3.243637085,7.857650757,0.006090209,-0.100177370,1.234106660
18.841340,2.297225952,3.518295288,7.850021362,0.010850951,-0.095904909,1.233008027
18.841965,2.503219604,4.037094116,8.002609253,0.018297240,-0.085284792,1.232519746
18.842592,2.487960815,3.937911987,8.246749878,0.026475951,-0.076861940,1.235571504
18.843219,2.358261108,4.311752319,8.406967163,0.032457396,-0.072589479,1.234472871
18.843844,2.510848999,4.723739624,8.422225952,0.038682982,-0.068439089,1.228735566
18.844471,2.327743530,5.074691772,8.300155640,0.047105834,-0.060626589,1.232885957
18.845097,2.091232300,5.471420288,8.536666870,0.052843139,-0.052692018,1.230566621
18.845724,2.236190796,5.540084839,8.780807495,0.059801146,-0.048053347,1.231543183
18.846350,2.098861694,6.013107300,8.544296265,0.068346068,-0.039996706,1.229712129
18.846976,2.007308960,6.280136108,8.841842651,0.073595092,-0.034625612,1.226172090
18.847601,1.793685913,6.776046753,8.773178101,0.079332396,-0.029132446,1.226416230
18.848226,1.763168335,7.165145874,8.757919312,0.080797240,-0.021075806,1.223852754
18.848851,1.686874390,7.546615601,8.780807495,0.087999389,-0.011676392,1.223364472
18.849476,1.335922241,7.928085327,8.658737183,0.093736693,-0.005817017,1.220678926
18.850101,1.259628296,8.477401733,8.895248413,0.099473998,-0.001910767,1.220800996
18.850726,1.206222534,8.805465698,8.696884155,0.099473998,0.005779663,1.219580293
18.851352,0.840011597,9.240341187,8.719772339,0.107896850,0.014568726,1.218847871
18.851978,0.649276733,9.637069702,8.666366577,0.114122435,0.015545288,1.216162324
18.852604,0.656906128,10.323715210,8.620590210,0.117296264,0.020672241,1.213476777
18.853229,0.222030640,10.697555542,8.490890503,0.119371459,0.028973022,1.212988496
18.853854,0.229660034,11.048507690,8.536666870,0.121446654,0.032635130,1.210425019
18.854479,0.000778198,11.597824097,8.452743530,0.123888060,0.036175169,1.208471894
18.855105,-0.197586060,12.131881714,8.246749878,0.126817748,0.043011107,1.206640840
18.855731,-0.540908813,12.635421753,8.422225952,0.128770873,0.050579466,1.204931855
18.856356,-0.632461548,12.955856323,8.216232300,0.126817748,0.054973997,1.201147676
18.856982,-0.739273071,13.451766968,8.094161987,0.130235717,0.056072630,1.198950410
18.857609,-0.922378540,13.726425171,8.078903198,0.130846068,0.063396849,1.196020722
18.870309,3.067794800,20.569992065,2.585739136,0.122423217,0.109295286,1.118994355
18.871041,3.594223022,20.463180542,2.082199097,0.119859740,0.112347044,1.110083222
18.871667,4.074874878,20.814132690,2.028793335,0.116930053,0.113689817,1.106665254
18.872293,4.402938843,20.928573608,1.487106323,0.119127318,0.109417357,1.102270722
18.872920,4.936996460,21.157455444,1.082748413,0.115465209,0.108440794,1.096533418
18.873545,5.539718628,21.279525757,0.808090210,0.115831420,0.113323607,1.092993379
18.874170,6.172958374,21.477890015,0.457138062,0.112901732,0.110271849,1.089941621
18.874797,6.516281128,21.485519409,-0.000625610,0.109849975,0.110271849,1.083838105
18.875423,7.111373901,21.767807007,0.083297729,0.108385131,0.109173216,1.079077363
18.876050,7.790390015,21.897506714,-0.397354126,0.103990600,0.108807005,1.075659394
18.876675,8.324447632,22.004318237,-1.045852661,0.100572631,0.105999388,1.070044160
18.877301,8.889022827,21.943283081,-1.320510864,0.097154662,0.106853880,1.062353730
18.879059,10.529342651,21.836471558,-2.434402466,0.080675170,0.107220091,1.045874238
18.879685,11.109176636,21.905136108,-2.541213989,0.081285521,0.106853880,1.038916230
18.880311,11.849227905,21.973800659,-2.930313110,0.074449584,0.104778685,1.034643769
18.880937,12.215438843,21.973800659,-3.319412231,0.071886107,0.102947630,1.027319551
18.881563,12.924972534,21.844100952,-3.739028931,0.064195678,0.102947630,1.021216035
18.882189,13.306442261,21.691513062,-3.990798950,0.061754271,0.102581419,1.013281465
18.882815,14.000717163,21.363449097,-4.166275024,0.054063842,0.101360716,1.008276582
18.883440,14.214340210,21.325302124,-4.746109009,0.048448607,0.100750364,1.005224824
18.884066,14.527145386,21.126937866,-5.119949341,0.042100951,0.098431028,0.994726777
18.884692,14.900985718,21.287155151,-5.318313599,0.035142943,0.097088255,0.990576386
18.885318,15.457931519,20.783615112,-5.768447876,0.026964232,0.094402708,0.981665254
18.885943,15.580001831,20.928573608,-5.974441528,0.023546264,0.094280638,0.973486543
18.886569,15.869918823,20.585250854,-6.416946411,0.015245482,0.090984739,0.967993379
18.887196,15.984359741,20.249557495,-6.714492798,0.011705443,0.091473021,0.959692597
18.887823,16.106430054,20.150375366,-6.966262817,0.007188842,0.089153685,0.951758027
18.888448,16.449752808,20.165634155,-7.156997681,0.000719115,0.087688841,0.947851777
18.889074,16.625228882,19.807052612,-7.507949829,-0.008069947,0.084881224,0.944677949
18.889700,16.396347046,19.425582886,-7.881790161,-0.013563111,0.080852903,0.932348847
18.890325,16.373458862,19.448471069,-8.248001099,-0.018812135,0.076702513,0.929419160
18.890951,16.373458862,19.150924683,-8.400588989,-0.028333619,0.073284544,0.922094941
18.891578,16.068283081,18.929672241,-8.812576294,-0.030042604,0.072674192,0.921728730
18.892204,15.961471558,18.861007690,-8.644729614,-0.035291627,0.067425169,0.915503144
18.892830,15.686813354,18.616867065,-9.010940552,-0.037244752,0.066204466,0.912939668
18.893455,15.465560913,18.105697632,-9.247451782,-0.041639283,0.064617552,0.907202363
18.894080,15.412155151,17.869186401,-9.308486938,-0.045911744,0.061321653,0.904272676
18.894707,15.152755737,17.754745483,-9.369522095,-0.051771119,0.059612669,0.902685761
18.895332,14.847579956,17.449569702,-9.575515747,-0.054822877,0.057781614,0.899267793
18.895958,14.420333862,17.174911499,-9.911209106,-0.062513307,0.054973997,0.895971894
18.896585,14.237228394,16.915512085,-10.033279419,-0.067396119,0.053631224,0.891943574
18.897211,13.687911987,16.587448120,-9.804397583,-0.073255494,0.051678099,0.886328340
18.897837,13.130966187,16.389083862,-10.109573364,-0.076307252,0.046429075,0.886816621
18.898463,12.551132202,16.076278687,-10.407119751,-0.082288697,0.043011107,0.883520722
18.899089,12.215438843,15.923690796,-10.483413696,-0.089857057,0.044231810,0.880346894
18.899714,11.612716675,15.740585327,-10.658889771,-0.089734986,0.039471067,0.874731660
18.900339,10.903182983,15.092086792,-10.605484009,-0.098035768,0.037640013,0.869604707
18.900964,10.216537476,14.832687378,-10.643630981,-0.098768190,0.031048218,0.871435761
18.913562,0.016036987,9.080123901,-10.315567017,-0.176282838,-0.046710573,0.841040254
18.914250,-0.525650024,8.752059937,-10.292678833,-0.178968385,-0.050616823,0.845190644
18.914875,-0.884231567,8.385848999,-10.254531860,-0.178113893,-0.055865847,0.845190644
18.915500,-1.372512817,8.057785034,-10.170608521,-0.177625611,-0.058917604,0.846777558
18.916125,-1.792129517,8.019638062,-10.025650024,-0.180677369,-0.062091433,0.847265840
18.916751,-1.982864380,7.722091675,-10.048538208,-0.180555299,-0.067584597,0.849707246
18.917377,-2.532180786,7.294845581,-9.789138794,-0.183240846,-0.070392214,0.852148652
18.918002,-2.989944458,7.210922241,-9.758621216,-0.182142213,-0.076861940,0.853125215
18.918628,-3.234085083,7.310104370,-9.361892700,-0.186170533,-0.079547487,0.854345918
18.919254,-3.569778442,6.974411011,-9.499221802,-0.184949830,-0.082599245,0.854467988
18.919880,-3.997024536,6.768417358,-9.033828735,-0.185682252,-0.087115847,0.851782441
18.920506,-4.286941528,6.760787964,-9.079605103,-0.183973268,-0.088946901,0.853247285
18.921131,-4.607376099,6.577682495,-8.927017212,-0.185926393,-0.093829714,0.854101777
18.921758,-4.668411255,6.280136108,-8.675247192,-0.189588502,-0.095904909,0.853003144
18.922384,-4.904922485,6.379318237,-8.614212036,-0.191297486,-0.100421511,0.852270722
18.923011,-5.194839478,6.264877319,-8.278518677,-0.191053346,-0.105182253,0.855688691
18.923636,-5.271133423,5.974960327,-8.103042603,-0.194837525,-0.109088503,0.857031465
18.924262,-5.454238892,5.974960327,-8.095413208,-0.194349244,-0.112384401,0.854712129
18.924887,-5.400833130,5.936813354,-7.813125610,-0.192151979,-0.118121706,0.853857636
18.925512,-5.423721313,5.906295776,-7.538467407,-0.195569947,-0.120685183,0.852514863
18.926139,-5.622085571,5.852890015,-7.263809204,-0.200941041,-0.125323847,0.856176972
18.926765,-5.461868286,5.807113647,-6.996780396,-0.198255494,-0.125445917,0.857519746
18.927391,-5.370315552,5.791854858,-7.019668579,-0.201917604,-0.129230097,0.858740449
18.928016,-5.026992798,5.410385132,-6.745010376,-0.198743775,-0.132159784,0.856054902
18.928643,-5.149063110,5.654525757,-6.462722778,-0.201063111,-0.132648066,0.855566621
18.929270,-4.843887329,5.509567261,-6.310134888,-0.202650025,-0.136798456,0.855078340
18.929895,-4.782852173,5.547714233,-5.951553345,-0.205701783,-0.137408808,0.856543183
18.930521,-4.500564575,5.547714233,-5.974441528,-0.207532838,-0.141803339,0.861181855
18.931147,-4.256423950,5.326461792,-5.737930298,-0.205213502,-0.144977167,0.859594941
18.931774,-3.989395142,5.395126343,-5.394607544,-0.207776979,-0.144488886,0.863257051
18.932400,-3.729995728,5.288314819,-5.211502075,-0.209119752,-0.145709589,0.863745332
18.933027,-3.424819946,5.303573608,-4.913955688,-0.207899049,-0.151691034,0.867529511
18.933654,-3.218826294,5.318832397,-5.005508423,-0.208143190,-0.151446894,0.869726777
18.934279,-2.616104126,5.372238159,-4.700332642,-0.203382447,-0.153522089,0.873022676
18.934906,-2.097305298,5.448532104,-4.501968384,-0.204969361,-0.153888300,0.870703340
18.935533,-1.998123169,5.181503296,-4.349380493,-0.205091432,-0.157672480,0.871069551
18.936159,-1.372512817,5.418014526,-4.044204712,-0.203138307,-0.158160761,0.873755097
18.936785,-1.097854614,5.234909058,-3.632217407,-0.199476197,-0.157672480,0.875830293
18.937411,-0.456985474,5.303573608,-3.739028931,-0.199964479,-0.159015253,0.878393769
18.938037,-0.022109985,5.608749390,-3.281265259,-0.199964479,-0.161944941,0.878149629
18.938663,0.611129761,5.562973022,-3.014236450,-0.197645143,-0.160968378,0.881201386
18.939288,1.053634644,5.547714233,-2.998977661,-0.194349244,-0.159015253,0.881445527
18.939913,1.503768921,5.822372437,-2.541213989,-0.193860963,-0.161456659,0.885595918
18.940538,2.075973511,5.913925171,-2.556472778,-0.195081666,-0.159381464,0.884741426
18.941165,2.442184448,5.868148804,-2.236038208,-0.190687135,-0.159869745,0.884253144
18.941792,2.899948120,6.341171265,-1.923233032,-0.193250611,-0.158649042,0.884253144
18.942417,3.197494507,6.478500366,-1.587539673,-0.192274049,-0.159991816,0.884863496
18.954994,8.522811890,11.437606812,3.058761597,-0.199476197,-0.127032831,0.847754121
18.955676,8.835617065,11.361312866,3.417343140,-0.197767213,-0.124469362,0.844946504
18.956302,9.011093140,11.285018921,3.470748901,-0.200086549,-0.116778933,0.844092011
18.956929,8.980575562,11.964035034,3.836959839,-0.197401002,-0.117511354,0.841040254
18.957555,8.843246460,11.742782593,4.165023804,-0.197645143,-0.119098268,0.832983613
18.958180,8.934799194,12.078475952,4.378646851,-0.194837525,-0.114337526,0.827612519
18.958806,8.919540405,12.208175659,4.737228394,-0.200330690,-0.108600222,0.827368379
18.959431,8.843246460,12.284469604,4.821151733,-0.200941041,-0.109820925,0.816015840
18.960058,9.232345581,12.643051147,4.790634155,-0.202039674,-0.103961550,0.814428926
18.960683,8.866134644,12.726974487,5.088180542,-0.206067994,-0.101886354,0.811255097
18.961308,8.827987671,12.971115112,5.545944214,-0.206922486,-0.098224245,0.808813691
18.961934,8.782211304,12.932968140,5.606979370,-0.209241822,-0.097369753,0.803198457
18.962559,8.644882202,13.207626343,5.843490601,-0.211439088,-0.093463503,0.799414277
18.963184,8.637252808,13.047409058,6.171554565,-0.209485963,-0.091388308,0.797339082
18.963811,8.484664917,13.199996948,6.255477905,-0.210462525,-0.090045534,0.795385957
18.964436,8.492294312,13.337326050,6.316513062,-0.208509400,-0.087115847,0.791845918
18.965063,8.431259155,13.169479370,6.682723999,-0.208997682,-0.082721315,0.788061738
18.965688,8.583847046,13.360214233,6.705612183,-0.210706666,-0.079791628,0.784277558
18.966315,8.515182495,13.497543335,6.766647339,-0.211927369,-0.077472292,0.782568574
18.966942,8.202377319,13.352584839,7.125228882,-0.211439088,-0.075641237,0.785620332
18.967569,8.171859741,13.352584839,7.293075562,-0.203626588,-0.068194948,0.774878144
18.968196,7.981124878,13.467025757,7.209152222,-0.208509400,-0.066485964,0.775366426
18.968822,7.775131226,13.283920288,7.506698608,-0.208387330,-0.061725222,0.772680879
18.969447,7.569137573,13.268661499,7.750839233,-0.208509400,-0.060138308,0.769140840
18.970072,7.340255737,13.192367554,7.750839233,-0.206800416,-0.054523073,0.772070527
18.970699,7.202926636,13.550949097,8.025497437,-0.202650025,-0.050983034,0.769507051
18.971325,7.119003296,13.261032104,8.208602905,-0.203382447,-0.051349245,0.765356660
18.971951,6.684127808,13.474655151,8.323043823,-0.202283815,-0.046710573,0.763769746
18.972577,6.508651733,13.611984253,8.399337769,-0.198499635,-0.041705690,0.762060761
18.973204,6.417098999,13.505172729,8.506149292,-0.196180299,-0.037189089,0.760473847
18.973829,6.066146851,13.688278198,8.643478394,-0.195936158,-0.035358034,0.757910371
18.974454,5.799118042,13.993453979,8.712142944,-0.193738893,-0.030231079,0.755713105
18.975080,5.379501343,13.833236694,8.941024780,-0.193372682,-0.027057251,0.755957246
18.975706,5.097213745,13.825607300,9.009689331,-0.192396119,-0.025714478,0.749365449
18.976333,4.807296753,13.871383667,9.154647827,-0.193738893,-0.021930298,0.749731660
18.976959,4.235092163,13.932418823,9.230941772,-0.194837525,-0.020343384,0.744726777
18.977585,4.082504272,14.168930054,9.581893921,-0.193616822,-0.018756470,0.743139863
18.979259,3.540817261,14.085006714,9.642929077,-0.192762330,-0.009601196,0.738134980
18.979884,3.121200562,14.260482788,9.810775757,-0.188367799,-0.006427368,0.733740449
18.980509,3.022018433,14.214706421,9.787887573,-0.190320924,-0.004596313,0.727514863
18.981136,2.594772339,14.168930054,9.963363647,-0.189222291,-0.003497681,0.726294160
18.981761,2.426925659,14.130783081,9.856552124,-0.188367799,-0.002399048,0.724341035
18.982387,2.159896851,14.168930054,10.032028198,-0.188978150,0.000286499,0.725439668
18.983013,2.060714722,14.054489136,10.032028198,-0.188611940,0.005657593,0.719580293
18.983638,1.923385620,14.191818237,10.077804565,-0.185193971,0.007366577,0.715918183
18.984263,1.770797729,14.168930054,9.963363647,-0.184095338,0.007488647,0.713842988
18.984889,1.557174683,13.978195190,10.207504272,-0.187879518,0.007366577,0.711401582
18.985514,1.412216187,14.039230347,10.039657593,-0.185560182,0.010418335,0.702368379
18.986140,1.602951050,13.894271851,10.024398804,-0.187757447,0.013836304,0.698584199
18.998730,6.180587769,5.219650269,8.933395386,-0.192029908,0.060589232,0.618017793
18.999418,6.813827515,4.655075073,8.879989624,-0.191053346,0.062420286,0.620092988
19.000043,6.806198120,3.930282593,8.513778687,-0.192518190,0.067058958,0.618628144
19.000670,7.233444214,3.632736206,8.582443237,-0.186414674,0.069500364,0.617041230
19.001296,7.714096069,3.129196167,8.597702026,-0.186536744,0.070110716,0.621313691
19.001923,8.171859741,2.556991577,8.406967163,-0.183851197,0.073040403,0.623266816
19.002548,8.553329468,2.053451538,8.101791382,-0.182996705,0.074871458,0.628759980
19.003173,8.820358276,1.351547241,8.284896851,-0.181776002,0.082195677,0.630224824
19.003799,9.354415894,1.031112671,7.979721069,-0.180311158,0.084270872,0.636572480
19.004426,9.575668335,0.504684448,7.941574097,-0.176649049,0.091228880,0.635840058
19.005053,10.048690796,-0.082778931,7.926315308,-0.177259400,0.093548216,0.644507051
19.005680,10.384384155,-0.395584106,7.438034058,-0.180799440,0.099163450,0.645239472
19.006307,10.384384155,-0.807571411,7.521957397,-0.177747682,0.105633177,0.655615449
19.006934,10.590377808,-1.364517212,7.247299194,-0.177625611,0.105511107,0.657690644
19.007561,10.765853882,-1.402664185,6.911605835,-0.173231080,0.112835325,0.663794160
19.008188,10.819259644,-1.738357544,6.850570679,-0.171888307,0.117840208,0.669165254
19.008814,10.796371460,-1.974868774,6.568283081,-0.174329713,0.119427122,0.675634980
19.009441,10.628524780,-2.066421509,6.324142456,-0.169324830,0.123821653,0.681738496
19.010066,10.392013550,-2.135086060,6.011337280,-0.169813111,0.123455442,0.687109590
19.010691,10.292831421,-2.310562134,5.973190308,-0.166273072,0.127727911,0.691992402
19.011318,9.911361694,-2.386856079,5.675643921,-0.162244752,0.126751348,0.696875215
19.011945,9.720626831,-2.226638794,5.568832397,-0.160535768,0.130047247,0.704687715
19.012570,9.308639526,-2.180862427,5.156845093,-0.156263307,0.130291387,0.708593965
19.013195,8.690658569,-2.051162720,5.027145386,-0.156873658,0.130291387,0.709936738
19.013822,8.362594604,-1.951980591,4.798263550,-0.155775025,0.132000372,0.713232636
19.014448,7.881942749,-1.883316040,4.821151733,-0.153211549,0.133953497,0.719214082
19.015073,7.279220581,-1.822280884,4.493087769,-0.152357057,0.133953497,0.721045136
19.015698,7.027450562,-1.539993286,4.340499878,-0.153455690,0.133099005,0.721411347
19.016325,6.035629272,-1.379776001,4.340499878,-0.153577760,0.132610723,0.724585176
19.016950,5.471054077,-1.234817505,4.149765015,-0.152723268,0.133709356,0.725927949
19.017575,4.875961304,-0.922012329,3.798812866,-0.151502565,0.132610723,0.730078340
19.018202,4.425827026,-0.845718384,3.615707397,-0.150892213,0.132976934,0.730810761
19.018827,3.525558472,-0.731277466,3.722518921,-0.153333619,0.131756231,0.727026582
19.019452,3.174606323,-0.761795044,3.699630737,-0.155408815,0.131267950,0.724341035
19.020079,2.426925659,-0.365066528,3.196090698,-0.154432252,0.128582403,0.722632051
19.020706,1.908126831,-0.586318970,2.890914917,-0.156385377,0.123699583,0.721533418
19.021331,1.389328003,-0.510025024,2.890914917,-0.153333619,0.124676146,0.720190644
19.021957,1.152816772,-0.593948364,2.837509155,-0.156141236,0.118450560,0.717138886
19.022582,0.740829468,-0.349807739,2.875656128,-0.156141236,0.117840208,0.714941621
19.023209,0.321212769,-0.647354126,2.395004272,-0.158704713,0.115276732,0.709814668
19.023836,-0.037368774,-0.311660767,2.402633667,-0.157850221,0.110027708,0.708227754
19.024461,0.054183960,-0.448989868,2.181381226,-0.157484010,0.108440794,0.706152558
19.025086,-0.098403931,-0.731277466,1.891464233,-0.158948854,0.103191771,0.704687715
19.025711,-0.014480591,-0.998306274,1.998275757,-0.159803346,0.100140013,0.697485566
19.026338,-0.022109985,-1.196670532,1.868576050,-0.159437135,0.098308958,0.698950410
19.026964,0.008407593,-1.395034790,1.746505737,-0.161634400,0.096355833,0.697485566
19.027591,0.069442749,-1.395034790,1.677841187,-0.162610963,0.095501341,0.696142793
19.028216,0.443283081,-1.585769653,1.319259644,-0.161268190,0.092327513,0.697119355
19.040860,4.006210327,-5.713272095,-1.534133911,-0.123792604,0.082561888,0.748877168
19.041569,3.891769409,-5.934524536,-1.511245728,-0.122083619,0.081829466,0.754248261
19.042196,3.914657593,-5.835342407,-1.648574829,-0.115980104,0.080242552,0.758276582
19.042822,3.693405151,-5.934524536,-1.732498169,-0.116224244,0.081951536,0.760840058
19.043448,3.609481812,-5.652236938,-1.969009399,-0.114637330,0.083782591,0.764624238
19.044074,3.403488159,-5.560684204,-1.900344849,-0.110975221,0.080852903,0.764013886
19.044700,3.258529663,-5.652236938,-2.037673950,-0.110853150,0.080242552,0.769384980
19.045327,2.800765991,-5.308914185,-2.136856079,-0.108655885,0.083172239,0.770849824
19.045954,2.678695679,-5.331802368,-2.014785767,-0.104383424,0.082073607,0.774145722
19.046581,2.564254761,-5.163955688,-2.106338501,-0.108167604,0.080974974,0.773047090
19.047207,2.159896851,-4.790115356,-2.228408813,-0.103040650,0.080852903,0.776587129
19.047832,1.946273804,-4.622268677,-2.281814575,-0.101209596,0.082806028,0.779028535
19.048458,1.755538940,-4.637527466,-2.365737915,-0.100355104,0.079754271,0.780249238
19.049083,1.251998901,-4.172134399,-2.205520630,-0.100355104,0.083172239,0.785132051
19.049710,1.236740112,-4.172134399,-2.327590942,-0.104505494,0.080974974,0.785864472
19.050337,0.672164917,-3.859329224,-2.419143677,-0.100599244,0.079754271,0.786596894
19.050964,0.336471558,-3.958511353,-2.304702759,-0.103651002,0.080852903,0.789404511
19.051590,0.206771851,-3.729629517,-2.426773071,-0.102796510,0.081585325,0.790625215
19.052216,-0.029739380,-3.233718872,-2.800613403,-0.101575807,0.081463255,0.793799043
19.052841,-0.250991821,-2.951431274,-2.770095825,-0.104871705,0.080242552,0.795630097
19.053467,-0.624832153,-2.905654907,-2.998977661,-0.102064088,0.082561888,0.797827363
19.054092,-1.174148560,-2.829360962,-2.922683716,-0.101942018,0.082073607,0.798803926
19.054718,-1.258071899,-2.493667603,-3.006607056,-0.101453736,0.078289427,0.803564668
19.055345,-1.784500122,-2.157974243,-3.212600708,-0.101331666,0.078167357,0.805273652
19.055971,-1.891311646,-1.852798462,-3.014236450,-0.103040650,0.075359739,0.803686738
19.056596,-2.303298950,-1.654434204,-3.403335571,-0.101209596,0.079021849,0.805151582
19.057223,-2.768692017,-1.372146606,-3.182083130,-0.102552369,0.073650755,0.804419160
19.057850,-2.883132935,-1.005935669,-3.594070435,-0.104261354,0.073650755,0.808203340
19.058475,-2.989944458,-0.693130493,-3.731399536,-0.102796510,0.070110716,0.806494355
19.059102,-3.630813599,-0.471878052,-3.685623169,-0.105970338,0.073162474,0.806860566
19.059727,-3.630813599,0.001144409,-3.830581665,-0.110242799,0.068523802,0.811743379
19.060354,-3.768142700,0.207138062,-3.838211060,-0.109022096,0.067303099,0.808447480
19.060981,-4.058059692,0.329208374,-3.807693481,-0.108655885,0.065227903,0.807348847
19.061608,-4.332717896,0.626754761,-4.051834106,-0.112195924,0.064739622,0.808935761
19.062234,-4.424270630,1.084518433,-4.006057739,-0.114393190,0.061565794,0.803930879
19.062860,-4.538711548,1.244735718,-4.135757446,-0.115491822,0.057171263,0.802832246
19.063486,-4.676040649,1.244735718,-4.196792603,-0.120008424,0.057049192,0.804175019
19.064113,-4.973587036,1.465988159,-4.486709595,-0.119276002,0.055340208,0.805029511
19.064738,-4.973587036,1.496505737,-4.440933228,-0.123914674,0.050213255,0.801001191
19.065363,-5.194839478,1.542282104,-4.440933228,-0.125013307,0.050823607,0.798437715
19.065988,-5.149063110,1.748275757,-4.517227173,-0.125989869,0.046062864,0.793432832
19.066614,-4.988845825,1.542282104,-4.601150513,-0.131116822,0.046673216,0.789404511
19.067240,-5.057510376,1.626205444,-4.761367798,-0.133558229,0.043011107,0.786841035
19.067866,-4.920181274,1.580429077,-4.761367798,-0.134656861,0.042522825,0.788061738
19.068491,-4.805740356,1.382064819,-4.974990845,-0.135145143,0.041302122,0.783423066
19.069117,-4.691299438,1.366806030,-4.875808716,-0.138441041,0.039104857,0.779760957
19.069744,-4.180130005,1.206588745,-5.112319946,-0.140272096,0.038372435,0.776587129
19.070371,-3.844436646,0.985336304,-5.135208130,-0.141492799,0.035320677,0.775976777
19.090751,0.969711304,-1.745986938,-7.576614380,-0.178724244,0.038982786,0.790503144
19.091428,0.740829468,-1.845169067,-7.660537720,-0.183973268,0.035808958,0.788672090
19.092055,0.321212769,-2.096939087,-7.675796509,-0.186048463,0.038128294,0.785009980
19.092680,0.336471558,-1.990127563,-7.576614380,-0.188856080,0.038372435,0.780371308
19.093306,0.191513062,-2.051162720,-7.820755005,-0.193372682,0.038006224,0.781469941
19.093933,0.000778198,-1.959609985,-7.897048950,-0.192884400,0.038372435,0.773901582
19.094559,-0.044998169,-2.264785767,-7.790237427,-0.197767213,0.037640013,0.775000215
19.095184,-0.205215454,-2.470779419,-7.965713501,-0.201551393,0.038006224,0.773291230
19.095811,-0.250991821,-2.608108521,-7.973342896,-0.201795533,0.040203489,0.769018769
19.096437,-0.250991821,-2.821731567,-7.942825317,-0.204481080,0.039837278,0.772070527
19.097062,-0.388320923,-2.936172485,-8.194595337,-0.208997682,0.038128294,0.769262910
19.097688,-0.533279419,-2.836990356,-8.164077759,-0.211805299,0.038738646,0.771216035
19.098313,-0.487503052,-3.195571899,-8.293777466,-0.211194947,0.038250364,0.772314668
19.098939,-0.426467896,-3.653335571,-8.324295044,-0.212171510,0.042766966,0.770971894
19.099565,-0.640090942,-3.851699829,-8.347183228,-0.212537721,0.042156614,0.774511933
19.100190,-0.624832153,-3.859329224,-8.461624146,-0.216321900,0.039715208,0.775976777
19.100817,-0.792678833,-4.301834106,-8.484512329,-0.210340455,0.039471067,0.775732636
19.101442,-0.518020630,-4.538345337,-8.492141724,-0.211927369,0.043499388,0.780005097
19.102068,-1.059707642,-4.690933228,-8.659988403,-0.214734986,0.039715208,0.782202363
19.102695,-0.800308228,-4.996109009,-8.644729614,-0.214002565,0.039593138,0.786474824
19.103321,-0.983413696,-5.125808716,-8.736282349,-0.211683229,0.038738646,0.786352754
19.103947,-1.029190063,-5.278396606,-8.835464478,-0.211072877,0.039471067,0.789648652
19.104574,-1.174148560,-5.736160278,-8.904129028,-0.209241822,0.039226927,0.791723847
19.105199,-1.319107056,-5.919265747,-9.026199341,-0.208509400,0.036419310,0.795019746
19.105824,-1.425918579,-5.774307251,-9.201675415,-0.207166627,0.033001341,0.797339082
19.106450,-1.586135864,-6.247329712,-9.056716919,-0.203382447,0.034588255,0.799292207
19.107076,-1.624282837,-6.346511841,-9.186416626,-0.201795533,0.033611692,0.804297090
19.107702,-1.540359497,-6.430435181,-9.293228149,-0.199232057,0.032757200,0.800757051
19.108327,-1.990493774,-6.842422485,-9.461074829,-0.198133424,0.027996460,0.809179902
19.108954,-1.662429810,-6.827163696,-9.300857544,-0.195203736,0.032635130,0.806128144
19.109580,-2.051528931,-6.872940063,-9.377151489,-0.193372682,0.028973022,0.809057832
19.110205,-1.784500122,-7.208633423,-9.461074829,-0.191297486,0.028118530,0.811010957
19.110831,-1.952346802,-7.361221313,-9.560256958,-0.187513307,0.023723999,0.810400605
19.111457,-1.898941040,-7.246780396,-9.590774536,-0.186048463,0.022381226,0.812964082
19.112083,-1.845535278,-7.674026489,-9.728103638,-0.185071900,0.022869507,0.812353730
19.112709,-1.891311646,-7.925796509,-9.789138794,-0.186414674,0.020672241,0.815649629
19.113335,-1.654800415,-8.009719849,-9.674697876,-0.186658815,0.018597046,0.814184785
19.113962,-1.753982544,-8.307266235,-9.804397583,-0.184583619,0.017254272,0.818091035
19.114588,-1.593765259,-8.604812622,-9.873062134,-0.183240846,0.015667358,0.816504121
19.115213,-1.448806763,-8.665847778,-9.979873657,-0.182874635,0.014202515,0.820166230
19.115840,-1.555618286,-8.787918091,-9.956985474,-0.183729127,0.013714233,0.817602754
19.116467,-0.807937622,-9.268569946,-10.040908813,-0.181776002,0.012249390,0.819189668
19.117093,-0.609573364,-9.505081177,-10.193496704,-0.182020143,0.010296265,0.820410371
19.117719,-0.525650024,-9.848403931,-10.109573364,-0.185071900,0.007854858,0.821509004
19.118344,-0.136550903,-9.695816040,-10.292678833,-0.185193971,0.006878296,0.825049043
19.118970,0.153366089,-10.420608521,-10.391860962,-0.184095338,0.006023804,0.824316621
19.119595,0.496688843,-10.672378540,-10.353713989,-0.181165650,0.003338257,0.825415254
19.120221,0.786605835,-10.802078247,-10.552078247,-0.181165650,0.002605835,0.827368379
19.132863,4.517379761,-14.632034302,-11.459976196,-0.138074830,-0.012286743,0.909765840
19.133602,4.433456421,-14.670181274,-11.482864380,-0.135999635,-0.012164673,0.915747285
19.134229,4.029098511,-14.799880981,-11.231094360,-0.132215455,-0.012897095,0.915869355
19.134854,3.830734253,-14.807510376,-11.429458618,-0.132459596,-0.011310181,0.922339082
19.135479,3.807846069,-14.845657349,-11.353164673,-0.131116822,-0.011676392,0.925879121
19.136105,3.456893921,-14.723587036,-11.147171021,-0.130994752,-0.008746704,0.927710176
19.136732,3.006759644,-14.670181274,-11.124282837,-0.130872682,-0.010211548,0.927954316
19.137357,2.693954468,-14.830398560,-11.177688599,-0.132581666,-0.009967407,0.925390840
19.137983,2.243820190,-14.609146118,-11.047988892,-0.130994752,-0.008136353,0.929907441
19.138609,1.793685913,-14.654922485,-11.109024048,-0.128309205,-0.010699829,0.933081269
19.139235,1.236740112,-14.632034302,-11.040359497,-0.133680299,-0.008868774,0.933325410
19.139861,0.908676147,-14.517593384,-11.002212524,-0.136609986,-0.010089478,0.935034394
19.140487,0.344100952,-14.288711548,-10.971694946,-0.133192018,-0.008624634,0.937842011
19.141113,-0.327285767,-14.204788208,-10.849624634,-0.135755494,-0.010089478,0.941504121
19.141738,-0.640090942,-14.242935181,-11.009841919,-0.136854127,-0.008258423,0.941992402
19.142363,-1.486953735,-14.120864868,-10.948806763,-0.138196900,-0.004596313,0.941992402
19.142989,-1.952346802,-14.250564575,-10.834365845,-0.135511354,-0.009479126,0.945532441
19.143614,-2.509292603,-14.044570923,-10.704666138,-0.137220338,-0.008380493,0.947363496
19.144240,-3.340896606,-14.075088501,-10.849624634,-0.136121705,-0.008136353,0.947119355
19.144866,-3.783401489,-14.265823364,-10.819107056,-0.134534791,-0.007037720,0.944677949
19.145491,-4.569229126,-14.113235474,-10.590225220,-0.132703736,-0.010089478,0.949560761
19.146117,-4.965957642,-14.105606079,-10.552078247,-0.128675416,-0.006305298,0.953100801
19.146744,-5.644973755,-14.227676392,-10.506301880,-0.128797486,-0.007037720,0.956030488
19.147370,-6.270584106,-14.242935181,-10.590225220,-0.130994752,-0.006915649,0.957007051
19.147995,-7.094558716,-14.281082153,-10.643630981,-0.130872682,-0.007892212,0.960791230
19.148622,-7.414993286,-14.220046997,-10.506301880,-0.127088502,-0.009234985,0.961157441
19.149248,-8.345779419,-14.380264282,-10.391860962,-0.127454713,-0.008014282,0.960180879
19.149874,-8.887466431,-14.281082153,-10.483413696,-0.130262330,-0.010699829,0.962622285
19.150499,-9.406265259,-14.143753052,-10.384231567,-0.124158815,-0.010333618,0.962256074
19.151125,-9.986099243,-14.509963989,-10.300308228,-0.123060182,-0.011920532,0.967016816
19.151751,-10.581192017,-14.296340942,-10.124832153,-0.123914674,-0.011188110,0.969214082
19.152376,-11.206802368,-14.517593384,-10.117202759,-0.121595338,-0.010333618,0.967871308
19.153001,-11.885818481,-14.525222778,-10.071426392,-0.123426393,-0.012286743,0.972998261
19.153627,-12.381729126,-14.532852173,-10.162979126,-0.122083619,-0.009845337,0.972509980
19.154253,-12.976821899,-14.448928833,-9.979873657,-0.122205690,-0.011066040,0.973242402
19.154879,-13.472732544,-14.342117310,-10.109573364,-0.125623658,-0.010699829,0.978735566
19.155506,-13.846572876,-14.479446411,-9.956985474,-0.127454713,-0.012042603,0.979223847
19.156131,-14.144119263,-14.418411255,-9.621292114,-0.127576783,-0.011188110,0.983374238
19.156756,-14.731582642,-14.456558228,-9.895950317,-0.132581666,-0.011432251,0.984228730
19.157382,-15.196975708,-14.479446411,-9.781509399,-0.135511354,-0.012652954,0.988867402
19.158007,-15.578445435,-14.456558228,-9.819656372,-0.130628541,-0.008990845,0.989599824
19.158633,-16.158279419,-14.548110962,-9.728103638,-0.133558229,-0.010577759,0.995459199
19.159259,-16.486343384,-14.509963989,-9.865432739,-0.134290650,-0.010821899,0.998388886
19.159886,-16.966995239,-14.578628540,-9.865432739,-0.137098268,-0.010699829,1.003027558
19.160513,-17.150100708,-14.548110962,-9.865432739,-0.139417604,-0.009723267,1.003882051
19.161140,-17.699417114,-14.586257935,-9.949356079,-0.138563111,-0.010821899,1.007544160
19.173724,-17.089065552,-15.272903442,-11.482864380,-0.150648072,-0.055987917,1.070044160
19.174445,-16.478713989,-15.173721313,-11.566787720,-0.150648072,-0.058185183,1.074560761
19.175071,-16.104873657,-15.265274048,-11.551528931,-0.148572877,-0.062213503,1.082007051
19.175697,-15.578445435,-15.211868286,-11.688858032,-0.153577760,-0.066485964,1.086645722
19.176324,-14.792617798,-14.998245239,-11.719375610,-0.150281861,-0.071612917,1.093969941
19.176949,-14.350112915,-14.891433716,-11.818557739,-0.147474244,-0.075397097,1.097265840
19.177574,-13.785537720,-14.845657349,-11.879592896,-0.149183229,-0.079303347,1.102392793
19.178200,-13.022598267,-14.784622192,-11.772781372,-0.148450807,-0.085284792,1.106787324
19.178826,-12.465652466,-14.555740356,-11.887222290,-0.150403932,-0.088824831,1.115454316
19.179453,-11.687454224,-14.258193970,-12.024551392,-0.151868775,-0.092486940,1.117895722
19.180079,-11.061843872,-14.502334595,-12.146621704,-0.149671510,-0.096393190,1.124853730
19.180704,-10.489639282,-14.265823364,-12.100845337,-0.152479127,-0.103961550,1.131567597
19.181330,-9.673294067,-13.968276978,-12.123733521,-0.153333619,-0.106769167,1.132422090
19.181957,-9.108718872,-13.785171509,-12.192398071,-0.153455690,-0.111041628,1.139624238
19.182582,-8.406814575,-13.609695435,-12.146621704,-0.155408815,-0.118365847,1.142553926
19.183207,-7.620986938,-13.571548462,-12.253433228,-0.157850221,-0.120807253,1.145483613
19.183832,-7.048782349,-13.274002075,-12.024551392,-0.157117799,-0.125323847,1.147192597
19.184458,-6.392654419,-13.167190552,-12.192398071,-0.158948854,-0.130084589,1.151220918
19.185084,-5.759414673,-12.839126587,-12.161880493,-0.162122682,-0.137042597,1.153296113
19.185709,-5.026992798,-12.594985962,-11.948257446,-0.163343385,-0.142535761,1.154638886
19.186335,-4.531082153,-12.442398071,-11.932998657,-0.165418580,-0.146197870,1.155615449
19.186961,-3.829177856,-12.373733521,-11.856704712,-0.169446900,-0.150958613,1.157568574
19.187587,-3.218826294,-12.274551392,-11.803298950,-0.172254518,-0.156085566,1.154638886
19.188212,-2.562698364,-12.068557739,-11.757522583,-0.171277955,-0.159747675,1.157324433
19.188837,-2.127822876,-11.885452271,-11.719375610,-0.172620729,-0.168048456,1.158056855
19.189462,-1.197036743,-11.786270142,-11.665969849,-0.173963502,-0.171832636,1.158056855
19.191130,0.534835815,-11.732864380,-11.398941040,-0.176649049,-0.187091425,1.154516816
19.191756,1.412216187,-11.534500122,-11.124282837,-0.176526979,-0.193439081,1.152929902
19.192382,2.030197144,-11.481094360,-11.040359497,-0.178358033,-0.201129511,1.152807832
19.193007,2.968612671,-11.534500122,-10.941177368,-0.176526979,-0.204181269,1.150732636
19.193632,3.617111206,-11.442947388,-10.613113403,-0.172132447,-0.207233027,1.148657441
19.194258,4.402938843,-11.641311646,-10.567337036,-0.174451783,-0.211749628,1.150610566
19.194883,5.173507690,-11.633682251,-10.506301880,-0.174817994,-0.221026972,1.146704316
19.195509,5.860153198,-11.664199829,-10.056167603,-0.172254518,-0.224078730,1.146948457
19.196136,6.523910522,-11.503982544,-9.781509399,-0.172010377,-0.229205683,1.146582246
19.196762,7.515731812,-11.725234985,-9.842544556,-0.169202760,-0.234088495,1.147314668
19.197387,8.057418823,-11.648941040,-9.369522095,-0.168714479,-0.233844355,1.147314668
19.198014,9.003463745,-11.626052856,-9.430557251,-0.163343385,-0.243243769,1.144995332
19.198639,9.743515015,-11.900711060,-9.010940552,-0.168104127,-0.248248652,1.146826386
19.199265,10.727706909,-12.030410767,-8.774429321,-0.163465455,-0.247516230,1.147558808
19.199890,11.292282104,-12.083816528,-8.560806274,-0.157484010,-0.252765268,1.150854707
19.200516,11.978927612,-12.411880493,-8.042007446,-0.159192994,-0.256549448,1.149878144
19.201141,12.665573120,-12.472915649,-7.782608032,-0.154920533,-0.257648081,1.150488496
19.201767,13.634506226,-12.602615356,-7.469802856,-0.153699830,-0.261554331,1.151220918
19.202393,14.397445679,-12.877273560,-7.195144653,-0.149549440,-0.264361948,1.154638886
19.203019,14.984909058,-13.159561157,-6.935745239,-0.145032838,-0.268390268,1.155005097
19.215637,21.370712280,-15.448379517,1.357406616,-0.052259400,-0.235431269,1.211035371
19.216374,20.653549194,-15.127944946,2.280563354,-0.038343385,-0.227130488,1.217871308
19.217000,20.417037964,-15.105056763,2.768844604,-0.034192994,-0.216510370,1.225317597
19.217627,19.974533081,-15.036392212,3.180831909,-0.030408815,-0.212848261,1.227881074
19.218253,19.242111206,-14.754104614,3.493637085,-0.022962525,-0.205524042,1.237036347
19.218878,18.868270874,-14.555740356,3.913253784,-0.016859010,-0.196612909,1.240820527
19.219504,17.929855347,-14.448928833,4.630416870,-0.011121705,-0.190875605,1.243384004
19.220131,17.075363159,-14.250564575,4.905075073,-0.004041627,-0.181476191,1.247534394
19.220756,16.663375854,-14.075088501,5.286544800,0.000474975,-0.175250605,1.253027558
19.221381,15.732589722,-13.914871216,5.645126343,0.006700560,-0.168170527,1.254248261
19.222006,14.611068726,-13.426589966,6.018966675,0.016832396,-0.160846308,1.260595918
19.222632,13.573471069,-13.434219360,6.392807007,0.018297240,-0.153155878,1.258154511
19.223258,12.711349487,-13.098526001,6.789535522,0.029771850,-0.145831659,1.259741426
19.223885,11.635604858,-12.778091431,7.270187378,0.040391967,-0.138995722,1.266211152
19.224510,10.590377808,-12.686538696,7.613510132,0.046861693,-0.131671503,1.270239472
19.225137,9.621444702,-12.327957153,7.979721069,0.057848021,-0.119342409,1.271093965
19.225762,8.560958862,-11.854934692,8.323043823,0.063463256,-0.113727175,1.273047090
19.226388,7.271591187,-11.679458618,8.773178101,0.073961303,-0.106036745,1.275244355
19.227015,5.959335327,-11.259841919,9.032577515,0.082262084,-0.098956667,1.277319551
19.227641,4.601303101,-10.664749146,9.589523315,0.086778685,-0.089068972,1.277319551
19.228268,3.434005737,-10.290908813,9.711593628,0.098741576,-0.078082643,1.278906465
19.228893,1.923385620,-9.840774536,10.123580933,0.102769896,-0.071124636,1.279394746
19.229520,0.733200073,-9.337234497,10.413497925,0.111558959,-0.063190065,1.277563691
19.230145,-0.708755493,-8.940505981,10.764450073,0.116075560,-0.053546511,1.280615449
19.230770,-1.998123169,-8.368301392,11.145919800,0.125719115,-0.042438112,1.285009980
19.231395,-3.310379028,-7.933425903,11.206954956,0.128648803,-0.034869753,1.285132051
19.232020,-4.782852173,-7.506179810,11.634201050,0.135850951,-0.026080688,1.284643769
19.232645,-6.148513794,-6.644058228,11.863082886,0.137437865,-0.016437134,1.285498261
19.233271,-7.743057251,-6.018447876,11.969894409,0.146226928,-0.009112915,1.291601777
19.233896,-9.070571899,-5.286026001,12.198776245,0.147569701,-0.000690063,1.289160371
19.234523,-10.405715942,-4.675674438,12.534469604,0.150133178,0.010540405,1.293310761
19.235150,-11.870559692,-4.256057739,12.626022339,0.152574584,0.017376343,1.294653535
19.235777,-13.434585571,-3.279495239,12.923568726,0.154405639,0.024334351,1.294165254
19.236402,-14.777359009,-2.798843384,12.908309937,0.159532592,0.028362671,1.294287324
19.237027,-16.013320923,-2.455520630,13.045639038,0.162706420,0.037517942,1.297949433
19.237652,-17.378982544,-1.601028442,13.228744507,0.159166381,0.044109739,1.298437715
19.238278,-19.065078735,-0.899124146,13.266891479,0.159166381,0.051922239,1.296728730
19.238904,-20.178970337,-0.342178345,13.297409058,0.159776732,0.056927122,1.296972871
19.239529,-21.727737427,0.313949585,13.274520874,0.157945678,0.063885130,1.299902558
19.240155,-22.879776001,0.512313843,13.236373901,0.159898803,0.066814817,1.297094941
19.240781,-23.871597290,1.290512085,13.297409058,0.158189818,0.073162474,1.294653535
19.241407,-25.107559204,1.923751831,13.533920288,0.153062865,0.074871458,1.294043183
19.242039,-26.122268677,2.282333374,13.259262085,0.148546264,0.078899778,1.295752168
19.242666,-27.045425415,3.022384644,13.411849976,0.145982787,0.080486692,1.291845918
19.243292,-27.907546997,3.266525269,13.366073608,0.144273803,0.083660521,1.289282441
19.243919,-28.838333130,3.823471069,13.320297241,0.134874389,0.086590208,1.285498261
19.244545,-29.502090454,4.288864136,13.060897827,0.130357787,0.091228880,1.280005097
19.245172,-30.226882935,4.670333862,13.053268433,0.123765990,0.091228880,1.278662324
19.257745,-19.728836060,6.020736694,7.918685913,-0.023206666,0.078167357,1.231421113
19.258482,-18.271621704,5.761337280,7.186264038,-0.028455690,0.073894896,1.231909394
19.259108,-16.738113403,5.601119995,6.911605835,-0.029798463,0.070598997,1.230078340
19.259734,-15.387710571,5.150985718,6.682723999,-0.035901979,0.069378294,1.230078340
19.260361,-13.610061646,5.112838745,6.110519409,-0.036756471,0.068645872,1.234350801
19.260986,-12.007888794,4.784774780,5.889266968,-0.036878541,0.067913450,1.230566621
19.261611,-10.214981079,4.670333862,5.370468140,-0.037977174,0.065594114,1.231299043
19.262236,-9.070571899,4.281234741,5.126327515,-0.042371705,0.066326536,1.229467988
19.262861,-7.178482056,4.098129272,4.813522339,-0.043104127,0.060467161,1.231421113
19.263486,-5.629714966,4.021835327,4.416793823,-0.041639283,0.061565794,1.229834199
19.264111,-3.821548462,3.754806519,4.134506226,-0.044568971,0.060345091,1.231909394
19.264737,-2.150711060,3.525924683,3.814071655,-0.046033815,0.059368528,1.229223847
19.265363,-0.502761841,3.228378296,3.379196167,-0.043958619,0.056927122,1.226782441
19.265988,0.855270386,3.152084351,3.066390991,-0.046033815,0.056682982,1.226294160
19.266614,2.625289917,2.946090698,2.692550659,-0.045423463,0.054485716,1.223242402
19.267240,4.105392456,2.717208862,2.463668823,-0.047498658,0.056438841,1.220190644
19.267865,5.425277710,2.556991577,2.189010620,-0.049817994,0.054851927,1.218359590
19.268490,6.913009644,2.549362183,1.960128784,-0.050550416,0.053875364,1.216528535
19.269116,8.477035522,2.358627319,1.784652710,-0.051282838,0.054607786,1.212011933
19.269743,9.651962280,1.946640015,1.387924194,-0.053724244,0.054851927,1.206518769
19.270369,10.788742065,1.794052124,1.113265991,-0.057142213,0.053875364,1.205786347
19.270996,12.223068237,1.641464233,0.892013550,-0.058362916,0.051678099,1.202002168
19.271622,13.214889526,1.527023315,0.716537476,-0.061902955,0.049480833,1.198462129
19.272248,14.366928101,1.481246948,0.617355347,-0.066419557,0.051922239,1.194922090
19.272875,15.335861206,1.160812378,0.274032593,-0.070447877,0.055096067,1.192114472
19.273501,16.510787964,0.954818726,0.365585327,-0.070692018,0.049114622,1.185400605
19.274128,17.159286499,1.008224487,-0.061660767,-0.074598268,0.051800169,1.182226777
19.274754,18.204513550,0.642013550,-0.191360474,-0.078870729,0.053997435,1.177832246
19.275381,19.104782104,0.550460815,-0.397354126,-0.084363893,0.054607786,1.175024629
19.276006,19.760910034,0.298690796,-0.778823853,-0.088758424,0.052898802,1.172339082
19.276632,20.417037964,0.397872925,-0.900894165,-0.089246705,0.052776732,1.170263886
19.277257,21.294418335,-0.067520142,-0.862747192,-0.092542604,0.054851927,1.166113496
19.277884,21.782699585,-0.197219849,-1.236587524,-0.089857057,0.050823607,1.161718965
19.278509,22.248092651,-0.418472290,-1.228958130,-0.093641236,0.052410521,1.159277558
19.279136,22.606674194,-0.510025024,-1.480728149,-0.096815065,0.048015989,1.160254121
19.279763,23.072067261,-0.815200806,-1.557022095,-0.096937135,0.051189817,1.155127168
19.280390,23.308578491,-1.120376587,-1.709609985,-0.100477174,0.051189817,1.153540254
19.281017,23.476425171,-1.372146606,-1.724868774,-0.096204713,0.054119505,1.150732636
19.281643,23.941818237,-1.562881470,-1.862197876,-0.096204713,0.051433958,1.154272676
19.282270,24.056259155,-1.730728149,-1.991897583,-0.097669557,0.049114622,1.151220918
19.282895,24.041000366,-1.951980591,-2.030044556,-0.094984010,0.044964232,1.145727754
19.283520,23.972335815,-2.486038208,-2.129226685,-0.093519166,0.046795286,1.147070527
19.284146,24.056259155,-2.531814575,-2.022415161,-0.093763307,0.042889036,1.145727754
19.284772,23.964706421,-2.753067017,-1.930862427,-0.092298463,0.044720091,1.146704316
19.285397,23.926559448,-3.012466431,-2.144485474,-0.094007447,0.041424192,1.144873261
19.286022,23.789230347,-3.172683716,-2.014785767,-0.090711549,0.040447630,1.140967011
19.286647,23.682418823,-3.485488892,-2.281814575,-0.090589479,0.037151732,1.144384980
19.287273,23.514572144,-3.836441040,-2.281814575,-0.088758424,0.037029661,1.144507051
19.301123,13.840499878,-6.537246704,-0.321060181,-0.074842408,0.045452513,1.158911347
19.301844,13.222518921,-6.628799438,0.007003784,-0.074354127,0.049236692,1.158056855
19.302469,12.619796753,-6.666946411,-0.099807739,-0.075330690,0.055218138,1.156714082
19.303094,12.024703979,-6.872940063,0.129074097,-0.070081666,0.063518919,1.155005097
19.303720,11.109176636,-6.773757935,0.182479858,-0.068494752,0.065594114,1.158545136
19.304347,10.247055054,-6.857681274,0.258773804,-0.063489869,0.070110716,1.155005097
19.304973,9.438339233,-6.933975220,0.251144409,-0.061048463,0.075848021,1.152319551
19.305598,8.469406128,-6.911087036,0.304550171,-0.058851197,0.083172239,1.154272676
19.306225,7.408920288,-6.644058228,0.220626831,-0.053235963,0.087688841,1.153174043
19.306852,6.432357788,-6.689834595,0.480026245,-0.049085572,0.094524778,1.155981660
19.307479,5.265060425,-6.590652466,0.396102905,-0.044691041,0.101482786,1.154150605
19.308104,4.357162476,-6.384658813,0.449508667,-0.038587525,0.105877317,1.154760957
19.308730,3.052536011,-6.125259399,0.495285034,-0.032728150,0.113079466,1.156225801
19.309356,2.068344116,-6.079483032,0.312179565,-0.024915650,0.117962278,1.155005097
19.309982,0.771347046,-5.728530884,0.441879272,-0.022230104,0.121014036,1.156347871
19.310608,-0.449356079,-5.438613892,0.548690796,-0.016126588,0.126018927,1.160132051
19.311234,-1.647171021,-5.263137817,0.380844116,-0.008924440,0.134197637,1.159521699
19.311859,-3.447708130,-4.965591431,0.647872925,-0.004285768,0.138714239,1.161352754
19.312485,-4.714187622,-4.462051392,0.640243530,-0.000867799,0.141155645,1.165747285
19.313111,-6.056961060,-4.515457153,0.655502319,-0.001966432,0.147503302,1.164526582
19.313736,-7.537063599,-3.981399536,0.754684448,0.004991576,0.150432989,1.163672090
19.314362,-8.834060669,-3.676223755,0.754684448,0.008043334,0.155804083,1.166723847
19.314988,-10.222610474,-3.302383423,0.838607788,0.010728881,0.156536505,1.162939668
19.315613,-11.740859985,-2.890396118,0.571578979,0.009630248,0.156536505,1.166845918
19.316239,-13.014968872,-2.516555786,0.525802612,0.010118529,0.162273809,1.165014863
19.316864,-14.350112915,-2.112197876,0.792831421,0.012437865,0.160686895,1.163916230
19.317489,-15.685256958,-1.868057251,0.434249878,0.012682006,0.164226934,1.162939668
19.318114,-16.844924927,-1.448440552,0.373214722,0.012071654,0.160076544,1.163550019
19.318740,-18.088516235,-1.257705688,0.373214722,0.010606810,0.156780645,1.160254121
19.319366,-19.240554810,-0.899124146,0.357955933,0.007066771,0.158855841,1.159277558
19.319991,-20.003494263,-0.860977173,0.274032593,0.006944701,0.160198614,1.158056855
19.320616,-20.804580688,-0.510025024,0.266403198,0.005113646,0.153118536,1.155981660
19.321243,-21.697219849,-0.342178345,0.083297729,0.004869506,0.151287481,1.152685761
19.321869,-22.116836548,-0.090408325,-0.031143188,0.005235717,0.147259161,1.144018769
19.322494,-22.589859009,0.031661987,-0.084548950,0.000719115,0.144451544,1.145483613
19.323120,-22.788223267,0.367355347,-0.252395630,-0.001111940,0.141399786,1.142553926
19.323745,-22.910293579,0.069808960,-0.290542603,-0.000379518,0.138592169,1.140844941
19.324370,-22.811111450,0.100326538,-0.420242310,-0.002698854,0.134441778,1.133520722
19.324996,-22.696670532,0.016403198,-0.359207153,-0.003553346,0.131023809,1.129492402
19.325622,-22.444900513,-0.334548950,-0.847488403,-0.007337525,0.127727911,1.125464082
19.326248,-21.933731079,-0.418472290,-0.900894165,-0.007337525,0.125774786,1.124731660
19.326874,-21.254714966,-0.494766235,-1.099258423,-0.012098268,0.122845091,1.120337129
19.327499,-20.445999146,-0.746536255,-1.282363892,-0.011976197,0.122723021,1.115820527
19.328125,-19.599136353,-1.059341431,-1.610427856,-0.013318971,0.115276732,1.113867402
19.328750,-18.294509888,-1.234817505,-1.755386353,-0.016004518,0.116375364,1.110571504
19.329376,-17.203506470,-1.700210571,-2.014785767,-0.012098268,0.117351927,1.107031465
19.330002,-16.066726685,-2.173233032,-2.327590942,-0.014783815,0.113567747,1.108618379
19.330627,-14.968093872,-2.363967896,-2.701431274,-0.017347291,0.113689817,1.102270722
19.349889,4.113021851,-5.659866333,-10.162979126,0.006334350,0.164471075,1.086767793
19.350632,3.670516968,-5.423355103,-10.422378540,0.003160521,0.160564825,1.082861543
19.351258,3.189865112,-5.209732056,-10.605484009,0.003770873,0.163372442,1.078100801
19.351885,2.754989624,-5.316543579,-10.758071899,0.003160521,0.159710333,1.070654511
19.352511,2.327743530,-5.247879028,-10.811477661,0.004259154,0.161541387,1.066382051
19.353137,1.915756226,-5.209732056,-10.788589478,0.002306029,0.155437872,1.063330293
19.353762,1.435104370,-4.980850220,-11.109024048,0.003160521,0.157757208,1.055273652
19.354387,0.946823120,-5.209732056,-11.147171021,-0.000135377,0.151043341,1.051123261
19.355013,0.435653687,-5.163955688,-11.299758911,-0.005872682,0.151897833,1.043432832
19.355638,0.046554565,-4.919815063,-11.582046509,-0.010023072,0.148357794,1.039404511
19.356263,-0.441726685,-5.438613892,-11.467605591,-0.007825807,0.146038458,1.033056855
19.356888,-0.609573364,-5.537796021,-11.604934692,-0.012586549,0.143230841,1.030371308
19.357514,-0.937637329,-5.728530884,-11.704116821,-0.016248658,0.139446661,1.025366426
19.358141,-1.105484009,-6.117630005,-11.582046509,-0.016614869,0.134685919,1.020605683
19.358768,-1.250442505,-6.315994263,-11.917739868,-0.020521119,0.130901739,1.015478730
19.359393,-1.471694946,-6.560134888,-11.887222290,-0.024061158,0.128704473,1.009131074
19.360019,-1.631912231,-6.796646118,-11.910110474,-0.024793580,0.125164434,1.008764863
19.360645,-1.395401001,-7.468032837,-12.222915649,-0.027234986,0.120037474,1.004248261
19.361271,-1.319107056,-7.521438599,-12.390762329,-0.027723268,0.115154661,1.004370332
19.361898,-1.357254028,-7.910537720,-12.497573853,-0.032484010,0.112224974,0.999487519
19.362524,-1.136001587,-8.292007446,-12.535720825,-0.036512330,0.106853880,0.997046113
19.363149,-0.823196411,-8.772659302,-12.650161743,-0.038343385,0.102459349,0.998999238
19.363774,-0.449356079,-9.039688110,-12.673049927,-0.037122682,0.101482786,1.000219941
19.364401,-0.182327271,-9.390640259,-12.848526001,-0.036756471,0.096477903,1.000708222
19.365026,0.237289429,-9.672927856,-13.107925415,-0.036634400,0.093670286,1.005102754
19.365651,0.511947632,-10.107803345,-13.077407837,-0.034925416,0.091106810,1.008398652
19.366276,0.847640991,-10.580825806,-13.168960571,-0.036268190,0.085003294,1.009741426
19.366903,1.534286499,-10.802078247,-13.275772095,-0.036146119,0.084759153,1.011694551
19.367530,1.885238647,-11.145401001,-13.550430298,-0.036268190,0.083416380,1.019629121
19.368156,2.381149292,-11.473464966,-13.565689087,-0.037488893,0.080364622,1.024267793
19.368782,2.899948120,-11.961746216,-13.588577271,-0.034803346,0.080608763,1.025976777
19.369407,3.395858765,-12.312698364,-13.718276978,-0.037000611,0.080242552,1.030371308
19.370040,3.907028198,-12.671279907,-13.748794556,-0.035047486,0.076214232,1.033911347
19.370665,4.395309448,-12.968826294,-13.802200317,-0.032606080,0.077679075,1.037695527
19.371290,4.998031616,-13.342666626,-13.931900024,-0.034437135,0.077312864,1.042578340
19.371915,5.341354370,-13.548660278,-14.084487915,-0.033948854,0.074993528,1.046850801
19.372540,5.860153198,-13.609695435,-14.061599731,-0.032972291,0.074871458,1.051733613
19.373166,6.340805054,-13.937759399,-14.336257935,-0.030775025,0.071819700,1.057715058
19.373792,6.645980835,-14.448928833,-14.237075806,-0.028211549,0.076336302,1.060522676
19.374417,6.951156616,-14.227676392,-14.382034302,-0.029798463,0.076580442,1.065405488
19.375043,7.294479370,-14.372634888,-14.374404907,-0.030530885,0.077801146,1.066870332
19.375669,7.439437866,-14.403152466,-14.404922485,-0.029432252,0.078289427,1.071631074
19.376294,7.622543335,-14.471817017,-14.458328247,-0.030897096,0.083050169,1.071997285
19.376921,7.828536987,-14.120864868,-14.763504028,-0.030164674,0.081341185,1.076513886
19.377548,7.843795776,-14.273452759,-14.702468872,-0.031385377,0.084759153,1.080542207
19.378173,7.759872437,-13.975906372,-14.900833130,-0.032361940,0.082317747,1.079077363
19.378798,7.744613647,-13.808059692,-14.877944946,-0.031141236,0.090252317,1.085180879
19.379424,7.538619995,-13.663101196,-15.015274048,-0.031751588,0.089519896,1.087500215
19.392125,-5.828079224,-6.773757935,-15.900283813,-0.047620729,0.112469114,1.069922090
19.392887,-7.300552368,-6.293106079,-16.113906860,-0.047742799,0.111248411,1.058691621
19.393512,-7.865127563,-6.140518188,-16.068130493,-0.052015260,0.104656614,1.061377168
19.394137,-8.795913696,-5.530166626,-16.129165649,-0.046644166,0.109173216,1.056372285
19.394763,-9.421524048,-5.118179321,-16.068130493,-0.049695924,0.105755247,1.051489472
19.395388,-10.100540161,-4.858779907,-16.136795044,-0.049085572,0.101848997,1.051733613
19.396013,-10.657485962,-4.614639282,-16.121536255,-0.050306275,0.100262083,1.048681855
19.396639,-11.122879028,-4.416275024,-16.289382935,-0.052137330,0.099529661,1.043066621
19.397264,-11.733230591,-3.943252563,-16.235977173,-0.054212525,0.098797239,1.040991426
19.397890,-12.221511841,-3.752517700,-16.342788696,-0.053480104,0.095745482,1.043188691
19.398516,-12.610610962,-3.271865845,-16.548782349,-0.056898072,0.092449583,1.040625215
19.399141,-13.076004028,-3.088760376,-16.251235962,-0.059705690,0.093914427,1.042212129
19.399767,-13.625320435,-3.027725220,-16.312271118,-0.059217408,0.090008177,1.042212129
19.401505,-14.403518677,-2.356338501,-16.441970825,-0.066541627,0.084759153,1.040625215
19.402130,-14.685806274,-2.226638794,-16.480117798,-0.067518190,0.082928099,1.042822480
19.402756,-15.303787231,-1.860427856,-16.754776001,-0.071424440,0.082806028,1.042944551
19.403381,-15.525039673,-1.837539673,-16.518264771,-0.075208619,0.081585325,1.041845918
19.404008,-15.807327271,-1.707839966,-16.716629028,-0.078260377,0.079632200,1.039892793
19.404635,-16.104873657,-1.295852661,-16.609817505,-0.079603150,0.078533567,1.042456269
19.405260,-16.440567017,-1.196670532,-16.914993286,-0.086317018,0.075725950,1.042700410
19.405887,-16.783889771,-1.158523560,-16.609817505,-0.085218385,0.077068724,1.041357636
19.406513,-17.043289185,-0.876235962,-16.747146606,-0.087659791,0.070843138,1.040991426
19.407139,-17.264541626,-0.883865356,-16.693740845,-0.092298463,0.067791380,1.036108613
19.407766,-17.493423462,-0.716018677,-16.930252075,-0.092176393,0.064007200,1.038305879
19.408392,-17.630752563,-0.601577759,-16.968399048,-0.092786744,0.065472044,1.033545136
19.409018,-17.676528931,-0.479507446,-17.120986938,-0.097059205,0.061321653,1.032568574
19.409645,-17.951187134,-0.426101685,-17.067581177,-0.097303346,0.060100950,1.030615449
19.410270,-17.882522583,-0.037002563,-17.105728149,-0.101942018,0.059124388,1.027563691
19.410897,-18.019851685,-0.059890747,-17.326980591,-0.103040650,0.056194700,1.029394746
19.411523,-17.897781372,0.252914429,-17.120986938,-0.106946900,0.055584349,1.022925019
19.412150,-18.126663208,0.466537476,-17.174392700,-0.104383424,0.055218138,1.019995332
19.412777,-18.180068970,0.611495972,-17.372756958,-0.108533815,0.047039427,1.016699433
19.413402,-17.928298950,0.893783569,-17.311721802,-0.112928346,0.048015989,1.017798066
