time,gyro x,gyro y,gyro z,accel x,accel y,accel z
7.270700,-15.120681763,14.451217651,0.869125366,0.069444701,-0.014361938,0.993017793
7.280400,-7.865127563,6.135177612,0.502914429,-0.007093385,-0.005817017,1.000219941
7.281026,-7.804092407,6.119918823,0.777572632,-0.004163697,-0.009234985,0.994238496
7.281652,-7.254776001,5.845260620,0.884384155,-0.007581666,-0.021075806,0.994482636
7.282278,-7.102188110,5.387496948,0.640243530,-0.005750611,-0.026813110,0.992163301
7.282905,-6.163772583,5.250167847,0.533432007,0.003892943,-0.027667603,0.989599824
7.283532,-5.904373169,5.234909058,0.502914429,0.006822631,-0.027057251,0.989843965
7.284159,-5.408462524,4.777145386,0.586837769,0.008531615,-0.023151001,0.989477754
7.284784,-4.767593384,4.487228394,0.754684448,0.008531615,-0.022906860,0.991919160
7.285410,-4.363235474,4.525375366,0.830978394,0.009386107,-0.024005493,0.996435761
7.286040,-4.126724243,4.296493530,1.036972046,0.006456420,-0.024249634,0.997412324
7.286666,-3.638442993,4.159164429,0.853866577,0.003038451,-0.025592407,1.002050996
7.287293,-3.569778442,4.281234741,0.724166870,-0.001844361,-0.016803345,1.008398652
7.287918,-3.119644165,4.029464722,0.762313843,-0.010267213,-0.013385376,1.014013886
7.288544,-3.340896606,3.739547729,0.808090210,-0.011121705,-0.013751587,1.016089082
7.289169,-2.967056274,3.174972534,0.686019897,-0.014417604,-0.014117798,1.018774629
7.289794,-2.616104126,2.999496460,0.472396851,-0.011854127,-0.018268188,1.023657441
7.290421,-2.471145630,2.312850952,0.510543823,-0.012220338,-0.024859985,1.025976777
7.291047,-2.272781372,2.007675171,0.457138062,-0.007215455,-0.028033813,1.026831269
7.291672,-2.112564087,1.786422729,0.426620483,0.002428100,-0.022296509,1.023169160
7.292298,-2.356704712,1.809310913,0.617355347,0.002306029,-0.019977173,1.018896699
7.292924,-2.425369263,1.557540894,0.762313843,0.009752318,-0.018390259,1.014624238
7.293549,-2.570327759,1.771163940,0.853866577,0.014390990,-0.013873657,1.009985566
7.294174,-2.562698364,1.671981812,0.617355347,0.013048217,-0.010455688,1.007300019
7.294801,-2.669509888,2.038192749,0.853866577,0.008287475,-0.010455688,1.004980683
7.295426,-2.776321411,2.053451538,0.724166870,0.005235717,-0.012652954,1.005224824
7.296053,-2.638992310,2.145004272,0.579208374,0.004869506,-0.011676392,1.002417207
7.296678,-2.883132935,2.320480347,0.739425659,0.006212279,-0.007892212,0.997412324
7.297303,-3.035720825,2.434921265,0.533432007,0.008409545,-0.003619751,0.998510957
7.297929,-3.012832642,2.373886108,0.708908081,0.008897826,-0.008258423,0.999609590
7.298554,-3.272232056,2.457809448,0.907272339,0.007921264,-0.010089478,1.000952363
7.299180,-3.417190552,2.480697632,0.769943237,0.010484740,-0.013629517,1.000586152
7.299807,-3.478225708,2.663803101,0.731796265,0.009141967,-0.015338501,1.000830293
7.300432,-3.447708130,2.618026733,0.716537476,0.004991576,-0.018146118,0.998144746
7.301058,-3.539260864,2.724838257,0.617355347,0.006578490,-0.014484009,0.998144746
7.301683,-3.592666626,2.762985229,0.678390503,0.008897826,-0.009479126,0.991675019
7.302309,-3.607925415,2.831649780,0.930160522,0.008409545,-0.010089478,0.989111543
7.302935,-3.607925415,3.121566772,1.105636597,0.000963256,-0.012042603,0.989355683
7.303562,-3.684219360,2.694320679,0.930160522,-0.014417604,-0.019366821,0.995703340
7.304188,-3.195938110,1.885604858,0.762313843,-0.026258424,-0.027179321,0.994360566
7.304813,-2.860244751,1.298141479,1.044601440,-0.025159791,-0.036578737,0.992163301
7.305439,-2.440628052,1.229476929,0.815719604,-0.018690065,-0.035113893,0.991797090
7.306066,-2.059158325,0.573348999,0.624984741,-0.013318971,-0.034137331,0.988989472
7.306691,-1.692947388,0.481796265,0.884384155,-0.003431275,-0.029010376,0.985571504
7.307316,-1.395401001,0.405502319,0.769943237,-0.001844361,-0.028400024,0.983496308
7.307941,-0.914749146,0.298690796,0.655502319,0.005968139,-0.028155884,0.982275605
7.308567,-0.472244263,0.046920776,0.708908081,0.007677123,-0.031573854,0.982763886
7.309192,-0.327285767,0.046920776,0.800460815,0.009996459,-0.020465454,0.978125215
7.309817,-0.304397583,0.298690796,0.785202026,0.010484740,-0.016559204,0.977148652
7.310444,-0.716384888,0.573348999,0.830978394,0.006090209,-0.012042603,0.976416230
7.323492,-5.042251587,5.875778198,1.204818726,0.019517943,-0.011676392,0.960425019
7.324212,-4.958328247,5.875778198,1.357406616,0.004015014,-0.016681274,0.968603730
7.324838,-4.668411255,5.624008179,1.250595093,-0.008802369,-0.019855103,0.975439668
7.325463,-4.111465454,5.410385132,1.464218140,-0.010023072,-0.017291626,0.982031465
7.326090,-3.424819946,5.051803589,1.181930542,-0.021131471,-0.019733032,0.987280488
7.326716,-2.783950806,4.365158081,1.059860229,-0.021131471,-0.031573854,0.987524629
7.327342,-2.608474731,3.899765015,1.006454468,-0.017347291,-0.051471315,0.988989472
7.327968,-1.967605591,3.487777710,1.204818726,-0.023817018,-0.063678347,0.988867402
7.328594,-1.349624634,2.648544312,1.014083862,-0.027967408,-0.072955690,0.991186738
7.329219,-0.228103638,1.488876343,1.227706909,-0.031141236,-0.079181276,0.995215058
7.329845,1.007858276,0.535202026,1.334518433,-0.031873658,-0.081378542,0.990820527
7.330471,2.228561401,-0.807571411,1.174301147,-0.031873658,-0.073321901,0.989477754
7.331097,3.151718140,-0.929641724,1.349777222,-0.023694947,-0.055133425,0.980810761
7.331722,3.617111206,-1.036453247,1.235336304,-0.012098268,-0.035602175,0.975683808
7.332349,3.754440308,-1.280593872,1.235336304,-0.009778932,-0.022540649,0.977514863
7.332974,3.739181519,-1.211929321,1.174301147,-0.002332643,-0.011798462,0.980322480
7.333599,3.571334839,-1.593399048,1.174301147,0.004625365,-0.008746704,0.983252168
7.334225,3.411117554,-0.990676880,1.281112671,0.006212279,-0.009723267,0.992407441
7.334852,3.220382690,-1.036453247,1.090377808,0.002672240,-0.019977173,0.999731660
7.335478,3.281417847,-1.189041138,1.357406616,-0.000623658,-0.033404909,1.004126191
7.336105,3.464523315,-1.417922974,1.395553589,-0.005628541,-0.043902956,1.017675996
7.336731,3.853622437,-1.883316040,1.296371460,-0.004407838,-0.051959597,1.021216035
7.337357,4.219833374,-2.157974243,1.494735718,-0.008314088,-0.052081667,1.024756074
7.337983,4.372421265,-2.409744263,1.433700562,-0.006605104,-0.048419558,1.026587129
7.338610,4.357162476,-2.699661255,1.616806030,-0.000379518,-0.042438112,1.025366426
7.339236,4.265609741,-2.493667603,1.525253296,0.007188842,-0.030963501,1.016699433
7.339862,3.807846069,-2.699661255,1.662582397,0.012193725,-0.026568970,1.013647676
7.340488,3.411117554,-2.333450317,1.769393921,0.017198607,-0.021808228,1.005346894
7.341114,3.159347534,-2.051162720,2.074569702,0.024034545,-0.017047485,0.999487519
7.341739,2.938095093,-1.913833618,2.150863647,0.027452514,-0.008868774,0.990454316
7.342365,2.877059937,-1.395034790,2.021163940,0.027696654,-0.002032837,0.989843965
7.342990,2.938095093,-1.082229614,2.066940308,0.025133178,-0.008746704,0.986914277
7.343615,2.854171753,-0.906753540,2.173751831,0.019029662,-0.013629517,0.990210176
7.344241,3.273788452,-0.807571411,2.059310913,0.012804076,-0.013995728,0.989477754
7.344866,3.319564819,-0.860977173,2.272933960,0.009264037,-0.023028931,0.984961152
7.345491,3.334823608,-0.883865356,2.135604858,0.004869506,-0.026080688,0.983862519
7.346116,3.060165405,-0.807571411,2.120346069,0.007555053,-0.024982056,0.982763886
7.346741,3.022018433,-0.563430786,2.410263062,0.010728881,-0.021319946,0.984228730
7.347366,2.709213257,-0.235366821,2.379745483,0.020128295,-0.008502563,0.974829316
7.347993,2.655807495,-0.136184692,2.402633667,0.017198607,-0.011188110,0.978979707
7.348618,2.762619019,0.031661987,2.456039429,0.014146850,-0.008868774,0.989721894
7.349245,2.922836304,-0.090408325,2.456039429,0.015123412,-0.007403931,0.990820527
7.349870,2.777877808,-0.029373169,2.608627319,0.006578490,-0.012408813,0.995581269
7.350496,2.877059937,-0.128555298,2.280563354,-0.002942994,-0.021075806,1.011084199
7.351123,3.708663940,-0.418472290,2.173751831,-0.009412721,-0.021930298,1.024756074
7.351750,4.555526733,-1.288223267,2.196640015,-0.011487916,-0.015460571,1.031836152
7.352376,4.563156128,-1.677322388,1.921981812,-0.016981080,-0.022296509,1.056616426
7.353002,6.012741089,-2.463150024,2.097457886,-0.009046510,0.012127319,1.092260957
7.353627,6.043258667,-2.409744263,1.525253296,0.005968139,0.049847044,1.098486543
7.368285,-4.576858521,9.438705444,1.036972046,-0.021253541,-0.031817995,1.024023652
7.369022,-5.194839478,9.034347534,1.555770874,-0.019422486,-0.023028931,1.018774629
7.369648,-5.126174927,8.378219604,1.784652710,-0.017103150,-0.027789673,1.014380097
7.370275,-5.576309204,7.859420776,2.066940308,0.000230834,-0.028155884,1.004980683
7.370900,-5.835708618,7.493209839,1.700729370,0.014757201,-0.021075806,0.994604707
7.371526,-6.133255005,7.760238647,1.769393921,0.004381225,-0.024982056,0.988745332
7.372153,-5.843338013,7.714462280,2.051681519,-0.007215455,-0.032184206,0.984961152
7.372779,-5.309280396,7.523727417,2.654403687,-0.016248658,-0.047198854,0.981787324
7.373405,-4.515823364,6.722640991,2.395004272,-0.012708619,-0.057574831,0.983008027
7.374037,-3.585037231,6.646347046,2.204269409,-0.001722291,-0.050738893,0.991430879
7.374662,-2.135452271,6.684494019,2.166122437,0.001085326,-0.045734011,0.999975801
7.375288,-1.425918579,6.608200073,2.074569702,-0.000623658,-0.037555300,1.007788301
7.375913,-1.387771606,6.737899780,2.189010620,-0.006116822,-0.025958618,1.004492402
7.376540,-1.525100708,6.585311890,2.333969116,-0.003187135,-0.038287722,1.011694551
7.377166,-1.456436157,6.264877319,2.211898804,-0.004041627,-0.051959597,1.021216035
7.377792,-1.235183716,5.891036987,2.410263062,-0.001356080,-0.057330690,1.020361543
7.378418,-1.029190063,5.974960327,2.570480347,-0.000745729,-0.059039675,1.033056855
7.379043,-0.273880005,5.524826050,2.738327026,-0.017713502,-0.059405886,1.046240449
7.380738,3.235641479,0.680160522,2.517074585,-0.074232057,-0.058795534,1.084692597
7.381365,3.006759644,-0.426101685,2.250045776,-0.074598268,-0.042193972,1.071631074
7.381990,2.144638062,-1.135635376,2.242416382,-0.049451783,-0.022174438,1.050512910
7.382616,1.313034058,-1.356887817,2.524703979,-0.011732057,-0.008868774,1.032080293
7.383242,0.817123413,-1.349258423,2.181381226,0.009386107,-0.016315063,1.024145722
7.383868,0.908676147,-1.280593872,2.379745483,0.008653685,-0.033404909,1.019507051
7.384494,1.656356812,-1.601028442,2.433151245,0.003404662,-0.042682253,1.026342988
7.385120,2.068344116,-1.639175415,2.349227905,-0.005506471,-0.040973268,1.016455293
7.385745,1.702133179,-1.814651489,2.524703979,-0.013441041,-0.037189089,1.000097871
7.386370,1.663986206,-2.257156372,2.814620972,-0.009656861,-0.033160768,0.986303926
7.386995,1.450363159,-2.447891235,2.890914917,0.001451537,-0.026202759,0.966284394
7.387622,1.114669800,-2.165603638,3.066390991,0.002550170,-0.040729128,0.956396699
7.388249,1.946273804,-2.417373657,3.112167358,0.002794310,-0.054645143,0.957495332
7.388876,3.022018433,-2.722549438,3.226608276,-0.004407838,-0.060626589,0.960913301
7.389502,4.212203979,-2.569961548,3.287643433,-0.018567994,-0.064166628,0.968359590
7.390128,5.326095581,-3.096389771,3.310531616,-0.031263307,-0.063678347,0.978003144
7.390753,6.218734741,-3.859329224,2.959579468,-0.026258424,-0.065753542,0.989721894
7.391378,7.164779663,-4.164505005,2.959579468,-0.017713502,-0.052081667,0.990576386
7.392003,7.126632690,-4.431533813,3.157943726,-0.011732057,-0.035968386,0.989355683
7.392628,7.065597534,-4.545974731,3.196090698,-0.005140260,-0.050738893,1.001928926
7.393253,7.347885132,-4.553604126,3.554672241,0.001695678,-0.056109987,1.013647676
7.393879,7.973495483,-4.477310181,3.341049194,0.006578490,-0.043658815,1.017431855
7.394504,7.790390015,-4.484939575,3.394454956,0.003770873,-0.026080688,1.023291230
7.395131,7.973495483,-4.263687134,3.424972534,0.019884154,-0.010943970,1.032568574
7.395757,7.653060913,-3.706741333,3.371566772,0.030870482,0.000774780,1.049292207
7.396383,7.241073608,-3.279495239,3.302902222,0.029405639,0.027019897,1.051001191
7.397010,6.180587769,-2.730178833,3.310531616,0.015001342,0.036297239,1.061621308
7.397635,4.921737671,-2.669143677,3.363937378,0.008287475,0.027386108,1.074926972
7.398260,3.647628784,-3.065872192,3.257125854,0.022447631,0.027019897,1.066992402
7.398886,2.312484741,-2.341079712,3.424972534,0.038682982,0.033367552,1.057348847
7.399512,0.817123413,-1.311111450,3.363937378,0.049547240,0.028118530,1.054907441
7.412544,4.616561890,-4.278945923,2.356857300,0.000719115,0.006145874,1.013037324
7.413259,4.448715210,-3.874588013,2.387374878,0.019029662,0.023113647,1.009985566
7.413884,5.234542847,-4.072952271,2.410263062,0.018541381,-0.005939087,1.038183808
7.414509,6.615463257,-4.347610474,2.166122437,0.019762084,-0.009601196,1.046606660
7.415134,6.775680542,-4.248428345,1.754135132,0.030992553,0.025310913,1.026587129
7.415759,6.142440796,-3.340530396,2.013534546,0.030626342,0.043499388,1.032934785
7.416385,6.035629272,-3.042984009,2.036422729,0.029039428,0.036419310,1.058813691
7.417011,6.615463257,-3.683853149,1.769393921,0.026231810,0.032268919,1.085791230
7.417637,7.897201538,-4.172134399,1.624435425,0.003282592,0.012859741,1.114599824
7.418264,8.866134644,-4.744338989,1.357406616,0.010606810,0.031048218,1.110693574
7.418890,7.370773315,-3.996658325,1.082748413,0.047838256,0.097088255,1.037207246
7.419516,2.983871460,-2.013015747,1.181930542,0.076890990,0.109051146,0.981543183
7.420143,-0.762161255,-0.433731079,1.700729370,0.086412475,0.079510130,0.986181855
7.420770,-1.753982544,0.748825073,1.929611206,0.081529662,0.049480833,1.017065644
7.421397,-0.136550903,0.008773804,1.921981812,0.048448607,0.014446655,1.077002168
7.422024,1.625839233,-0.258255005,1.052230835,0.036973998,0.052288450,1.064428926
7.422650,0.733200073,1.221847534,0.258773804,0.013658568,0.099651732,1.039160371
7.423276,-1.136001587,2.816390991,0.342697144,0.012071654,0.116253294,1.058081269
7.423902,-1.769241333,2.854537964,0.075668335,0.001451537,0.088177122,1.110205293
7.424527,-1.212295532,1.137924194,-0.633865356,-0.031507447,0.025921265,1.140967011
7.425152,-1.258071899,-0.464248657,-0.984817505,-0.026258424,0.002117554,1.104956269
7.425777,-2.974685669,-0.273513794,-0.855117798,0.026109740,0.058391966,1.007300019
7.426402,-7.193740845,1.923751831,-0.359207153,0.081407592,0.085735716,0.955298066
7.427027,-9.726699829,3.129196167,0.304550171,0.102159545,0.069134153,0.973364472
7.427652,-9.154495239,3.342819214,0.251144409,0.070421264,0.017620483,1.006567597
7.428278,-6.552871704,2.572250366,-0.191360474,-0.009168580,-0.034503542,1.034399629
7.428904,-2.997573853,1.191329956,-0.626235962,-0.069715455,-0.073321901,1.049414277
7.429529,0.527206421,-0.296401978,-1.236587524,-0.101819947,-0.090900026,1.079565644
7.430154,3.563705444,-2.020645142,-2.182632446,-0.053235963,-0.027423462,1.060034394
7.430779,4.753890991,-2.341079712,-2.655654907,0.004259154,0.024700562,1.032080293
7.431405,2.480331421,-0.090408325,-2.701431274,0.102037475,0.112713255,0.929907441
7.432037,-2.646621704,3.281784058,-2.175003052,0.132921264,0.112469114,0.909887910
7.432663,-5.103286743,4.479598999,-1.106887817,0.121202514,0.076580442,0.974096894
7.433289,-4.286941528,3.762435913,-0.717788696,0.075059935,0.005657593,1.052343965
7.433915,-1.715835571,2.785873413,-1.122146606,-0.001234010,-0.044757448,1.056982636
7.434542,-0.449356079,2.465438843,-1.686721802,-0.063245729,-0.059039675,1.056006074
7.435168,1.526657104,1.374435425,-1.526504517,-0.099744752,-0.053790651,1.078344941
7.435795,2.266708374,0.008773804,-2.098709106,-0.053968385,-0.016192993,1.048925996
7.436420,2.098861694,-0.082778931,-3.021865845,-0.006483033,-0.000079712,1.045508027
7.437046,1.236740112,0.329208374,-2.899795532,0.042223021,0.077190794,1.006689668
7.437671,-3.058609009,2.030563354,-2.403884888,0.062242553,0.091961302,0.979223847
7.438298,-5.004104614,2.717208862,-2.022415161,0.064195678,0.055462278,1.055761933
7.438923,-6.591018677,3.373336792,-1.763015747,0.092149779,0.097698607,0.979345918
7.439548,-12.213882446,6.066513062,-1.885086060,0.089586303,0.103069700,0.922583222
7.440174,-15.265640259,8.126449585,-1.160293579,0.029771850,0.045330442,0.963598847
7.440799,-12.839492798,6.058883667,-0.557571411,-0.049085572,-0.080890261,1.109350801
7.441426,-7.193740845,2.297592163,-1.557022095,-0.087537721,-0.081744753,1.080053926
7.442053,-8.605178833,2.419662476,-3.029495239,-0.084119752,-0.007159790,0.928686738
7.442678,-12.007888794,4.372787476,-2.335220337,-0.037855104,0.011028687,0.901098847
7.455339,1.168075562,-2.585220337,0.441879272,-0.039808229,-0.016559204,1.052343965
7.456368,0.183883667,-2.852249146,-0.069290161,-0.000623658,0.009685913,1.025854707
7.457146,0.519577026,-2.989578247,-0.015884399,0.024766967,-0.009845337,1.039892793
7.457913,0.511947632,-2.173233032,-0.435501099,0.025377318,-0.029498657,1.046606660
7.458692,-0.174697876,-0.273513794,-0.626235962,0.079210326,0.070598997,0.986914277
7.459349,-1.502212524,0.809860229,-0.229507446,0.049913451,0.016155640,1.042944551
7.460048,0.267807007,-0.517654419,-0.183731079,-0.021131471,-0.044025026,1.085058808
7.460674,-0.250991821,-1.166152954,-0.443130493,-0.027723268,0.008587280,1.013647676
7.461301,-1.898941040,-0.250625610,-0.290542603,0.045274779,0.090618528,0.973242402
7.461931,-4.225906372,0.848007202,-0.321060181,0.094591185,0.114910521,0.976904511
7.462557,-5.133804321,1.511764526,-0.321060181,0.025987670,0.049114622,1.031836152
7.463182,-5.026992798,1.176071167,-0.702529907,-0.049085572,-0.012408813,1.071020722
7.463808,-4.653152466,0.184249878,-1.045852661,-0.056776002,-0.014361938,1.067724824
7.464433,-3.852066040,-0.654983521,-1.152664185,-0.036024049,-0.023273071,1.070532441
7.465059,-3.920730591,-0.532913208,-1.671463013,0.038560912,0.015911499,0.998877168
7.465684,-3.913101196,-0.235366821,-1.633316040,-0.005872682,-0.089679323,1.050757051
7.466310,-0.853713989,-1.715469360,-1.358657837,-0.022108033,-0.102496706,1.071509004
7.466935,-1.013931274,-1.501846313,-1.351028442,-0.029432252,-0.068683229,1.022070527
7.467561,-0.510391235,-2.425003052,-0.641494751,-0.001356080,-0.008258423,0.991552949
7.468187,-2.776321411,-2.074050903,-0.511795044,0.056016967,0.070598997,0.930761933
7.468813,-5.583938599,-0.571060181,-0.168472290,0.061021850,0.062054075,0.937353730
7.469439,-5.622085571,-0.105667114,0.151962280,0.043932006,0.032024778,0.979956269
7.470065,-6.522354126,0.611495972,-0.023513794,0.014390990,0.043255247,0.956274629
7.470690,-6.751235962,0.367355347,-0.198989868,-0.061048463,-0.028522095,0.999731660
7.471316,-4.347976685,-1.723098755,-0.961929321,-0.062635377,-0.072589479,1.017065644
7.471941,-2.257522583,-2.966690063,-1.473098755,-0.094129518,-0.118976198,1.027563691
7.472567,0.489059448,-4.256057739,-1.541763306,-0.033460572,-0.089679323,0.993994355
7.473192,0.748458862,-3.165054321,-1.846939087,-0.023694947,-0.119586550,1.008032441
7.473817,5.371871948,-5.385208130,-1.206069946,-0.089002565,-0.161334589,1.097632051
7.474444,5.616012573,-6.651687622,-1.419692993,0.029283568,0.031536497,0.927099824
7.475069,0.466171265,-3.195571899,-1.404434204,0.120103881,0.105389036,0.873510957
7.475695,-5.355056763,1.107406616,-0.763565063,0.188829467,0.188396856,0.844702363
7.476320,-9.200271606,3.609848022,0.045150757,0.120225951,0.071941771,0.944555879
7.476945,-7.086929321,1.649093628,0.281661987,0.017931029,-0.027545532,1.037695527
7.477572,-3.737625122,-1.402664185,0.151962280,-0.108655885,-0.081134401,1.067236543
7.478198,-2.051528931,-3.577041626,-0.221878052,-0.076795533,0.132854864,0.969092011
7.478825,-27.411636353,9.980392456,0.251144409,0.436143935,1.023601890,0.305639863
7.479450,-46.904739380,20.272445679,1.624435425,0.176744506,0.271526724,0.993750215
7.481092,-48.606094360,-0.151443481,0.418991089,-0.266614854,-0.027301392,0.834448457
7.481717,-46.172317505,-2.516555786,-0.855117798,-0.109510377,-0.214191034,0.779028535
7.482342,-39.168533325,-2.760696411,-2.495437622,-0.069593385,-0.429889292,0.730566621
7.482967,-30.951675415,-1.974868774,-2.831130981,-0.018934205,-0.529864848,0.661596894
7.483594,-23.558792114,-1.829910278,-1.083999634,0.006700560,-0.455401987,0.571020722
7.484219,-16.371902466,-3.599929810,0.937789917,-0.044691041,-0.423053354,0.556982636
7.484844,-7.292922974,-7.498550415,1.571029663,-0.102796510,-0.424762338,0.608008027
7.485470,2.564254761,-10.222244263,1.899093628,-0.108289674,-0.366778940,0.648779511
7.486095,11.055770874,-11.320877075,1.304000854,-0.066785768,-0.290607065,0.718115449
7.486722,18.509689331,-12.236404419,0.266403198,-0.004529908,-0.233722284,0.830664277
7.499290,-2.539810181,-2.280044556,2.959579468,0.030626342,-0.002399048,0.984594941
7.499989,-2.005752563,-2.119827271,2.738327026,0.025133178,0.001140991,0.986059785
7.500615,-1.250442505,-2.135086060,2.883285522,0.012559935,0.017132202,0.975195527
7.501241,-0.685867310,-1.967239380,2.585739136,0.001695678,0.023113647,0.965185761
7.501866,-0.579055786,-2.112197876,2.181381226,-0.006238893,0.016643921,0.962622285
7.502491,-0.037368774,-2.386856079,1.830429077,-0.003553346,0.014202515,0.947485566
7.503118,0.305953979,-2.569961548,1.647323608,0.003892943,0.017742554,0.938574433
7.503744,1.015487671,-2.669143677,1.822799683,0.004869506,0.017254272,0.933203340
7.504370,1.961532593,-2.951431274,1.509994507,0.000963256,0.008587280,0.926733613
7.504997,2.739730835,-3.111648560,1.197189331,0.001695678,0.011028687,0.920630097
7.505623,3.350082397,-3.233718872,0.731796265,-0.001722291,0.008831421,0.921240449
7.506248,4.372421265,-3.592300415,0.708908081,-0.001234010,-0.008990845,0.932104707
7.506873,5.059066772,-3.935623169,0.739425659,0.009386107,-0.007403931,0.943701386
7.507499,5.806747437,-4.080581665,0.640243530,0.015977904,0.000896851,0.956396699
7.508126,6.348434448,-4.103469849,0.716537476,0.011217162,0.008709351,0.971045136
7.508751,6.684127808,-4.019546509,0.380844116,0.007677123,0.006512085,0.989477754
7.509378,6.592575073,-4.248428345,0.426620483,0.006334350,0.007610718,1.012671113
7.510005,6.310287476,-4.225540161,0.144332886,0.005968139,0.005291382,1.030615449
7.510632,5.684677124,-4.187393188,0.205368042,0.014268920,0.001873413,1.048925996
7.511258,5.089584351,-4.034805298,0.312179565,0.017564818,0.009685913,1.057959199
7.511884,3.975692749,-3.683853149,0.243515015,0.018785521,0.014690796,1.061987519
7.512509,2.602401733,-3.363418579,0.403732300,0.020372435,0.029217163,1.066259980
7.513134,1.244369507,-3.172683716,0.129074097,0.017198607,0.025799194,1.066015840
7.513760,0.206771851,-3.149795532,0.251144409,0.020860717,0.016888062,1.066015840
7.514385,-0.945266724,-2.943801880,0.426620483,0.022935912,0.007610718,1.061010957
7.515011,-1.639541626,-2.798843384,0.449508667,0.024156615,0.006267944,1.058325410
7.515638,-2.288040161,-2.508926392,0.418991089,0.027940795,0.000164429,1.063086152
7.516265,-2.753433228,-2.699661255,0.563949585,0.024034545,-0.006183228,1.065161347
7.516890,-3.226455688,-2.226638794,0.655502319,0.021593139,-0.003009399,1.067480683
7.517515,-3.928359985,-2.074050903,0.541061401,0.018053100,-0.007037720,1.065771699
7.518141,-4.401382446,-1.913833618,0.686019897,0.022813842,-0.015704712,1.064673066
7.518767,-4.721817017,-1.837539673,0.556320190,0.024522826,-0.025836548,1.059912324
7.519393,-4.874404907,-1.517105103,0.846237183,0.025621459,-0.027423462,1.051855683
7.520020,-4.798110962,-1.539993286,0.876754761,0.024278685,-0.020587524,1.039648652
7.520645,-4.859146118,-1.196670532,1.029342651,0.013658568,-0.013507446,1.027197480
7.521270,-4.782852173,-1.372146606,0.884384155,0.010362670,-0.006915649,1.018652558
7.521896,-4.775222778,-1.623916626,0.892013550,0.013170287,-0.011798462,1.007544160
7.529091,-1.662429810,-1.387405396,0.480026245,0.007555053,0.003582397,1.019018769
7.529718,-1.891311646,-1.768875122,0.319808960,0.008653685,0.000042358,1.020239472
7.530345,-2.150711060,-1.929092407,0.350326538,0.013536498,0.005779663,1.022070527
7.530972,-2.463516235,-1.944351196,0.190109253,0.009141967,0.006145874,1.021093965
7.531598,-2.783950806,-2.135086060,0.220626831,0.014879271,0.001018921,1.019507051
7.532223,-2.890762329,-1.730728149,0.373214722,0.015611693,0.005047241,1.022680879
7.532850,-2.913650513,-1.845169067,0.373214722,0.010973021,-0.000812134,1.021948457
7.533477,-2.936538696,-1.715469360,0.068038940,0.017931029,-0.001788696,1.025488496
7.534102,-2.989944458,-1.837539673,0.235885620,0.008531615,-0.002154907,1.026465058
7.534728,-3.173049927,-1.730728149,0.113815308,0.015001342,-0.004230103,1.030371308
7.535354,-3.203567505,-1.646804810,0.045150757,0.012926146,-0.005328735,1.030371308
7.535980,-3.302749634,-1.738357544,0.113815308,0.015489623,-0.002399048,1.034277558
7.536605,-3.691848755,-1.669692993,0.212997437,0.014024779,-0.004596313,1.032568574
7.549292,-5.545791626,-2.051162720,0.098556519,-0.005994752,-0.044391237,0.944433808
7.550041,-5.400833130,-2.356338501,0.045150757,-0.013807252,-0.047809206,0.940405488
7.550666,-5.034622192,-2.478408813,-0.015884399,-0.014539674,-0.050860964,0.940161347
7.551292,-4.805740356,-2.989578247,0.212997437,-0.006971315,-0.055377565,0.943701386
7.551919,-4.233535767,-2.722549438,0.327438354,-0.001356080,-0.054278933,0.949682832
7.552544,-4.004653931,-2.768325806,0.045150757,0.004259154,-0.056476198,0.953100801
7.553170,-3.432449341,-2.814102173,0.411361694,-0.010267213,-0.048419558,0.953222871
7.553797,-3.668960571,-3.302383423,0.357955933,-0.010633424,-0.052692018,0.955664277
7.554422,-3.569778442,-3.607559204,0.686019897,-0.004163697,-0.047320925,0.964819551
7.555047,-3.157791138,-3.271865845,0.258773804,0.009752318,-0.051959597,0.975195527
7.555673,-2.883132935,-2.928543091,0.655502319,0.008409545,-0.046832643,0.986181855
7.556298,-3.409561157,-2.913284302,0.533432007,0.000474975,-0.035113893,0.987524629
7.556924,-3.661331177,-3.035354614,0.815719604,-0.006483033,-0.032062136,0.991675019
7.557551,-4.103836060,-3.554153442,0.914901733,-0.013074830,-0.037433229,0.992285371
7.558177,-4.492935181,-3.439712524,0.907272339,0.002550170,-0.035480104,0.993994355
7.558803,-4.645523071,-3.241348267,0.991195679,0.010973021,-0.036090456,0.993506074
7.559428,-4.553970337,-3.180313110,1.006454468,0.007555053,-0.038287722,0.991552949
7.560054,-4.729446411,-3.523635864,1.044601440,0.003404662,-0.033404909,0.995337129
7.560679,-4.843887329,-3.584671021,1.319259644,-0.003675416,-0.034991823,0.991186738
7.561305,-4.950698853,-3.516006470,1.189559937,0.002794310,-0.031695925,0.990210176
7.561931,-4.889663696,-3.851699829,1.220077515,0.002672240,-0.029254517,0.990210176
7.562556,-5.004104614,-3.744888306,1.334518433,0.002428100,-0.027423462,0.986059785
7.563182,-5.324539185,-3.645706177,1.525253296,-0.001356080,-0.028155884,0.986792207
7.563808,-5.454238892,-4.027175903,1.616806030,-0.006605104,-0.029864868,0.981421113
7.564433,-5.446609497,-4.126358032,1.540512085,-0.001844361,-0.034991823,0.978979707
7.565058,-5.217727661,-4.248428345,1.365036011,0.003160521,-0.039264284,0.975927949
7.565685,-5.149063110,-4.332351685,1.311630249,0.005235717,-0.048907839,0.977881074
7.566310,-5.149063110,-4.767227173,1.853317261,0.017808959,-0.039996706,0.977026582
7.566937,-4.897293091,-5.202102661,1.921981812,0.014268920,-0.043414675,0.982031465
7.567563,-4.233535767,-5.377578735,2.036422729,0.014024779,-0.060748659,1.007177949
7.568190,-3.142532349,-4.698562622,1.860946655,0.023912475,-0.054401003,1.036108613
7.568815,-2.326187134,-4.553604126,1.746505737,0.046251342,-0.026691040,1.042334199
7.569440,-2.310928345,-4.332351685,1.944869995,0.039903685,-0.017047485,1.062109590
7.570066,-2.394851685,-4.034805298,1.868576050,0.022203490,-0.015338501,1.084326386
7.570691,-3.302749634,-3.668594360,2.082199097,0.023546264,0.001507202,1.095068574
7.571316,-3.890213013,-3.485488892,1.845687866,0.033922240,0.006145874,1.100073457
7.571943,-4.409011841,-3.294754028,2.036422729,0.035753295,0.009563843,1.103125215
7.572569,-4.759963989,-2.562332153,1.853317261,0.033922240,0.015057007,1.093725801
7.573194,-5.248245239,-2.089309692,1.929611206,0.030870482,0.018352905,1.087011933
7.573820,-5.515274048,-1.944351196,1.845687866,0.023180053,0.014446655,1.080542207
7.574446,-5.767044067,-1.791763306,1.532882690,0.027330443,0.023113647,1.064550996
7.575071,-5.835708618,-1.372146606,1.311630249,0.022203490,0.026165405,1.053320527
7.575697,-6.079849243,-1.227188110,1.227706909,0.017076537,0.021038452,1.038672090
7.576322,-5.744155884,-1.349258423,1.143783569,0.014268920,0.022747437,1.026098847
7.576947,-5.438980103,-1.425552368,1.021713257,0.009141967,0.016399780,1.013037324
7.577573,-4.958328247,-1.395034790,0.785202026,0.012682006,0.001751343,1.010229707
7.578199,-4.317459106,-1.524734497,0.640243530,0.019395873,0.003948608,1.001318574
7.578825,-3.676589966,-1.456069946,0.594467163,0.012682006,-0.003985962,0.998266816
7.592588,0.290695190,-0.143814087,-0.107437134,0.016099975,-0.020709595,1.010595918
7.593213,0.275436401,-0.227737427,-0.145584106,0.013536498,-0.031207642,1.007055879
7.593838,0.313583374,-0.258255005,0.060409546,0.010118529,-0.037189089,0.996679902
7.594465,0.832382202,-0.319290161,-0.031143188,0.010362670,-0.037921511,0.988012910
7.595090,1.076522827,-0.105667114,-0.198989868,0.011339232,-0.035602175,0.991919160
7.595716,1.358810425,-0.242996216,0.029891968,0.012559935,-0.036212526,0.986914277
7.596341,1.854721069,-0.410842896,0.136703491,0.008043334,-0.034747683,0.983496308
7.596968,2.175155640,-0.342178345,0.052780151,0.003648803,-0.032916628,0.984228730
7.597593,2.465072632,-0.578689575,0.029891968,0.006578490,-0.034259401,0.985205293
7.598219,2.831283569,-0.517654419,-0.038772583,0.008165404,-0.033893190,0.983252168
7.598844,2.808395386,-0.555801392,-0.115066528,0.008531615,-0.029620728,0.988134980
7.599470,3.113571167,-0.410842896,0.136703491,0.013658568,-0.028400024,0.989355683
7.600095,3.159347534,-0.578689575,-0.153213501,0.010728881,-0.017291626,0.992895722
7.600721,2.892318726,-0.510025024,-0.206619263,0.009752318,-0.018634399,0.998999238
7.601347,2.816024780,-0.563430786,-0.015884399,0.014146850,-0.015216431,1.001684785
7.601973,2.579513550,-0.662612915,0.205368042,0.028184935,-0.014239868,1.005224824
7.602599,1.831832886,-0.639724731,0.617355347,0.019517943,-0.014850220,1.015967011
7.603224,1.229110718,-0.632095337,0.548690796,-0.000379518,0.008465210,1.037939668
7.603849,1.152816772,-0.006484985,0.075668335,-0.002454713,-0.015216431,1.001562715
7.604476,1.053634644,-0.197219849,-0.359207153,0.015245482,-0.013019165,1.013891816
7.605101,0.771347046,-0.387954712,0.151962280,0.021715209,-0.021319946,0.999243379
7.605727,1.099411011,-0.273513794,-0.107437134,0.013048217,-0.027545532,1.002295136
7.606353,0.885787964,-0.220108032,0.068038940,0.014879271,-0.029620728,0.994848847
7.606979,1.267257690,-0.319290161,0.167221069,0.004625365,-0.027423462,0.991186738
7.607605,1.648727417,-0.479507446,0.029891968,0.007310912,-0.026202759,0.988257051
7.608231,1.641098022,-0.654983521,0.045150757,0.003282592,-0.030109009,0.986425996
7.608856,1.763168335,-0.731277466,0.014633179,0.012437865,-0.030231079,0.984228730
7.609481,2.037826538,-0.487136841,0.007003784,0.016588256,-0.039752565,0.977514863
7.610106,2.480331421,-0.525283813,0.052780151,0.018053100,-0.043658815,0.973486543
7.610732,3.014389038,-0.372695923,-0.015884399,0.005113646,-0.039874636,0.972509980
7.611358,3.273788452,-0.838088989,0.327438354,-0.002454713,-0.035968386,0.965307832
7.611984,3.563705444,-0.914382935,0.174850464,-0.002088502,-0.032916628,0.966772676
7.612610,3.601852417,-1.303482056,0.174850464,0.002916381,-0.028522095,0.972387910
7.613236,3.708663940,-1.585769653,0.075668335,0.008043334,-0.023395142,0.979223847
7.614005,3.678146362,-1.242446899,0.037521362,0.010362670,-0.018390259,0.991919160
7.614751,3.510299683,-1.181411743,-0.023513794,0.013048217,-0.011798462,0.997046113
7.615512,3.052536011,-1.036453247,0.190109253,0.004625365,-0.010943970,1.004126191
7.616138,2.571884155,-1.013565063,0.197738647,0.009630248,0.005535522,1.016089082
7.616816,1.725021362,-1.318740845,-0.008255005,0.004137084,0.015301147,1.023657441
7.617441,0.634017944,-1.417922974,0.205368042,0.014390990,0.013348022,1.021826386
7.618067,-0.273880005,-1.150894165,0.251144409,0.014146850,0.003826538,1.023535371
7.618694,-0.800308228,-1.150894165,-0.015884399,0.011217162,-0.004108032,1.024634004
7.619321,-1.036819458,-1.066970825,0.228256226,0.017442748,-0.014484009,1.023413301
7.619947,-1.364883423,-0.899124146,0.258773804,0.017198607,-0.016803345,1.016943574
7.620574,-1.517471313,-0.883865356,0.136703491,0.016710326,-0.024859985,1.011328340
7.621199,-1.273330688,-0.662612915,0.357955933,0.012071654,-0.024371704,1.009253144
7.621824,-1.433547974,-0.960159302,0.289291382,0.008043334,-0.028033813,1.009375215
7.622451,-1.197036743,-0.891494751,0.304550171,0.010484740,-0.026568970,1.001562715
7.623078,-0.937637329,-1.066970825,0.235885620,0.010484740,-0.030597290,0.997168183
7.635757,-0.022109985,0.016403198,-0.137954712,0.019029662,-0.010577759,1.025854707
7.636442,-0.151809692,-0.242996216,-0.168472290,0.014390990,-0.002887329,1.022925019
7.637069,-0.319656372,-0.296401978,-0.290542603,0.006944701,-0.010455688,1.019262910
7.637695,-0.380691528,-0.410842896,-0.328689575,0.010728881,-0.020831665,1.012304902
7.638322,-0.197586060,-0.410842896,-0.382095337,0.024889037,-0.026080688,1.012549043
7.638948,0.443283081,0.123214722,-0.496536255,0.019395873,-0.027911743,1.019873261
7.639575,0.588241577,0.336837769,-0.374465942,0.023668334,-0.034015261,1.016455293
7.640201,0.984970093,0.420761108,-0.168472290,0.017686889,-0.032672487,1.016333222
7.640828,1.541915894,0.352096558,-0.252395630,0.012071654,-0.032428347,1.009009004
7.641453,1.831832886,0.138473511,-0.374465942,0.009996459,-0.036822878,1.006445527
7.642079,2.411666870,0.199508667,-0.687271118,0.011095092,-0.037555300,1.006323457
7.642705,2.838912964,0.123214722,-0.313430786,0.012559935,-0.037311159,1.004004121
7.643332,3.594223022,0.245285034,-0.534683228,0.014146850,-0.037311159,1.006445527
7.643957,3.884140015,0.298690796,-0.496536255,0.014635131,-0.031573854,1.007910371
7.644583,4.326644897,0.329208374,-0.687271118,0.008531615,-0.031940065,1.013037324
7.645208,4.776779175,0.214767456,-0.321060181,0.008409545,-0.025836548,1.011328340
7.645833,4.860702515,0.100326538,-0.664382935,0.012071654,-0.022662720,1.012793183
7.646460,4.929367065,0.100326538,-0.580459595,0.012193725,-0.013751587,1.021216035
7.647086,4.875961304,0.367355347,-0.473648071,0.016466185,-0.007892212,1.028418183
7.647712,4.563156128,0.481796265,-0.816970825,0.019517943,-0.004108032,1.033423066
7.648338,4.319015503,0.786972046,-0.580459595,0.015001342,0.001629272,1.036474824
7.648965,3.739181519,0.893783569,-0.763565063,0.011461303,0.001385132,1.039160371
7.649590,3.243270874,0.916671753,-0.549942017,0.010484740,0.003704468,1.039526582
7.650215,2.838912964,0.909042358,-0.763565063,0.010240600,-0.005450806,1.032690644
7.650840,2.350631714,0.565719604,-0.588088989,0.002550170,-0.021319946,1.016211152
7.651466,2.480331421,0.527572632,-0.481277466,0.015977904,-0.035846315,1.006567597
7.652091,3.098312378,0.725936890,-0.679641724,0.004625365,-0.034747683,1.004370332
7.652716,3.189865112,0.825119019,-0.603347778,0.011461303,-0.030963501,1.005713105
7.653342,3.662887573,0.863265991,-0.702529907,0.017931029,-0.017657837,1.015112519
7.653968,3.594223022,1.061630249,-0.885635376,0.013536498,-0.011798462,1.019262910
7.654594,3.525558472,1.054000854,-0.893264771,0.015977904,-0.013873657,1.019018769
7.655221,3.144088745,0.985336304,-0.511795044,0.005357787,-0.011920532,1.020239472
7.655846,2.999130249,0.954818726,-0.733047485,-0.000013307,-0.021197876,1.018164277
7.656472,3.243270874,0.870895386,-0.725418091,0.010362670,-0.023273071,1.014990449
7.657098,3.197494507,0.848007202,-0.740676880,0.010728881,-0.032794558,1.015234590
7.657724,3.678146362,1.259994507,-1.038223267,0.016954467,-0.042804323,1.007666230
7.658351,3.937545776,1.191329956,-0.725418091,0.008165404,-0.037555300,1.002295136
7.658978,4.402938843,0.786972046,-0.740676880,0.003038451,-0.036578737,1.000464082
7.659605,4.441085815,0.863265991,-0.839859009,0.003282592,-0.036090456,0.997412324
7.660230,4.921737671,0.672531128,-0.679641724,0.002550170,-0.039874636,0.990820527
7.660855,5.295578003,0.481796265,-0.633865356,0.005723998,-0.045123659,0.987280488
7.661480,5.822006226,0.306320190,-0.702529907,0.005235717,-0.049151979,0.985815644
7.662107,6.394210815,0.382614136,-0.649124146,0.005723998,-0.044147097,0.983374238
7.662732,6.821456909,0.382614136,-0.588088989,0.002183959,-0.042804323,0.985205293
7.663358,7.500473022,0.222396851,-0.679641724,0.006456420,-0.037555300,0.984472871
7.663984,7.675949097,0.184249878,-0.702529907,0.003038451,-0.028766235,0.980810761
7.664610,7.942977905,-0.212478638,-0.481277466,0.002794310,-0.032916628,0.985937715
7.665235,8.110824585,-0.105667114,-0.534683228,0.003892943,-0.025104126,0.986792207
7.665862,8.400741577,-0.395584106,-0.870376587,0.005479857,-0.026202759,0.987524629
7.666529,8.553329468,0.054550171,-0.664382935,0.010118529,-0.021930298,0.991552949
7.679108,3.426376343,0.992965698,-1.114517212,0.012804076,-0.014239868,1.013525605
7.679808,3.098312378,1.130294800,-1.030593872,0.014268920,-0.012042603,1.009863496
7.680435,3.189865112,0.992965698,-1.030593872,0.013048217,-0.012530884,1.009009004
7.681061,3.029647827,1.107406616,-0.771194458,0.015611693,-0.011432251,1.010595918
7.681687,3.159347534,1.069259644,-0.794082642,0.012559935,-0.014239868,1.008642793
7.682313,2.999130249,1.153182983,-0.900894165,0.012804076,-0.016559204,1.011084199
7.682939,2.785507202,1.290512085,-0.931411743,0.013048217,-0.013751587,1.007177949
7.683564,2.838912964,1.191329956,-1.068740845,0.013902709,-0.012164673,1.009619355
7.684190,2.762619019,1.191329956,-0.977188110,0.014146850,-0.012530884,1.007177949
7.684815,2.877059937,1.252365112,-0.832229614,0.014757201,-0.010333618,1.010351777
7.685442,2.793136597,1.374435425,-1.167922974,0.013536498,-0.011554321,1.010351777
7.686068,2.686325073,1.298141479,-0.908523560,0.011949584,-0.011798462,1.009863496
7.686694,2.404037476,1.290512085,-0.916152954,0.014146850,-0.005084595,1.006201386
7.687319,2.465072632,1.427841187,-1.198440552,0.015367553,-0.007159790,1.008764863
7.687944,2.510848999,1.565170288,-1.106887817,0.017564818,-0.007281860,1.009497285
7.688570,2.373519897,1.412582397,-0.984817505,0.016099975,-0.007037720,1.004858613
7.689195,2.419296265,1.504135132,-1.206069946,0.016344115,-0.008014282,1.005102754
7.689820,2.304855347,1.557540894,-1.152664185,0.014024779,-0.004352173,1.004736543
7.690447,2.442184448,1.534652710,-1.213699341,0.017808959,-0.004474243,1.004126191
7.691073,2.236190796,1.664352417,-1.221328735,0.015489623,-0.000201782,1.004004121
7.692769,2.220932007,1.748275757,-1.404434204,0.014024779,0.001629272,1.006445527
7.693396,2.297225952,1.420211792,-1.511245728,0.017442748,0.003704468,1.007422090
7.694021,1.900497437,1.481246948,-1.473098755,0.015977904,0.005779663,1.008398652
7.694646,1.953903198,1.633834839,-1.595169067,0.016344115,0.003460327,1.010229707
7.695272,1.831832886,1.504135132,-1.526504517,0.016832396,0.004681030,1.012793183
7.695898,1.801315308,1.641464233,-1.724868774,0.015977904,0.003338257,1.014746308
7.696524,1.717391968,1.618576050,-1.732498169,0.018785521,0.002239624,1.016943574
7.697150,1.686874390,1.694869995,-1.755386353,0.018175170,0.003582397,1.021948457
7.697776,1.557174683,1.717758179,-1.801162720,0.020982787,0.004070679,1.022802949
7.698402,1.839462280,1.542282104,-1.877456665,0.021348998,0.003216187,1.030371308
7.699028,1.976791382,1.618576050,-1.877456665,0.024889037,-0.005817017,1.040381074
7.699655,2.045455933,1.961898804,-1.907974243,0.030626342,-0.008746704,1.050390840
7.700281,2.236190796,1.877975464,-2.045303345,0.031236693,-0.007281860,1.059301972
7.700908,2.457443237,2.183151245,-2.060562134,0.032945678,-0.003497681,1.067114472
7.701533,2.671066284,2.419662476,-2.022415161,0.033678100,-0.003009399,1.075049043
7.702160,2.175155640,2.572250366,-1.946121216,0.034410521,0.006634155,1.076758027
7.702785,1.969161987,2.656173706,-1.915603638,0.042467162,0.009563843,1.080664277
7.703411,1.702133179,3.060531616,-1.778274536,0.032701537,0.008831421,1.089209199
7.704039,1.641098022,3.312301636,-2.228408813,0.033556029,0.006390015,1.088598847
7.704665,1.374069214,3.464889526,-1.999526978,0.031969115,0.005047241,1.089087129
7.705292,1.839462280,3.602218628,-2.274185181,0.031114623,-0.001788696,1.092505097
7.705918,1.770797729,4.098129272,-2.518325806,0.041002318,0.005535522,1.084936738
7.706543,1.686874390,4.342269897,-2.503067017,0.043321654,0.002849976,1.088720918
7.707169,2.091232300,4.456710815,-2.640396118,0.041124389,-0.006671509,1.093847871
7.707796,2.434555054,4.883956909,-2.335220337,0.044054076,-0.000323853,1.091772676
7.708422,2.259078979,5.364608765,-2.586990356,0.044054076,0.014934937,1.073340058
7.709047,1.358810425,5.921554565,-2.632766724,0.036363646,0.031536497,1.068213105
7.709673,0.237289429,6.165695190,-2.464920044,0.015611693,0.021770874,1.076269746
7.710299,-0.754531860,6.272506714,-2.594619751,0.011705443,0.013592163,1.084570527
7.722942,8.568588257,-1.791763306,-3.761917114,-0.077161744,-0.114947878,1.027197480
7.723683,12.085739136,-5.202102661,-4.151016235,-0.089612916,-0.116656862,1.043066621
7.724308,14.580551147,-6.827163696,-3.937393188,-0.085340455,-0.121173464,1.052954316
7.724933,17.807785034,-9.413528442,-4.257827759,-0.104993775,-0.175616816,1.107641816
7.725558,23.163619995,-13.174819946,-4.486709595,-0.114149049,-0.192462519,1.142920136
7.726184,28.946701050,-15.715408325,-4.929214478,-0.114759400,-0.167682245,1.169165254
7.726810,31.304183960,-17.821121216,-5.448013306,-0.085706666,-0.083819948,1.095923066
7.727437,29.961410522,-18.584060669,-6.027847290,-0.058362916,-0.056476198,1.056616426
7.728063,27.046981812,-18.080520630,-6.523757935,0.015245482,0.036541380,1.000830293
7.728688,24.712387085,-16.882705688,-5.669265747,0.031602904,-0.003741821,1.038061738
7.729313,28.565231323,-18.889236450,-4.967361450,0.018907592,-0.086627565,1.130224824
7.729938,36.011520386,-23.123550415,-4.791885376,-0.049573854,-0.168658808,1.195532441
7.730563,44.846359253,-28.929519653,-5.043655396,-0.159192994,-0.260211557,1.262060761
7.731188,53.643051147,-36.360549927,-5.455642700,-0.231092408,-0.293658823,1.306616426
7.731813,60.036483765,-42.967605591,-6.874710083,-0.260877550,-0.276446909,1.325049043
7.732438,62.683883667,-47.278213501,-7.813125610,-0.233045533,-0.142901972,1.274878144
7.733063,59.944931030,-48.262405396,-8.721023560,-0.144422486,0.001507202,1.189062715
7.733689,54.734054565,-46.393203735,-8.896499634,-0.025526002,0.107708372,1.113257051
7.734316,49.469772339,-43.303298950,-9.148269653,0.089464232,0.173992559,1.072851777
7.734941,45.761886597,-39.351272583,-9.110122681,0.194078490,0.198040411,1.036230683
7.735568,43.167892456,-35.513687134,-9.331375122,0.249254271,0.175457403,0.999853730
7.736194,41.092697144,-31.081008911,-9.064346313,0.285387099,0.130535528,0.968603730
7.736820,39.063278198,-26.816177368,-8.843093872,0.306627333,0.110760130,0.942358613
7.737446,34.882369995,-22.696304321,-8.339553833,0.282823622,0.116375364,0.899634004
7.738071,29.129806519,-17.256546021,-7.065444946,0.261583388,0.125164434,0.879492402
7.738697,23.255172729,-12.503433228,-5.493789673,0.239976928,0.154705450,0.873755097
7.739323,17.052474976,-8.116531372,-4.753738403,0.228136107,0.160076544,0.904516816
7.739950,13.176742554,-4.858779907,-3.952651978,0.165269896,0.062176146,0.989843965
7.740577,13.871017456,-2.783584595,-3.266006470,0.104478881,-0.005939087,1.036474824
7.741204,14.031234741,-1.272964478,-3.281265259,0.076158568,-0.002399048,1.039282441
7.741830,11.971298218,0.779342651,-3.998428345,0.033311889,0.022381226,1.036963105
7.742457,8.354965210,2.236557007,-5.081802368,-0.022962525,0.028728882,1.048681855
7.743084,4.898849487,2.556991577,-4.181533813,-0.084241822,0.020183960,1.082007051
7.743709,3.273788452,0.977706909,-3.151565552,-0.081067994,-0.008990845,1.099096894
7.744334,2.594772339,-0.876235962,-2.953201294,-0.052625611,-0.029620728,1.087378144
7.744960,1.679244995,-2.310562134,-3.845840454,-0.050794557,-0.040240847,1.076269746
7.745586,1.793685913,-3.264236450,-4.059463501,-0.039564088,-0.032428347,1.055029511
7.746211,1.709762573,-3.340530396,-3.540664673,-0.010755494,-0.016803345,1.031714082
7.746837,1.419845581,-3.348159790,-3.914505005,0.037584350,0.022015015,0.994360566
7.747464,0.260177612,-2.821731567,-3.990798950,0.010973021,0.045818724,0.973608613
7.748091,-0.205215454,-3.416824341,-2.525955200,0.024644896,0.041424192,0.988012910
7.748717,-1.547988892,-2.623367310,-2.640396118,0.051622435,0.015057007,0.959448457
7.749344,-2.173599243,-1.921463013,-3.449111938,0.072374389,0.009685913,0.931250215
7.749970,-2.593215942,-0.998306274,-3.426223755,0.048082396,-0.004596313,0.918066621
7.750597,-2.570327759,0.138473511,-2.899795532,0.053819701,-0.027423462,0.907324433
7.751223,-2.600845337,1.504135132,-2.434402466,0.080553100,0.023235718,0.902807832
7.751848,-2.875503540,1.824569702,-2.281814575,0.066148803,0.016643921,0.898901582
7.752475,-2.516921997,1.969528198,-2.228408813,0.081651732,0.013103882,0.906103730
7.765069,26.787582397,-11.503982544,-3.945022583,0.037462279,0.075481810,0.978491426
7.765777,24.727645874,-10.329055786,-3.945022583,0.073595092,0.092815794,0.972387910
7.766403,22.049728394,-8.589553833,-4.234939575,0.098497435,0.114056028,0.963110566
7.767028,18.799606323,-6.712722778,-3.876358032,0.115709350,0.139934942,0.962256074
7.767653,14.832321167,-4.187393188,-3.571182251,0.130357787,0.154583380,0.959570527
7.768279,11.025253296,-1.433181763,-2.991348267,0.149278685,0.145672247,0.956884980
7.768904,6.775680542,1.412582397,-3.029495239,0.156114623,0.144085333,0.952490449
7.769529,3.121200562,4.265975952,-2.342849731,0.149278685,0.141155645,0.948584199
7.770156,-0.922378540,6.951522827,-1.930862427,0.138170287,0.138348028,0.946020722
7.770782,-4.637893677,9.324264526,-1.495986938,0.120836303,0.128460333,0.947241426
7.771409,-7.895645142,10.956954956,-0.893264771,0.101793334,0.104290403,0.950659394
7.772038,-10.718521118,12.452316284,-0.740676880,0.073228881,0.080608763,0.952124238
7.779195,-1.769241333,3.647994995,-1.946121216,-0.081678346,-0.078326784,0.932715058
7.779821,0.664535522,1.923751831,-2.175003052,-0.076551393,-0.076373659,0.928686738
7.780446,2.587142944,0.405502319,-2.480178833,-0.070081666,-0.068194948,0.922461152
7.781073,4.402938843,-1.181411743,-2.731948853,-0.061170533,-0.058673464,0.914404511
7.781700,6.134811401,-2.257156372,-2.823501587,-0.046888307,-0.044879518,0.905005097
7.782326,7.210556030,-3.500747681,-3.060012817,-0.032972291,-0.020465454,0.899634004
7.782953,7.775131226,-4.149246216,-2.968460083,-0.019178346,0.013958374,0.894629121
7.783580,7.164779663,-4.523086548,-2.747207642,-0.003309205,0.031170288,0.887793183
7.784206,6.447616577,-4.683303833,-3.021865845,0.010362670,0.038128294,0.884009004
7.784832,5.753341675,-4.118728638,-2.815872192,0.026720092,0.032879271,0.873999238
7.785457,5.188766479,-3.378677368,-2.899795532,0.041368529,0.027996460,0.867163301
7.786084,4.685226440,-2.600479126,-2.823501587,0.042467162,0.020183960,0.855810761
7.786710,4.898849487,-1.875686646,-2.869277954,0.040391967,0.015301147,0.851294160
7.787336,4.830184937,-1.829910278,-2.678543091,0.032579467,0.005779663,0.845190644
7.787961,5.112472534,-1.364517212,-2.442031860,0.021471068,-0.001422485,0.845800996
7.788587,5.257431030,-1.028823853,-2.411514282,0.009508178,-0.007403931,0.843237519
7.789213,5.234542847,-0.952529907,-2.289443970,-0.001356080,-0.003741821,0.850439668
7.789839,5.196395874,-1.021194458,-2.327590942,-0.010633424,-0.001910767,0.854590058
7.790465,4.769149780,-0.761795044,-2.289443970,-0.013441041,0.004925171,0.863501191
7.791090,4.921737671,-0.937271118,-2.358108521,-0.012342408,0.008831421,0.873266816
7.792769,4.845443726,-0.983047485,-2.518325806,-0.009168580,0.006634155,0.895727754
7.793394,4.769149780,-0.838088989,-2.457290649,-0.004896119,0.005047241,0.904150605
7.794019,4.692855835,-0.891494751,-2.648025513,-0.008069947,0.000408569,0.916479707
7.794645,4.250350952,-1.105117798,-2.388626099,-0.007703736,-0.008746704,0.926977754
7.795272,3.998580933,-1.387405396,-2.403884888,-0.012586549,-0.014850220,0.938452363
7.795898,3.861251831,-2.135086060,-2.243667603,-0.012098268,-0.022662720,0.947485566
7.796524,3.670516968,-2.341079712,-1.785903931,-0.010267213,-0.027179321,0.959204316
7.797149,3.403488159,-2.905654907,-2.152114868,-0.014539674,-0.029742798,0.966406465
7.797775,3.357711792,-3.302383423,-1.778274536,-0.016981080,-0.027911743,0.974096894
7.798400,3.357711792,-3.897476196,-1.427322388,-0.019788697,-0.028888306,0.979590058
7.799026,3.510299683,-4.362869263,-1.572280884,-0.024549440,-0.030353149,0.984717011
7.799652,3.350082397,-5.118179321,-1.618057251,-0.027479127,-0.036578737,0.989721894
7.800278,3.685775757,-5.347061157,-1.534133911,-0.024793580,-0.040484987,0.992163301
7.800904,4.006210327,-5.926895142,-1.701980591,-0.021131471,-0.046100222,0.992529511
7.801531,4.166427612,-6.308364868,-1.663833618,-0.022840455,-0.045367800,0.999731660
7.802157,4.364791870,-6.544876099,-1.267105103,-0.015638307,-0.046832643,0.999853730
7.802783,4.441085815,-6.796646118,-1.129776001,-0.009046510,-0.050250612,1.003759980
7.815490,3.647628784,-4.881668091,0.449508667,0.009141967,0.000042358,1.010962129
7.816245,3.517929077,-4.927444458,0.480026245,0.006456420,-0.001666626,1.008764863
7.816871,3.022018433,-5.247879028,0.403732300,0.005723998,0.002605835,1.005468965
7.817496,2.739730835,-5.224990845,0.609725952,0.007555053,0.003460327,1.000097871
7.818123,2.808395386,-5.484390259,0.434249878,0.006090209,0.006390015,0.994970918
7.818749,2.426925659,-5.438613892,0.396102905,0.005113646,0.002849976,0.992773652
7.819375,2.564254761,-5.728530884,0.457138062,0.008287475,0.004192749,0.985449433
7.820001,2.266708374,-5.629348755,0.586837769,0.006700560,0.004558960,0.984594941
7.820628,2.411666870,-5.415725708,0.396102905,0.010240600,0.004192749,0.978857636
7.821253,2.289596558,-5.560684204,0.472396851,0.015611693,0.003094116,0.971167207
7.821880,2.556625366,-5.400466919,0.167221069,0.018541381,-0.000445923,0.974218965
7.822506,2.632919312,-5.286026001,0.335067749,0.021593139,-0.005572876,0.972143769
7.823132,2.816024780,-5.232620239,0.235885620,0.023057982,-0.005084595,0.970312715
7.823757,3.151718140,-5.003738403,0.495285034,0.025865600,-0.007037720,0.970068574
7.824383,3.464523315,-4.912185669,0.342697144,0.028307006,-0.007648071,0.976782441
7.825008,3.678146362,-4.713821411,0.266403198,0.026964232,-0.005084595,0.979101777
7.825633,4.227462769,-4.530715942,0.457138062,0.026109740,-0.008746704,0.981909394
7.826260,4.296127319,-4.530715942,0.464767456,0.025987670,-0.006549438,0.985327363
7.826886,4.837814331,-4.645156860,0.167221069,0.024034545,-0.008624634,0.989966035
7.827511,5.028549194,-4.515457153,0.502914429,0.020494506,-0.009967407,0.993750215
7.828136,5.600753784,-4.401016235,0.586837769,0.016832396,-0.018756470,1.001562715
7.828762,5.860153198,-4.675674438,0.449508667,0.010362670,-0.017901978,1.005591035
7.829389,6.295028687,-4.889297485,0.388473511,0.009508178,-0.022418579,1.008642793
7.830016,6.699386597,-5.110549927,0.510543823,0.007921264,-0.020831665,1.014502168
7.830641,7.241073608,-5.408096313,0.502914429,0.007188842,-0.019244751,1.020605683
7.831268,7.584396362,-5.545425415,0.609725952,0.013536498,-0.018512329,1.029150605
7.831893,7.675949097,-5.934524536,0.510543823,0.009508178,-0.005450806,1.034887910
7.832518,7.866683960,-5.942153931,0.434249878,0.011217162,-0.001300415,1.039282441
7.833143,7.767501831,-5.934524536,0.281661987,0.015489623,0.005657593,1.045996308
7.833768,7.363143921,-6.125259399,0.304550171,0.020860717,0.009807983,1.046606660
7.834394,7.042709351,-5.858230591,0.159591675,0.025865600,0.016888062,1.049292207
7.835021,6.501022339,-5.598831177,0.037521362,0.032701537,0.022381226,1.051123261
7.835648,6.058517456,-5.278396606,0.190109253,0.037462279,0.027752319,1.052466035
7.836273,5.051437378,-4.805374146,0.243515015,0.041856810,0.027752319,1.052221894
7.836899,4.502120972,-4.492568970,0.083297729,0.046373412,0.028362671,1.051123261
7.837524,3.586593628,-4.156875610,0.228256226,0.047838256,0.027386108,1.048193574
7.838150,2.785507202,-3.561782837,0.647872925,0.051134154,0.030437866,1.046972871
7.838776,2.083602905,-3.172683716,0.289291382,0.049547240,0.028240601,1.044653535
7.839402,1.618209839,-2.585220337,0.266403198,0.048448607,0.027508179,1.043432832
7.840027,1.038375854,-2.363967896,0.319808960,0.044298217,0.029095093,1.037817597
7.840654,0.786605835,-2.089309692,0.335067749,0.039659545,0.023113647,1.037817597
7.841279,0.191513062,-1.921463013,0.449508667,0.039415404,0.022503296,1.035498261
7.841904,0.038925171,-1.616287231,0.563949585,0.033556029,0.022991577,1.033423066
7.842529,0.092330933,-1.433181763,0.228256226,0.029893920,0.015179077,1.029394746
7.843154,0.153366089,-1.349258423,0.190109253,0.030015990,0.017986694,1.030859590
7.843779,0.038925171,-1.257705688,0.167221069,0.022569701,0.015789429,1.023535371
7.844404,0.374618530,-1.295852661,0.045150757,0.026353881,0.013836304,1.023413301
7.845039,0.466171265,-1.219558716,0.113815308,0.022569701,0.013592163,1.022925019
7.845664,0.519577026,-1.341629028,-0.237136841,0.022935912,0.012615601,1.022314668
7.846291,0.595870972,-1.539993286,-0.168472290,0.022325560,0.012859741,1.022192597
7.858834,0.420394897,-0.571060181,-0.771194458,0.019762084,-0.009601196,0.985937715
7.859459,0.405136108,-0.456619263,-0.679641724,0.018175170,-0.009723267,0.989355683
7.860084,0.519577026,-0.777053833,-0.496536255,0.016832396,-0.014484009,0.989599824
7.860711,0.542465210,-0.693130493,-0.794082642,0.012437865,-0.014972290,0.992163301
7.861338,0.664535522,-0.845718384,-0.641494751,0.012071654,-0.014484009,0.987524629
7.861963,0.527206421,-0.937271118,-0.603347778,0.009386107,-0.015338501,0.988745332
7.862589,0.962081909,-1.189041138,-0.618606567,0.006578490,-0.011554321,0.990576386
7.863214,1.114669800,-1.448440552,-0.404983521,0.007066771,-0.009601196,0.989233613
7.863839,1.190963745,-1.532363892,-0.366836548,0.004625365,-0.008502563,0.989233613
7.864465,1.465621948,-1.791763306,-0.580459595,0.006090209,-0.008746704,0.991430879
7.865092,2.030197144,-2.219009399,-0.542312622,0.008409545,-0.004596313,0.990942597
7.865717,1.908126831,-2.264785767,-0.389724731,0.006822631,-0.005694946,0.991308808
7.866344,2.098861694,-2.402114868,-0.641494751,0.006090209,-0.007770142,0.990332246
7.866970,2.144638062,-2.585220337,-0.458389282,0.012804076,-0.005206665,0.988745332
7.867596,2.121749878,-2.600479126,-0.527053833,0.011217162,-0.004108032,0.989966035
7.868221,2.152267456,-2.669143677,-0.565200806,0.014879271,-0.004352173,0.990210176
7.868847,2.350631714,-2.775955200,-0.748306274,0.020372435,-0.007648071,0.989843965
7.869474,2.350631714,-2.402114868,-0.343948364,0.025377318,-0.008502563,0.990088105
7.870099,2.487960815,-2.508926392,-0.664382935,0.020128295,-0.010821899,0.986425996
7.870726,2.243820190,-2.623367310,-0.351577759,0.021593139,-0.016925415,0.991430879
7.871352,2.312484741,-2.501296997,-0.252395630,0.024278685,-0.014728149,0.989111543
7.871978,2.457443237,-2.669143677,-0.183731079,0.022203490,-0.014972290,0.992529511
7.872604,2.350631714,-2.478408813,-0.351577759,0.018053100,-0.016315063,0.991064668
7.873230,2.785507202,-2.486038208,-0.191360474,0.016954467,-0.013995728,0.994970918
7.873857,2.518478394,-2.699661255,0.029891968,0.008165404,-0.006305298,0.994116426
7.874482,2.419296265,-2.707290649,0.136703491,0.001329467,0.005901733,0.992041230
7.875107,2.343002319,-3.355789185,0.274032593,0.003282592,0.008098999,0.988867402
7.875733,2.320114136,-3.355789185,-0.054031372,0.006334350,-0.004474243,0.994848847
7.876360,2.449813843,-3.180313110,-0.176101685,0.013902709,-0.019122681,0.998755097
7.876986,2.655807495,-2.714920044,-0.115066528,0.020860717,-0.025714478,1.003027558
7.877611,2.861801147,-2.371597290,-0.763565063,0.024034545,-0.025592407,1.005468965
7.878236,2.823654175,-2.295303345,-0.359207153,0.026964232,-0.014239868,1.004980683
7.878862,2.953353882,-2.440261841,-0.336318970,0.026842162,-0.005572876,1.005102754
7.879489,2.877059937,-3.096389771,0.037521362,0.025011107,0.002117554,1.001440644
7.880114,2.976242065,-3.546524048,0.090927124,0.021959350,0.001995483,0.999731660
7.880739,2.922836304,-3.790664673,0.480026245,0.020860717,-0.000079712,0.996069551
7.881365,2.777877808,-3.935623169,0.380844116,0.019517943,0.002483765,0.993628144
7.881991,2.831283569,-3.523635864,0.441879272,0.012193725,0.001263062,0.994848847
7.882617,2.747360229,-3.325271606,0.098556519,0.011949584,0.004436890,0.993872285
7.883242,2.457443237,-2.920913696,0.075668335,0.012071654,0.007854858,0.994482636
7.883869,2.457443237,-2.737808228,0.090927124,0.013536498,0.007732788,0.990088105
7.884494,2.457443237,-2.730178833,0.083297729,0.019029662,0.009197632,0.990698457
7.885120,2.320114136,-2.760696411,0.167221069,0.017198607,0.005047241,0.988623261
7.885746,2.281967163,-3.058242798,-0.237136841,0.020738646,0.001140991,0.991064668
7.886372,2.198043823,-3.065872192,0.022262573,0.022203490,-0.005939087,0.992041230
7.886998,2.304855347,-3.264236450,0.151962280,0.023912475,-0.006671509,0.993384004
7.887623,2.343002319,-3.348159790,0.396102905,0.025865600,-0.006793579,0.994116426
7.888250,2.358261108,-2.959060669,0.121444702,0.023424193,-0.005817017,0.992407441
7.888875,2.503219604,-3.157424927,0.312179565,0.020860717,-0.003253540,0.995092988
7.902681,1.938644409,-2.890396118,0.159591675,0.024034545,0.008953491,1.006567597
7.903385,1.892868042,-2.920913696,0.083297729,0.027208373,0.007854858,1.005102754
7.904011,1.969161987,-2.890396118,0.274032593,0.026842162,0.010540405,1.005102754
7.904636,2.053085327,-2.760696411,0.388473511,0.029283568,0.009563843,1.005591035
7.905262,2.037826538,-2.882766724,0.220626831,0.027208373,0.013592163,1.004858613
7.905887,2.045455933,-2.737808228,0.174850464,0.023302123,0.009685913,1.000708222
7.906513,1.923385620,-2.470779419,0.052780151,0.024278685,0.007000366,1.001318574
7.907138,1.953903198,-2.493667603,0.136703491,0.022325560,0.004925171,1.003759980
7.907763,1.892868042,-2.257156372,0.090927124,0.022569701,0.006390015,1.006567597
7.908388,1.793685913,-2.112197876,0.136703491,0.025865600,0.007244507,1.010229707
7.909015,2.083602905,-2.112197876,-0.069290161,0.024889037,0.006267944,1.008276582
7.909642,1.755538940,-2.196121216,0.159591675,0.026964232,0.007000366,1.008642793
7.910268,1.900497437,-2.219009399,0.121444702,0.025377318,0.005779663,1.010717988
7.910894,2.129379272,-2.341079712,-0.267654419,0.023790404,0.007000366,1.007544160
7.911519,2.007308960,-1.974868774,0.090927124,0.023912475,0.008831421,1.011206269
7.912145,2.007308960,-2.173233032,0.167221069,0.019395873,0.011272827,1.011694551
7.912771,1.793685913,-2.241897583,-0.130325317,0.018907592,0.009807983,1.012304902
7.913398,1.541915894,-2.302932739,-0.015884399,0.020372435,0.011150757,1.013037324
7.914023,1.595321655,-2.028274536,0.007003784,0.023057982,0.008709351,1.013769746
7.914648,1.526657104,-2.150344849,-0.092178345,0.023912475,0.008098999,1.016333222
7.915275,1.732650757,-2.249526978,-0.054031372,0.025377318,0.005779663,1.014868379
7.915902,1.740280151,-1.974868774,-0.206619263,0.025255248,0.004070679,1.015234590
7.916529,1.747909546,-2.104568481,-0.237136841,0.025377318,0.007488647,1.016333222
7.917154,1.770797729,-2.058792114,-0.031143188,0.025499389,0.007732788,1.017920136
7.917779,1.694503784,-2.135086060,-0.130325317,0.027208373,0.006267944,1.014868379
7.918405,1.763168335,-1.776504517,-0.389724731,0.026964232,0.006512085,1.015722871
7.919037,1.488510132,-2.013015747,-0.031143188,0.028795287,0.005047241,1.013647676
7.919662,1.587692261,-1.913833618,-0.176101685,0.032579467,0.005779663,1.017431855
7.920287,1.274887085,-1.608657837,-0.282913208,0.033189818,0.007976929,1.017065644
7.920912,1.549545288,-1.402664185,-0.237136841,0.031969115,0.010662476,1.013891816
7.921537,1.335922241,-1.883316040,-0.221878052,0.032213256,0.010662476,1.013647676
7.922162,1.442733765,-1.532363892,-0.214248657,0.026598021,0.013470093,1.010595918
7.922787,1.122299194,-1.372146606,-0.298171997,0.028184935,0.015667358,1.010962129
7.923412,0.862899780,-1.372146606,-0.000625610,0.028184935,0.013348022,1.012304902
7.924040,0.817123413,-1.295852661,-0.260025024,0.027452514,0.010784546,1.009619355
7.924665,0.664535522,-1.128005981,-0.244766235,0.026231810,0.010662476,1.011206269
7.925291,0.557723999,-0.944900513,-0.313430786,0.024400756,0.007976929,1.009009004
7.925917,0.496688843,-0.792312622,-0.115066528,0.026109740,0.008221069,1.005835176
7.926544,0.122848511,-0.975418091,-0.374465942,0.022569701,0.009685913,1.005346894
7.927170,0.183883667,-0.716018677,-0.382095337,0.022813842,0.007488647,1.008764863
7.927797,0.244918823,-0.922012329,-0.382095337,0.019762084,0.008343140,1.005957246
7.928422,0.275436401,-1.128005981,-0.176101685,0.017931029,0.007366577,1.003393769
7.929047,-0.037368774,-1.173782349,-0.351577759,0.019517943,0.004803101,1.003393769
7.929672,0.267807007,-1.028823853,-0.198989868,0.019640014,0.004803101,0.999731660
7.930299,0.199142456,-1.173782349,-0.198989868,0.019517943,0.003948608,0.998877168
7.930925,0.176254272,-1.059341431,-0.435501099,0.017076537,0.002361694,0.998022676
7.931551,0.229660034,-1.341629028,-0.389724731,0.018541381,0.004803101,0.995825410
7.932176,0.351730347,-1.097488403,-0.534683228,0.018785521,0.003216187,0.996801972
7.932801,0.359359741,-1.128005981,-0.649124146,0.019762084,0.001385132,0.993750215
7.945339,1.610580444,-1.738357544,-0.206619263,0.016588256,-0.000934204,0.991186738
7.946006,1.679244995,-1.883316040,-0.023513794,0.016710326,-0.005084595,0.992407441
7.946631,1.358810425,-1.913833618,-0.214248657,0.016588256,-0.000690063,0.993261933
7.947256,1.335922241,-1.875686646,-0.084548950,0.016588256,-0.001544556,0.990820527
7.947881,1.122299194,-2.013015747,-0.054031372,0.015367553,-0.002032837,0.992285371
7.948506,1.198593140,-2.051162720,0.014633179,0.015733764,-0.004352173,0.990210176
7.949132,0.954452515,-2.264785767,0.060409546,0.012071654,-0.005450806,0.987280488
7.949757,0.923934937,-2.241897583,-0.000625610,0.012315795,-0.005694946,0.987646699
7.950382,0.908676147,-2.119827271,-0.099807739,0.011705443,-0.004474243,0.986792207
7.951009,0.794235229,-2.547073364,-0.008255005,0.010728881,-0.001178345,0.986548066
7.951635,0.771347046,-2.463150024,0.052780151,0.010728881,-0.005450806,0.981176972
7.952260,1.068893433,-2.623367310,-0.008255005,0.010850951,-0.007159790,0.982763886
7.952886,1.091781616,-2.638626099,0.266403198,0.011461303,-0.010089478,0.980322480
7.953511,1.274887085,-2.615737915,0.106185913,0.013170287,-0.013507446,0.980688691
7.954138,1.267257690,-2.722549438,0.136703491,0.015123412,-0.017291626,0.982885957
7.954764,1.587692261,-2.829360962,-0.092178345,0.016588256,-0.011798462,0.983008027
7.955389,1.839462280,-2.981948853,0.266403198,0.015001342,-0.012042603,0.983374238
7.956015,1.877609253,-2.898025513,0.426620483,0.019029662,-0.011432251,0.980322480
7.956640,2.274337769,-3.050613403,0.296920776,0.017931029,-0.011920532,0.982153535
7.957267,2.350631714,-3.493118286,0.502914429,0.015977904,-0.013995728,0.984594941
7.957892,2.617660522,-3.508377075,0.464767456,0.015367553,-0.010211548,0.979712129
7.958517,2.632919312,-3.157424927,0.502914429,0.012071654,-0.008868774,0.985327363
7.959142,2.541366577,-3.790664673,0.258773804,0.010606810,-0.007403931,0.984472871
7.959769,2.808395386,-3.516006470,0.602096558,0.011827514,-0.008990845,0.984839082
7.960395,2.846542358,-3.409194946,0.373214722,0.013658568,-0.005817017,0.988623261
7.961020,3.006759644,-3.805923462,0.411361694,0.014146850,-0.006183228,0.989233613
7.961647,2.938095093,-3.668594360,0.426620483,0.016588256,-0.007159790,0.990820527
7.962273,3.022018433,-3.714370728,0.594467163,0.013780639,-0.004230103,0.992163301
7.962899,2.823654175,-3.752517700,0.640243530,0.014757201,-0.005328735,0.990332246
7.963524,2.724472046,-3.912734985,0.502914429,0.014879271,-0.006793579,0.992163301
7.964149,2.343002319,-3.920364380,0.624984741,0.016466185,-0.003131470,0.989721894
7.964775,2.518478394,-4.095840454,0.777572632,0.014635131,-0.007892212,0.987768769
7.965400,2.472702026,-4.179763794,0.525802612,0.014879271,-0.006061157,0.991064668
7.966025,2.487960815,-4.187393188,0.632614136,0.014879271,-0.005572876,0.990820527
7.966652,2.335372925,-3.927993774,0.724166870,0.017198607,-0.007648071,0.989355683
7.967278,2.312484741,-4.202651978,0.800460815,0.017442748,-0.010699829,0.988257051
7.967903,2.548995972,-4.217910767,0.869125366,0.018175170,-0.009357056,0.987036347
7.968530,2.510848999,-4.294204712,0.846237183,0.016710326,-0.007159790,0.986425996
7.969157,2.632919312,-4.378128052,1.021713257,0.015367553,-0.004840454,0.987890840
7.969784,2.503219604,-4.492568970,0.830978394,0.016222045,-0.008258423,0.987646699
7.970409,2.541366577,-4.309463501,1.113265991,0.016466185,-0.011676392,0.990088105
7.971038,2.938095093,-4.523086548,1.075119019,0.017931029,-0.007159790,0.990820527
7.971663,2.915206909,-4.515457153,1.197189331,0.019884154,-0.007648071,0.991186738
7.972288,3.212753296,-4.423904419,1.105636597,0.017931029,-0.003253540,0.990942597
7.972915,3.159347534,-4.675674438,0.998825073,0.019151732,-0.003985962,0.989111543
7.973540,3.098312378,-4.652786255,1.021713257,0.020982787,-0.002765259,0.993506074
7.974165,3.350082397,-4.607009888,1.120895386,0.020494506,-0.002154907,0.995337129
7.974792,3.075424194,-4.545974731,1.258224487,0.020250365,-0.002399048,0.995337129
7.975417,3.418746948,-4.813003540,1.242965698,0.021837279,-0.003497681,0.994848847
7.976044,3.105941772,-4.706192017,1.204818726,0.022569701,0.000042358,0.999853730
7.988658,2.770248413,-4.828262329,1.433700562,0.027940795,0.001018921,1.000830293
7.989406,2.854171753,-4.530715942,1.273483276,0.026231810,-0.000812134,1.004492402
7.990038,2.724472046,-4.759597778,1.479476929,0.024889037,-0.000445923,1.003393769
7.990663,2.800765991,-4.706192017,1.349777222,0.023424193,-0.002032837,1.004248261
7.991288,2.976242065,-4.294204712,1.548141479,0.020982787,0.002117554,1.008154511
7.991913,2.892318726,-4.660415649,1.387924194,0.023424193,0.001140991,1.008520722
7.992538,2.938095093,-4.416275024,1.487106323,0.025499389,0.000286499,1.012304902
7.993165,2.808395386,-4.698562622,1.448959351,0.025987670,0.000286499,1.012182832
7.993791,3.189865112,-4.660415649,1.456588745,0.028307006,0.001385132,1.012793183
7.994417,2.701583862,-4.462051392,1.456588745,0.030748412,0.004192749,1.014258027
7.995044,2.930465698,-4.507827759,1.334518433,0.028307006,0.001629272,1.017309785
7.995670,2.922836304,-4.736709595,1.448959351,0.030015990,0.004925171,1.019873261
7.996297,2.739730835,-4.309463501,1.441329956,0.031480834,0.004192749,1.017920136
7.996924,2.754989624,-4.339981079,1.380294800,0.031847045,0.003582397,1.019751191
7.997550,2.556625366,-4.309463501,1.563400269,0.032335326,0.005901733,1.019751191
7.998175,2.533737183,-4.095840454,1.395553589,0.029405639,0.007366577,1.019140840
7.998802,2.304855347,-4.271316528,1.403182983,0.030138060,0.005657593,1.015600801
7.999427,2.213302612,-4.408645630,1.647323608,0.032457396,0.010906616,1.020971894
8.000052,2.343002319,-4.195022583,1.479476929,0.031724975,0.011028687,1.020727754
8.000678,1.999679565,-4.042434692,1.509994507,0.031114623,0.012249390,1.016211152
8.001303,2.205673218,-4.126358032,1.571029663,0.030015990,0.015545288,1.018042207
8.003013,2.060714722,-4.072952271,1.334518433,0.029283568,0.019939819,1.015356660
8.003640,2.167526245,-4.271316528,1.365036011,0.030015990,0.019451538,1.012182832
8.004265,1.885238647,-4.095840454,1.395553589,0.031969115,0.018841187,1.010595918
8.004891,2.014938354,-4.065322876,1.296371460,0.033800170,0.018841187,1.013647676
8.005516,1.869979858,-4.011917114,1.204818726,0.036607787,0.017254272,1.013281465
8.006143,2.037826538,-3.821182251,1.082748413,0.037462279,0.018230835,1.012182832
8.006769,2.075973511,-3.775405884,1.143783569,0.037950560,0.020672241,1.013525605
8.007395,2.037826538,-3.828811646,1.227706909,0.034776732,0.021770874,1.011328340
8.008022,2.037826538,-3.638076782,1.105636597,0.036973998,0.024700562,1.014258027
8.008648,2.022567749,-3.454971313,1.021713257,0.034166381,0.023235718,1.011572480
8.009273,1.892868042,-3.920364380,1.036972046,0.032335326,0.023235718,1.010473847
8.009898,1.671615601,-3.493118286,0.953048706,0.033189818,0.024212280,1.010351777
8.010525,1.572433472,-3.386306763,1.014083862,0.036119506,0.023723999,1.009985566
8.011151,1.503768921,-3.378677368,0.876754761,0.034410521,0.027752319,1.011938691
8.011776,1.290145874,-3.149795532,1.006454468,0.032457396,0.022747437,1.010107636
8.012401,1.465621948,-3.035354614,0.640243530,0.036485717,0.019451538,1.012915254
8.013027,1.358810425,-3.203201294,0.686019897,0.034898803,0.017376343,1.013037324
8.013653,1.129928589,-3.020095825,0.609725952,0.033433959,0.017010132,1.011084199
8.014279,1.099411011,-2.966690063,0.655502319,0.032213256,0.020550171,1.010473847
8.014904,1.297775269,-2.989578247,0.647872925,0.034410521,0.016399780,1.012182832
8.015531,0.992599487,-3.073501587,0.548690796,0.033922240,0.016155640,1.009741426
8.016156,0.916305542,-2.745437622,0.426620483,0.033067748,0.011516968,1.010229707
8.016782,1.053634644,-3.050613403,0.624984741,0.031480834,0.010906616,1.013159394
8.017408,1.007858276,-3.020095825,0.312179565,0.032701537,0.011761108,1.007544160
8.018039,1.053634644,-2.562332153,0.197738647,0.032091185,0.009807983,1.009253144
8.018664,0.954452515,-2.829360962,0.480026245,0.031480834,0.012249390,1.007177949
8.019290,1.000228882,-2.966690063,0.571578979,0.034654662,0.008343140,1.007177949
8.019917,0.878158569,-2.814102173,0.373214722,0.030748412,0.006145874,1.009985566
8.020543,1.030746460,-2.836990356,0.251144409,0.033800170,0.007244507,1.008154511
8.039803,-1.471694946,-0.342178345,-0.557571411,0.059557006,-0.016437134,1.041479707
8.040519,-1.761611938,0.069808960,-0.534683228,0.044786498,-0.019733032,1.040381074
8.041144,-1.929458618,0.199508667,-0.374465942,0.028673217,-0.016681274,1.037695527
8.041771,-1.822647095,0.291061401,-0.549942017,0.014024779,-0.006183228,1.036596894
8.042397,-1.830276489,-0.014114380,-0.549942017,0.005846068,-0.000812134,1.027197480
8.043023,-1.639541626,-0.670242310,-0.481277466,0.003892943,0.002117554,1.025732636
8.043649,-1.303848267,-0.937271118,-0.549942017,0.002916381,0.005779663,1.024878144
8.044276,-1.036819458,-0.960159302,-0.725418091,0.004259154,0.009319702,1.016943574
8.044902,-0.983413696,-1.417922974,-0.832229614,0.010118529,0.008587280,1.009619355
8.045527,-0.937637329,-1.669692993,-0.809341431,0.020494506,0.007976929,1.008398652
8.046153,-1.113113403,-1.662063599,-0.816970825,0.032823607,0.004925171,1.007177949
8.046778,-0.899490356,-1.379776001,-0.733047485,0.042345092,-0.000567993,1.003149629
8.047403,-0.907119751,-1.387405396,-0.717788696,0.047594115,-0.005450806,1.000708222
8.048037,-0.632461548,-1.158523560,-0.679641724,0.050401732,-0.002643188,0.998755097
8.048663,-0.464614868,-1.097488403,-0.717788696,0.052232787,-0.000812134,0.994848847
8.049288,-0.472244263,-0.891494751,-0.397354126,0.043565795,0.001629272,0.992895722
8.049913,-0.182327271,-0.830459595,-0.321060181,0.037950560,-0.000567993,0.991308808
8.050539,0.214401245,-0.738906860,-0.176101685,0.031480834,0.005535522,0.991919160
8.051164,0.275436401,-0.647354126,-0.450759888,0.024644896,0.006756226,0.996679902
8.051789,0.588241577,-0.708389282,-0.618606567,0.018053100,0.010906616,0.998388886
8.052415,0.740829468,-0.639724731,-0.519424438,0.018663451,0.011883179,0.999853730
8.053040,0.855270386,-0.563430786,-0.717788696,0.019884154,0.013470093,1.004126191
8.053666,0.916305542,-0.860977173,-0.618606567,0.017564818,0.011516968,1.006933808
8.054293,0.977340698,-1.135635376,-0.824600220,0.022569701,0.008831421,1.007177949
8.054920,0.954452515,-0.830459595,-0.839859009,0.028184935,0.006145874,1.009985566
8.055546,0.748458862,-0.906753540,-0.801712036,0.028184935,0.002727905,1.012182832
8.056171,0.634017944,-1.013565063,-0.710159302,0.031236693,0.009197632,1.012915254
8.056797,0.580612183,-1.128005981,-0.855117798,0.033433959,0.007976929,1.010229707
8.057422,0.206771851,-0.822830200,-0.855117798,0.034410521,0.011761108,1.011084199
8.058047,0.061813354,-0.815200806,-0.786453247,0.031847045,0.009075562,1.011206269
8.058674,-0.235733032,-0.555801392,-0.809341431,0.030504271,0.008709351,1.009741426
8.059300,-0.228103638,-0.487136841,-0.771194458,0.030992553,0.002605835,1.007666230
8.059925,-0.617202759,-0.395584106,-0.794082642,0.030015990,0.006267944,1.005224824
8.060550,-0.846084595,-0.342178345,-0.832229614,0.027818725,0.005047241,1.005346894
8.061175,-0.800308228,-0.403213501,-0.733047485,0.023424193,0.002849976,1.005957246
8.061802,-0.518020630,-0.403213501,-0.664382935,0.024034545,0.000286499,1.002783418
8.062429,-0.662979126,-0.189590454,-0.511795044,0.024034545,-0.003619751,1.002295136
8.063054,-0.563796997,-0.471878052,-0.794082642,0.022691771,-0.002032837,1.004736543
8.063680,-0.281509399,-0.738906860,-0.748306274,0.024644896,-0.004840454,0.999853730
8.064307,-0.189956665,-0.616836548,-0.626235962,0.023790404,-0.001788696,1.001196504
8.064934,-0.144180298,-0.654983521,-0.870376587,0.024766967,-0.001910767,0.998999238
8.065561,0.023666382,-0.845718384,-0.595718384,0.026720092,0.003826538,0.998877168
8.066186,0.504318237,-0.952529907,-0.610977173,0.025499389,-0.000079712,0.995581269
8.066811,0.504318237,-0.967788696,-0.748306274,0.029771850,0.004436890,0.999121308
8.067438,0.626388550,-0.914382935,-0.595718384,0.027452514,0.004192749,0.999731660
8.068065,0.466171265,-0.838088989,-0.740676880,0.023546264,0.002605835,1.002050996
8.068691,0.664535522,-0.777053833,-0.572830200,0.025499389,0.004803101,1.000708222
8.069317,0.901046753,-0.807571411,-0.794082642,0.027086303,0.005413452,1.000464082
8.081922,0.275436401,-0.479507446,-0.397354126,-0.011854127,0.048992552,1.016211152
8.082624,-0.212844849,0.054550171,-0.404983521,0.005235717,0.026287476,1.017431855
8.083249,-0.487503052,0.268173218,-0.679641724,0.019640014,0.004436890,1.023535371
8.083874,-0.403579712,0.786972046,-0.939041138,0.031969115,-0.005206665,1.030249238
8.084500,-0.449356079,0.588607788,-1.389175415,0.038072631,0.000164429,1.032568574
8.085125,-0.449356079,0.046920776,-1.068740845,0.033311889,0.004803101,1.029516816
8.085750,-0.449356079,-0.479507446,-0.855117798,0.033189818,0.004436890,1.020117402
8.086376,-0.739273071,-0.487136841,-0.435501099,0.031358764,0.000652710,1.013525605
8.087001,-0.891860962,-0.738906860,-0.443130493,0.024034545,-0.002032837,1.002783418
8.087626,-0.807937622,-0.365066528,-0.595718384,0.020372435,0.006634155,0.998633027
8.088252,-0.960525513,-0.159072876,-0.549942017,0.019273803,0.018719116,0.996069551
8.088877,-1.074966431,-0.120925903,-1.030593872,0.021593139,0.020672241,0.989599824
8.089502,-0.868972778,0.031661987,-0.977188110,0.028062865,0.015911499,0.991064668
8.090128,-0.655349731,0.024032593,-0.961929321,0.032823607,0.012615601,0.992651582
8.090753,-0.441726685,0.329208374,-0.931411743,0.037096068,0.003826538,0.988989472
8.091379,-0.495132446,0.191879272,-0.809341431,0.038438842,0.001751343,0.991797090
8.092006,-0.403579712,0.024032593,-0.771194458,0.036607787,-0.001544556,0.989721894
8.092633,-0.228103638,0.115585327,-0.740676880,0.033556029,-0.005206665,0.990698457
8.093258,-0.456985474,0.230026245,-0.549942017,0.031358764,-0.011432251,0.990454316
8.093883,-0.174697876,0.390243530,-0.801712036,0.024400756,-0.015460571,0.986059785
8.094510,-0.312026978,0.504684448,-0.420242310,0.025621459,-0.010821899,0.989966035
8.095135,-0.312026978,0.374984741,-0.687271118,0.019029662,-0.006915649,0.991919160
8.095761,-0.151809692,0.191879272,-0.549942017,0.014635131,-0.005572876,0.988623261
8.096388,0.138107300,-0.082778931,-0.504165649,0.010973021,-0.004718384,0.989477754
8.097014,0.321212769,-0.654983521,-0.618606567,0.012315795,0.000408569,0.987402558
8.097640,0.435653687,-0.654983521,-0.496536255,0.011217162,-0.003375610,0.986059785
8.098265,0.763717651,-0.761795044,-0.588088989,0.013414428,-0.006183228,0.985937715
8.098890,0.870529175,-0.822830200,-0.725418091,0.020250365,-0.003131470,0.986303926
8.099515,1.145187378,-0.876235962,-0.610977173,0.026964232,-0.002643188,0.987524629
8.100140,1.251998901,-0.731277466,-0.633865356,0.031602904,-0.003009399,0.988257051
8.100766,1.320663452,-0.807571411,-0.572830200,0.035142943,-0.003497681,0.989355683
8.101392,1.526657104,-0.929641724,-0.633865356,0.037706420,-0.006305298,0.991186738
8.103052,1.953903198,-0.548171997,-0.458389282,0.033067748,-0.001666626,0.997412324
8.103677,1.885238647,-0.624465942,-0.366836548,0.032823607,0.002972046,0.998999238
8.104303,2.297225952,-0.693130493,-0.336318970,0.028429076,0.006756226,1.003759980
8.104929,2.411666870,-0.433731079,-0.565200806,0.031114623,0.005779663,1.008520722
8.105554,2.457443237,-0.235366821,-0.450759888,0.031114623,0.008587280,1.012793183
8.106180,2.327743530,-0.418472290,-0.351577759,0.030260131,0.007122437,1.014868379
8.106805,2.274337769,-0.433731079,-0.527053833,0.028307006,0.007732788,1.022436738
8.107432,2.190414429,-0.242996216,-0.618606567,0.030138060,0.009930054,1.025000215
8.108057,1.877609253,-0.403213501,-0.542312622,0.030382201,0.012737671,1.026587129
8.108682,1.709762573,-0.288772583,-0.519424438,0.030748412,0.015301147,1.029638886
8.109307,1.496139526,-0.426101685,-0.633865356,0.031969115,0.015423218,1.032690644
8.109934,1.114669800,-0.510025024,-0.549942017,0.034410521,0.016765991,1.035009980
8.110560,0.557723999,-0.410842896,-0.603347778,0.036241576,0.017254272,1.033911347
8.111185,0.382247925,-0.281143188,-0.519424438,0.038072631,0.019207397,1.032934785
8.111811,0.321212769,-0.349807739,-0.626235962,0.035753295,0.016277710,1.026709199
8.112438,0.016036987,-0.265884399,-0.694900513,0.036363646,0.016277710,1.029272676
8.113063,-0.273880005,0.077438354,-0.580459595,0.037462279,0.012737671,1.027685761
8.113690,-0.327285767,0.069808960,-0.473648071,0.031724975,0.016033569,1.024756074
8.126552,0.321212769,0.245285034,-0.939041138,0.027208373,0.002972046,1.005713105
8.127201,0.405136108,0.085067749,-1.038223267,0.029405639,0.004558960,1.001196504
8.127827,0.153366089,0.016403198,-0.961929321,0.033067748,0.001995483,1.003515840
8.128452,0.321212769,0.085067749,-0.923782349,0.032823607,0.004314819,1.001684785
8.129078,0.283065796,-0.067520142,-1.007705688,0.035509154,0.008098999,1.000219941
8.129703,0.489059448,0.252914429,-0.977188110,0.035631225,0.007122437,0.996557832
8.130328,0.458541870,0.230026245,-0.954299927,0.035997435,0.008343140,0.999975801
8.130954,0.260177612,0.245285034,-1.145034790,0.035997435,0.010174194,1.002905488
8.131580,0.099960327,0.298690796,-0.893264771,0.035875365,0.008587280,0.997534394
8.132207,0.206771851,0.367355347,-0.954299927,0.032213256,0.010662476,0.997534394
8.132832,0.321212769,0.489425659,-0.969558716,0.032823607,0.011394897,1.000342011
8.133459,0.214401245,0.580978394,-0.939041138,0.030504271,0.010174194,1.001806855
8.134084,-0.121292114,0.710678101,-0.961929321,0.026964232,0.008465210,1.002783418
8.134709,-0.197586060,0.611495972,-0.847488403,0.028917357,0.008098999,1.001318574
8.135335,-0.472244263,0.542831421,-1.091629028,0.028184935,0.007122437,1.003027558
8.135960,-0.403579712,0.710678101,-0.778823853,0.028307006,0.005779663,1.001074433
8.136585,-0.365432739,0.588607788,-1.022964478,0.029039428,0.007122437,1.004858613
8.137210,-0.510391235,0.359725952,-0.832229614,0.027330443,0.007366577,1.001562715
8.137836,-0.540908813,0.321578979,-0.832229614,0.025621459,0.008465210,0.998633027
8.138461,-0.632461548,0.405502319,-1.068740845,0.024522826,0.005535522,0.997778535
8.139087,-0.624832153,0.458908081,-0.878005981,0.023057982,0.004925171,0.998877168
8.139713,-0.624832153,0.306320190,-0.939041138,0.028307006,0.005779663,0.998755097
8.140339,-0.647720337,0.306320190,-1.091629028,0.025499389,0.004070679,0.995947480
8.140965,-0.518020630,0.512313843,-1.114517212,0.026720092,0.005047241,0.996313691
8.141590,-0.479873657,0.107955933,-0.977188110,0.026842162,0.004803101,0.994726777
8.142216,-0.426467896,0.237655640,-1.099258423,0.030626342,0.002239624,0.997900605
8.142841,-0.273880005,0.222396851,-0.755935669,0.027574584,0.004925171,0.995703340
8.143467,-0.250991821,-0.105667114,-0.832229614,0.026598021,0.002605835,0.993017793
8.144094,0.008407593,0.260543823,-0.977188110,0.025621459,0.002117554,0.994726777
8.144720,0.153366089,0.123214722,-0.946670532,0.028673217,0.004558960,0.992529511
8.145347,0.222030640,0.107955933,-1.099258423,0.029649779,0.007000366,0.996435761
8.145973,0.428024292,0.024032593,-1.152664185,0.027940795,0.005047241,0.998388886
8.146599,0.420394897,0.230026245,-0.923782349,0.028795287,0.003216187,0.998022676
8.147225,0.473800659,0.100326538,-0.839859009,0.028429076,-0.000445923,1.001562715
8.147851,0.687423706,0.367355347,-0.992446899,0.030015990,0.001873413,1.008154511
8.148477,0.664535522,0.153732300,-0.931411743,0.030992553,0.002849976,1.008398652
8.149103,0.786605835,0.184249878,-0.885635376,0.029649779,0.002117554,1.014013886
8.149729,0.756088257,0.199508667,-0.961929321,0.029039428,0.004070679,1.014258027
8.150355,0.748458862,0.283432007,-0.992446899,0.032823607,0.005291382,1.015234590
8.150981,0.725570679,0.230026245,-0.984817505,0.031847045,0.007732788,1.018164277
8.151606,0.840011597,0.283432007,-1.068740845,0.030015990,0.011516968,1.020361543
8.152232,0.840011597,0.405502319,-0.771194458,0.031847045,0.011761108,1.021826386
8.152859,0.473800659,0.413131714,-0.878005981,0.032579467,0.013958374,1.018896699
8.153484,0.267807007,0.306320190,-1.114517212,0.032335326,0.015423218,1.019384980
8.154110,0.420394897,0.428390503,-1.045852661,0.034410521,0.017620483,1.020483613
8.154737,0.084701538,0.382614136,-1.083999634,0.036241576,0.019695679,1.023535371
8.155362,-0.144180298,0.359725952,-0.992446899,0.035631225,0.017254272,1.021460176
8.155988,-0.312026978,0.565719604,-1.022964478,0.035142943,0.020916382,1.022436738
8.156614,-0.472244263,0.710678101,-1.007705688,0.034166381,0.019695679,1.018408418
8.169219,-1.006301880,1.397323608,-1.610427856,0.033067748,0.008953491,1.006811738
8.169958,-1.013931274,1.649093628,-1.907974243,0.032335326,0.008587280,1.010962129
8.170583,-1.136001587,1.801681519,-1.747756958,0.032823607,0.007610718,1.009741426
8.171209,-1.059707642,1.725387573,-1.732498169,0.033433959,0.008221069,1.011938691
8.171836,-1.136001587,1.870346069,-1.801162720,0.030748412,0.010052124,1.011206269
8.172462,-1.090225220,1.786422729,-1.824050903,0.031480834,0.007854858,1.012915254
8.173089,-1.036819458,1.855087280,-1.824050903,0.034044310,0.007610718,1.014868379
8.173715,-0.899490356,2.061080933,-2.022415161,0.031969115,0.006878296,1.013403535
8.174342,-0.861343384,2.045822144,-1.854568481,0.027086303,0.009563843,1.012426972
8.174968,-0.739273071,1.893234253,-1.900344849,0.026964232,0.010296265,1.012304902
8.175595,-1.074966431,2.030563354,-1.717239380,0.025621459,0.008343140,1.011572480
8.176220,-1.097854614,1.763534546,-2.052932739,0.028062865,0.006878296,1.012060761
8.176846,-1.059707642,2.007675171,-1.717239380,0.035875365,-0.000201782,1.015844941
8.177472,-0.891860962,2.297592163,-1.953750610,0.036729857,-0.004962524,1.022436738
8.178099,-0.777420044,2.511215210,-1.885086060,0.036729857,0.000408569,1.019018769
8.178724,-0.785049438,2.434921265,-1.862197876,0.030015990,0.012737671,1.020849824
8.179350,-0.785049438,2.228927612,-1.862197876,0.031114623,0.013348022,1.023535371
8.179976,-0.975784302,2.267074585,-1.717239380,0.031602904,0.009930054,1.022680879
8.180602,-1.128372192,1.954269409,-1.930862427,0.028429076,0.008953491,1.017675996
8.181227,-1.036819458,2.236557007,-1.846939087,0.032945678,0.009930054,1.019507051
8.181852,-1.258071899,2.465438843,-1.877456665,0.032457396,0.011639038,1.020239472
8.182478,-1.326736450,2.610397339,-1.953750610,0.030992553,0.014446655,1.018408418
8.183105,-1.380142212,2.534103394,-2.014785767,0.032701537,0.016033569,1.018530488
8.183730,-1.441177368,2.434921265,-2.121597290,0.033556029,0.016033569,1.016821504
8.184357,-1.799758911,2.534103394,-2.159744263,0.031480834,0.011394897,1.014380097
8.184982,-1.799758911,2.717208862,-2.014785767,0.029771850,0.012981812,1.014624238
8.185608,-1.967605591,2.564620972,-2.052932739,0.033433959,0.010662476,1.011450410
8.186233,-1.914199829,2.511215210,-2.007156372,0.031114623,0.010784546,1.011938691
8.186858,-1.975234985,2.526473999,-2.220779419,0.032335326,0.008953491,1.007788301
8.187483,-1.921829224,2.778244019,-1.961380005,0.034044310,0.007244507,1.005835176
8.188108,-1.792129517,2.618026733,-2.083450317,0.037950560,0.007732788,1.006689668
8.188735,-1.692947388,2.846908569,-2.060562134,0.040391967,0.003582397,1.008032441
8.189536,-1.891311646,2.740097046,-2.205520630,0.041368529,0.002117554,1.006323457
8.190228,-1.685317993,2.968978882,-2.136856079,0.039415404,0.007488647,1.008764863
8.190853,-1.776870728,3.098678589,-2.175003052,0.040636107,0.005291382,1.005713105
8.191480,-1.578506470,3.129196167,-2.083450317,0.041612670,0.003704468,1.005713105
8.192106,-1.517471313,2.900314331,-2.113967896,0.040514037,0.005291382,1.008764863
8.192733,-1.715835571,2.991867065,-2.312332153,0.042345092,0.004925171,1.006689668
8.193360,-1.654800415,2.999496460,-2.197891235,0.041124389,0.004436890,1.006933808
8.193987,-1.654800415,2.961349487,-2.205520630,0.045763060,0.002849976,1.003271699
8.194614,-1.593765259,2.740097046,-2.297073364,0.047716185,0.002849976,1.006689668
8.195239,-1.708206177,2.755355835,-2.503067017,0.052476928,0.005291382,1.004004121
8.195866,-1.944717407,2.839279175,-2.419143677,0.055040404,0.001263062,1.003393769
8.196493,-1.738723755,2.564620972,-2.449661255,0.057725951,-0.003985962,1.000342011
8.197120,-2.036270142,2.625656128,-2.281814575,0.059434935,-0.004230103,0.997778535
8.197747,-1.944717407,2.785873413,-2.510696411,0.057359740,-0.008502563,0.996313691
8.198374,-1.883682251,2.862167358,-2.411514282,0.060655639,-0.009112915,0.998022676
8.199001,-1.738723755,2.991867065,-2.289443970,0.056871459,-0.011310181,0.996801972
8.199627,-1.441177368,3.060531616,-2.190261841,0.053453490,-0.008746704,0.993139863
8.213373,-0.891860962,2.526473999,-1.450210571,0.059801146,-0.042926393,0.979834199
8.214026,-0.899490356,2.518844604,-1.000076294,0.045640990,-0.038531862,0.977759004
8.214652,-1.044448853,2.740097046,-1.068740845,0.030870482,-0.029132446,0.975317597
8.215277,-1.067337036,2.541732788,-1.389175415,0.024644896,-0.020221313,0.976172090
8.215902,-1.021560669,2.740097046,-1.343399048,0.024644896,-0.016315063,0.976782441
8.216528,-0.945266724,2.183151245,-1.236587524,0.031480834,-0.018512329,0.977026582
8.217153,-0.815567017,2.015304565,-1.732498169,0.050890014,-0.030231079,0.978857636
8.217778,-0.739273071,1.855087280,-1.961380005,0.069444701,-0.058673464,0.980322480
8.218403,-0.456985474,1.847457886,-1.709609985,0.080675170,-0.077960573,0.987524629
8.219028,-0.083145142,1.771163940,-1.366287231,0.083848998,-0.076984011,0.986914277
8.219653,0.046554565,1.710128784,-1.137405396,0.080186889,-0.071490847,0.983496308
8.220278,-0.106033325,1.473617554,-0.862747192,0.074693725,-0.068317018,0.984472871
8.220904,0.214401245,1.504135132,-0.466018677,0.060167357,-0.063556276,0.982275605
8.221529,0.214401245,1.885604858,-0.404983521,0.048814818,-0.066852175,0.978003144
8.222154,0.504318237,2.122116089,-0.511795044,0.034654662,-0.059039675,0.975317597
8.222779,0.420394897,1.710128784,-0.275283813,0.015001342,-0.031329714,0.969946504
8.223405,-0.098403931,1.191329956,-0.557571411,0.006212279,-0.023883423,0.966284394
8.224037,-0.182327271,0.764083862,-0.443130493,0.012559935,-0.026568970,0.966284394
8.224663,0.023666382,0.764083862,-0.221878052,0.008165404,-0.021197876,0.965674043
8.225289,0.283065796,0.512313843,-0.374465942,0.010362670,-0.008014282,0.958105683
8.225914,-0.388320923,-0.128555298,-0.786453247,0.012315795,-0.015216431,0.957007051
8.226541,-0.174697876,-0.044631958,-0.839859009,0.029283568,-0.049884401,0.963354707
8.227167,0.214401245,0.466537476,-0.527053833,0.042223021,-0.085284792,0.976416230
8.227794,0.946823120,1.427841187,-0.313430786,0.043932006,-0.095294558,0.981176972
8.228420,1.534286499,1.420211792,-0.343948364,0.039537475,-0.070392214,0.982641816
8.229047,1.999679565,0.878524780,-0.343948364,0.034288451,-0.052814089,0.984717011
8.229674,2.434555054,0.176620483,-0.130325317,0.011461303,-0.017047485,0.979101777
8.230301,2.724472046,-1.112747192,0.663131714,-0.006360963,0.012005249,0.969214082
8.230926,2.655807495,-1.845169067,0.983566284,-0.021741822,0.016399780,0.963720918
8.231553,2.892318726,-1.890945435,0.838607788,-0.015638307,0.000774780,0.969580293
8.232180,3.281417847,-1.730728149,-0.290542603,-0.019788697,0.011028687,0.965185761
8.232805,3.243270874,-1.890945435,-0.923782349,-0.015272096,0.017742554,0.961645722
8.233432,2.693954468,-1.745986938,-0.534683228,-0.007947877,0.010174194,0.968725801
8.234057,2.747360229,-0.868606567,0.342697144,0.004137084,0.005657593,0.980932832
8.234682,2.602401733,-0.296401978,0.785202026,0.005846068,0.024090210,0.981665254
8.235308,3.174606323,-0.326919556,0.396102905,-0.014783815,0.044598021,0.985571504
8.235933,3.739181519,-0.288772583,0.617355347,-0.049695924,0.057415403,0.988257051
8.236559,4.517379761,0.054550171,1.296371460,-0.076673463,0.055950560,0.994238496
8.237185,4.952255249,0.237655640,1.220077515,-0.101697877,0.071331419,0.996924043
8.237811,4.425827026,-0.128555298,0.541061401,-0.123182252,0.088299192,0.992651582
8.238437,3.952804565,-0.975418091,0.098556519,-0.129774049,0.074993528,0.998388886
8.239063,3.777328491,-0.601577759,0.083297729,-0.116712525,0.056805052,1.006567597
8.239688,3.228012085,-0.754165649,0.274032593,-0.103284791,0.055340208,1.016699433
8.240314,2.579513550,-1.280593872,-0.267654419,-0.077650025,0.051678099,1.019262910
8.240939,1.602951050,-2.394485474,-1.068740845,-0.044691041,0.047771849,1.024267793
8.241566,1.183334351,-2.508926392,-0.916152954,-0.019788697,0.047283567,1.024756074
8.242191,0.649276733,-2.440261841,-0.328689575,-0.008802369,0.051922239,1.015356660
8.242817,-0.373062134,-2.341079712,0.014633179,-0.009168580,0.049358763,1.003393769
8.243442,-0.853713989,-1.807022095,0.235885620,-0.013929322,0.049969114,0.992163301
8.244068,-1.807388306,-1.143264771,0.472396851,-0.029554322,0.055950560,0.983130097
8.256667,3.022018433,-2.127456665,-0.031143188,0.010484740,0.008587280,1.009375215
8.257421,3.144088745,-2.180862427,-0.084548950,0.020128295,-0.003497681,1.018042207
8.258048,2.930465698,-1.814651489,-0.404983521,0.027940795,-0.016070923,1.023047090
8.258673,3.029647827,-1.929092407,-0.313430786,0.031847045,-0.015216431,1.025854707
8.259299,3.235641479,-2.135086060,-0.404983521,0.038682982,-0.017657837,1.026587129
8.259925,2.960983276,-2.463150024,-0.069290161,0.035997435,-0.014850220,1.027929902
8.260551,2.678695679,-2.661514282,0.274032593,0.036607787,-0.011676392,1.025122285
8.261176,2.274337769,-2.707290649,0.373214722,0.032945678,-0.008380493,1.019018769
8.261801,1.755538940,-2.486038208,0.365585327,0.022569701,-0.004230103,1.014624238
8.262428,1.549545288,-2.081680298,0.151962280,0.020860717,0.001385132,1.011450410
8.263054,1.358810425,-2.272415161,0.151962280,0.017076537,0.009930054,1.008032441
8.263679,1.328292847,-2.333450317,0.220626831,0.017808959,0.017254272,1.002905488
8.264304,1.206222534,-2.348709106,0.174850464,0.015367553,0.020306030,0.996069551
8.264931,1.297775269,-2.402114868,0.098556519,0.013902709,0.022015015,0.989843965
8.265556,1.381698608,-2.478408813,-0.031143188,0.015367553,0.016888062,0.985205293
8.266181,1.152816772,-2.920913696,-0.000625610,0.019517943,0.014324585,0.980932832
8.266807,1.175704956,-2.806472778,0.228256226,0.020860717,0.012249390,0.975073457
8.267434,1.160446167,-2.569961548,0.190109253,0.020982787,0.012859741,0.973120332
8.268060,1.297775269,-2.959060669,-0.145584106,0.026720092,0.009685913,0.975805879
8.268687,1.389328003,-2.997207642,-0.107437134,0.025133178,0.004314819,0.972998261
8.269312,1.526657104,-2.753067017,0.007003784,0.030626342,0.004192749,0.974096894
8.269938,1.816574097,-2.600479126,0.052780151,0.030138060,0.011394897,0.975683808
8.270563,1.984420776,-2.898025513,0.136703491,0.035020873,0.017376343,0.981665254
8.271189,2.579513550,-2.928543091,0.174850464,0.038438842,0.025799194,0.983130097
8.271816,2.754989624,-2.844619751,0.281661987,0.044908568,0.027508179,0.991064668
8.272442,3.243270874,-2.692031860,0.281661987,0.045763060,0.023113647,0.999975801
8.273069,3.662887573,-2.226638794,-0.153213501,0.050767943,0.016888062,1.008154511
8.273695,3.563705444,-1.662063599,-0.137954712,0.051744506,0.012859741,1.017675996
8.274320,3.319564819,-1.196670532,-0.130325317,0.051988646,0.006390015,1.032812715
8.274945,3.121200562,-0.967788696,-0.092178345,0.051866576,0.005291382,1.046362519
8.275572,2.793136597,-0.502395630,0.007003784,0.052354857,0.002849976,1.059912324
8.276198,2.457443237,-0.319290161,0.182479858,0.049303100,0.004070679,1.068213105
8.276825,2.259078979,-0.311660767,0.304550171,0.045640990,0.007366577,1.077734590
8.277452,2.045455933,-0.258255005,0.197738647,0.041246459,0.014568726,1.087134004
8.278079,1.648727417,-0.159072876,0.174850464,0.034898803,0.017620483,1.090429902
8.278706,1.274887085,-0.593948364,-0.076919556,0.034044310,0.023968140,1.095556855
8.279333,0.893417358,0.001144409,-0.008255005,0.026964232,0.027264038,1.096655488
8.279958,0.267807007,0.085067749,-0.275283813,0.028307006,0.028728882,1.092260957
8.280584,-0.479873657,0.100326538,-0.260025024,0.024400756,0.028973022,1.089087129
8.281211,-0.945266724,0.039291382,-0.336318970,0.032091185,0.026653687,1.086035371
8.281837,-1.486953735,0.153732300,-0.382095337,0.035265014,0.022991577,1.080053926
8.282463,-1.883682251,0.077438354,-0.420242310,0.038682982,0.020672241,1.075171113
8.283088,-2.219375610,0.107955933,-0.565200806,0.039903685,0.019207397,1.066870332
8.290249,-1.006301880,0.748825073,-1.274734497,0.031969115,0.006878296,0.967383027
8.290876,-0.823196411,0.794601440,-1.274734497,0.030382201,0.003948608,0.969580293
8.291501,-0.380691528,0.725936890,-1.221328735,0.031602904,0.002239624,0.974829316
8.292128,0.023666382,0.588607788,-1.152664185,0.033922240,0.005779663,0.976416230
8.292753,0.298324585,0.672531128,-1.358657837,0.026842162,0.006878296,0.981665254
8.293379,0.748458862,0.664901733,-1.282363892,0.030015990,0.007488647,0.984961152
8.305934,-2.822097778,2.762985229,-1.534133911,0.039659545,0.015911499,1.053076386
8.306656,-2.867874146,3.121566772,-1.534133911,0.037950560,0.019085327,1.053442597
8.307283,-2.921279907,3.205490112,-1.549392700,0.037462279,0.022625366,1.049048066
8.307908,-2.989944458,3.152084351,-1.724868774,0.036973998,0.026653687,1.041235566
8.308533,-3.417190552,3.075790405,-1.648574829,0.038682982,0.031780638,1.037695527
8.309159,-3.493484497,3.091049194,-1.686721802,0.034410521,0.031292357,1.033789277
8.309784,-3.806289673,3.182601929,-1.869827271,0.036729857,0.032635130,1.030859590
8.310409,-3.661331177,3.297042847,-1.808792114,0.034532592,0.034466185,1.024878144
8.311037,-3.676589966,3.510665894,-2.045303345,0.035753295,0.039837278,1.017675996
8.311662,-3.768142700,3.518295288,-2.083450317,0.036973998,0.040935911,1.014013886
8.313377,-3.722366333,4.037094116,-2.556472778,0.033556029,0.039471067,1.004370332
8.314004,-3.661331177,4.121017456,-2.510696411,0.034288451,0.035076536,1.000464082
8.314630,-3.737625122,4.166793823,-2.754837036,0.031480834,0.035076536,0.997168183
8.315257,-3.668960571,4.014205933,-2.838760376,0.029405639,0.032024778,0.994970918
8.315882,-3.607925415,4.380416870,-2.762466431,0.027208373,0.031170288,0.992041230
8.316509,-3.691848755,4.418563843,-3.044754028,0.024522826,0.028484741,0.993139863
8.317136,-3.379043579,3.976058960,-3.166824341,0.027818725,0.025310913,0.991064668
8.317762,-3.180679321,4.349899292,-3.044754028,0.023912475,0.022259155,0.988501191
8.318387,-3.081497192,4.082870483,-3.296524048,0.022081420,0.018719116,0.989721894
8.319013,-3.050979614,4.456710815,-3.327041626,0.021471068,0.013470093,0.989355683
8.319640,-2.875503540,4.349899292,-3.418594360,0.022935912,0.012127319,0.988379121
8.320265,-2.829727173,4.227828979,-3.441482544,0.021715209,0.007976929,0.993628144
8.320891,-2.585586548,4.273605347,-3.517776489,0.024400756,0.004681030,0.991064668
8.321517,-2.616104126,4.449081421,-3.479629517,0.027452514,0.001018921,0.992773652
8.322144,-2.471145630,4.349899292,-3.502517700,0.024766967,-0.005206665,0.998144746
8.322770,-2.356704712,4.204940796,-3.479629517,0.021593139,-0.006793579,0.998633027
8.323395,-2.120193481,4.250717163,-3.456741333,0.021104857,-0.009967407,1.002417207
8.324020,-1.967605591,4.021835327,-3.433853149,0.020494506,-0.007770142,1.004980683
8.324645,-1.837905884,3.777694702,-3.334671021,0.015489623,-0.012042603,1.003759980
8.325270,-1.578506470,3.525924683,-3.380447388,0.012071654,-0.008258423,1.006689668
8.325896,-1.540359497,3.480148315,-3.464370728,0.009874389,-0.002765259,1.006689668
8.326522,-1.387771606,3.243637085,-3.227859497,0.009630248,-0.003131470,1.002173066
8.327148,-1.464065552,3.083419800,-3.525405884,0.014635131,-0.001788696,1.001562715
8.327773,-1.425918579,3.518295288,-3.395706177,0.018541381,-0.004474243,1.003149629
8.328400,-1.532730103,3.266525269,-3.464370728,0.026598021,-0.003619751,1.001928926
8.329027,-1.319107056,3.266525269,-3.426223755,0.029649779,-0.001422485,1.003882051
8.329652,-1.372512817,3.152084351,-3.563552856,0.030748412,-0.000201782,1.002539277
8.330277,-1.204666138,3.327560425,-3.372817993,0.031236693,0.000164429,1.002173066
8.330904,-1.067337036,3.220748901,-3.204971313,0.030504271,0.002117554,0.999243379
8.331529,-1.143630981,3.213119507,-3.433853149,0.032335326,-0.001788696,0.997168183
8.332156,-1.227554321,3.373336792,-3.060012817,0.032091185,-0.004352173,1.002417207
8.332782,-1.013931274,3.434371948,-3.258377075,0.034166381,-0.003009399,1.005346894
8.333408,-0.830825806,3.632736206,-3.357559204,0.033556029,-0.003741821,1.003515840
8.334037,-0.815567017,3.762435913,-3.388076782,0.030138060,-0.003619751,1.001806855
8.334663,-0.647720337,3.792953491,-3.410964966,0.031480834,-0.000201782,1.006933808
8.335288,-0.846084595,3.716659546,-3.472000122,0.026964232,0.003338257,1.007544160
8.335913,-0.594314575,3.571701050,-3.121047974,0.025499389,0.003460327,1.008398652
8.336539,-0.609573364,3.472518921,-3.273635864,0.023302123,0.003582397,1.010962129
8.337164,-0.724014282,3.548812866,-3.296524048,0.028551146,0.005535522,1.009863496
8.349802,0.458541870,2.434921265,-4.601150513,0.022691771,0.017132202,0.974218965
8.350522,0.534835815,2.289962769,-4.563003540,0.020738646,0.019451538,0.978613496
8.351149,0.763717651,2.091598511,-4.761367798,0.018541381,0.010174194,0.983008027
8.351775,1.038375854,2.083969116,-4.662185669,0.027452514,0.008587280,0.990820527
8.352400,1.000228882,2.419662476,-4.860549927,0.029893920,0.012615601,0.994604707
8.353025,1.129928589,2.564620972,-5.066543579,0.036607787,0.002849976,0.996801972
8.353652,1.030746460,2.778244019,-4.929214478,0.033433959,-0.000812134,0.999243379
8.354278,0.748458862,3.159713745,-4.776626587,0.028429076,0.003094116,1.001562715
8.354904,0.527206421,3.075790405,-4.532485962,0.021593139,0.005047241,0.999243379
8.355529,0.374618530,2.907943726,-4.501968384,0.011583373,0.007976929,1.001196504
8.356154,-0.167068481,2.724838257,-4.509597778,-0.000257447,0.003338257,1.005224824
8.356779,-0.182327271,2.556991577,-4.517227173,-0.005018190,-0.005694946,1.004614472
8.357404,0.038925171,2.015304565,-4.646926880,-0.001111940,-0.006549438,1.004370332
8.358039,-0.052627563,2.015304565,-4.868179321,-0.000501588,-0.006793579,1.004492402
8.358665,-0.052627563,1.816940308,-5.081802368,0.004625365,-0.006183228,1.000952363
8.359291,0.016036987,1.397323608,-5.242019653,0.016588256,0.003582397,0.997778535
8.359918,0.023666382,1.130294800,-5.196243286,0.019762084,0.005901733,0.989843965
8.360543,-0.106033325,0.901412964,-5.341201782,0.019395873,0.011028687,0.983252168
8.361168,-0.426467896,0.374984741,-5.005508423,0.013780639,0.012493530,0.970923066
8.361793,-0.533279419,0.237655640,-4.936843872,0.006090209,0.009807983,0.959692597
8.362420,-0.640090942,0.245285034,-5.013137817,0.005113646,0.008831421,0.954199433
8.363046,-0.769790649,0.252914429,-4.936843872,0.004381225,0.005779663,0.949438691
8.363672,-0.434097290,0.016403198,-5.173355103,0.007921264,0.005779663,0.948706269
8.364298,0.328842163,-0.105667114,-5.295425415,0.014635131,0.004925171,0.946386933
8.364925,1.290145874,-0.105667114,-5.287796021,0.017564818,0.006145874,0.947119355
8.365551,2.434555054,-0.319290161,-5.554824829,0.021593139,0.010296265,0.946509004
8.366178,2.968612671,-0.845718384,-5.760818481,0.020738646,0.012737671,0.945044160
8.366805,3.418746948,-1.227188110,-5.432754517,0.018663451,0.015179077,0.949682832
8.367430,3.334823608,-1.364517212,-5.364089966,0.017808959,0.016765991,0.949560761
8.368057,3.205123901,-1.234817505,-5.386978149,0.019151732,0.017498413,0.954931855
8.368684,3.159347534,-0.754165649,-5.409866333,0.021837279,0.013348022,0.960547090
8.369310,2.892318726,-0.609207153,-5.448013306,0.026964232,0.007610718,0.968969941
8.369936,2.808395386,-0.357437134,-5.524307251,0.031969115,0.002117554,0.976416230
8.370562,2.617660522,0.024032593,-5.753189087,0.036241576,0.000896851,0.985693574
8.371188,2.816024780,0.161361694,-5.631118774,0.036363646,-0.000567993,0.997168183
8.371813,2.808395386,0.138473511,-5.402236938,0.030015990,0.001873413,1.003759980
8.372439,2.739730835,0.077438354,-5.448013306,0.022325560,0.004558960,1.006445527
8.373064,2.610031128,-0.258255005,-5.211502075,0.015367553,0.004192749,1.013159394
8.373690,2.579513550,-0.777053833,-5.333572388,0.004625365,0.004558960,1.017798066
8.374317,1.908126831,-0.593948364,-5.516677856,0.002794310,0.001140991,1.017431855
8.374944,1.404586792,-0.548171997,-5.371719360,0.007188842,-0.004474243,1.022192597
8.375570,0.962081909,-0.654983521,-5.448013306,0.013902709,-0.009845337,1.022070527
8.376195,1.084152222,-0.426101685,-5.570083618,0.018785521,-0.012408813,1.025976777
8.376821,1.168075562,-0.410842896,-5.318313599,0.025499389,-0.014606079,1.028174043
8.377447,1.396957397,-0.662612915,-5.295425415,0.028184935,-0.016559204,1.028906465
8.378073,1.206222534,-0.792312622,-5.325942993,0.030504271,-0.014484009,1.027563691
8.378699,1.435104370,-0.883865356,-5.371719360,0.025743529,-0.011798462,1.023291230
8.379325,1.038375854,-0.975418091,-4.913955688,0.024400756,-0.010333618,1.017920136
8.379950,0.832382202,-0.822830200,-5.158096313,0.024644896,-0.009357056,1.017187715
8.380577,0.496688843,-0.532913208,-4.898696899,0.023790404,-0.004474243,1.012915254
8.393140,4.563156128,-0.670242310,-5.165725708,0.012926146,-0.050983034,1.009741426
8.393849,5.272689819,-0.510025024,-5.127578735,0.014513060,-0.048053347,1.008276582
8.394475,6.081405640,-0.769424438,-5.135208130,0.015489623,-0.043658815,1.001196504
8.395101,6.729904175,-0.975418091,-5.287796021,0.011705443,-0.038165651,0.998510957
8.395728,7.149520874,-1.204299927,-5.272537231,0.013658568,-0.035113893,0.995581269
8.396353,7.592025757,-1.181411743,-5.158096313,0.009264037,-0.023761353,0.997290254
8.396978,8.156600952,-1.875686646,-5.180984497,0.013292357,-0.022052368,0.994360566
8.397605,8.240524292,-1.753616333,-5.043655396,0.017564818,-0.021197876,0.991308808
8.398231,8.835617065,-1.768875122,-5.325942993,0.022081420,-0.020953735,0.992773652
8.398856,9.377304077,-1.761245728,-5.272537231,0.024278685,-0.014850220,0.995825410
8.399481,9.705368042,-1.601028442,-5.356460571,0.027452514,-0.011798462,0.996801972
8.400108,9.934249878,-1.433181763,-5.180984497,0.027940795,-0.003985962,0.993994355
8.400734,10.193649292,-1.654434204,-5.104690552,0.032213256,0.001018921,0.999121308
8.401361,10.590377808,-1.684951782,-5.325942993,0.026109740,0.007000366,0.997412324
8.401987,10.697189331,-1.776504517,-5.448013306,0.025133178,0.018352905,0.998022676
8.402613,10.826889038,-1.654434204,-5.364089966,0.025011107,0.023235718,0.998144746
8.403238,10.796371460,-1.555252075,-5.211502075,0.024278685,0.025432983,1.001440644
8.403863,10.269943237,-1.768875122,-5.318313599,0.022081420,0.028118530,1.005224824
8.404489,10.254684448,-1.539993286,-5.417495728,0.025621459,0.031170288,1.006811738
8.405116,10.025802612,-1.265335083,-5.516677856,0.030138060,0.032390989,1.007910371
8.405743,9.766403198,-1.433181763,-5.631118774,0.031236693,0.030559937,1.012793183
8.406369,9.911361694,-1.845169067,-5.913406372,0.030504271,0.032390989,1.012182832
8.406996,9.850326538,-1.570510864,-5.905776978,0.028062865,0.035076536,1.013403535
8.407623,9.644332886,-1.669692993,-5.776077271,0.026720092,0.038128294,1.013037324
8.408249,9.400192261,-1.715469360,-5.989700317,0.022203490,0.039593138,1.009863496
8.408874,8.972946167,-1.822280884,-6.050735474,0.028551146,0.042034544,1.009375215
8.409500,8.911911011,-1.745986938,-6.142288208,0.025987670,0.042522825,1.007788301
8.410127,8.713546753,-1.738357544,-6.203323364,0.030015990,0.040813841,1.008520722
8.410752,8.843246460,-1.494216919,-6.394058228,0.035020873,0.040081419,1.006567597
8.411377,8.637252808,-1.471328735,-6.668716431,0.034776732,0.036785521,1.003882051
8.412003,8.797470093,-1.150894165,-6.500869751,0.036241576,0.036907591,1.006201386
8.413713,8.675399780,-0.853347778,-6.943374634,0.030992553,0.028240601,1.003882051
8.414338,9.133163452,-1.028823853,-6.989151001,0.032091185,0.025555054,1.004614472
8.414963,9.377304077,-0.975418091,-7.195144653,0.026964232,0.029705444,1.006323457
8.415590,9.667221069,-1.341629028,-7.240921021,0.022203490,0.035686888,1.003515840
8.416215,10.033432007,-1.356887817,-7.515579224,0.022203490,0.034466185,1.003149629
8.416841,10.247055054,-1.448440552,-7.630020142,0.020982787,0.031292357,0.998755097
8.417466,10.735336304,-1.715469360,-7.881790161,0.016832396,0.028240601,0.995825410
8.418092,11.025253296,-1.692581177,-7.836013794,0.022569701,0.027630249,0.997656465
8.418719,11.139694214,-1.944351196,-7.965713501,0.026964232,0.025799194,0.995581269
8.419346,11.635604858,-1.906204224,-8.240371704,0.023057982,0.028850952,0.994604707
8.419971,12.192550659,-1.868057251,-8.576065063,0.024889037,0.034954466,0.996313691
8.420598,12.505355835,-2.562332153,-8.576065063,0.032823607,0.040813841,0.992407441
8.421225,12.902084351,-2.516555786,-8.934646606,0.029405639,0.045086302,0.990698457
8.421850,13.253036499,-2.661514282,-8.843093872,0.026964232,0.042644896,0.990332246
8.422475,13.352218628,-2.432632446,-8.919387817,0.030260131,0.037395872,0.992651582
8.423100,13.451400757,-2.333450317,-9.247451782,0.031480834,0.035076536,0.992407441
8.423726,13.535324097,-2.058792114,-9.667068481,0.027940795,0.037884153,0.989599824
8.436391,15.908065796,-4.118728638,-12.039810181,0.026720092,0.048626341,0.981176972
8.437145,15.717330933,-3.920364380,-12.055068970,0.027330443,0.042522825,0.979345918
8.437771,15.457931519,-3.882217407,-12.283950806,0.030015990,0.045940794,0.980444551
8.438398,15.427413940,-4.004287720,-12.154251099,0.026842162,0.046551146,0.985083222
8.439025,15.511337280,-4.027175903,-12.497573853,0.030504271,0.047649778,0.984472871
8.439651,15.557113647,-4.111099243,-12.344985962,0.028429076,0.044109739,0.987402558
8.440276,15.328231812,-4.233169556,-12.283950806,0.020616576,0.046184935,0.986792207
8.440901,14.809432983,-4.217910767,-12.489944458,0.023668334,0.044109739,0.987646699
8.441528,14.916244507,-4.408645630,-12.421279907,0.019029662,0.043255247,0.989477754
8.442155,14.656845093,-4.195022583,-12.657791138,0.018907592,0.045574583,0.990698457
8.442782,14.519515991,-4.278945923,-12.612014771,0.018053100,0.049114622,0.991797090
8.443408,14.031234741,-4.416275024,-12.612014771,0.020616576,0.051433958,0.993994355
8.444039,14.031234741,-4.668045044,-12.512832642,0.021471068,0.054485716,0.992407441
8.444665,13.901535034,-4.599380493,-12.680679321,0.019517943,0.058514036,0.992895722
8.445291,13.527694702,-4.813003540,-12.535720825,0.021104857,0.060467161,0.993139863
8.445916,13.237777710,-4.835891724,-12.688308716,0.025499389,0.066082396,0.992163301
8.446541,12.993637085,-4.629898071,-12.673049927,0.024278685,0.064007200,0.992407441
8.447167,12.398544312,-4.591751099,-12.573867798,0.027574584,0.072430052,0.993017793
8.447793,11.917892456,-4.698562622,-12.604385376,0.023790404,0.069744505,0.992407441
8.448418,11.421981812,-4.614639282,-12.543350220,0.028184935,0.069012083,0.997656465
8.449043,10.895553589,-4.210281372,-12.657791138,0.026475951,0.070354857,0.999121308
8.449670,10.346237183,-4.179763794,-12.596755981,0.030015990,0.066448607,0.996924043
8.450297,10.094467163,-4.042434692,-12.772232056,0.031847045,0.062664427,1.000830293
8.450923,9.400192261,-3.676223755,-12.482315063,0.029893920,0.063152708,1.003637910
8.451548,8.950057983,-3.516006470,-12.787490845,0.027940795,0.066204466,1.003637910
8.452175,8.339706421,-3.638076782,-12.383132935,0.017442748,0.073528685,1.003515840
8.452801,7.630172729,-3.676223755,-12.444168091,0.017076537,0.076458372,1.008032441
8.453426,7.317367554,-3.516006470,-12.215286255,0.011949584,0.068035521,1.007177949
8.454051,6.607833862,-3.310012817,-12.413650513,0.007799193,0.056316771,1.013281465
8.454678,6.165328979,-2.890396118,-12.467056274,0.002916381,0.054607786,1.015478730
8.455303,5.684677124,-2.859878540,-12.459426880,0.002550170,0.054729857,1.017798066
8.455928,5.631271362,-2.989578247,-12.482315063,0.002916381,0.048138060,1.020239472
8.456555,5.638900757,-2.707290649,-12.383132935,-0.001356080,0.042522825,1.023779511
8.457182,5.638900757,-2.943801880,-12.245803833,-0.001722291,0.035686888,1.023657441
8.457808,5.799118042,-3.409194946,-12.207656860,-0.008802369,0.033489622,1.027319551
8.458433,5.814376831,-3.279495239,-12.283950806,-0.014661744,0.036907591,1.020605683
8.459108,5.379501343,-3.134536743,-12.039810181,-0.022962525,0.043255247,1.021216035
8.459930,5.616012573,-3.149795532,-12.055068970,-0.021741822,0.046673216,1.024267793
8.460740,5.432907104,-2.989578247,-12.200027466,-0.027357057,0.051311888,1.021582246
8.461596,5.547348022,-2.646255493,-11.917739868,-0.031751588,0.043865599,1.022070527
8.462426,5.371871948,-2.135086060,-11.940628052,-0.034437135,0.041302122,1.025732636
8.463153,5.394760132,-1.906204224,-12.077957153,-0.037733033,0.043621458,1.030005097
8.463780,5.463424683,-1.555252075,-12.184768677,-0.038587525,0.045452513,1.030371308
8.464407,5.677047729,-1.227188110,-11.948257446,-0.037855104,0.044964232,1.030127168
8.465039,5.295578003,-1.608657837,-11.894851685,-0.040540650,0.050213255,1.030249238
8.465664,5.036178589,-2.157974243,-12.177139282,-0.035657838,0.052410521,1.027929902
8.466290,4.181686401,-2.669143677,-12.253433228,-0.022108033,0.047893919,1.022436738
8.466917,3.594223022,-3.035354614,-12.138992310,-0.008558229,0.035564817,1.019140840
8.467543,2.846542358,-3.042984009,-11.971145630,0.010118529,0.025677124,1.019873261
8.480204,7.180038452,-1.906204224,-10.986953735,-0.014051393,-0.004596313,0.998510957
8.480916,7.584396362,-2.425003052,-10.864883423,-0.002332643,-0.002154907,1.000464082
8.481542,7.920089722,-2.898025513,-10.925918579,0.006212279,-0.004840454,0.997900605
8.482167,8.316818237,-2.798843384,-10.697036743,0.002550170,-0.001056274,0.994726777
8.482794,8.354965210,-2.745437622,-10.422378540,0.013536498,-0.006793579,0.998510957
8.483420,8.377853394,-2.058792114,-10.643630981,0.022569701,-0.000934204,1.003759980
8.484047,8.431259155,-1.646804810,-10.597854614,0.028184935,0.009075562,1.004858613
8.484673,8.484664917,-1.379776001,-10.697036743,0.028795287,0.025799194,1.007055879
8.485298,8.202377319,-1.799392700,-10.658889771,0.032091185,0.040081419,1.007300019
8.486060,7.942977905,-2.043533325,-10.399490356,0.022691771,0.050457396,1.007666230
8.486686,7.515731812,-2.417373657,-10.399490356,0.021104857,0.043743528,1.009375215
8.487311,6.493392944,-2.463150024,-10.376602173,0.027086303,0.034466185,1.011450410
8.487938,5.707565308,-2.051162720,-10.292678833,0.044786498,0.028118530,1.011694551
8.488565,5.448165894,-1.585769653,-10.689407349,0.058092162,0.032879271,1.018042207
8.489191,5.188766479,-1.608657837,-10.903030396,0.069932982,0.053631224,1.016699433
8.489817,4.601303101,-1.959609985,-10.788589478,0.074327514,0.065594114,1.012671113
8.490443,4.372421265,-2.547073364,-10.536819458,0.076036498,0.064983763,1.009375215
8.491267,3.571334839,-2.470779419,-10.307937622,0.077989623,0.054607786,1.004370332
8.492062,2.915206909,-1.745986938,-10.010391235,0.044054076,0.061077513,0.997046113
8.492831,2.884689331,-0.914382935,-9.888320923,0.027330443,0.063885130,0.999853730
8.493605,3.136459351,-0.296401978,-9.850173950,0.009996459,0.078411497,0.998633027
8.494355,3.182235718,0.336837769,-10.063796997,-0.023817018,0.096111692,0.995215058
8.495085,3.319564819,0.138473511,-10.040908813,-0.054456666,0.101604857,0.992163301
8.495711,3.609481812,0.382614136,-10.002761841,-0.074109986,0.090862669,1.001928926
8.496337,4.402938843,0.725936890,-9.888320923,-0.090833619,0.083660521,1.008642793
8.496962,5.142990112,1.221847534,-10.315567017,-0.105848268,0.105389036,1.017065644
8.497587,5.837265015,0.695419312,-11.284500122,-0.125867799,0.133465216,1.018774629
8.498212,6.188217163,-0.204849243,-11.597305298,-0.129163697,0.139690802,1.031836152
8.498837,6.378952026,-1.005935669,-11.322647095,-0.123670533,0.130413458,1.036596894
8.499463,6.401840210,-0.860977173,-11.192947388,-0.112195924,0.123943724,1.043921113
8.500089,6.195846558,-1.028823853,-11.841445923,-0.110120729,0.135540411,1.044775605
8.500716,5.585494995,-1.463699341,-12.390762329,-0.113050416,0.153240606,1.045385957
8.501342,4.860702515,-1.745986938,-12.665420532,-0.087659791,0.157390997,1.041601777
8.501967,4.647079468,-1.738357544,-12.955337524,-0.083387330,0.166424200,1.037695527
8.502593,3.830734253,-1.883316040,-13.138442993,-0.087293580,0.177288458,1.026220918
8.503220,2.724472046,-2.409744263,-13.413101196,-0.095106080,0.179119512,1.013647676
8.503847,1.854721069,-2.447891235,-13.588577271,-0.088148072,0.168011114,1.004980683
8.504473,2.289596558,-1.433181763,-13.367324829,-0.082288697,0.153606817,1.000586152
8.505099,3.556076050,-0.281143188,-13.664871216,-0.080945924,0.158977911,1.000708222
8.505726,4.875961304,0.466537476,-14.748245239,-0.098279908,0.183636114,0.993506074
8.506351,6.485763550,-0.143814087,-15.694290161,-0.111097291,0.186321661,0.985327363
8.506977,7.653060913,-0.906753540,-15.701919556,-0.121351197,0.172527716,0.983496308
8.507602,9.590927124,-0.632095337,-15.389114380,-0.135755494,0.148968145,0.984106660
8.508229,11.597457886,-0.716018677,-15.587478638,-0.139539674,0.137249395,0.985205293
8.508854,13.558212280,-0.578689575,-16.564041138,-0.141492799,0.149700567,0.992407441
8.509479,15.282455444,-1.021194458,-17.449050903,-0.151014283,0.171795294,0.998633027
8.510105,17.128768921,-1.707839966,-17.899185181,-0.159437135,0.179119512,1.002539277
8.510731,18.982711792,-2.432632446,-18.028884888,-0.153821900,0.179119512,1.005468965
8.524542,54.047409058,-10.954666138,-31.212478638,-0.067151979,0.282635123,1.012671113
8.525277,56.481185913,-11.374282837,-31.578689575,-0.047376588,0.314983755,1.022925019
8.525904,58.449569702,-11.587905884,-32.341629028,-0.037366822,0.333416373,1.037817597
8.526529,59.731307983,-12.305068970,-33.379226685,-0.026746705,0.353191763,1.047094941
8.527155,60.272994995,-12.709426880,-33.730178833,-0.029188111,0.378216177,1.058447480
8.527781,60.189071655,-13.403701782,-34.226089478,-0.016370729,0.387249380,1.071509004
8.528406,59.616867065,-14.235305786,-34.973770142,-0.008802369,0.382366568,1.080908418
8.529038,59.510055542,-14.456558228,-35.683303833,-0.004285768,0.378582388,1.092383027
8.529663,59.159103394,-14.853286743,-36.080032349,-0.010267213,0.392986685,1.108008027
8.530289,59.189620972,-15.379714966,-36.553054810,-0.005384400,0.398846060,1.116552949
8.530916,59.197250366,-15.875625610,-37.079483032,-0.016370729,0.415325552,1.122046113
8.531541,58.998886108,-16.157913208,-37.720352173,-0.021375611,0.419598013,1.129980683
8.532168,58.564010620,-16.913223267,-38.902908325,-0.010877565,0.428265005,1.134619355
8.532793,57.869735718,-17.340469360,-39.681106567,-0.014905885,0.439251333,1.142920136
8.533418,57.251754761,-17.569351196,-40.192276001,-0.002088502,0.429973990,1.153784394
8.540634,60.807052612,-16.371536255,-47.661453247,-0.017469361,0.323650748,1.230932832
8.541261,61.539474487,-16.547012329,-48.615127563,-0.023817018,0.327801138,1.216162324
8.541888,62.043014526,-17.500686646,-49.301773071,-0.025770143,0.317791373,1.205420136
8.542513,62.226119995,-17.935562134,-49.828201294,-0.023206666,0.303142935,1.189428926
8.543139,62.798324585,-18.233108521,-50.476699829,-0.012464479,0.283123404,1.173315644
8.543765,63.813034058,-18.103408813,-50.804763794,-0.002698854,0.278484732,1.155493379
8.544390,65.293136597,-18.202590942,-52.040725708,-0.003065065,0.284344107,1.133764863
8.545017,66.811386108,-18.317031860,-52.597671509,-0.005384400,0.278240591,1.112646699
8.545643,68.207565308,-19.003677368,-53.314834595,-0.004529908,0.250652701,1.091040254
8.546268,69.947067261,-19.072341919,-53.948074341,-0.004163697,0.232952520,1.070898652
8.546894,71.862045288,-18.988418579,-54.596572876,-0.011487916,0.236614630,1.048559785
8.547519,73.120895386,-19.621658325,-55.351882935,-0.011732057,0.222820684,1.023657441
8.548146,74.318710327,-20.041275024,-56.046157837,-0.013318971,0.220501348,1.009009004
8.548773,75.409713745,-20.529556274,-56.709915161,-0.006483033,0.223919317,0.995092988
8.549399,76.355758667,-21.216201782,-56.862503052,-0.001966432,0.233562872,0.986181855
8.550026,77.629867554,-21.918106079,-58.304458618,0.032579467,0.236004278,0.974829316
8.550652,77.629867554,-21.918106079,-58.304458618,0.032579467,0.236004278,0.974829316
8.551279,78.469100952,-22.543716431,-59.715896606,0.045152709,0.226482794,0.953467011
8.551904,78.469100952,-22.543716431,-59.715896606,0.045152709,0.226482794,0.953467011
8.552530,79.506698608,-21.597671509,-60.654312134,0.004625365,0.082806028,0.920874238
8.553157,79.056564331,-21.261978149,-59.715896606,0.011827514,-0.032184206,0.911596894
8.553783,78.331771851,-20.254898071,-58.853775024,0.011095092,-0.083819948,0.899634004
8.554408,78.156295776,-20.621109009,-58.441787720,-0.013441041,-0.046344362,0.890722871
8.555039,79.117599487,-23.779678345,-58.029800415,-0.024061158,0.020794312,0.884253144
8.555664,81.917587280,-27.685928345,-57.236343384,-0.042859986,0.037640013,0.878515840
8.556290,86.418930054,-30.676651001,-56.679397583,-0.049451783,-0.021686157,0.879980683
8.556915,92.324081421,-30.981826782,-56.648880005,-0.046888307,-0.090533815,0.890600801
8.557541,97.161117554,-30.951309204,-57.785659790,-0.068494752,-0.081134401,0.894507051
8.558166,100.853744507,-32.164382935,-58.853775024,-0.060682252,-0.027057251,0.898047090
8.558792,103.974166870,-34.964370728,-59.792190552,-0.009656861,0.030193726,0.903051972
8.559418,107.674423218,-37.962722778,-59.982925415,0.047594115,0.068401732,0.913427949
8.560045,111.306015015,-40.411758423,-59.273391724,0.080919310,0.072552122,0.914526582
8.572693,120.026412964,-36.268997192,-50.873428345,0.317247450,-0.123004518,1.057959199
8.573400,120.476547241,-33.743667603,-49.797683716,0.312974989,-0.080524050,1.075659394
8.574027,120.888534546,-32.934951782,-49.423843384,0.289049208,-0.029864868,1.086767793
8.574653,120.415512085,-32.851028442,-48.515945435,0.262193739,-0.006183228,1.092383027
8.575280,119.789901733,-32.950210571,-48.027664185,0.235704467,-0.012286743,1.096899629
8.575906,117.684188843,-33.079910278,-46.860366821,0.222642943,-0.018268188,1.097387910
8.576531,114.952865601,-33.423233032,-46.120315552,0.213365600,-0.026080688,1.097754121
8.577157,110.680404663,-33.514785767,-45.174270630,0.228258178,-0.034625612,1.104467988
8.577783,106.507125854,-33.125686646,-43.999343872,0.283922255,-0.048541628,1.129980683
8.578408,103.554550171,-32.057571411,-42.519241333,0.335924208,-0.057574831,1.154028535
8.579039,100.601974487,-30.638504028,-41.092544556,0.364000380,-0.055987917,1.162817597
8.579664,97.672286987,-29.928970337,-39.658218384,0.365343153,-0.048541628,1.158667207
8.580289,94.239059448,-29.852676392,-38.529067993,0.357164443,-0.057818972,1.154883027
