time,gyro x,gyro y,gyro z,accel x,accel y,accel z
105.013514,3.679450989,-2.383972168,-7.080093384,-0.024152650,-0.087159485,0.972523808
105.027843,4.305061340,4.284118652,-1.892105103,-0.000959290,-0.102540344,0.972279668
105.043168,5.220588684,5.855773926,0.190719604,0.043108094,-0.118287414,0.995228887
105.081678,3.229316711,2.437805176,0.236495972,-0.004499329,-0.100587219,1.029896855
105.120179,-0.707450867,11.074279785,4.806503296,0.020403014,-0.126466125,1.029774785
105.134340,2.916511536,6.351684570,1.525863647,0.025652038,-0.119386047,1.031483769
105.149841,1.047309875,2.292846680,-1.091018677,-0.011823548,-0.252442688,1.070180058
105.150565,1.047309875,2.292846680,-1.091018677,-0.011823548,-0.252442688,1.070180058
105.151205,1.047309875,2.292846680,-1.091018677,-0.011823548,-0.252442688,1.070180058
105.151843,1.047309875,2.292846680,-1.091018677,-0.011823548,-0.252442688,1.070180058
105.152478,1.047309875,2.292846680,-1.091018677,-0.011823548,-0.252442688,1.070180058
105.153116,1.047309875,2.292846680,-1.091018677,-0.011823548,-0.252442688,1.070180058
105.153745,1.047309875,2.292846680,-1.091018677,-0.011823548,-0.252442688,1.070180058
105.154389,1.047309875,2.292846680,-1.091018677,-0.011823548,-0.252442688,1.070180058
105.155022,1.047309875,2.292846680,-1.091018677,-0.011823548,-0.252442688,1.070180058
105.155666,1.047309875,2.292846680,-1.091018677,-0.011823548,-0.252442688,1.070180058
105.156310,1.047309875,2.292846680,-1.091018677,-0.011823548,-0.252442688,1.070180058
105.156946,1.047309875,2.292846680,-1.091018677,-0.011823548,-0.252442688,1.070180058
105.157572,1.047309875,2.292846680,-1.091018677,-0.011823548,-0.252442688,1.070180058
105.158221,-2.485099792,5.512451172,0.694259644,-0.025251282,-0.229249328,1.065663457
105.158851,-2.485099792,5.512451172,0.694259644,-0.025251282,-0.229249328,1.065663457
105.159486,-2.485099792,5.512451172,0.694259644,-0.025251282,-0.229249328,1.065663457
105.160125,-2.485099792,5.512451172,0.694259644,-0.025251282,-0.229249328,1.065663457
105.198532,-1.241508484,0.637268066,5.905136108,0.050676454,-0.166627258,1.066517949
105.236949,-6.322685242,-21.915222168,2.326950073,-0.031354796,-0.226929992,1.067860723
105.251227,-3.576103210,-15.468383789,-0.282302856,-0.108259097,-0.106080383,1.036610723
105.266730,-2.820793152,-6.976867676,3.288253784,-0.098737612,-0.162110656,1.040272832
105.315696,-4.140678406,-10.204101562,-3.379837036,-0.092512026,-0.153199524,1.071766973
105.354261,-9.244743347,8.304809570,0.984176636,-0.055768859,-0.125489563,1.062001348
105.368624,-7.451835632,-1.148010254,-3.822341919,-0.044782531,-0.204102844,1.072987676
105.394459,-8.176628113,-7.213378906,-7.148757935,-0.071882144,-0.153687805,1.067006230
105.433058,-12.235466003,1.583312988,-0.839248657,-0.022443665,-0.173463196,1.071644902
105.471532,-6.627861023,-12.241149902,-9.475723267,-0.057966124,-0.169434875,1.032826543
105.485712,-7.802787781,-6.717468262,-7.522598267,-0.070173159,-0.158936828,1.030629277
105.501150,-8.642021179,4.154418945,-3.944412231,-0.029401673,-0.144288391,1.012684941
105.539578,-3.476921082,4.802917480,-7.141128540,-0.033552062,-0.231568664,1.048207402
105.578037,-3.469291687,25.829528809,-4.722610474,0.000383484,-0.160157531,1.029164433
105.592210,-5.956474304,26.798461914,-2.685562134,0.021257507,-0.220704406,1.035023808
105.607671,-4.796806335,15.857910156,-10.192886353,0.037859071,-0.141358703,1.032338262
105.646182,-14.249626160,15.156005859,-5.653396606,-0.017072571,-0.175172180,1.011342168
105.684626,-7.802787781,13.469909668,-5.722061157,-0.013288392,-0.167725891,0.973866582
105.698934,-14.203849792,4.558776855,-9.956375122,-0.025739564,-0.297120422,0.977528691
105.714439,-13.768974304,0.904296875,-12.992874146,-0.042707335,-0.130860656,0.903798223
105.752847,-8.825126648,1.476501465,-9.033218384,-0.006452454,-0.235474914,0.897938848
105.791256,-2.775016785,-13.873840332,-15.403762817,-0.007551087,-0.237550110,0.893056035
105.805635,-0.829521179,-9.250427246,-14.915481567,-0.003766907,-0.202149719,0.891224980
105.821101,1.032051086,-5.908752441,-13.328567505,0.012956725,-0.159425110,0.899159551
105.821820,1.032051086,-5.908752441,-13.328567505,0.012956725,-0.159425110,0.899159551
105.822427,1.032051086,-5.908752441,-13.328567505,0.012956725,-0.159425110,0.899159551
105.823045,1.032051086,-5.908752441,-13.328567505,0.012956725,-0.159425110,0.899159551
105.823646,1.032051086,-5.908752441,-13.328567505,0.012956725,-0.159425110,0.899159551
105.862000,0.139411926,-2.841735840,-15.617385864,0.011125671,-0.271119446,0.954457402
105.900396,2.031501770,14.736389160,-5.325332642,0.080461606,-0.190430969,0.989369512
105.914712,2.695259094,7.488464355,-4.554763794,0.091447935,-0.206422180,1.011586308
105.930035,3.145393372,0.789855957,-7.331863403,0.081926450,-0.217408508,1.022206426
105.968557,-0.615898132,-11.813903809,-9.132400513,0.065080747,-0.163087219,1.021474004
106.007020,2.840217590,-22.784973145,-6.423965454,0.059831727,-0.185670227,1.046986699
106.033078,-1.867118835,-14.255310059,-5.470291138,0.005998718,-0.100709289,1.009389043
106.047502,0.932868958,-7.320190430,-4.699722290,0.009050475,-0.057862610,1.008900762
106.085942,0.658210754,8.213256836,-3.669754028,0.027483093,-0.165650696,1.058339238
106.124433,1.878913879,14.187072754,-0.534072876,0.070818052,-0.041383117,1.025502324
106.138612,3.763374329,10.227416992,0.450119019,0.101823911,-0.091554016,1.033314824
106.154158,4.717048645,-7.495666504,0.198348999,0.096696958,-0.136597961,1.059926152
106.154897,4.717048645,-7.495666504,0.198348999,0.096696958,-0.136597961,1.059926152
106.155527,4.717048645,-7.495666504,0.198348999,0.096696958,-0.136597961,1.059926152
106.193842,-3.843132019,-20.183349609,-1.258865356,0.002092468,-0.149659485,1.019887090
106.232254,-1.775566101,-19.687438965,-2.822891235,0.002580749,-0.158082336,0.980336308
106.246631,-2.301994324,-19.557739258,-3.387466431,0.004289734,-0.148316711,0.970448613
106.262108,-1.592460632,-14.407897949,-2.403274536,0.001237976,-0.056519836,0.937855840
106.300546,1.360115051,-0.606323242,2.197250366,0.017961608,-0.118531555,0.916981816
106.338954,6.387886047,12.890075684,1.029953003,0.000627624,-0.177491516,0.933095098
106.353309,0.345405579,19.924377441,4.051193237,0.023454772,-0.208619446,0.944569707
106.368638,-0.982109070,20.076965332,3.593429565,0.040788759,-0.171265930,0.931508183
106.407171,0.108894348,2.376770020,3.410324097,0.080949888,-0.178223938,0.914418340
106.445625,1.642402649,-11.974121094,7.560714722,0.075334653,-0.181275696,0.906849980
106.459930,1.131233215,-21.808410645,4.569992065,0.043596376,-0.227784485,0.906117558
106.475256,2.046760559,-24.402404785,2.387985229,0.021257507,-0.209962219,0.902089238
106.476038,2.046760559,-24.402404785,2.387985229,0.021257507,-0.209962219,0.902089238
106.525029,2.969917297,1.255249023,5.111679077,-0.004011048,-0.187745422,0.924672246
106.563505,5.678352356,14.324401855,3.906234741,0.021379577,-0.148682922,0.957387090
106.577675,6.502326965,16.605590820,3.433212280,0.024919616,-0.141602844,0.981923223
106.593173,3.328498840,23.952697754,7.553085327,0.058733094,-0.127442688,1.014027715
106.631603,5.861457825,1.758789062,10.772689819,0.116838560,-0.107667297,1.018422246
106.670202,6.075080872,-17.650390625,8.995040894,0.027849304,-0.027467102,1.028676152
106.684386,7.341560364,-14.293457031,10.826095581,0.023454772,-0.034669250,1.032216191
106.699934,6.120857239,-10.463500977,17.303451538,0.038225282,-0.115968078,1.047230840
106.750659,9.515937805,-21.243835449,8.911117554,-0.018049134,-0.182984680,1.055897832
106.789169,11.667427063,-9.105468750,9.277328491,0.017229186,-0.021607727,1.037953496
106.803474,11.072334290,-9.830261230,5.592330933,0.014055358,-0.083741516,1.053700566
106.818808,8.691963196,-8.189941406,3.692611694,0.010759460,-0.023072571,1.032826543
106.857309,9.805854797,10.471557617,11.413558960,0.043474305,-0.076661438,1.030018926
106.895749,12.087043762,-2.475524902,3.746017456,0.067522153,-0.106202453,1.042103887
106.910051,6.998237610,-6.717468262,3.974899292,0.045183290,-0.166383117,1.043324590
106.925369,5.235847473,-5.367065430,4.005416870,0.034929384,-0.104371399,1.023060918
106.963865,6.220039368,7.969116211,7.347091675,0.030168639,-0.124390930,1.011342168
107.002392,2.451118469,20.473693848,6.195053101,0.028459655,-0.093629211,0.962147832
107.016547,2.519783020,24.860595703,9.330734253,0.048967469,-0.150513977,0.969838262
107.032043,2.268013000,23.327087402,9.941085815,0.057390321,-0.150636047,0.980702519
107.070498,-2.073112488,0.477050781,5.355819702,0.075456724,-0.171143860,0.998158574
107.108994,1.344856262,-16.155029297,4.310592651,0.028215514,-0.172242492,1.025624394
107.123171,-0.440422058,-17.047668457,2.517684937,0.009416686,-0.175538391,1.038075566
107.138681,-1.691642761,-13.171936035,1.144393921,-0.007917298,-0.096558899,1.034291387
107.139394,-1.691642761,-13.171936035,1.144393921,-0.007917298,-0.096558899,1.034291387
107.140036,-1.691642761,-13.171936035,1.144393921,-0.007917298,-0.096558899,1.034291387
107.140675,-1.691642761,-13.171936035,1.144393921,-0.007917298,-0.096558899,1.034291387
107.141308,-1.691642761,-13.171936035,1.144393921,-0.007917298,-0.096558899,1.034291387
107.141936,-1.691642761,-13.171936035,1.144393921,-0.007917298,-0.096558899,1.034291387
107.142563,-1.691642761,-13.171936035,1.144393921,-0.007917298,-0.096558899,1.034291387
107.143201,-1.691642761,-13.171936035,1.144393921,-0.007917298,-0.096558899,1.034291387
107.143914,-1.691642761,-13.171936035,1.144393921,-0.007917298,-0.096558899,1.034291387
107.144527,-1.691642761,-13.171936035,1.144393921,-0.007917298,-0.096558899,1.034291387
107.145155,-1.691642761,-13.171936035,1.144393921,-0.007917298,-0.096558899,1.034291387
107.145785,-1.302543640,-8.365417480,1.296981812,-0.009992493,-0.090577453,1.036610723
107.146415,-1.302543640,-8.365417480,1.296981812,-0.009992493,-0.090577453,1.036610723
107.147046,-1.302543640,-8.365417480,1.296981812,-0.009992493,-0.090577453,1.036610723
107.147664,-1.302543640,-8.365417480,1.296981812,-0.009992493,-0.090577453,1.036610723
107.148305,-1.302543640,-8.365417480,1.296981812,-0.009992493,-0.090577453,1.036610723
107.148933,-1.302543640,-8.365417480,1.296981812,-0.009992493,-0.090577453,1.036610723
107.149559,-1.302543640,-8.365417480,1.296981812,-0.009992493,-0.090577453,1.036610723
107.150191,-1.302543640,-8.365417480,1.296981812,-0.009992493,-0.090577453,1.036610723
107.188567,2.000984192,12.058471680,0.480636597,-0.001569641,0.046141297,1.041005254
107.227010,-7.085624695,46.154235840,5.035385132,-0.006086243,-0.055787414,1.114125371
107.241298,-6.597343445,50.876831055,4.714950562,0.018571960,0.003660828,1.077992558
107.256795,-0.142875671,46.253417969,5.577072144,0.077776060,-0.045777649,1.056508183
107.295281,4.701789856,-4.764343262,3.051742554,0.108537778,-0.013306946,1.046010137
107.344316,7.715400696,-31.566406250,6.637557983,-0.026960267,-0.110474914,1.030507207
107.358511,7.951911926,-33.160949707,4.631027222,-0.050763976,-0.124268860,1.047230840
107.373964,5.411323547,-31.421447754,2.967819214,-0.074079409,-0.170167297,1.055531621
107.433499,0.063117981,-8.205200195,1.045211792,-0.031110657,-0.043580383,0.999989629
107.472075,6.532844543,-10.028625488,-0.389114380,-0.021833314,-0.026490539,0.987416387
107.486362,2.306159973,-6.206298828,2.105697632,-0.041120421,-0.071168274,0.989613652
107.501854,3.786262512,-4.840637207,0.427230835,-0.045270812,-0.048096985,0.989979863
107.540303,-4.148307800,0.004028320,0.427230835,-0.039289366,-0.134400696,0.991200566
107.578729,-2.462211609,3.238891602,0.976547241,-0.030378236,-0.140626281,0.988270879
107.593050,-5.178276062,0.766967773,-2.616897583,-0.028058900,-0.119874328,0.984852910
107.608361,-4.667106628,-0.316406250,-3.593460083,-0.025251282,-0.101563781,0.979848027
107.646842,-4.178825378,-0.591064453,-2.731338501,-0.012189759,-0.053712219,0.947133183
107.685290,-7.558647156,3.292297363,-3.196731567,-0.040387999,-0.186402649,1.021718144
107.699577,-10.160270691,7.000183105,-2.189651489,-0.042585265,-0.101075500,1.000477910
107.715077,-7.879081726,11.928771973,-0.679031372,-0.009504212,-0.032716125,0.966420293
107.753508,3.221687317,1.011108398,-3.425613403,0.009660827,-0.023927063,1.015370488
107.792014,-5.895439148,14.560913086,-2.067581177,-0.024885071,-0.108521789,1.047474980
107.806170,-7.100883484,18.741821289,-0.099197388,0.002580749,-0.105225891,1.016591191
107.821654,-3.072563171,14.629577637,-0.999465942,0.061906923,-0.013184875,0.969594121
107.860101,1.024421692,1.606201172,1.312240601,0.074113950,-0.081055969,0.965809941
107.898614,8.669075012,-15.689636230,1.625045776,0.062395204,-0.094117492,0.930165410
107.912908,7.097419739,-22.418762207,-1.487747192,0.040422548,-0.115235656,0.936513066
107.928246,6.967720032,-23.227478027,-2.662673950,0.034441102,-0.031739563,0.925404668
107.966780,11.980232239,-11.058593750,-0.839248657,0.033708680,0.044066101,0.933095098
108.005252,6.647285461,-0.911499023,0.076278687,0.044695009,-0.033570617,0.941273808
108.019529,6.525215149,0.828002930,0.877365112,0.049455751,-0.039674133,0.928944707
108.045536,9.058174133,-0.995422363,0.968917847,0.065080747,-0.109864563,0.933705449
108.084118,5.426582336,-10.829711914,-0.701919556,0.052873719,-0.116944641,0.938588262
108.122527,6.387886047,-10.661865234,0.465377808,0.042131532,-0.063233703,0.942250371
108.136847,7.089790344,-8.563781738,0.709518433,0.033464540,-0.036744446,0.952992558
108.152186,6.380256653,-2.292419434,-0.373855591,0.017351257,-0.113404602,0.980214238
108.190684,5.052742004,7.267211914,-1.068130493,0.045915712,-0.072633117,0.982899785
108.229128,3.725227356,3.971313477,-0.816360474,0.047380555,-0.060426086,1.000477910
108.243447,4.167732239,4.139160156,-0.900283813,0.034074891,-0.101197571,1.010975957
108.258918,2.626594543,4.467224121,-0.991836548,0.028093444,-0.097657531,1.030995488
108.297392,3.503974915,4.406188965,-4.753128052,0.030656921,-0.043336242,1.057728887
108.335865,0.108894348,19.016479492,-1.136795044,0.043718446,-0.018311828,1.087147832
108.350060,3.030952454,19.207214355,-0.167861938,0.072771177,0.020750672,1.093007207
108.365511,2.268013000,15.117858887,-0.167861938,0.089616880,-0.062745422,1.100697637
108.404009,4.579719543,-10.242248535,-1.861587524,0.097917661,0.059080750,1.056996465
108.404743,4.579719543,-10.242248535,-1.861587524,0.097917661,0.059080750,1.056996465
108.405359,4.579719543,-10.242248535,-1.861587524,0.097917661,0.059080750,1.056996465
108.405977,4.579719543,-10.242248535,-1.861587524,0.097917661,0.059080750,1.056996465
108.406575,4.579719543,-10.242248535,-1.861587524,0.097917661,0.059080750,1.056996465
108.407200,4.579719543,-10.242248535,-1.861587524,0.097917661,0.059080750,1.056996465
108.407799,6.250556946,-14.240051270,-0.335708618,0.091570005,0.053831726,1.056752324
108.408427,6.250556946,-14.240051270,-0.335708618,0.091570005,0.053831726,1.056752324
108.409023,6.250556946,-14.240051270,-0.335708618,0.091570005,0.053831726,1.056752324
108.457951,8.531745911,-15.506530762,1.991256714,0.005510437,-0.122926086,1.080556035
108.472130,4.282173157,-10.432983398,2.441390991,-0.014264954,-0.136353821,1.071766973
108.487627,3.503974915,-2.261901855,0.358566284,-0.008771790,-0.015870422,1.028065801
108.526025,2.237495422,1.209472656,-1.029983521,0.019792663,-0.077149719,1.049672246
108.564491,1.230415344,-5.382324219,-1.472488403,0.058488954,0.075316101,0.983143926
108.578803,1.466926575,-10.631347656,2.449020386,0.066667661,0.047850281,0.963856816
108.594258,4.350837708,-15.414978027,0.328048706,0.059099305,0.060057312,0.962636113
108.632707,0.223335266,-14.949584961,0.892623901,-0.015241517,-0.064088196,0.999257207
108.671128,-0.882926941,-0.308776855,-1.106277466,-0.009138001,-0.043946594,0.962147832
108.697416,-0.318351746,7.969116211,-1.953140259,0.014787780,-0.052491516,0.963978887
108.711612,-1.973930359,11.463378906,-0.328079224,0.017229186,-0.077149719,0.967274785
108.749983,-2.782646179,8.098815918,-1.541152954,0.047136415,-0.093751281,0.965443730
108.788475,-4.278007507,-3.383422852,-4.997268677,0.045305360,-0.079346985,1.007313848
108.802774,-6.826225281,-2.834106445,-2.883926392,0.049211610,-0.029664367,1.001942754
108.818125,-6.109062195,-4.428649902,-2.433792114,0.059465516,0.083006531,0.975819707
108.856637,0.665840149,-1.933837891,-2.334609985,0.037737001,0.064695984,1.019154668
108.895135,-3.331962585,19.466613770,1.472457886,0.045427430,0.026121765,1.011220098
108.909300,-2.012077332,20.908569336,1.396163940,0.063615903,0.061644226,1.002308965
108.924642,0.383552551,17.315124512,0.946029663,0.099748716,0.030882508,0.997548223
108.963201,5.022224426,3.368591309,2.883895874,0.097551450,0.042235047,0.985219121
109.001684,8.157905579,-12.950683594,1.647933960,0.062639341,-0.050172180,0.992543340
109.015879,10.965522766,-17.177368164,-1.327529907,0.047014344,0.007322937,1.003529668
109.031394,11.171516418,-16.338134766,-2.830520630,0.041399110,-0.004273742,1.021596074
109.069804,8.493598938,-1.468444824,-2.441421509,0.048967469,0.095945984,1.026845098
109.070510,8.493598938,-1.468444824,-2.441421509,0.048967469,0.095945984,1.026845098
109.071119,8.493598938,-1.468444824,-2.441421509,0.048967469,0.095945984,1.026845098
109.071743,8.493598938,-1.468444824,-2.441421509,0.048967469,0.095945984,1.026845098
109.110075,4.495796204,13.111328125,1.892074585,0.083391294,0.070189148,1.009266973
109.124388,5.251106262,14.187072754,3.272994995,0.112199888,-0.031739563,1.009144902
109.139913,3.259834290,12.615417480,6.309494019,0.109026060,-0.085084289,1.007557988
109.178378,1.390632629,-2.483154297,2.021774292,0.082414731,-0.106446594,0.987904668
109.216783,2.954658508,-4.352355957,3.219589233,0.047014344,0.017820984,0.960072637
109.231131,3.847297668,-1.949096680,1.274093628,0.034563173,-0.049439758,0.983021855
109.246590,-0.829521179,8.289550781,3.295883179,0.017595397,-0.060304016,1.002797246
109.285079,-2.996269226,31.650756836,7.431015015,0.041277040,-0.075562805,0.999867558
109.334103,-1.279655457,5.695556641,2.067550659,0.070573911,-0.114503235,1.047474980
109.348305,-4.575553894,1.003479004,2.349838257,0.062883481,-0.122681946,1.057850957
109.363624,-5.910697937,-7.358337402,1.655563354,0.058366884,-0.004517883,1.040516973
109.402116,-4.682365417,-15.384460449,-0.663772583,0.010027038,-0.008179992,1.078358769
109.440594,-5.559745789,0.324462891,0.556930542,-0.021711243,-0.087891906,1.099599004
109.454747,-10.991874695,9.685729980,0.343307495,-0.000348938,-0.067262024,1.072499394
109.470103,-9.260002136,11.249755859,-1.419082642,0.016496764,0.008421570,1.050404668
109.470853,-9.260002136,11.249755859,-1.419082642,0.016496764,0.008421570,1.050404668
109.471659,-5.742851257,11.951660156,-3.288284302,0.037004579,0.028074890,1.041981816
109.509960,-7.711235046,13.477539062,0.122055054,0.064226255,0.051146179,1.003651738
109.548552,-0.501457214,9.289001465,9.216293335,0.056291688,-0.074464172,0.990956426
109.562740,-1.142326355,-2.078796387,4.798873901,0.029680358,-0.029908508,0.959096074
109.588879,1.459297180,-10.272766113,4.417404175,0.018694030,-0.017335266,0.939931035
109.627413,7.059272766,-21.518493652,1.655563354,-0.004377258,0.026610047,0.950673223
109.665665,8.043464661,-10.120178223,2.914413452,-0.045148741,0.022215515,0.929310918
109.680053,8.218940735,-2.261901855,2.845748901,-0.048566710,-0.027833313,0.939808965
109.695432,7.280525208,2.750610352,2.799972534,-0.055158507,-0.044434875,0.946278691
109.733909,0.208076477,18.360351562,-0.267044067,-0.043439757,-0.073853821,0.953602910
109.772489,-0.623527527,14.179443359,-1.548782349,0.026018249,-0.069703430,0.974476933
109.786807,-2.805534363,9.708618164,-1.060501099,0.035661805,-0.045045227,0.972523808
109.802120,-1.325431824,-1.453186035,-0.167861938,0.026384460,-0.002198547,0.975209355
109.802866,-1.325431824,-1.453186035,-0.167861938,0.026384460,-0.002198547,0.975209355
109.841258,-3.095451355,-14.812255859,-3.456130981,-0.011945618,-0.016969055,0.985951543
109.879768,-7.772270203,-5.176330566,0.465377808,-0.021345032,-0.047730774,1.015248418
109.893926,-9.130302429,-2.811218262,-0.373855591,-0.023054017,-0.010377258,1.000966191
109.909247,-5.849662781,1.354431152,-2.548233032,-0.012067689,0.070799500,0.977040410
109.947769,-2.370658875,9.289001465,0.366195679,0.013200866,0.014647156,1.003163457
109.996737,0.520881653,10.250305176,-0.228897095,0.039445985,0.043455750,1.007435918
110.010960,2.748664856,7.206176758,2.479537964,0.068620786,0.091917664,0.994618535
110.026521,4.671272278,3.551696777,3.654464722,0.076677427,0.059446961,0.993031621
110.064790,11.278327942,-20.465637207,-1.029983521,0.022844421,-0.032594055,0.986683965
110.103284,10.439094543,-13.721252441,-2.136245728,-0.004133118,0.026854187,1.032094121
110.117689,11.034187317,-5.679870605,-4.837051392,0.007097351,0.149534851,1.027699590
110.133015,12.285408020,-0.972534180,-6.301895142,0.016252624,0.165648133,1.035390019
110.133769,12.285408020,-0.972534180,-6.301895142,0.016252624,0.165648133,1.035390019
110.134434,12.285408020,-0.972534180,-6.301895142,0.016252624,0.165648133,1.035390019
110.172852,3.595527649,24.456237793,1.335128784,0.050554384,0.109251648,1.033558965
110.211102,1.917060852,19.672607422,2.265914917,0.084734067,-0.055054992,1.015614629
110.225484,0.322517395,14.759277344,1.678451538,0.081804380,-0.062867492,1.006581426
110.240870,-0.768486023,6.832336426,1.747116089,0.075945005,-0.039796203,0.985341191
110.279370,-0.089469910,-7.266784668,3.356918335,0.045915712,-0.014405578,0.963490605
110.317829,-4.941764832,-7.419372559,1.541122437,-0.010724915,-0.063233703,0.976307988
110.331991,-4.545036316,-3.444458008,1.686080933,-0.013532532,-0.032594055,0.963856816
110.357843,-4.583183289,7.473205566,2.822860718,-0.011213196,-0.111207336,0.960194707
110.396558,-2.500358582,16.048645020,-1.121536255,-0.041486632,-0.148560852,0.988392949
110.435068,1.794990540,13.027404785,-4.631057739,0.001237976,-0.018922180,1.042836308
110.449230,1.665290833,10.112976074,-4.928604126,0.000993835,-0.028565735,1.075551152
110.464773,-2.546134949,7.084106445,-6.500259399,-0.015485657,-0.009400696,1.090199590
110.465503,-2.546134949,7.084106445,-6.500259399,-0.015485657,-0.009400696,1.090199590
110.466130,-2.546134949,7.084106445,-6.500259399,-0.015485657,-0.009400696,1.090199590
110.504305,-2.256217957,16.132568359,-5.371109009,-0.029767884,0.031492859,1.093495488
110.542836,-1.302543640,20.542358398,-4.287734985,0.002580749,0.063963562,1.149403691
110.557138,-7.459465027,22.571777344,-1.716629028,-0.003644837,0.064818054,1.137562871
110.572646,-8.878532410,21.969055176,-0.434890747,0.005144226,0.074827820,1.105214238
110.611143,-6.421867371,-6.198669434,1.487716675,0.034074891,-0.050904602,0.998890996
110.649539,-4.102531433,-48.198486328,-0.793472290,-0.005720032,0.008177429,0.897084355
110.663918,-0.470939636,-61.000610352,-2.624526978,-0.032575499,0.037596375,0.868641973
110.689699,4.968818665,-64.059997559,-4.234329224,-0.073835269,0.083861023,0.850209355
110.728334,11.209663391,-27.896667480,-4.310623169,-0.141462222,-0.017091125,0.877919316
110.766807,8.241828918,19.016479492,-5.165115356,-0.063703433,-0.080079406,0.902333379
110.792769,6.944831848,26.996826172,-2.769485474,-0.001691712,-0.024049133,0.927235723
110.807212,5.685981750,24.654602051,-4.196182251,0.011980163,-0.047120422,0.938466191
110.845593,4.564460754,2.704833984,-1.228347778,0.063371763,0.008665711,0.957875371
110.884034,1.650032043,-19.893432617,-1.579299927,0.023820983,0.067381531,0.956776738
110.898213,4.457649231,-20.587707520,-0.099197388,0.007585632,0.054075867,0.965809941
110.924305,0.597175598,-18.504882812,-1.197830200,-0.038923156,-0.054566711,1.026234746
110.962960,-5.903068542,8.770202637,-2.845779419,-0.084211245,0.019529969,1.016224980
111.001417,1.085456848,33.924316406,-0.076309204,-0.008405579,-0.071412414,1.112538457
111.015756,-3.652397156,33.001159668,-2.166763306,-0.001447571,-0.070802063,1.122914433
111.031112,-7.070365906,26.836608887,-5.165115356,0.034685243,0.081175476,1.077504277
111.069641,-0.974479675,16.750549316,-0.701919556,0.079485044,0.160521179,1.052724004
111.108075,9.157356262,-12.691284180,1.899703979,0.047746766,0.031126648,1.006093144
111.122392,8.218940735,-26.653076172,-0.068679810,0.003557312,-0.103761047,1.025136113
111.137716,7.623847961,-30.544067383,-3.509536743,-0.017194642,-0.034303039,1.016102910
111.176267,9.447273254,-13.339782715,-2.670303345,-0.040632140,0.060789734,1.069325566
111.214777,5.624946594,15.537475586,-2.365127563,-0.000471008,0.111082703,1.054066777
111.228946,1.810249329,21.640991211,0.022872925,0.016008483,0.052733094,1.055165410
111.244394,-2.134147644,24.708007812,2.578720093,0.056169618,0.103026062,1.008778691
111.283011,-3.782096863,2.659057617,3.189071655,0.061052430,-0.107423156,1.018300176
111.321504,-3.652397156,-20.412231445,0.854476929,0.023698913,-0.080689758,0.966664433
111.335683,-4.918876648,-23.166442871,0.823959351,0.011980163,-0.011597961,0.956166387
111.351145,-1.012626648,-25.363708496,-0.488296509,-0.014387025,0.016112000,0.944691777
111.400307,-3.469291687,7.717346191,-0.434890747,-0.058210265,-0.030763000,0.953358769
111.438904,-2.919975281,22.098754883,0.007614136,-0.003400696,-0.033570617,0.954213262
111.453203,-1.157585144,19.718383789,-2.311721802,-0.005475891,-0.068482727,0.972890019
111.468673,-4.697624207,15.156005859,-4.631057739,-0.016462220,-0.097779602,0.999623418
111.507168,2.557929993,5.825256348,-7.324234009,0.007707702,0.074461609,1.010121465
111.545593,-3.560844421,-12.187744141,-12.603775024,-0.004255188,0.060057312,1.072011113
111.559900,-1.371208191,-10.883117676,-12.527481079,-0.012189759,0.075316101,1.063099980
111.575354,-2.446952820,-7.259155273,-11.581436157,-0.011823548,0.048948914,1.065419316
111.613824,-1.294914246,7.404541016,-6.568923950,0.027116882,0.060545594,1.050404668
111.652286,2.077278137,-0.705505371,-6.111160278,0.050066102,0.026487976,0.994252324
111.666595,2.382453918,-3.536010742,-4.074111938,0.048723329,0.005247742,0.991932988
111.681934,2.161201477,-11.134887695,-3.105178833,0.045305360,0.026610047,0.982411504
111.720486,4.701789856,-28.445983887,-4.188552856,0.010515319,0.083861023,0.978383183
111.758967,6.166633606,-16.208435059,1.541122437,-0.034528624,0.117308289,0.935048223
111.773258,7.875617981,-11.295104980,0.770553589,-0.042707335,0.101317078,0.930775762
111.788728,10.484870911,0.744079590,0.038131714,-0.064679995,0.035521179,0.953480840
111.789445,10.484870911,0.744079590,0.038131714,-0.064679995,0.035521179,0.953480840
111.790041,10.484870911,0.744079590,0.038131714,-0.064679995,0.035521179,0.953480840
111.790660,10.484870911,0.744079590,0.038131714,-0.064679995,0.035521179,0.953480840
111.791269,10.484870911,0.744079590,0.038131714,-0.064679995,0.035521179,0.953480840
111.791880,10.484870911,0.744079590,0.038131714,-0.064679995,0.035521179,0.953480840
111.792473,10.484870911,0.744079590,0.038131714,-0.064679995,0.035521179,0.953480840
111.793096,10.484870911,0.744079590,0.038131714,-0.064679995,0.035521179,0.953480840
111.831407,1.695808411,29.995178223,-1.235977173,-0.040632140,-0.022096008,0.957875371
111.869844,0.810798645,25.425170898,-0.595108032,0.033220399,-0.022218078,0.966298223
111.896026,-3.576103210,6.962036133,-1.091018677,0.029680358,-0.003053039,0.973134160
111.910381,-4.728141785,2.475952148,-0.366226196,0.019304382,0.005125672,0.962880254
111.948738,1.802619934,-4.741455078,-1.815811157,-0.017194642,0.053953797,1.050526738
111.987195,-17.446342468,35.511230469,5.332931519,-0.051374327,0.011595398,1.145009160
112.001491,-19.765678406,43.888305664,6.050094604,-0.024518861,0.044554383,1.123036504
112.016998,-22.817436218,44.719909668,9.529098511,0.039934266,0.003660828,1.055165410
112.066041,-7.497612000,-13.393188477,2.075180054,0.055437196,-0.005616516,0.986439824
112.104580,-1.432243347,-38.066650391,-0.709548950,0.012102233,0.091795594,0.973256230
112.118871,1.993354797,-37.303710938,-0.823989868,0.002702820,0.092528015,0.982655644
112.134512,2.680000305,-27.965332031,4.020675659,-0.029035462,0.032713562,1.004506230
112.172989,6.937202454,-7.732177734,4.219039917,-0.057966124,0.050779969,0.982777715
112.211487,4.533943176,15.712951660,2.479537964,-0.009626282,0.034422547,1.042958379
112.225801,7.135566711,22.190307617,5.378707886,0.025652038,0.187010437,1.020863652
112.241161,9.164985657,22.403930664,5.805953979,0.032121766,0.166014344,1.035267949
112.279705,2.733406067,15.567993164,7.545455933,0.042131532,0.122191101,1.065785527
112.280434,2.733406067,15.567993164,7.545455933,0.042131532,0.122191101,1.065785527
112.281053,2.733406067,15.567993164,7.545455933,0.042131532,0.122191101,1.065785527
112.281683,2.733406067,15.567993164,7.545455933,0.042131532,0.122191101,1.065785527
112.282296,2.733406067,15.567993164,7.545455933,0.042131532,0.122191101,1.065785527
112.282923,2.733406067,15.567993164,7.545455933,0.042131532,0.122191101,1.065785527
112.283530,1.444038391,13.820861816,8.361801147,0.039323915,0.087401062,1.050892949
112.284168,1.444038391,13.820861816,8.361801147,0.039323915,0.087401062,1.050892949
112.284770,1.444038391,13.820861816,8.361801147,0.039323915,0.087401062,1.050892949
112.285408,1.444038391,13.820861816,8.361801147,0.039323915,0.087401062,1.050892949
112.286015,1.444038391,13.820861816,8.361801147,0.039323915,0.087401062,1.050892949
112.286641,1.444038391,13.820861816,8.361801147,0.039323915,0.087401062,1.050892949
112.287254,1.444038391,13.820861816,8.361801147,0.039323915,0.087401062,1.050892949
112.287887,1.444038391,13.820861816,8.361801147,0.039323915,0.087401062,1.050892949
112.288495,1.444038391,13.820861816,8.361801147,0.039323915,0.087401062,1.050892949
112.326862,-1.836601257,-2.338195801,9.269699097,0.022722350,-0.025513977,0.986806035
112.341023,-0.745597839,-7.777954102,8.087142944,0.012956725,-0.051881164,0.984608769
112.356475,-3.881278992,-15.483642578,7.385238647,-0.010358704,-0.129639953,0.983754277
112.395001,-3.690544128,-16.574645996,7.713302612,-0.052472960,-0.026734680,0.944081426
112.433457,-6.131950378,-0.736022949,3.059371948,-0.082013980,-0.034303039,0.973744512
112.447734,-7.551017761,6.641601562,4.653915405,-0.079816714,-0.013673156,0.960682988
112.463344,-6.383720398,16.849731445,3.646835327,-0.038679015,0.005858094,0.945546269
112.501799,-5.651298523,24.517272949,3.990158081,-0.042951476,-0.132203430,1.015858769
112.540258,-7.955375671,23.517822266,3.456100464,-0.033307921,-0.074342102,1.001576543
112.554551,-7.306877136,12.325500488,1.579269409,-0.011823548,-0.079224914,1.009633183
112.570084,-5.788627625,4.726623535,-0.976577759,-0.015241517,-0.035645813,1.020253301
112.608570,-6.200614929,-4.031921387,-4.524246216,-0.061750304,0.006590515,1.046376348
112.609287,-6.200614929,-4.031921387,-4.524246216,-0.061750304,0.006590515,1.046376348
112.609883,-6.200614929,-4.031921387,-4.524246216,-0.061750304,0.006590515,1.046376348
112.610516,-6.200614929,-4.031921387,-4.524246216,-0.061750304,0.006590515,1.046376348
112.611110,-6.200614929,-4.031921387,-4.524246216,-0.061750304,0.006590515,1.046376348
112.611727,-6.818595886,0.225280762,-1.846328735,-0.050886046,-0.000123352,1.045155644
112.612318,-6.818595886,0.225280762,-1.846328735,-0.050886046,-0.000123352,1.045155644
112.612943,-6.818595886,0.225280762,-1.846328735,-0.050886046,-0.000123352,1.045155644
112.661830,-2.462211609,-6.435180664,-5.844131470,-0.008893861,0.030638367,1.085194707
112.676185,-5.010429382,-4.253173828,-3.265396118,-0.011945618,0.028685242,1.083119512
112.691672,-5.307975769,-0.873352051,-0.968948364,0.008806335,0.132200867,1.040394902
112.740769,-2.538505554,-17.993713379,1.609786987,-0.007429016,-0.053712219,1.018788457
112.779275,-3.507438660,-25.897766113,1.960739136,-0.036115538,-0.042970031,0.965077519
112.793586,-1.928153992,-28.590942383,2.334579468,-0.035749327,0.012205750,0.933705449
112.809074,-0.577751160,-30.338073730,1.777633667,-0.034528624,0.018553406,0.924428105
112.847563,5.426582336,-23.738647461,-0.915542603,-0.107892886,0.072996765,0.878407598
112.886020,5.571540833,12.554382324,3.326400757,-0.096540347,-0.057984680,0.885975957
112.900303,5.792793274,19.245361328,0.289901733,-0.077253237,-0.052491516,0.880482793
112.915835,7.021125793,20.328735352,-1.693740845,-0.067243472,-0.043580383,0.890980840
112.954305,1.222785950,17.971252441,0.839218140,0.011858093,-0.004884094,0.940297246
112.992750,-0.463310242,-12.973571777,-3.471389771,0.012590514,0.044554383,0.934559941
113.007097,0.917610168,-18.871093750,-4.180923462,-0.001569641,0.029539734,0.947255254
113.022435,-2.538505554,-24.104858398,-0.907913208,-0.021100892,-0.019044250,0.966298223
113.060991,-5.452934265,-32.657409668,-2.861038208,-0.059064757,-0.051514953,0.968495488
113.099428,-5.750480652,-12.607360840,-6.477371216,-0.094953433,0.036375672,0.982777715
113.113739,-6.246391296,-1.521850586,-0.694290161,-0.068220034,0.077147156,0.979481816
113.129052,-3.919425964,6.801818848,0.411972046,-0.036847960,0.014036804,0.971181035
113.167575,3.481086731,-2.223754883,-7.598892212,-0.028303040,-0.137086242,1.028554082
113.206077,1.558479309,11.379455566,-5.027786255,0.004289734,0.093748719,0.985219121
113.220230,6.212409973,13.019775391,1.594528198,0.035173524,0.076658875,0.990834355
113.235691,9.340461731,8.098815918,-4.196182251,0.035905946,0.080565125,1.003285527
113.274193,12.857612610,0.324462891,-3.204360962,-0.002302063,0.001585633,1.030018926
113.274907,12.857612610,0.324462891,-3.204360962,-0.002302063,0.001585633,1.030018926
113.275514,12.857612610,0.324462891,-3.204360962,-0.002302063,0.001585633,1.030018926
113.276148,12.857612610,0.324462891,-3.204360962,-0.002302063,0.001585633,1.030018926
113.276762,12.857612610,0.324462891,-3.204360962,-0.002302063,0.001585633,1.030018926
113.277398,12.743171692,-1.445556641,-6.019607544,-0.005109680,-0.029786438,1.034535527
113.278000,12.743171692,-1.445556641,-6.019607544,-0.005109680,-0.029786438,1.034535527
113.316401,12.773689270,-3.322387695,-8.407608032,0.002580749,0.097532898,1.043934941
113.330569,11.110481262,-2.055908203,-13.473526001,0.010881530,0.072630554,1.064442754
113.346044,7.761177063,2.392028809,-11.932388306,0.021989929,0.089598328,1.056752324
113.394964,5.190071106,9.380554199,-4.173294067,0.089983091,0.053099304,1.020741582
113.433520,-0.051322937,1.667236328,-4.150405884,0.072893247,-0.053956360,1.007802129
113.447683,-0.943962097,1.491760254,-0.640884399,0.076677427,-0.048341125,0.975087285
113.463172,-1.027885437,-0.560546875,-0.625625610,0.072527036,-0.058228821,0.963246465
113.501670,0.444587708,-1.849914551,-0.885025024,0.039445985,-0.081422180,1.002186894
113.540080,-2.965751648,8.388732910,-1.007095337,0.034929384,-0.052857727,0.966542363
113.554395,-2.828422546,8.342956543,0.106796265,0.041277040,-0.066163391,0.969105840
113.569720,-3.507438660,3.971313477,-3.891006470,0.041032899,-0.106446594,0.973378301
113.608183,-2.691093445,-7.083679199,-2.914443970,0.047380555,-0.101197571,0.983754277
113.646641,-1.836601257,-27.789855957,-10.017410278,0.011980163,0.000975281,1.017445683
113.660940,0.429328918,-27.461791992,-10.986343384,-0.006574524,0.052366883,1.025868535
113.676270,0.330146790,-11.737609863,-11.253372192,-0.046125304,0.017698914,1.076283574
113.714808,-3.362480164,21.366333008,-6.027236938,0.006731140,0.033690125,1.092274785
113.753281,-4.209342957,14.744018555,-8.644119263,0.059709657,-0.013062805,1.111317754
113.767475,-5.132499695,8.335327148,-9.361282349,0.071062192,0.125487000,1.064931035
113.793547,-0.440422058,1.468872070,-5.752578735,0.108049497,0.112425476,1.047597051
113.832037,3.740486145,-16.856933594,-4.554763794,0.042741884,-0.002320617,1.048573613
113.870462,2.100166321,-7.022644043,0.007614136,0.000017273,0.003172547,1.007802129
113.884739,0.856575012,-4.161621094,-2.098098755,-0.004377258,0.000364929,1.003041387
113.900214,0.368293762,-2.254272461,-2.731338501,-0.002057923,0.028807312,0.992177129
113.938664,2.428230286,9.762023926,1.754745483,0.015764343,0.063719422,0.950429082
113.977020,3.221687317,10.563110352,0.350936890,-0.013776673,-0.094483703,0.973866582
113.991349,0.490364075,9.990905762,-0.900283813,-0.013654603,-0.126710266,0.980702519
114.006810,-4.888359070,11.303161621,1.205429077,-0.000593079,-0.060792297,0.967274785
114.055786,-4.476371765,-5.473876953,-2.899185181,0.015276061,-0.015748352,0.922597051
114.094267,-4.850212097,-6.198669434,-1.655593872,0.004167663,-0.011475891,0.926991582
114.108547,-4.400077820,-4.596496582,1.045211792,0.003557312,-0.031495422,0.927113652
114.123877,-1.355949402,-6.107116699,-2.235427856,-0.006330383,-0.022096008,0.941273808
114.162422,-6.566825867,4.741882324,-2.578750610,-0.024030579,0.012327820,0.987416387
114.200880,-4.140678406,9.472106934,-0.923171997,0.037981141,0.067869812,0.986317754
114.215058,-2.286735535,5.985473633,-0.465408325,0.047624696,0.106444031,0.984120488
114.230489,0.795539856,3.559326172,-2.281204224,0.042619813,0.109617859,0.996327519
114.268994,-2.286735535,11.150573730,6.500228882,0.034563173,-0.022096008,1.025624394
114.307498,2.878364563,-3.726745605,2.761825562,0.056047548,0.007689148,0.982899785
114.321672,3.908332825,-7.991577148,4.898056030,0.031755555,0.042601258,0.965443730
114.337159,7.593330383,-9.654785156,3.471359253,0.023332702,0.093748719,0.957875371
114.375627,10.156806946,-8.670593262,2.960189819,-0.009870423,0.002073914,1.014638066
114.424765,7.166084290,12.882446289,2.166732788,0.013078796,0.135740906,1.030140996
114.440501,9.790596008,18.558715820,0.602706909,0.033342469,0.167235047,1.031239629
114.454801,7.990058899,21.167968750,2.708419800,0.044817079,0.053709656,1.039784551
114.493164,1.718696594,9.845947266,4.173263550,0.067644224,-0.023560852,0.983388066
114.531651,0.734504700,-17.284179688,2.113327026,0.035539735,-0.059693664,0.959218144
114.546083,0.291999817,-20.015502930,2.510055542,0.018449889,-0.068482727,0.954823613
114.561463,-0.997367859,-20.854736328,3.585800171,-0.013654603,-0.054078430,0.943959355
114.599980,-0.074211121,-8.678222656,2.510055542,-0.022687806,-0.007447571,0.954335332
114.638410,-2.424064636,14.591430664,4.112228394,-0.012800111,-0.045411438,0.966908574
114.652728,-3.080192566,17.742370605,5.477890015,-0.001691712,-0.042359680,0.959950566
114.668100,-1.966300964,17.467712402,5.546554565,0.008806335,-0.042115539,0.955189824
114.706587,-3.911796570,-3.322387695,-0.358596802,0.021623718,-0.129029602,0.999745488
114.755614,5.693611145,-34.312988281,-6.721511841,0.000871765,0.022215515,1.034413457
114.769822,3.061470032,-29.636169434,-10.971084595,-0.050886046,0.021605164,1.075673223
114.785374,1.321968079,-17.833496094,-11.810317993,-0.074567690,0.034422547,1.080311894
114.823870,-0.257316589,32.749389648,-3.768936157,0.004045593,0.091185242,1.063710332
114.862279,-0.959220886,42.927001953,-0.320449829,0.089738950,0.040281922,1.111806035
114.876635,-2.233329773,41.164611816,4.348739624,0.101701841,0.105833679,1.086415410
114.891956,2.412971497,29.155944824,3.303512573,0.132585630,0.037230164,1.074208379
114.930479,0.208076477,-23.326660156,3.936752319,0.075700864,0.005369812,1.042836308
114.969007,1.779731750,-46.527648926,3.196701050,0.017107116,0.112303406,0.988881230
114.983171,3.702339172,-47.427917480,2.136215210,0.000383484,0.139403015,0.984852910
114.998631,3.549751282,-38.699890137,2.479537964,-0.037824523,0.086424500,0.972890019
115.037070,4.892524719,-2.078796387,3.898605347,-0.058942687,-0.062867492,0.959828496
115.075552,0.040229797,15.194152832,1.251205444,-0.033552062,-0.044801086,0.945546269
115.101667,0.238594055,24.654602051,1.724227905,0.021135436,-0.016236633,0.968373418
115.116018,-3.301445007,21.351074219,1.907333374,0.044328798,-0.024171203,0.981679082
115.154372,-3.995719910,6.084655762,0.671371460,0.062761411,-0.021851867,0.994008183
115.192824,-4.270378113,-10.562683105,2.311691284,0.053972352,0.071653992,1.001820683
115.206990,-4.186454773,-19.481445312,6.607040405,0.046526063,-0.043092102,1.057606816
115.222671,-7.177177429,-26.813293457,2.738937378,0.031267274,-0.081300110,1.073231816
115.261151,-8.619132996,-31.162048340,0.282272339,-0.020002259,0.094237000,1.045888066
115.299613,-3.896537781,-0.629211426,4.577621460,-0.044538390,0.054686219,1.065419316
115.313900,-4.766288757,5.878662109,3.562911987,-0.042096984,-0.021363586,1.081044316
115.329365,-8.466545105,13.614868164,-1.190200806,-0.024274720,-0.019654602,1.075062871
115.367836,-4.476371765,24.257873535,2.151473999,0.071184263,0.147947937,0.979237676
115.416825,0.879463196,5.062316895,5.233749390,0.055315126,-0.026002258,1.022328496
115.431063,2.390083313,-1.186157227,2.510055542,0.042497743,-0.026612610,1.017567754
115.446539,0.490364075,-10.577941895,0.289901733,0.035905946,-0.010987610,1.020131230
115.484999,3.954109192,-10.509277344,-1.403823853,0.020158874,0.102415711,1.030873418
115.523466,-1.523796082,7.450317383,3.822311401,0.013322936,0.075438172,0.972279668
115.537629,-1.119438171,8.396362305,3.753646851,0.014299499,0.004881531,0.965932012
115.553070,-1.859489441,6.847595215,1.090988159,0.009294616,-0.067384094,0.954335332
115.591552,-4.117790222,4.368041992,0.381454468,0.011369811,-0.105347961,0.929677129
115.629969,-1.157585144,-9.433532715,-5.035415649,0.038957704,0.021605164,0.907460332
115.644260,-2.034965515,-6.427551270,-3.540054321,0.019304382,-0.018800110,0.934926152
115.659574,-5.338493347,-0.919128418,-1.060501099,0.010759460,-0.022584289,0.930775762
115.698118,-3.408256531,10.273193359,0.884994507,0.038469423,0.008299500,0.897084355
115.736547,-1.546684265,15.133117676,0.007614136,0.019182311,-0.067750305,0.969716191
115.750832,-3.293815613,18.741821289,3.211959839,0.018327819,-0.081666321,0.973622441
115.766345,-3.934684753,17.139648438,3.189071655,0.036760438,-0.133057922,0.989857793
115.767182,-3.934684753,17.139648438,3.189071655,0.036760438,-0.133057922,0.989857793
115.767868,-3.934684753,17.139648438,3.189071655,0.036760438,-0.133057922,0.989857793
115.768601,-3.934684753,17.139648438,3.189071655,0.036760438,-0.133057922,0.989857793
115.769284,-3.934684753,17.139648438,3.189071655,0.036760438,-0.133057922,0.989857793
115.770008,-3.934684753,17.139648438,3.189071655,0.036760438,-0.133057922,0.989857793
115.770685,-3.934684753,17.139648438,3.189071655,0.036760438,-0.133057922,0.989857793
115.771422,-6.017509460,10.059570312,0.434860229,0.045305360,-0.173707336,0.992299199
115.772090,-6.017509460,10.059570312,0.434860229,0.045305360,-0.173707336,0.992299199
115.772812,-6.017509460,10.059570312,0.434860229,0.045305360,-0.173707336,0.992299199
115.811217,3.175910950,-16.238952637,-11.764541626,0.000261413,-0.005250305,1.026112676
115.849602,-3.415885925,2.529357910,-3.456130981,-0.017194642,-0.052491516,1.033681035
115.863936,-0.707450867,6.145690918,-8.857742310,-0.004499329,-0.115723938,1.045155644
115.879240,-3.843132019,7.854675293,-8.293167114,0.008684264,-0.165528625,1.044911504
115.917760,4.274543762,10.463928223,-6.919876099,0.051653016,0.044188172,1.003529668
115.956157,7.738288879,5.115722656,-3.814712524,0.059709657,0.088377625,1.021229863
115.970469,2.351936340,2.987121582,0.946029663,0.041399110,-0.041627258,1.036488652
115.985769,-0.135246277,0.370239258,1.022323608,0.036638368,0.016600281,1.013295293
116.024226,0.627693176,-17.062927246,0.122055054,0.040910829,-0.001099914,0.977528691
116.062662,5.380805969,-18.878723145,-0.862136841,0.010637389,0.069334656,0.918934941
116.076827,4.373725891,-14.034057617,1.045211792,0.005754577,0.061888367,0.908803105
116.092328,7.623847961,-6.763244629,-0.823989868,0.001726257,0.067991883,0.885853887
116.093030,7.623847961,-6.763244629,-0.823989868,0.001726257,0.067991883,0.885853887
116.104374,9.920295715,-2.460266113,-0.137344360,-0.000837219,0.008177429,0.895131230
116.153475,3.275093079,19.497131348,1.045211792,0.007951843,-0.067994446,0.902943730
116.191971,2.802070618,7.267211914,-3.379837036,0.055315126,-0.010621399,0.896596074
116.206261,3.809150696,3.795837402,-3.021255493,0.056291688,-0.031739563,0.911000371
116.221754,1.123603821,-0.110412598,0.762924194,0.051408876,-0.062379211,0.938344121
116.260235,2.023872375,-14.461303711,0.869735718,0.029192077,-0.019044250,0.946644902
116.298616,-0.913444519,1.026367188,3.387435913,-0.032331359,0.020384461,1.032948613
116.313073,-2.019706726,8.838867188,5.622848511,-0.021100892,0.044188172,1.031361699
116.328475,-0.181022644,11.165832520,2.746566772,0.005266296,0.053099304,1.040150762
116.367056,-2.500358582,4.810546875,1.655563354,0.013078796,0.051878601,1.047841191
116.405517,-4.873100281,8.983825684,3.807052612,0.015764343,-0.063844055,1.068837285
116.419684,-3.736320496,5.321716309,3.250106812,0.052019227,0.136351258,1.000599980
116.435129,1.947578430,-0.064636230,1.426681519,0.064592466,0.202879578,0.987416387
116.435842,1.947578430,-0.064636230,1.426681519,0.064592466,0.202879578,0.987416387
116.474174,9.508308411,-2.567077637,7.476791382,0.006609070,0.201292664,0.966908574
116.512622,11.751350403,-12.050415039,3.211959839,-0.006330383,-0.090211242,1.046132207
116.526798,15.451606750,-18.008972168,-7.469192505,-0.020856751,0.079344422,1.041493535
116.542297,14.391120911,-12.912536621,-6.919876099,-0.026105775,0.020872742,1.056141973
116.580717,7.730659485,8.548950195,-0.846878052,0.060197938,0.166746765,1.031849980
116.619171,0.467475891,1.041625977,1.663192749,0.077653989,0.060667664,1.025624394
116.633455,1.512702942,-0.369812012,1.136764526,0.071916685,0.032713562,1.010609746
116.648932,-0.875297546,-2.643371582,7.385238647,0.081682310,-0.062135071,1.010853887
116.687416,0.917610168,-28.133178711,0.480636597,0.041154969,-0.027345031,0.995961308
116.736359,-0.272575378,-0.163818359,3.768905640,-0.020002259,-0.030396789,1.018910527
116.752045,-3.362480164,8.983825684,5.821212769,-0.019513978,-0.067262024,1.030140996
116.766189,-5.353752136,16.147827148,1.388534546,0.005998718,-0.046632141,1.027699590
116.804522,-9.656730652,20.145629883,2.197250366,0.028581725,-0.095216125,1.026234746
116.842975,-7.459465027,7.709716797,0.457748413,0.061662782,-0.121949524,1.054921269
116.857264,-7.665458679,-9.288574219,-3.120437622,0.052629579,-0.000611633,1.054310918
116.872580,-5.140129089,-16.849304199,-8.911148071,0.038835634,0.006712586,1.065297246
116.921610,-5.414787292,-7.098937988,-3.166213989,0.022844421,0.121824890,1.052479863
116.960130,-3.232780457,-0.827575684,-4.707351685,0.026750671,0.054686219,1.082020879
116.974287,-0.554862976,6.748413086,-3.791824341,0.023576843,0.111693054,1.055775762
116.989797,0.940498352,10.944580078,-1.792922974,0.034441102,0.094969422,1.048817754
117.028295,2.969917297,8.793090820,0.816329956,0.039934266,-0.111085266,1.063466191
117.066692,-2.103630066,-8.853698730,-0.694290161,0.016496764,-0.029054016,0.995961308
117.081022,-1.172843933,-14.110351562,-1.983657837,0.017107116,-0.061036438,0.993886113
117.096491,-6.765190125,-22.609497070,-1.579299927,0.016740905,-0.006593078,0.960194707
117.097305,-6.765190125,-22.609497070,-1.579299927,0.016740905,-0.006593078,0.960194707
117.098037,-6.765190125,-22.609497070,-1.579299927,0.016740905,-0.006593078,0.960194707
117.098682,-6.765190125,-22.609497070,-1.579299927,0.016740905,-0.006593078,0.960194707
117.099316,-6.765190125,-22.609497070,-1.579299927,0.016740905,-0.006593078,0.960194707
117.137697,1.558479309,-21.785522461,-1.663223267,-0.009015931,0.089110047,0.889760137
117.176141,5.541023254,-2.956176758,0.617965698,-0.027814759,-0.039918274,0.906117558
117.190419,3.160652161,-0.179077148,-0.236526489,-0.027204407,-0.095948547,0.922230840
117.205903,1.627143860,3.902648926,-4.409805298,-0.033063781,-0.018678039,0.922474980
117.244359,-4.987541199,17.307495117,-1.426712036,0.001360046,-0.065430969,0.949696660
117.282833,-6.841484070,5.100463867,-4.501358032,0.029924499,-0.080323547,0.962025762
117.309131,-4.125419617,-1.102233887,-5.668655396,0.029802429,0.067381531,0.952015996
117.323487,-2.744499207,-6.740356445,-2.098098755,0.032976259,-0.074464172,0.995473027
117.361825,-3.568473816,-16.223693848,-8.079544067,0.000627624,0.025633484,1.003285527
117.400297,-2.683464050,2.109741211,-4.013076782,-0.003156555,0.103148133,1.022816777
117.414479,-2.820793152,14.431213379,1.724227905,0.014299499,0.047117859,1.034657598
117.429961,-2.736869812,17.269348145,1.983627319,0.012834655,0.012816101,1.034535527
117.430700,-2.736869812,17.269348145,1.983627319,0.012834655,0.012816101,1.034535527
117.469053,-2.294364929,22.762512207,-4.348770142,0.021379577,0.063353211,1.027089238
117.507553,5.708869934,28.103088379,1.174911499,0.086443052,0.096800476,1.015614629
117.521844,4.778083801,19.153808594,4.753097534,0.088274106,0.035032898,1.015492558
117.537318,5.899604797,12.417053223,2.784713745,0.077776060,0.038572937,1.013173223
117.575780,2.184089661,-5.435729980,2.082809448,0.055681337,0.015501648,1.021840215
117.624797,3.900703430,-11.180664062,-2.494827271,0.021867858,0.084837586,0.986683965
117.639274,3.061470032,-4.726196289,-1.663223267,0.017961608,0.123045594,0.971547246
117.654788,6.227668762,8.182739258,0.503524780,0.029558288,0.019285828,0.965077519
117.693255,2.481636047,7.885192871,-1.876846313,0.060075868,-0.013062805,0.932606816
117.731697,-1.478019714,3.681396484,-0.045791626,0.062639341,0.025389344,0.918202519
117.746021,1.390632629,2.506469727,0.709518433,0.074236020,0.011595398,0.914296269
117.761340,0.162300110,-2.139831543,0.289901733,0.076799497,-0.057008117,0.929432988
117.762187,0.162300110,-2.139831543,0.289901733,0.076799497,-0.057008117,0.929432988
117.800572,-0.165763855,3.689025879,2.197250366,0.029680358,-0.068482727,0.941640019
117.839018,-0.898185730,9.227966309,3.738388062,0.055315126,-0.052247375,0.936513066
117.863983,-0.043693542,3.544067383,1.266464233,0.035783876,-0.146851867,0.984364629
117.879625,-6.849113464,0.126098633,2.357467651,0.004778015,-0.093873352,0.974843144
117.918074,0.017341614,-24.280334473,-6.248489380,0.008806335,-0.068360656,1.029164433
117.956576,-0.936332703,-30.490661621,-8.911148071,-0.040876281,0.046507508,1.026356816
117.970900,-0.272575378,-19.305969238,-13.984695435,-0.047346007,0.116697937,1.013295293
117.986402,2.809700012,-11.722351074,-13.664260864,-0.015729798,0.171263367,1.014027715
118.024822,8.890327454,18.345092773,-6.256118774,0.016618835,0.082274109,1.054310918
118.063334,10.790046692,36.777709961,1.411422729,0.037614930,-0.022462219,1.090199590
118.077642,5.693611145,32.978271484,2.983078003,0.058244813,-0.047852844,1.100941777
118.093112,4.778083801,26.371215820,3.753646851,0.068864927,0.003782898,1.094472051
118.093831,4.778083801,26.371215820,3.753646851,0.068864927,0.003782898,1.094472051
118.132102,1.283821106,-11.394287109,0.061019897,0.070573911,0.078001648,1.072621465
118.170553,2.901252747,-30.574584961,1.594528198,0.023088561,0.101072937,0.990834355
118.184862,3.641304016,-31.741882324,1.373275757,0.005388367,0.087523133,0.986073613
118.200318,2.756294250,-25.813842773,1.052841187,-0.027570618,0.055296570,0.972645879
118.238768,0.253852844,-3.703857422,5.668624878,-0.029157532,-0.061646789,0.980336308
118.287769,-5.887809753,8.434509277,1.579269409,-0.033918273,-0.069703430,0.994984746
118.302105,-7.726493835,11.585449219,1.480087280,-0.023542298,-0.034791321,0.985341191
118.317436,-6.528678894,11.425231934,1.228317261,0.004289734,0.015623719,0.971303105
118.356013,-3.362480164,3.109191895,-0.320449829,0.002946960,0.085447937,1.008046269
118.394488,-4.529777527,5.863403320,1.853927612,-0.031110657,-0.062745422,1.050038457
118.408794,-9.519401550,1.766418457,1.235946655,-0.016706361,-0.079102844,1.052846074
118.424274,-11.548820496,-2.605224609,-0.587478638,-0.009748353,-0.025758117,1.039540410
118.424994,-9.252372742,-8.411193848,-3.196731567,-0.004377258,-0.017823547,1.032338262
118.425590,-9.252372742,-8.411193848,-3.196731567,-0.004377258,-0.017823547,1.032338262
118.463954,-6.749931335,-14.980102539,-4.081741333,-0.015241517,0.106932312,0.999745488
118.513111,-1.607719421,-8.006835938,-7.614151001,-0.027936829,0.020750672,1.043568730
118.527553,-1.058403015,-1.926208496,-7.553115845,-0.006818665,0.154417664,1.040394902
118.543075,-0.608268738,4.436706543,-8.087173462,-0.008771790,0.156981140,1.041737676
118.581565,-2.210441589,24.204467773,4.295333862,0.060686219,0.104002625,1.010731816
118.620007,-6.505790710,-3.413940430,1.541122437,0.055559266,-0.066163391,1.010487676
118.634359,-4.171195984,-15.193725586,-1.350418091,0.034807313,0.103758484,0.953114629
118.649848,-1.394096375,-21.152282715,-2.426162720,0.042375673,0.070677429,0.947255254
118.688279,5.205329895,-28.278137207,-6.736770630,-0.008771790,0.212156922,0.924061894
118.726740,1.131233215,9.395812988,2.708419800,-0.028425111,-0.030885071,0.935170293
118.741048,2.161201477,14.858459473,0.648483276,-0.020368470,-0.043092102,0.929310918
118.756516,1.299079895,21.045898438,-0.183120728,-0.002912415,-0.155274719,0.945424199
118.757320,1.299079895,21.045898438,-0.183120728,-0.002912415,-0.155274719,0.945424199
118.795765,-1.607719421,20.237182617,-0.511184692,0.055559266,-0.085084289,0.926991582
118.796512,-1.607719421,20.237182617,-0.511184692,0.055559266,-0.085084289,0.926991582
118.797175,-1.607719421,20.237182617,-0.511184692,0.055559266,-0.085084289,0.926991582
118.797815,-1.607719421,20.237182617,-0.511184692,0.055559266,-0.085084289,0.926991582
118.798450,-1.607719421,20.237182617,-0.511184692,0.055559266,-0.085084289,0.926991582
118.799090,-1.607719421,20.237182617,-0.511184692,0.055559266,-0.085084289,0.926991582
118.799720,-1.607719421,20.237182617,-0.511184692,0.055559266,-0.085084289,0.926991582
118.800372,-1.607719421,20.237182617,-0.511184692,0.055559266,-0.085084289,0.926991582
118.801000,-1.607719421,20.237182617,-0.511184692,0.055559266,-0.085084289,0.926991582
118.801643,-1.607719421,20.237182617,-0.511184692,0.055559266,-0.085084289,0.926991582
118.802286,-1.607719421,20.237182617,-0.511184692,0.055559266,-0.085084289,0.926991582
118.802933,-3.866020203,15.529846191,0.701889038,0.069475278,-0.108643860,0.924672246
118.803562,-3.866020203,15.529846191,0.701889038,0.069475278,-0.108643860,0.924672246
118.804216,-3.866020203,15.529846191,0.701889038,0.069475278,-0.108643860,0.924672246
118.842531,1.260932922,-13.767028809,-6.614700317,0.060197938,-0.037354797,0.938954473
118.856703,-1.462760925,-14.995361328,-4.982009888,0.046037782,-0.053468078,0.948842168
118.872154,-3.026786804,-13.995910645,-1.953140259,0.032610048,-0.020387024,0.940419316
118.921111,1.230415344,-14.812255859,-3.646865845,0.016496764,-0.021119446,0.980092168
118.959657,-1.493278503,9.830688477,-3.089920044,-0.026960267,0.053953797,1.037953496
118.973939,-2.942863464,20.740722656,-0.076309204,0.001115906,-0.026246399,1.062611699
118.989473,-4.201713562,20.038818359,-2.204910278,0.013445007,-0.005250305,1.062855840
119.027945,-2.301994324,14.644836426,-3.524795532,0.004045593,-0.113770813,1.094472051
119.066384,-3.644767761,8.556579590,-7.316604614,0.070085630,-0.032960266,1.069325566
119.080727,-4.499259949,-1.498962402,-3.433242798,0.096208677,-0.031007141,1.067738652
119.096206,-4.873100281,-8.914733887,-4.524246216,0.105730161,0.017820984,1.055653691
119.134691,-2.607170105,-24.539733887,1.487716675,0.056413759,0.057005554,1.000844121
119.173122,2.969917297,-35.754943848,1.983627319,0.018816100,0.079100281,0.949452519
119.187444,3.366645813,-37.074829102,-0.099197388,-0.003278626,0.044188172,0.943715215
119.202748,4.656013489,-30.910278320,-2.555862427,-0.044050109,0.086912781,0.913685918
119.241262,8.585151672,4.635070801,0.602706909,-0.045270812,-0.059449524,0.932973027
119.279720,2.443489075,24.967407227,-5.119338989,-0.009992493,-0.111939758,0.957875371
119.294010,0.589546204,26.973937988,-5.264297485,0.014787780,-0.076051086,0.955922246
119.309340,0.124153137,25.081848145,-4.043594360,0.061906923,-0.020387024,0.949818730
119.347878,-0.516716003,10.662292480,-5.607620239,0.095720395,-0.026612610,0.986195683
119.386410,-4.728141785,-6.427551270,-2.151504517,0.115617856,-0.036622375,1.000599980
119.412324,-3.690544128,-17.146850586,0.251754761,0.078874692,0.026487976,0.992787480
119.426762,-1.165214539,-17.200256348,-0.747695923,0.056779969,0.039793640,1.004872441
119.465110,-7.825675964,17.368530273,9.712203979,0.006364929,-0.004884094,1.079213262
119.503598,-6.612602234,19.695495605,3.723129272,0.046159852,0.030638367,1.071889043
119.517901,-5.903068542,18.490051270,2.243026733,0.039201844,-0.095338196,1.101552129
119.533417,-9.153190613,20.855163574,6.736740112,0.029802429,-0.093018860,1.102528691
119.582388,-10.549369812,-9.189392090,-0.617996216,0.116716489,0.077391297,1.082631230
119.620875,-3.431144714,-12.874389648,7.629379272,0.039934266,0.073118836,1.026967168
119.635231,-2.439323425,-11.226440430,10.704025269,0.034563173,0.044310242,1.017323613
119.650543,1.115974426,-13.911987305,7.652267456,0.017595397,-0.036744446,1.018544316
119.689087,3.511604309,-16.605163574,-2.113357544,-0.029035462,0.096922547,0.988759160
119.727591,2.229866028,8.518432617,0.038131714,0.003313171,0.076780945,0.991444707
119.741752,3.549751282,13.363098145,-0.770584106,0.013322936,0.068602234,0.990712285
119.757083,1.032051086,21.030639648,1.747116089,0.034441102,-0.038087219,0.990590215
119.795619,-0.692192078,22.869323730,3.868087769,0.072404966,-0.028809875,0.958363652
119.834116,-3.202262878,0.194763184,6.912216187,0.101335630,-0.038331360,0.946766973
119.848279,0.009712219,-12.187744141,7.362350464,0.050310243,-0.036256164,0.942860723
119.863606,-0.936332703,-15.315795898,6.042465210,0.024309264,-0.074830383,0.952138066
119.902157,-3.446403503,-14.514709473,5.279525757,-0.007184876,-0.094361633,0.965565801
119.940643,-6.246391296,-7.602478027,0.892623901,-0.022199525,-0.061158508,0.932118535
119.954809,-6.254020691,-3.917480469,0.793441772,-0.026227845,-0.085816711,0.934926152
119.970311,-5.399528503,2.987121582,2.479537964,-0.010724915,-0.048096985,0.952626348
120.008726,-7.520500183,-3.642822266,-3.128067017,0.011369811,-0.059083313,1.006337285
120.047193,-5.483451843,-4.848266602,-3.936782837,0.011736022,0.059202820,1.001942754
120.061355,-3.965202332,-2.811218262,-3.837600708,0.014543639,0.025511414,1.011830449
120.076899,-5.933586121,2.681945801,-2.235427856,0.018816100,-0.009278625,1.020863652
120.077621,-5.933586121,2.681945801,-2.235427856,0.018816100,-0.009278625,1.020863652
120.078257,-5.933586121,2.681945801,-2.235427856,0.018816100,-0.009278625,1.020863652
120.078905,-5.933586121,2.681945801,-2.235427856,0.018816100,-0.009278625,1.020863652
120.079514,-5.933586121,2.681945801,-2.235427856,0.018816100,-0.009278625,1.020863652
120.080163,-5.933586121,2.681945801,-2.235427856,0.018816100,-0.009278625,1.020863652
120.080779,-5.933586121,2.681945801,-2.235427856,0.018816100,-0.009278625,1.020863652
120.081427,-5.933586121,2.681945801,-2.235427856,0.018816100,-0.009278625,1.020863652
120.082045,-5.933586121,2.681945801,-2.235427856,0.018816100,-0.009278625,1.020863652
120.082695,-5.933586121,2.681945801,-2.235427856,0.018816100,-0.009278625,1.020863652
120.083314,-5.933586121,2.681945801,-2.235427856,0.018816100,-0.009278625,1.020863652
120.121736,2.130683899,12.096618652,-3.242507935,0.029192077,0.043577820,0.992055058
120.122456,2.130683899,12.096618652,-3.242507935,0.029192077,0.043577820,0.992055058
120.123071,2.130683899,12.096618652,-3.242507935,0.029192077,0.043577820,0.992055058
120.123703,2.130683899,12.096618652,-3.242507935,0.029192077,0.043577820,0.992055058
120.161828,6.708320618,19.375061035,1.602157593,0.054460634,-0.040406555,1.012074590
120.176260,3.870185852,12.729858398,0.007614136,0.057634462,-0.132569641,1.020741582
120.191608,1.802619934,7.656311035,-0.343338013,0.066789731,-0.098023742,1.008046269
120.240789,2.504524231,-20.091796875,1.068099976,0.066789731,0.002928406,0.945302129
120.279343,7.936653137,-21.625305176,3.082260132,0.021867858,0.059202820,0.882191777
120.293514,10.545906067,-14.629150391,7.072433472,-0.003400696,0.042601258,0.872059941
120.308834,12.773689270,-11.981750488,6.278976440,-0.016462220,0.008909851,0.880604863
120.347411,10.744270325,-1.079345703,1.800521851,-0.040021788,-0.070924133,0.937733769
120.396458,-0.074211121,13.988708496,-0.068679810,-0.014753236,-0.057984680,0.979725957
120.410822,0.436958313,15.056823730,-1.960769653,-0.011945618,-0.057862610,0.973378301
120.426307,-2.126518250,16.529296875,-1.747146606,-0.003888977,-0.073975891,0.980092168
120.464757,-0.776115417,21.190856934,0.854476929,0.004289734,-0.057130188,1.034657598
120.503170,-4.957023621,16.681884766,-1.068130493,-0.007795227,0.119993836,1.012074590
120.517530,-2.416435242,16.216491699,-0.328079224,-0.004743469,0.127562195,1.023060918
120.532854,-3.103080750,16.460632324,2.738937378,-0.002302063,0.080076844,1.053822637
120.571376,-2.126518250,4.474853516,0.366195679,-0.035627257,-0.113770813,1.048817754
120.609789,-2.843681335,-11.386657715,-5.981460571,-0.010358704,-0.004151672,1.010487676
120.624113,2.741035461,-13.843322754,-5.729690552,0.001726257,0.081419617,0.982655644
120.639439,4.854377747,-12.134338379,-4.219070435,-0.003156555,0.104490906,0.976307988
120.677960,14.993843079,7.663940430,-0.961318970,-0.016828431,-0.010865539,1.003041387
120.716450,13.269599915,10.311340332,-3.257766724,0.015520202,0.030516297,1.008290410
120.730629,12.590583801,6.595825195,-7.453933716,0.017595397,-0.002076477,1.033558965
120.745966,10.111030579,6.466125488,-7.507339478,0.024431335,0.020384461,1.033192754
120.746717,10.111030579,6.466125488,-7.507339478,0.024431335,0.020384461,1.033192754
120.785094,5.510505676,15.224670410,-2.342239380,0.066789731,0.033690125,1.012684941
120.823609,9.584602356,11.944030762,0.610336304,0.096330747,0.033079773,1.015858769
120.837775,6.479438782,11.501525879,6.004318237,0.098039731,-0.062989563,1.038807988
120.863790,0.398811340,-2.147460938,5.714401245,0.069719419,-0.063355774,1.025136113
120.902392,-1.325431824,-20.610595703,2.235397339,0.029680358,-0.001954406,1.019398808
120.940841,-5.903068542,-9.212280273,4.600509644,-0.021833314,-0.025147766,1.007435918
120.955142,-4.354301453,-6.755615234,3.974899292,-0.013654603,-0.037476867,1.007069707
120.970665,-6.009880066,-3.688598633,2.090438843,-0.005964173,-0.117677063,1.032094121
121.009172,-5.246940613,6.130432129,4.524215698,-0.023298157,-0.054444641,1.022328496
121.047614,-6.940666199,-1.048828125,-0.389114380,-0.011213196,-0.019288391,1.058095098
121.061961,-3.194633484,-8.975769043,-5.111709595,-0.019147767,0.028563172,1.083119512
121.077297,-4.094902039,-8.945251465,-5.134597778,-0.032453429,-0.007569641,1.096425176
121.078061,-6.131950378,-6.480957031,-2.906814575,-0.043195616,0.017698914,1.103016973
121.078716,-6.131950378,-6.480957031,-2.906814575,-0.043195616,0.017698914,1.103016973
121.117154,-5.231681824,-0.972534180,-1.861587524,-0.037092101,0.057860047,1.097890019
121.155547,-7.726493835,-5.916381836,-7.476821899,-0.020490540,0.042235047,1.079213262
121.169897,-4.194084167,-1.117492676,-5.188003540,-0.008283509,0.105467469,1.032948613
121.185218,-1.874748230,0.942443848,-4.058853149,0.005144226,0.079588562,1.024891973
121.223715,-0.524345398,-2.254272461,-2.174392700,-0.001203430,-0.077027649,1.023060918
121.262199,-2.080741882,-9.708190918,-3.227249146,0.004167663,-0.025025696,0.957020879
121.276365,-1.004997253,-12.416625977,-3.295913696,0.011858093,0.010862976,0.947621465
121.291841,-0.989738464,-15.033508301,-0.610366821,0.011125671,0.046507508,0.923451543
121.330291,5.289253235,-11.127258301,1.464828491,-0.023664368,0.032225281,0.904774785
121.379338,1.047309875,3.193115234,0.488265991,-0.045148741,-0.091187805,0.923817754
121.395030,-0.142875671,4.253601074,-1.579299927,-0.044050109,-0.091065735,0.924794316
121.409365,-1.981559753,7.572387695,-2.578750610,-0.025617493,-0.044679016,0.917348027
121.410021,-1.981559753,7.572387695,-2.578750610,-0.025617493,-0.044679016,0.917348027
121.448281,-4.491630554,2.338623047,-1.144424438,0.016374694,-0.041261047,0.923329473
121.486758,-4.674736023,-5.039001465,-1.655593872,-0.011701478,-0.023804992,0.932484746
121.500923,-5.101982117,-3.017211914,-0.236526489,-0.016096009,-0.015138000,0.928090215
121.527069,-3.415885925,-4.810119629,3.013595581,-0.004377258,-0.073365539,0.955189824
121.576059,-3.690544128,3.650878906,-3.448501587,-0.070783511,0.063231140,1.011586308
121.614596,-2.965751648,18.604492188,4.829391479,-0.009015931,-0.043946594,1.022206426
121.628884,-0.570121765,8.793090820,0.915512085,-0.000348938,-0.052735656,1.019276738
121.644412,2.268013000,3.078674316,-1.182571411,-0.009748353,-0.069703430,1.034779668
121.682916,-2.111259460,-6.076599121,-5.638137817,-0.017560853,0.077025086,0.986073613
121.683629,-2.111259460,-6.076599121,-5.638137817,-0.017560853,0.077025086,0.986073613
121.684250,3.305610657,-6.343627930,-5.287185669,0.002824890,0.108763367,0.973134160
121.684868,3.305610657,-6.343627930,-5.287185669,0.002824890,0.108763367,0.973134160
121.685477,3.305610657,-6.343627930,-5.287185669,0.002824890,0.108763367,0.973134160
121.686098,3.305610657,-6.343627930,-5.287185669,0.002824890,0.108763367,0.973134160
121.686700,3.305610657,-6.343627930,-5.287185669,0.002824890,0.108763367,0.973134160
121.687329,3.305610657,-6.343627930,-5.287185669,0.002824890,0.108763367,0.973134160
121.687933,3.305610657,-6.343627930,-5.287185669,0.002824890,0.108763367,0.973134160
121.688552,3.305610657,-6.343627930,-5.287185669,0.002824890,0.108763367,0.973134160
121.689168,3.305610657,-6.343627930,-5.287185669,0.002824890,0.108763367,0.973134160
121.689784,3.305610657,-6.343627930,-5.287185669,0.002824890,0.108763367,0.973134160
121.690387,3.305610657,-6.343627930,-5.287185669,0.002824890,0.108763367,0.973134160
121.728729,3.656562805,-0.209594727,0.030502319,0.004167663,0.045408875,1.003163457
121.743011,5.953010559,3.589843750,-0.770584106,-0.008161439,0.049681336,0.995961308
121.758548,6.677803040,11.203979492,0.946029663,0.004900085,-0.018311828,1.005116582
121.796958,9.218391418,11.272644043,-3.921524048,0.033830751,0.068602234,1.019520879
121.835431,7.478889465,11.554931641,-2.021804810,0.045061219,0.037718445,0.986928105
121.849602,7.768806458,9.823059082,-1.060501099,0.055315126,-0.009766906,0.993275762
121.865131,4.083808899,6.061767578,2.189620972,0.062151063,-0.043824524,0.982411504
121.903635,3.801521301,-5.527282715,4.417404175,0.039568055,-0.090211242,0.970570683
121.942025,5.533393860,-16.216064453,-0.862136841,0.021501647,-0.037598938,0.974110723
121.956356,2.153572083,-14.140869141,1.815780640,0.004289734,-0.048707336,0.978993535
121.971719,1.253303528,-11.653686523,1.083358765,-0.011701478,-0.021607727,0.977406621
122.010213,-1.790824890,3.101562500,0.488265991,-0.009626282,-0.051514953,0.987416387
122.010931,-1.790824890,3.101562500,0.488265991,-0.009626282,-0.051514953,0.987416387
122.011531,-1.790824890,3.101562500,0.488265991,-0.009626282,-0.051514953,0.987416387
122.012153,-1.790824890,3.101562500,0.488265991,-0.009626282,-0.051514953,0.987416387
122.012764,-0.974479675,5.230163574,-2.189651489,-0.009626282,-0.021485656,0.995473027
122.013394,-0.974479675,5.230163574,-2.189651489,-0.009626282,-0.021485656,0.995473027
122.013995,-0.974479675,5.230163574,-2.189651489,-0.009626282,-0.021485656,0.995473027
122.014620,-0.974479675,5.230163574,-2.189651489,-0.009626282,-0.021485656,0.995473027
122.015224,-0.974479675,5.230163574,-2.189651489,-0.009626282,-0.021485656,0.995473027
122.015849,-0.974479675,5.230163574,-2.189651489,-0.009626282,-0.021485656,0.995473027
122.016457,-0.974479675,5.230163574,-2.189651489,-0.009626282,-0.021485656,0.995473027
122.017073,-0.974479675,5.230163574,-2.189651489,-0.009626282,-0.021485656,0.995473027
122.017680,-0.974479675,5.230163574,-2.189651489,-0.009626282,-0.021485656,0.995473027
122.018311,-0.974479675,5.230163574,-2.189651489,-0.009626282,-0.021485656,0.995473027
122.018920,-0.974479675,5.230163574,-2.189651489,-0.009626282,-0.021485656,0.995473027
122.019542,-0.974479675,5.230163574,-2.189651489,-0.009626282,-0.021485656,0.995473027
122.020151,-0.974479675,5.230163574,-2.189651489,-0.009626282,-0.021485656,0.995473027
122.058516,-6.597343445,13.042663574,-0.549331665,0.018938171,-0.060059875,0.999013066
122.072677,-3.644767761,6.672119141,-2.029434204,0.029070007,-0.085816711,1.014393926
122.098734,-3.591362000,-3.238464355,-5.134597778,0.030412780,-0.022096008,1.046498418
122.137275,-4.850212097,-0.209594727,-2.204910278,-0.010724915,0.036131531,1.077992558
122.186273,-2.507987976,7.465576172,-4.669204712,-0.008039368,-0.100831360,1.141102910
122.200676,-6.398979187,10.189270020,-3.204360962,-0.004499329,-0.071900696,1.129506230
122.216021,-4.712882996,14.766906738,-3.257766724,0.003679382,0.034910828,1.086415410
122.254541,-0.638786316,9.144042969,-2.258316040,0.044328798,0.040892273,1.069569707
122.292965,-2.698722839,-2.582336426,0.267013550,0.007341492,-0.070802063,1.061513066
122.307286,-4.178825378,-4.833007812,3.227218628,0.007341492,-0.051270813,1.046864629
122.322901,-5.033317566,-9.815002441,3.906234741,-0.008771790,0.001585633,1.007924199
122.361381,-3.400627136,-20.694519043,2.937301636,-0.031476866,0.120726258,0.946644902
122.399853,1.154121399,-13.278747559,2.403244019,-0.082624331,-0.022218078,0.918568730
122.414035,1.009162903,-9.158874512,2.304061890,-0.098493472,-0.052003235,0.914540410
122.429451,1.276191711,-5.222106934,0.221237183,-0.108014956,-0.068726867,0.917348027
122.467944,-3.591362000,5.115722656,-2.052322388,-0.033307921,-0.055054992,0.925160527
122.506413,-4.300895691,-5.183959961,-6.698623657,-0.005842102,-0.036256164,0.932484746
122.520695,-3.530326843,-3.055358887,-6.713882446,-0.007306946,-0.017579406,0.944203496
122.536034,-5.048576355,1.056884766,-3.219619751,-0.001569641,-0.035279602,0.951527715
122.574593,-4.278007507,-2.750183105,-0.419631958,0.022234069,-0.022828430,0.965321660
122.613062,-8.909049988,-10.043884277,-3.547683716,-0.022199525,-0.025758117,1.009266973
122.627355,-8.222404480,-5.855346680,-2.784744263,-0.022687806,0.050657898,0.998402715
122.642702,-7.192436218,2.155517578,3.837570190,0.006853210,0.006712586,1.003163457
122.643466,-7.192436218,2.155517578,3.837570190,0.006853210,0.006712586,1.003163457
122.644115,-7.192436218,2.155517578,3.837570190,0.006853210,0.006712586,1.003163457
122.644759,-7.192436218,2.155517578,3.837570190,0.006853210,0.006712586,1.003163457
122.645479,-7.192436218,2.155517578,3.837570190,0.006853210,0.006712586,1.003163457
122.646100,-7.192436218,2.155517578,3.837570190,0.006853210,0.006712586,1.003163457
122.646817,-7.192436218,2.155517578,3.837570190,0.006853210,0.006712586,1.003163457
122.647437,-7.192436218,2.155517578,3.837570190,0.006853210,0.006712586,1.003163457
122.648059,-7.192436218,2.155517578,3.837570190,0.006853210,0.006712586,1.003163457
122.648703,-7.512870789,1.415466309,2.792343140,0.006853210,0.027952820,1.007191777
122.649333,-7.512870789,1.415466309,2.792343140,0.006853210,0.027952820,1.007191777
122.649975,-7.512870789,1.415466309,2.792343140,0.006853210,0.027952820,1.007191777
122.650602,-7.512870789,1.415466309,2.792343140,0.006853210,0.027952820,1.007191777
122.651256,-7.512870789,1.415466309,2.792343140,0.006853210,0.027952820,1.007191777
122.651884,-7.512870789,1.415466309,2.792343140,0.006853210,0.027952820,1.007191777
122.652537,-7.512870789,1.415466309,2.792343140,0.006853210,0.027952820,1.007191777
122.653175,-7.512870789,1.415466309,2.792343140,0.006853210,0.027952820,1.007191777
122.691524,-3.804985046,0.538085938,-0.999465942,-0.017682923,-0.114014953,1.032216191
122.730145,-1.348320007,17.078613281,4.760726929,0.039690126,-0.001954406,0.967030644
122.744459,1.543220520,16.697143555,5.729660034,0.047746766,0.025267273,0.959218144
122.759916,9.370979309,11.379455566,1.708969116,0.043230165,0.021483094,0.971058965
122.798433,11.789497375,8.266662598,4.402145386,-0.007184876,0.021116883,0.990834355
122.847589,11.171516418,-10.921264648,-4.081741333,-0.013410462,0.058592469,1.033314824
122.861955,9.081062317,-10.875488281,-2.716079712,-0.017072571,0.050047547,1.034169316
122.877304,6.616767883,-7.205749512,-3.143325806,-0.016828431,0.060667664,1.013417363
122.915818,2.054389954,-1.567626953,-1.716629028,-0.000959290,-0.055665344,0.987050176
122.954279,3.427680969,0.530456543,-1.213088989,0.029070007,-0.100953430,0.965443730
122.968548,0.116523743,0.042175293,0.770553589,0.027483093,-0.094239563,0.954335332
122.994544,3.778633118,-3.497863770,-3.662124634,0.023454772,-0.020264953,0.957020879
123.033028,-1.905265808,17.498229980,3.601058960,0.007951843,-0.000489563,1.015492558
123.071536,-8.863273621,20.076965332,5.783065796,0.042009462,-0.132569641,1.031605840
123.085698,-7.505241394,2.323364258,0.106796265,0.033342469,-0.083741516,1.021107793
123.101181,-8.329216003,-4.092956543,-0.961318970,0.019548522,-0.143678039,1.020985723
123.150151,-10.244194031,-28.232360840,-4.119888306,-0.008283509,-0.119752258,1.004140019
123.188643,-5.353752136,-14.011169434,-7.209793091,-0.077619448,0.043211609,1.004384160
123.203013,-4.979911804,-0.407958984,-3.738418579,-0.066877261,0.030028015,1.007557988
123.218336,-4.407707214,19.199584961,-0.541702271,-0.039167296,-0.036256164,1.013661504
123.256854,0.559028625,37.616943359,-1.541152954,0.007097351,-0.015748352,1.032704473
123.257576,0.559028625,37.616943359,-1.541152954,0.007097351,-0.015748352,1.032704473
123.295925,5.083259583,35.686706543,5.950912476,0.063005552,-0.026856750,1.038441777
123.310212,4.213508606,27.019714355,7.286056519,0.057756532,-0.036866516,1.035512090
123.325552,6.868537903,4.497741699,0.610336304,0.032854188,-0.083253235,1.041737676
123.364072,2.504524231,-26.363159180,2.418502808,-0.008771790,-0.012940735,0.997914433
123.402597,1.962837219,-44.711853027,-0.923171997,-0.048200499,-0.004395813,1.004750371
123.416752,1.802619934,-43.552185059,-3.257766724,-0.099347964,0.090819031,0.967518926
123.432088,3.633674622,-36.350036621,-3.532424927,-0.126325503,0.111570984,0.948231816
123.470597,3.938850403,3.017639160,1.365646362,-0.107892886,-0.009400696,0.943226933
123.519590,-3.675285339,14.614318848,-5.577102661,-0.041120421,-0.067139953,0.950673223
123.533805,-1.783195496,11.684631348,-5.920425415,0.006609070,-0.025513977,0.941029668
123.549354,-2.485099792,7.992004395,-4.852310181,0.023576843,-0.046143860,0.943959355
123.587798,-2.668205261,-10.432983398,-4.966751099,0.021501647,-0.067139953,0.951039433
123.626249,-2.523246765,-17.841125488,-3.532424927,0.006120788,-0.065430969,0.951893926
123.640602,-2.172294617,-19.359375000,-4.608169556,0.003679382,-0.097413391,0.966176152
123.656075,-5.819145203,-19.115234375,-4.051223755,-0.006330383,-0.088013977,0.973500371
123.694595,-1.172843933,-1.109863281,-1.762405396,-0.006086243,0.118773133,0.969838262
123.732864,6.677803040,11.837219238,1.945480347,0.009782897,0.049559265,1.025258183
123.747249,6.311592102,13.637756348,2.464279175,-0.001813782,-0.086060852,1.055409551
123.762620,0.238594055,15.392517090,-0.885025024,-0.028303040,-0.133790344,1.070912480
123.801170,3.244575500,22.274230957,1.823410034,0.053239930,0.018065125,1.053090215
123.839657,6.014045715,12.737487793,0.503524780,0.071550474,-0.020264953,1.067250371
123.853831,1.054939270,7.778381348,5.767807007,0.058488954,-0.069947571,1.064320683
123.869147,0.826057434,3.254150391,4.943832397,0.056535829,-0.048829406,1.049061894
123.907660,1.863655090,-27.614379883,-0.106826782,0.068010435,0.133055359,1.029408574
123.908390,1.863655090,-27.614379883,-0.106826782,0.068010435,0.133055359,1.029408574
123.909010,1.863655090,-27.614379883,-0.106826782,0.068010435,0.133055359,1.029408574
123.909638,1.863655090,-27.614379883,-0.106826782,0.068010435,0.133055359,1.029408574
123.910255,1.863655090,-27.614379883,-0.106826782,0.068010435,0.133055359,1.029408574
123.910876,4.511054993,-31.581665039,-2.021804810,0.042986024,0.172850281,1.009633183
123.911491,4.511054993,-31.581665039,-2.021804810,0.042986024,0.172850281,1.009633183
123.912124,4.511054993,-31.581665039,-2.021804810,0.042986024,0.172850281,1.009633183
123.912731,4.511054993,-31.581665039,-2.021804810,0.042986024,0.172850281,1.009633183
123.913367,4.511054993,-31.581665039,-2.021804810,0.042986024,0.172850281,1.009633183
123.913980,4.511054993,-31.581665039,-2.021804810,0.042986024,0.172850281,1.009633183
123.914603,4.511054993,-31.581665039,-2.021804810,0.042986024,0.172850281,1.009633183
123.915219,4.511054993,-31.581665039,-2.021804810,0.042986024,0.172850281,1.009633183
123.915852,4.511054993,-31.581665039,-2.021804810,0.042986024,0.172850281,1.009633183
123.964936,8.661445618,-2.200866699,2.563461304,-0.022687806,-0.002564758,0.983388066
123.979132,8.066352844,5.840515137,3.257736206,-0.021711243,-0.073121399,0.993153691
123.994701,3.236946106,16.964172363,2.990707397,-0.010846986,-0.140260071,0.994252324
124.033135,-3.698173523,22.106384277,4.577621460,0.032365907,-0.108643860,0.958851933
124.071586,-2.736869812,-4.085327148,2.777084351,0.075212583,-0.017091125,0.933949590
124.085924,-2.126518250,-11.020446777,1.808151245,0.061296571,-0.007935852,0.939198613
124.101409,-2.950492859,-19.313598633,1.594528198,0.029314147,-0.088502258,0.953847051
124.139828,-4.644218445,-21.373535156,0.778182983,-0.006940735,-0.055299133,0.932973027
124.188790,-7.367912292,-0.674987793,-1.884475708,-0.067243472,-0.133912414,0.981068730
124.203139,-7.657829285,5.779479980,-2.937332153,-0.063459292,-0.051881164,0.970814824
124.218461,-2.904716492,14.560913086,-3.150955200,-0.016340150,-0.004395813,0.981679082
124.257013,-2.713981628,15.201782227,-4.737869263,0.014665710,0.005736023,1.019765019
124.295518,-1.813713074,7.473205566,-4.821792603,0.022966491,-0.124757141,1.059682012
124.309682,0.856575012,-1.178527832,-6.813064575,0.031389344,-0.007203430,1.038075566
124.325016,4.068550110,-3.658081055,-6.736770630,0.026506530,-0.028199524,1.040761113
124.363530,4.312690735,1.178955078,-1.258865356,0.020769225,0.063719422,1.025868535
124.402004,1.611885071,1.239990234,0.808700562,0.007341492,-0.017335266,1.019398808
124.416162,2.611335754,0.614379883,0.648483276,0.001115906,0.022581726,1.002675176
124.431669,3.267463684,0.637268066,1.312240601,0.000139343,0.016234070,0.987782598
124.470102,7.486518860,-6.107116699,1.319869995,0.011980163,0.055906922,0.933949590
124.508595,8.089241028,-6.564880371,0.801071167,-0.054304015,-0.064088196,0.926381230
124.522744,7.715400696,-3.238464355,0.038131714,-0.065412417,-0.101197571,0.931874394
124.538253,4.984077454,3.505920410,0.770553589,-0.048688781,-0.112916321,0.938099980
124.576755,2.062019348,4.108642578,-4.364028931,-0.024763001,-0.061402649,0.952504277
124.615175,1.047309875,12.180541992,-2.983108521,-0.009260071,-0.008302063,0.970814824
124.629490,-3.499809265,15.361999512,0.732406616,0.011491882,-0.057984680,0.986561894
124.644964,-4.377189636,12.684082031,-0.564590454,0.019914733,-0.024659485,0.982167363
124.683438,-2.378288269,2.796386719,1.861557007,0.017473327,0.006224304,1.013783574
124.721889,-9.710136414,-7.663513184,2.822860718,0.003679382,-0.046021789,1.034535527
124.736193,-8.374992371,-18.756652832,-0.671401978,0.005998718,0.006834656,1.027943730
124.751655,-8.611503601,-22.800231934,-0.373855591,0.005754577,0.002806336,1.020009160
124.800607,-0.066581726,-15.819335938,-2.746597290,-0.049787413,-0.113282531,1.005849004
124.839259,3.862556458,15.995239258,0.854476929,-0.007551087,0.179808289,0.938710332
124.853460,10.530647278,24.082397461,0.701889038,-0.002179993,0.156126648,0.958119512
124.879368,11.995491028,37.136291504,8.789047241,0.023454772,0.053221375,1.017933965
124.918049,7.204231262,14.248107910,2.593978882,0.024553405,-0.051392883,1.085560918
124.956564,4.739936829,-15.849853516,-3.402725220,0.039079774,0.066771179,1.079213262
124.970856,1.558479309,-19.504333496,-3.234878540,0.032854188,0.102537781,1.058095098
124.986399,2.947029114,-20.587707520,-3.509536743,0.017229186,0.113646179,1.011464238
125.024863,1.527961731,-9.013916016,3.082260132,0.031145202,0.020140320,0.952504277
125.063294,3.465827942,-4.337097168,2.319320679,-0.000104798,-0.072633117,0.931630254
125.077607,3.557380676,-1.010681152,2.143844604,-0.007184876,-0.094971985,0.933705449
125.093082,2.748664856,7.366394043,4.074081421,0.002580749,-0.085694641,0.939931035
125.131561,3.244575500,12.348388672,2.296432495,0.007707702,-0.018433899,0.957020879
125.170015,0.864204407,25.020812988,4.951461792,-0.013288392,-0.045289367,0.991810918
125.184310,-0.570121765,26.073669434,6.172164917,0.011125671,-0.072755188,1.018788457
125.199789,-1.569572449,22.159790039,4.219039917,0.020280944,-0.069093078,1.033803105
125.238285,-6.872001648,-3.261352539,2.243026733,0.005876648,-0.067506164,1.047597051
125.287454,-1.989189148,-30.574584961,-4.188552856,-0.024763001,0.039061219,1.071889043
125.301675,-3.606620789,-30.544067383,-4.936233521,-0.048444640,0.014280945,1.083363652
125.317125,-3.682914734,-25.790954590,-4.142776489,-0.064924136,0.064573914,1.076283574
125.355581,3.099617004,6.023620605,-2.014175415,-0.034406554,0.102415711,1.071156621
125.394072,3.671821594,25.745605469,2.716049194,-0.005842102,-0.002320617,1.087025762
125.408388,2.046760559,27.614807129,5.180343628,-0.003522766,-0.055543274,1.084218144
125.423861,0.215705872,20.420288086,4.768356323,0.014421569,-0.096680969,1.067982793
125.472854,-0.333610535,-30.177856445,-0.976577759,0.007463562,-0.011475891,1.017323613
125.511406,3.206428528,-34.969116211,0.091537476,-0.053571593,0.131956726,0.939198613
125.525708,5.380805969,-31.245971680,0.167831421,-0.069684878,0.090819031,0.942738652
125.541181,4.984077454,-16.864562988,-0.198379517,-0.121930972,-0.019532531,0.954335332
125.579621,2.268013000,13.508056641,-2.647415161,-0.116559878,-0.071168274,0.964345098
125.618131,-4.873100281,17.955993652,-3.715530396,-0.004377258,-0.014527649,0.982167363
125.632301,-6.261650085,8.907531738,-5.004898071,0.012224304,-0.014893860,0.975697637
125.647750,-7.139030457,3.933166504,-5.142227173,0.012956725,-0.004273742,0.973012090
125.686240,-9.961906433,-6.175781250,-2.380386353,0.012956725,-0.046143860,0.977040410
125.724695,-10.572257996,-13.934875488,-1.022354126,-0.001691712,-0.063599914,0.984852910
125.739008,-10.587516785,-13.988281250,-6.095901489,-0.024030579,0.026854187,0.991932988
125.754476,-10.427299500,-9.906555176,-3.578201294,-0.023542298,0.075194031,0.991932988
125.792926,-8.321586609,-0.041748047,-2.731338501,-0.001569641,0.037474304,1.026967168
125.831391,-9.244743347,0.835632324,-7.576004028,-0.030256165,-0.165528625,1.025868535
125.845692,-9.244743347,2.620910645,-8.522048950,-0.016584290,-0.121583313,1.013417363
125.861171,-8.733573914,10.837768555,-2.357498169,0.032610048,0.040037781,0.974721074
125.899675,6.105598450,16.056274414,1.213058472,0.054216493,0.085325867,0.989003301
125.938173,9.813484192,18.680786133,0.968917847,0.024309264,-0.061646789,1.040639043
125.952484,6.403144836,16.796325684,2.792343140,0.035783876,-0.052125305,1.047352910
125.967958,5.113777161,6.580566406,0.701889038,0.041399110,0.014403015,1.032094121
125.968672,5.113777161,6.580566406,0.701889038,0.041399110,0.014403015,1.032094121
125.969271,5.113777161,6.580566406,0.701889038,0.041399110,0.014403015,1.032094121
125.969875,5.113777161,6.580566406,0.701889038,0.041399110,0.014403015,1.032094121
126.008155,2.069648743,-12.912536621,-4.859939575,0.030412780,0.064818054,0.996693730
126.046672,1.215156555,-8.464599609,-1.586929321,0.032487977,-0.019410461,0.965932012
126.060855,-0.821891785,-3.970886230,0.053390503,0.027727233,-0.067017883,0.935658574
126.076302,-0.402275085,-3.574157715,-1.205459595,0.030901061,-0.068116516,0.923573613
126.125283,-0.097099304,-0.751281738,3.654464722,0.032243837,-0.079591125,0.888173223
126.163837,0.940498352,-4.657531738,3.746017456,0.006975281,-0.029542297,0.901967168
126.178013,0.459846497,-4.276062012,3.425582886,-0.011335267,-0.069947571,0.926991582
126.193489,-0.455680847,-3.688598633,2.792343140,-0.020490540,-0.083985656,0.937367558
126.231972,-3.057304382,-4.222656250,-1.113906860,-0.030012025,-0.093507141,0.960560918
126.270430,-5.094352722,-1.804138184,-3.944412231,-0.032941710,-0.018189758,0.975941777
126.284707,-3.766838074,-1.735473633,-4.714981079,-0.018293275,0.030272156,0.975087285
126.300170,0.444587708,-2.956176758,-4.058853149,-0.008527650,0.089110047,0.998036504
126.300886,0.444587708,-2.956176758,-4.058853149,-0.008527650,0.089110047,0.998036504
126.301479,0.444587708,-2.956176758,-4.058853149,-0.008527650,0.089110047,0.998036504
126.339834,-0.287834167,6.252502441,-6.790176392,-0.046491515,0.034788758,1.053334355
126.378253,0.818428040,22.243713379,-6.668106079,0.018571960,0.023680359,1.035634160
126.392592,4.221138000,20.946716309,-8.316055298,0.035539735,0.064207703,1.032704473
126.418603,5.701240540,17.505859375,-4.486099243,0.062761411,0.038084656,1.032704473
126.457079,10.118659973,4.055236816,3.059371948,0.075578794,-0.130494446,1.049916387
126.495601,8.653816223,-22.868896484,-0.549331665,0.014665710,-0.046754211,1.025014043
126.509888,7.318672180,-25.928283691,0.175460815,0.004045593,-0.008424133,1.022084355
126.525222,5.571540833,-27.194763184,1.197799683,-0.006208313,0.115233094,0.984730840
126.563722,10.645088196,-20.053649902,0.648483276,-0.056135070,0.074461609,0.980092168
126.602164,9.569343567,-1.376892090,-1.548782349,-0.083722964,-0.001588196,0.991322637
126.616440,3.961738586,10.677551270,0.518783569,-0.047712218,-0.075318664,1.010975957
126.631943,0.940498352,13.431762695,0.740036011,-0.035261046,-0.062379211,1.009389043
126.632677,0.940498352,13.431762695,0.740036011,-0.035261046,-0.062379211,1.009389043
126.633281,-0.669303894,13.195251465,-0.915542603,-0.022931946,-0.031739563,1.000844121
126.671577,-3.209892273,8.533691406,-3.372207642,0.007951843,0.022459656,0.989125371
126.710035,-6.833854675,1.270507812,0.701889038,0.041643251,-0.048951477,0.990346074
126.724292,-9.824577332,-9.090209961,0.617965698,0.035661805,-0.045655578,0.968007207
126.750530,-7.535758972,-19.580627441,-1.594558716,0.018816100,0.001219422,0.947987676
126.789103,-5.132499695,-24.860168457,-1.457229614,-0.019636048,-0.015992492,0.958851933
126.827608,-0.776115417,-14.774108887,-3.234878540,-0.045026671,0.107786804,0.955678105
126.841768,1.138862610,-6.992126465,-3.028884888,-0.055768859,0.096190125,0.960560918
126.857218,3.633674622,15.751098633,-0.968948364,-0.080060855,0.040526062,0.983632207
126.895664,0.902351379,39.730285645,-1.197830200,0.020891296,-0.063599914,1.021474004
126.934194,8.676704407,30.956481934,3.501876831,0.081071958,0.095579773,1.009266973
126.948358,9.439643860,25.799011230,5.043014526,0.085222349,0.101439148,1.013661504
126.963816,13.315376282,9.914611816,6.172164917,0.092912778,0.084593445,1.033925176
126.964533,13.315376282,9.914611816,6.172164917,0.092912778,0.084593445,1.033925176
126.965156,13.315376282,9.914611816,6.172164917,0.092912778,0.084593445,1.033925176
127.003546,10.324653625,-29.605651855,-5.111709595,0.020647155,0.036741883,1.077504277
127.041998,5.945381165,-14.995361328,-1.029983521,-0.001569641,0.149046570,1.053456426
127.056274,5.006965637,-8.403564453,-0.885025024,0.002092468,0.153685242,1.043202519
127.071598,4.434761047,3.353332520,-0.244155884,0.016862975,0.082884461,1.023671269
127.110131,1.733955383,17.284606934,1.861557007,0.028093444,-0.013306946,0.994984746
127.148561,1.405891418,12.768005371,3.120407104,0.063249692,-0.105103821,0.973012090
127.162846,2.832588196,0.538085938,-2.189651489,0.063615903,-0.047608703,0.979359746
127.178480,2.618965149,-2.132202148,-1.602188110,0.055681337,-0.056031555,0.990468144
127.216929,-3.125968933,2.712463379,1.747116089,0.025407897,-0.006959289,0.986195683
127.255373,-5.277458191,0.957702637,1.609786987,0.028703796,-0.005860656,0.996327519
127.269650,-6.887260437,-0.118041992,1.708969116,0.012224304,-0.006104797,0.992665410
127.285119,-6.582084656,0.606750488,2.845748901,0.001237976,-0.009522766,0.987172246
127.323608,-7.062736511,-6.313110352,2.944931030,0.008806335,-0.071168274,1.037831426
127.361993,-4.941764832,-20.946289062,-6.126419067,-0.053815734,-0.023804992,1.059559941
127.388224,-4.979911804,-12.096191406,-7.057205200,-0.069684878,0.071043640,1.072133183
127.402582,-5.414787292,-0.758911133,-4.943862915,-0.049909484,0.018187195,1.084462285
127.440946,-7.055107117,15.461181641,-7.820144653,-0.009992493,0.083372742,1.061268926
127.479452,0.681098938,26.531433105,-1.495376587,0.052995790,0.105955750,1.008900762
127.493617,3.297981262,24.738525391,-0.343338013,0.065569028,0.091063172,1.013173223
127.509079,5.449470520,16.674255371,3.852828979,0.060320009,-0.047364563,1.030873418
127.547585,1.421150208,-10.242248535,2.868637085,0.031999696,-0.057740539,1.024281621
127.586093,1.680549622,-29.735351562,-1.686111450,0.009294616,-0.012208313,1.014149785
127.600515,-1.539054871,-33.786560059,0.099166870,-0.009992493,0.030882508,0.992543340
127.626616,-0.524345398,-28.552795410,-0.061050415,-0.044660460,0.116453797,0.948720098
127.665104,-0.844779968,-4.932189941,2.181991577,-0.067731753,-0.055054992,0.950184941
127.703560,-6.002250671,13.172363281,1.365646362,-0.026349915,-0.071412414,0.947499394
127.717843,-7.619682312,14.156555176,-0.091567993,0.010515319,-0.032838196,0.936146855
127.733326,-7.634941101,11.852478027,0.877365112,0.027971374,-0.020387024,0.930775762
127.771809,-8.085075378,-8.060241699,-1.815811157,0.015276061,-0.059083313,0.921376348
127.810239,-7.032218933,-17.375732422,-0.991836548,-0.005720032,-0.069459289,0.916859746
127.824511,-6.566825867,-19.458557129,-1.472488403,-0.005964173,-0.053956360,0.921742558
127.839841,-3.766838074,-20.343566895,-2.944961548,-0.016340150,-0.001588196,0.936146855
127.878388,-2.103630066,6.534790039,1.533493042,-0.029523743,0.025633484,0.977894902
127.916836,1.657661438,16.056274414,-2.281204224,0.012346374,0.036619812,1.032460332
127.931129,2.329048157,19.558166504,-3.479019165,0.001848327,-0.035279602,1.061879277
127.946597,-2.927604675,30.590270996,2.265914917,-0.004987610,-0.096314758,1.076161504
127.985045,-3.415885925,29.422973633,3.669723511,0.086443052,0.004271179,1.067006230
128.023545,4.366096497,11.799072266,1.998886108,0.096819028,0.130980164,1.042714238
128.049679,4.343208313,-2.033020020,5.630477905,0.065935239,0.049681336,1.050892949
128.064046,3.526863098,-7.427001953,7.110580444,0.058977235,-0.001221985,1.048085332
128.102437,2.039131165,-30.856872559,2.883895874,0.005998718,0.058226258,0.987172246
128.140860,3.320869446,-30.216003418,0.724777222,-0.043195616,-0.006715149,0.965932012
128.155192,6.654914856,-20.831848145,-4.257217407,-0.054059874,0.023436219,0.947377324
128.170681,7.402595520,-12.897277832,-3.150955200,-0.050031554,-0.027345031,0.951405644
128.209167,2.641853333,14.713500977,0.152572632,-0.010358704,-0.089967102,0.962391973
128.247654,-2.599540710,21.167968750,2.563461304,0.039812196,-0.019166321,0.953847051
128.261836,-2.363029480,19.520019531,3.517135620,0.049089540,-0.000123352,0.949330449
128.277303,-1.920524597,13.363098145,3.700241089,0.052019227,0.008177429,0.952504277
128.315770,-2.942863464,-0.163818359,4.257186890,0.020280944,-0.077149719,0.975087285
128.364867,-7.100883484,-12.042785645,1.052841187,-0.011579407,-0.092896789,0.973256230
128.380659,-6.482902527,-13.934875488,-0.236526489,-0.015607728,-0.081666321,0.975819707
128.394989,-4.697624207,-13.110900879,-2.059951782,-0.030988587,-0.028443664,1.000966191
128.433351,-2.042594910,-2.841735840,-2.288833618,-0.028425111,-0.002198547,1.053334355
128.471834,-2.462211609,3.772949219,-6.942764282,-0.045881163,-0.004273742,1.062489629
128.486011,-0.692192078,7.389282227,-7.957473755,-0.039533507,-0.024049133,1.077015996
128.501495,-4.880729675,15.758728027,-5.645767212,-0.009015931,-0.062135071,1.087514043
128.539975,2.161201477,17.910217285,-7.156387329,0.035905946,0.046507508,1.058583379
128.578447,3.839668274,14.652465820,2.510055542,0.068620786,0.055906922,1.049672246
128.592780,2.344306946,4.268859863,2.777084351,0.059465516,-0.084962219,1.060780644
128.608125,0.330146790,-2.734924316,3.265365601,0.053606141,-0.074097961,1.049306035
128.646583,-0.585380554,-27.591491699,-0.175491333,-0.000471008,-0.033448547,0.986683965
128.695567,2.626594543,-31.581665039,-1.243606567,-0.018171204,0.064207703,0.913441777
128.709786,3.076728821,-27.141357422,0.373825073,-0.032087218,0.030272156,0.906727910
128.725259,3.931221008,-15.971923828,-1.052871704,-0.061384093,-0.050782531,0.898671269
128.763711,0.398811340,7.709716797,-0.793472290,-0.015485657,-0.090211242,0.904652715
128.802200,-0.783744812,14.049743652,-1.396194458,0.035539735,-0.035401672,0.905995488
128.816496,-0.577751160,13.492797852,-0.732437134,0.048235048,-0.027589172,0.908681035
128.831848,-0.188652039,7.435058594,-0.030532837,0.073137388,-0.070802063,0.934071660
128.870397,-3.141227722,-19.473815918,1.052841187,0.076067075,-0.059449524,0.953847051
128.908833,-3.499809265,-26.057983398,2.380355835,0.021745788,-0.014649719,0.959462285
128.935080,-2.317253113,-20.389343262,3.036483765,0.000871765,0.020262390,0.990712285
128.949272,-1.256767273,-14.072204590,2.517684937,-0.019880189,0.067625672,1.008046269
128.987639,0.482734680,11.570190430,0.625595093,-0.079816714,0.062010437,1.017323613
129.026078,-0.837150574,28.103088379,-1.312271118,0.000383484,-0.175050110,1.095448613
129.040381,-2.111259460,21.305297852,-7.476821899,0.035051454,-0.001099914,1.065297246
129.055721,-1.478019714,21.221374512,-5.447402954,0.045915712,0.055784851,1.038319707
129.094235,7.494148254,13.706420898,0.984176636,0.086443052,0.016966492,1.016102910
129.132722,7.524665833,-10.677124023,-2.891555786,0.055070985,-0.038331360,1.025380254
129.146902,7.234748840,-12.401367188,-1.823440552,0.055925477,0.028929383,1.020863652
129.162393,7.806953430,-14.224792480,2.708419800,0.056291688,0.095823914,1.011952519
129.201004,7.394966125,-12.210632324,-1.350418091,0.001848327,0.023436219,1.009266973
129.239483,5.747016907,12.752746582,0.732406616,0.011125671,-0.094117492,0.978627324
129.253666,2.573188782,17.467712402,2.403244019,0.014543639,-0.118531555,0.976307988
129.269139,2.229866028,19.458984375,-0.823989868,0.024431335,-0.077271789,0.950673223
129.307581,0.673469543,17.589782715,2.418502808,0.058611024,-0.071290344,0.972890019
129.356582,-3.743949890,-4.329467773,-1.060501099,0.034441102,-0.052369446,0.993764043
129.370938,-4.583183289,-5.679870605,-1.800552368,0.025163757,-0.053101867,0.989735723
129.386460,-5.903068542,-5.862976074,-0.114456177,0.021745788,-0.070191711,0.987294316
129.424921,-6.666007996,-9.677673340,-2.006546021,0.034074891,-0.022584289,1.003285527
129.463357,-9.969535828,-25.737548828,-1.747146606,0.070207700,-0.029786438,1.063222051
129.477643,-6.650749207,-33.740783691,-2.906814575,0.058244813,0.044554383,1.054921269
129.503787,-4.964653015,-34.770751953,-5.317703247,0.032243837,0.002928406,1.091664433
129.542375,-6.940666199,-13.332153320,-6.828323364,0.003069031,-0.036744446,1.071278691
129.580862,-3.179374695,19.741271973,-4.173294067,0.023576843,0.036131531,1.014393926
129.595032,3.305610657,30.430053711,-2.159133911,0.087053403,-0.035645813,1.034657598
129.610356,0.955757141,31.666015625,0.556930542,0.126237974,-0.088624328,1.062367558
129.611237,0.955757141,31.666015625,0.556930542,0.126237974,-0.088624328,1.062367558
129.611915,0.955757141,31.666015625,0.556930542,0.126237974,-0.088624328,1.062367558
129.612521,0.955757141,31.666015625,0.556930542,0.126237974,-0.088624328,1.062367558
129.613167,0.955757141,31.666015625,0.556930542,0.126237974,-0.088624328,1.062367558
129.613775,0.955757141,31.666015625,0.556930542,0.126237974,-0.088624328,1.062367558
129.614432,0.955757141,31.666015625,0.556930542,0.126237974,-0.088624328,1.062367558
129.615041,-0.608268738,28.560852051,1.899703979,0.126360044,-0.079102844,1.056141973
129.615690,-0.608268738,28.560852051,1.899703979,0.126360044,-0.079102844,1.056141973
129.616306,-0.608268738,28.560852051,1.899703979,0.126360044,-0.079102844,1.056141973
129.616957,-0.608268738,28.560852051,1.899703979,0.126360044,-0.079102844,1.056141973
129.617569,-0.608268738,28.560852051,1.899703979,0.126360044,-0.079102844,1.056141973
129.618227,-0.608268738,28.560852051,1.899703979,0.126360044,-0.079102844,1.056141973
129.656539,3.793891907,2.140258789,0.404342651,0.086931333,0.008055359,1.040394902
129.695002,5.014595032,-17.223144531,2.212509155,0.048845399,0.008055359,1.046254277
129.709161,3.404792786,-20.633483887,-0.045791626,0.024187194,-0.004151672,1.034657598
129.724655,3.130134583,-19.000793457,0.648483276,-0.011091126,0.054564148,1.006703496
129.763134,1.428779602,-4.710937500,0.427230835,-0.033307921,-0.075440735,1.012318730
129.763845,-1.188102722,-0.423217773,0.404342651,-0.032941710,-0.116822571,1.012074590
129.764450,-1.188102722,-0.423217773,0.404342651,-0.032941710,-0.116822571,1.012074590
129.765075,-1.188102722,-0.423217773,0.404342651,-0.032941710,-0.116822571,1.012074590
129.765677,-1.188102722,-0.423217773,0.404342651,-0.032941710,-0.116822571,1.012074590
129.766302,-1.188102722,-0.423217773,0.404342651,-0.032941710,-0.116822571,1.012074590
129.815225,-8.992973328,7.564758301,-7.171646118,0.017839538,-0.043458313,0.973134160
129.829619,-10.373893738,8.434509277,-6.690994263,0.036028016,0.004759461,0.963978887
129.844961,-9.252372742,5.687927246,-2.189651489,0.083879575,0.004393250,0.963612676
129.883453,-13.089958191,-22.487426758,-4.615798950,0.070695981,-0.061646789,0.952382207
129.921921,-11.907402039,-24.799133301,-2.258316040,0.071184263,-0.009034485,0.938466191
129.936209,-10.518852234,-30.017639160,-0.152603149,0.106706724,-0.015260071,0.965809941
129.951517,-9.488883972,-32.230163574,-0.457778931,0.077409849,0.017088562,0.970204473
130.000542,-5.880180359,11.310791016,2.250656128,-0.001081360,0.062987000,0.955678105
130.039102,-4.720512390,22.724365234,1.869186401,0.059953798,-0.129762024,1.008412480
130.053278,-6.490531921,16.262268066,-2.967849731,0.056902040,-0.195802063,1.004017949
130.068774,-8.268180847,14.965270996,-3.631607056,0.051653016,-0.073975891,0.973012090
130.107219,5.830940247,14.911865234,1.472457886,0.134416685,0.068724304,0.956288457
130.145710,13.384040833,-1.521850586,-0.854507446,0.053606141,-0.076783508,1.014027715
130.160054,10.385688782,-3.101135254,-1.167312622,0.033464540,-0.095704406,1.025380254
130.175515,7.356819153,-2.467895508,-3.921524048,0.017961608,-0.004884094,1.014882207
130.213961,2.947029114,10.219787598,-4.974380493,0.041765321,0.029905945,0.996937871
130.252398,2.527412415,24.402832031,-0.656143188,0.088396177,-0.065919250,0.949452519
130.266750,1.299079895,22.075866699,-0.961318970,0.129533872,-0.109742492,0.962147832
130.282227,-0.257316589,7.824157715,-1.251235962,0.153459653,-0.152711242,0.957265019
130.320688,-3.324333191,-19.138122559,-0.541702271,0.105486020,-0.064576477,0.915150762
130.359184,-0.074211121,-22.937561035,1.235946655,0.059953798,-0.020387024,0.913197637
130.373512,1.642402649,-18.245483398,-2.220169067,0.013445007,-0.055787414,0.927113652
130.388830,1.108345032,-11.310363770,-1.853958130,-0.001813782,-0.106812805,0.936879277
130.427383,-3.492179871,19.428466797,-0.694290161,0.021379577,-0.132081360,0.959096074
130.428108,-3.492179871,19.428466797,-0.694290161,0.021379577,-0.132081360,0.959096074
130.428718,-3.492179871,19.428466797,-0.694290161,0.021379577,-0.132081360,0.959096074
130.429351,-3.492179871,19.428466797,-0.694290161,0.021379577,-0.132081360,0.959096074
130.429954,-3.690544128,23.205017090,0.198348999,0.037737001,-0.110474914,0.965077519
130.430579,-3.690544128,23.205017090,0.198348999,0.037737001,-0.110474914,0.965077519
130.431183,-3.690544128,23.205017090,0.198348999,0.037737001,-0.110474914,0.965077519
130.431812,-3.690544128,23.205017090,0.198348999,0.037737001,-0.110474914,0.965077519
130.470127,-4.117790222,16.124938965,-3.211990356,0.071672544,-0.040284485,1.011342168
130.484419,-3.476921082,12.531494141,-2.426162720,0.077043638,-0.026124328,1.018178105
130.499752,-3.011528015,1.186584473,-3.936782837,0.089861020,-0.040162414,1.040883183
130.538247,-0.966850281,-12.752319336,-5.592361450,0.051408876,-0.023682922,1.041371465
130.576732,-1.149955750,4.551147461,-3.753677368,0.032243837,0.011473328,1.041981816
130.590901,3.015693665,13.782714844,-1.670852661,0.052873719,0.028929383,1.023793340
130.606404,5.518135071,14.400695801,-3.532424927,0.062883481,0.008299500,1.024037480
130.607142,5.518135071,14.400695801,-3.532424927,0.062883481,0.008299500,1.024037480
130.607782,5.518135071,14.400695801,-3.532424927,0.062883481,0.008299500,1.024037480
130.608441,7.265266418,14.484619141,-4.173294067,0.069719419,0.002440125,1.027943730
130.609070,7.265266418,14.484619141,-4.173294067,0.069719419,0.002440125,1.027943730
130.609718,7.265266418,14.484619141,-4.173294067,0.069719419,0.002440125,1.027943730
130.610353,7.265266418,14.484619141,-4.173294067,0.069719419,0.002440125,1.027943730
130.610999,7.265266418,14.484619141,-4.173294067,0.069719419,0.002440125,1.027943730
130.611627,7.265266418,14.484619141,-4.173294067,0.069719419,0.002440125,1.027943730
130.612280,7.265266418,14.484619141,-4.173294067,0.069719419,0.002440125,1.027943730
130.671793,5.678352356,8.915161133,4.676803589,0.114030942,-0.160889953,1.055287480
130.710272,8.577522278,-28.140808105,-0.076309204,0.051164735,-0.061768860,1.044179082
130.724562,5.846199036,-32.153869629,-0.358596802,0.035417665,-0.012452453,1.032216191
130.739902,7.112678528,-31.360412598,2.395614624,0.013200866,0.077025086,1.003163457
130.778381,4.648384094,-19.496704102,3.120407104,-0.015119446,-0.011842102,0.994984746
130.816832,0.520881653,-8.846069336,2.426132202,-0.031843077,-0.145264953,1.025380254
130.831124,-4.903617859,-3.246093750,0.572189331,-0.014387025,-0.077149719,1.011708379
130.846564,-5.231681824,-2.185607910,-0.465408325,-0.007429016,-0.027345031,1.002431035
130.884996,-6.048027039,5.886291504,-4.196182251,0.008440124,0.017820984,0.993886113
130.923490,-10.976615906,15.598510742,4.409774780,0.050188173,-0.063477844,0.996449590
130.937680,-7.642570496,5.954956055,-0.701919556,0.044817079,-0.021729797,1.010609746
130.953160,-7.001701355,2.536987305,-0.144973755,0.039690126,-0.013917297,1.030018926
130.991553,-10.053459167,-1.148010254,0.915512085,0.014543639,-0.032838196,1.084462285
131.030038,-12.647453308,-9.723449707,-3.044143677,0.019670593,-0.048707336,1.048939824
131.044336,-11.770072937,-9.990478516,-2.456680298,0.014665710,-0.053590149,1.036854863
131.059799,-9.504142761,-7.846618652,-3.585830688,0.012712585,-0.044801086,1.024159551
131.098239,-8.069816589,7.114624023,-3.860488892,0.054338563,0.018675476,0.991444707
131.136687,-0.066581726,30.697082520,6.500228882,0.083635435,-0.023316711,0.964100957
131.151010,1.634773254,30.262207031,7.225021362,0.099382505,-0.028077453,0.967152715
131.166517,5.548652649,17.750000000,3.684982300,0.141008481,-0.037476867,0.995961308
131.204993,4.610237122,-9.410644531,-1.823440552,0.081682310,0.045530945,0.977650762
131.243451,2.222236633,-5.855346680,1.441940308,0.077409849,0.006224304,0.957142949
131.257743,3.206428528,-0.324035645,2.342208862,0.068742856,-0.005982727,0.923817754
131.283726,4.129585266,3.315185547,2.143844604,0.074113950,-0.127686828,0.920888066
131.322282,1.871284485,4.078125000,3.303512573,0.075822935,-0.096925110,0.874989629
131.360762,3.267463684,-7.686401367,2.998336792,0.068376645,-0.061524719,0.892079473
131.375042,3.542121887,-8.723999023,1.945480347,0.047746766,-0.066041321,0.909291387
131.390516,2.565559387,-6.633544922,3.417953491,0.039201844,-0.072877258,0.913563848
131.428980,0.620063782,3.017639160,3.097518921,0.034929384,-0.123414367,0.945790410
131.467455,-1.058403015,3.490661621,1.983627319,0.045183290,-0.097291321,0.963734746
131.481615,-1.966300964,1.987670898,1.167282104,0.044328798,-0.107179016,0.980214238
131.497082,-3.209892273,-2.315307617,-0.999465942,0.052019227,-0.046021789,0.985219121
131.535576,-0.356498718,-7.861877441,-4.325881958,0.037492860,0.038939148,1.018910527
131.574035,1.398262024,10.357116699,1.640304565,0.022478210,-0.024903625,1.047230840
131.588311,2.931770325,12.844299316,1.625045776,0.029070007,-0.105836242,1.058949590
131.603821,0.826057434,11.135314941,-2.525344849,0.042619813,-0.147828430,1.062123418
131.604548,0.826057434,11.135314941,-2.525344849,0.042619813,-0.147828430,1.062123418
131.605156,0.826057434,11.135314941,-2.525344849,0.042619813,-0.147828430,1.062123418
131.605775,0.826057434,11.135314941,-2.525344849,0.042619813,-0.147828430,1.062123418
131.606391,0.826057434,11.135314941,-2.525344849,0.042619813,-0.147828430,1.062123418
131.607010,0.826057434,11.135314941,-2.525344849,0.042619813,-0.147828430,1.062123418
131.607611,0.826057434,11.135314941,-2.525344849,0.042619813,-0.147828430,1.062123418
131.608245,0.826057434,11.135314941,-2.525344849,0.042619813,-0.147828430,1.062123418
131.646531,7.944282532,19.306396484,-0.740066528,0.064348325,-0.108521789,1.091786504
131.685020,4.396614075,-0.133300781,2.410873413,0.124773130,-0.083741516,1.096181035
131.699301,4.114326477,-10.745788574,3.005966187,0.110002622,-0.075684875,1.086415410
131.714797,3.885444641,-26.843811035,0.953659058,0.069231138,0.012938172,1.059437871
131.753251,6.479438782,-33.511901855,2.166732788,0.001237976,0.120848328,1.009266973
131.802282,7.822212219,-0.934387207,0.686630249,-0.054914366,-0.067872375,1.021962285
131.816611,6.151374817,6.054138184,1.518234253,-0.033552062,-0.124635071,1.031117558
131.832094,1.047309875,15.224670410,0.251754761,-0.016706361,-0.198121399,1.046742558
131.881075,-6.940666199,15.758728027,-3.799453735,0.042253602,-0.010133117,1.017201543
131.919767,-13.372245789,11.181091309,-0.228897095,0.074358091,-0.047974914,1.002064824
131.945993,-11.716667175,-2.254272461,-1.167312622,0.072527036,-0.026368469,0.964223027
131.960412,-12.227836609,-9.204650879,1.480087280,0.062151063,-0.052369446,0.961903691
131.998735,-12.555900574,-16.910339355,-0.106826782,0.029192077,-0.120484680,0.958729863
131.999477,-12.555900574,-16.910339355,-0.106826782,0.029192077,-0.120484680,0.958729863
132.037764,-10.030570984,-11.447692871,-0.625625610,0.010759460,0.017088562,0.933705449
132.052083,-6.086174011,-2.383972168,2.807601929,0.011613952,0.050047547,0.940419316
132.067570,-3.881278992,2.315734863,4.287704468,0.003313171,0.007322937,0.955311894
132.106050,-5.872550964,10.517333984,-2.090469360,-0.007917298,-0.127198547,0.975453496
132.144526,2.657112122,25.524353027,1.419052124,0.053239930,0.079100281,0.933949590
132.158878,5.975898743,27.149414062,5.546554565,0.067888364,-0.020020813,0.952504277
132.174509,7.723030090,21.038269043,3.067001343,0.070818052,-0.059693664,0.960194707
132.212993,9.798225403,-11.958862305,-1.670852661,0.040910829,-0.044801086,0.995961308
132.251454,8.775886536,-21.571899414,-4.791275024,-0.010969056,0.055662781,1.021596074
132.265759,8.402046204,-18.573547363,-8.407608032,-0.026838196,0.053587586,1.016469121
132.281244,7.394966125,-3.070617676,-11.177078247,-0.020612611,0.039183289,1.012929082
132.319725,3.275093079,32.901977539,0.869735718,0.045915712,-0.014527649,0.983021855
132.320448,3.275093079,32.901977539,0.869735718,0.045915712,-0.014527649,0.983021855
132.321043,3.275093079,32.901977539,0.869735718,0.045915712,-0.014527649,0.983021855
132.321665,3.275093079,32.901977539,0.869735718,0.045915712,-0.014527649,0.983021855
132.322265,3.275093079,32.901977539,0.869735718,0.045915712,-0.014527649,0.983021855
132.322883,3.275093079,32.901977539,0.869735718,0.045915712,-0.014527649,0.983021855
132.323479,3.275093079,32.901977539,0.869735718,0.045915712,-0.014527649,0.983021855
132.324111,3.275093079,32.901977539,0.869735718,0.045915712,-0.014527649,0.983021855
132.324701,3.275093079,32.901977539,0.869735718,0.045915712,-0.014527649,0.983021855
132.325333,3.275093079,32.901977539,0.869735718,0.045915712,-0.014527649,0.983021855
132.325932,3.275093079,32.901977539,0.869735718,0.045915712,-0.014527649,0.983021855
132.326554,3.275093079,32.901977539,0.869735718,0.045915712,-0.014527649,0.983021855
132.327153,3.275093079,32.901977539,0.869735718,0.045915712,-0.014527649,0.983021855
132.327784,2.519783020,33.985351562,1.647933960,0.063005552,-0.045533508,0.978749394
132.328492,2.519783020,33.985351562,1.647933960,0.063005552,-0.045533508,0.978749394
132.329197,2.519783020,33.985351562,1.647933960,0.063005552,-0.045533508,0.978749394
132.367610,3.572639465,16.254638672,-0.442520142,0.087541685,-0.149293274,0.984486699
132.381798,2.527412415,9.998535156,0.183090210,0.086076841,-0.141724914,0.982533574
132.397288,1.733955383,-0.468994141,2.014144897,0.068864927,-0.081666321,0.970448613
132.435753,2.916511536,-11.836791992,0.350936890,0.019792663,-0.094605774,0.977284551
132.474206,-0.478569031,-7.236267090,-0.839248657,-0.025739564,-0.217042297,1.006947637
132.488390,-2.469841003,-0.903869629,-3.417984009,-0.043439757,-0.184083313,1.003529668
132.503878,-1.180473328,1.941894531,-5.439773560,-0.040510070,-0.151856750,1.003041387
132.542327,-2.988639832,18.108581543,-6.721511841,-0.005720032,-0.039796203,1.066884160
132.591257,-7.154289246,25.699829102,-2.952590942,0.045427430,0.045530945,1.108876348
132.605680,-7.116142273,22.464965820,-2.044692993,0.053362001,0.059935242,1.101674199
132.621151,-5.994621277,11.394714355,-2.517715454,0.058855165,-0.038575500,1.114125371
132.670183,-4.064384460,-26.584411621,-6.195083618,0.033952821,-0.038941711,1.034291387
132.708691,0.620063782,-31.787658691,-3.097549438,0.001970398,-0.009156555,0.983265996
132.722879,2.481636047,-31.085754395,-2.189651489,-0.009626282,-0.053956360,0.989735723
132.738219,1.383003235,-29.475952148,-2.540603638,-0.031965148,-0.099732727,0.990712285
132.776730,6.609138489,-18.375183105,-6.652847290,-0.041852843,0.015867859,0.976674199
132.815223,8.402046204,8.579467773,-2.868667603,-0.034284484,0.035154969,0.978016973
132.829381,7.852729797,13.134216309,-3.707901001,-0.030866517,-0.009888977,0.988148808
132.844829,5.800422668,20.466064453,-2.441421509,-0.016218079,-0.028931946,0.995839238
132.845550,5.800422668,20.466064453,-2.441421509,-0.016218079,-0.028931946,0.995839238
132.846208,5.800422668,20.466064453,-2.441421509,-0.016218079,-0.028931946,0.995839238
132.846841,5.800422668,20.466064453,-2.441421509,-0.016218079,-0.028931946,0.995839238
132.847574,5.800422668,20.466064453,-2.441421509,-0.016218079,-0.028931946,0.995839238
132.848194,5.800422668,20.466064453,-2.441421509,-0.016218079,-0.028931946,0.995839238
132.848827,5.800422668,20.466064453,-2.441421509,-0.016218079,-0.028931946,0.995839238
132.849475,5.800422668,20.466064453,-2.441421509,-0.016218079,-0.028931946,0.995839238
132.850118,5.800422668,20.466064453,-2.441421509,-0.016218079,-0.028931946,0.995839238
132.850763,5.800422668,20.466064453,-2.441421509,-0.016218079,-0.028931946,0.995839238
132.851405,5.800422668,20.466064453,-2.441421509,-0.016218079,-0.028931946,0.995839238
132.852054,5.800422668,20.466064453,-2.441421509,-0.016218079,-0.028931946,0.995839238
132.890363,-1.073661804,14.843200684,-3.379837036,0.023698913,-0.158326477,1.027333379
132.928819,-5.086723328,-9.052062988,-10.276809692,0.033830751,-0.042359680,0.985463262
132.943114,-6.658378601,-12.096191406,-9.323135376,0.040666688,-0.043458313,0.983265996
132.958624,-9.076896667,-15.064025879,-5.363479614,0.032854188,-0.014405578,0.963612676
132.997096,-6.360832214,-15.895629883,-6.752029419,0.000871765,0.010985047,0.947621465
133.035505,-6.261650085,-0.110412598,-3.257766724,-0.003034485,-0.122315735,1.010731816
133.049842,-8.710685730,2.025817871,-3.211990356,-0.000593079,-0.106080383,1.011464238
133.065302,-7.299247742,1.392578125,-8.140579224,0.004289734,-0.027222961,0.995839238
133.103793,-3.133598328,10.906433105,-6.927505493,0.014787780,0.004637390,1.033436894
133.142207,-6.383720398,10.288452148,-8.079544067,0.022722350,-0.154176086,1.068715215
133.156548,-9.168449402,4.055236816,-12.352005005,0.035051454,-0.082032531,1.035267949
133.171869,-8.703056335,2.887939453,-13.252273560,0.040666688,-0.018922180,1.006093144
133.172622,-6.727043152,3.177856445,-13.511672974,0.047868837,0.047728211,0.978139043
133.173301,-6.727043152,3.177856445,-13.511672974,0.047868837,0.047728211,0.978139043
133.173954,-6.727043152,3.177856445,-13.511672974,0.047868837,0.047728211,0.978139043
133.174582,-6.727043152,3.177856445,-13.511672974,0.047868837,0.047728211,0.978139043
133.175245,-6.727043152,3.177856445,-13.511672974,0.047868837,0.047728211,0.978139043
133.175878,-6.727043152,3.177856445,-13.511672974,0.047868837,0.047728211,0.978139043
133.176541,-6.727043152,3.177856445,-13.511672974,0.047868837,0.047728211,0.978139043
133.177176,-6.727043152,3.177856445,-13.511672974,0.047868837,0.047728211,0.978139043
133.177836,-6.727043152,3.177856445,-13.511672974,0.047868837,0.047728211,0.978139043
133.178472,-6.727043152,3.177856445,-13.511672974,0.047868837,0.047728211,0.978139043
133.179129,-6.727043152,3.177856445,-13.511672974,0.047868837,0.047728211,0.978139043
133.179761,-6.727043152,3.177856445,-13.511672974,0.047868837,0.047728211,0.978139043
133.180427,-6.727043152,3.177856445,-13.511672974,0.047868837,0.047728211,0.978139043
133.181056,-6.727043152,3.177856445,-13.511672974,0.047868837,0.047728211,0.978139043
133.181717,-6.727043152,3.177856445,-13.511672974,0.047868837,0.047728211,0.978139043
133.182350,-2.927604675,4.085754395,-12.619033813,0.063371763,0.112303406,0.961415410
133.183008,-2.927604675,4.085754395,-12.619033813,0.063371763,0.112303406,0.961415410
133.231939,5.441841125,-1.636291504,-7.553115845,0.057878602,-0.090455383,0.976185918
133.281131,7.677253723,3.399108887,-9.178176880,0.035783876,0.072508484,0.948353887
133.295553,10.027107239,10.143493652,-5.592361450,0.064958677,0.055906922,0.978139043
133.310908,8.646186829,11.257385254,-4.974380493,0.072282895,-0.000489563,0.990590215
133.349409,6.456550598,9.975646973,-4.013076782,0.048601259,0.039427429,0.952626348
133.387668,3.641304016,-10.341430664,3.494247437,0.118059263,-0.110474914,1.004262090
133.402043,4.030403137,-31.993652344,-2.532974243,0.056657899,-0.140504211,1.006215215
133.417427,2.176460266,-39.317871094,-6.523147583,0.030656921,-0.191651672,1.012807012
133.455914,-0.989738464,-29.804016113,-7.255569458,-0.040387999,-0.069093078,0.969960332
133.494401,-5.140129089,1.491760254,-8.354202271,-0.059430968,-0.045533508,0.947133183
133.508556,-4.049125671,9.189819336,-9.918228149,-0.038801085,-0.079346985,0.952992558
133.523886,-3.888908386,21.702026367,-6.980911255,-0.016584290,-0.086060852,0.969227910
133.562393,-8.336845398,6.923889160,-10.665908813,0.028703796,-0.184937805,1.025014043
133.563129,-8.336845398,6.923889160,-10.665908813,0.028703796,-0.184937805,1.025014043
133.563742,-8.336845398,6.923889160,-10.665908813,0.028703796,-0.184937805,1.025014043
133.564379,-8.336845398,6.923889160,-10.665908813,0.028703796,-0.184937805,1.025014043
133.564986,-8.336845398,6.923889160,-10.665908813,0.028703796,-0.184937805,1.025014043
133.565612,-8.336845398,6.923889160,-10.665908813,0.028703796,-0.184937805,1.025014043
133.603931,1.726325989,-22.609497070,-25.596633911,-0.019880189,0.185179383,1.024647832
133.618092,-5.536857605,-17.551208496,-17.250076294,-0.006696594,-0.179444641,1.029530644
133.633437,-7.924858093,-19.344116211,-21.186843872,-0.025373353,-0.062623352,1.057362676
133.671995,-8.298698425,-6.877685547,-22.087112427,-0.035871398,0.066771179,1.047963262
133.710494,-4.834953308,0.759338379,-19.920364380,0.005266296,-0.020264953,1.023182988
133.724674,-6.261650085,-3.658081055,-19.859329224,0.006364929,-0.000001281,0.999257207
133.740203,-4.125419617,-17.291809082,-24.818435669,-0.007184876,-0.128907531,0.958729863
133.778488,-2.385917664,-33.321166992,-23.948684692,-0.020734681,-0.002930969,0.932850957
133.816986,7.349189758,-44.002319336,-28.862014771,-0.100080386,0.099119812,0.895985723
133.831145,7.509407043,-33.893371582,-28.213516235,-0.139631167,-0.018922180,0.922963262
133.846708,6.509956360,-28.690124512,-31.318679810,-0.152448550,0.019041687,0.917470098
133.884998,8.951362610,-2.177978516,-36.468521118,-0.113996401,-0.072388977,0.948720098
133.885784,8.951362610,-2.177978516,-36.468521118,-0.113996401,-0.072388977,0.948720098
133.886594,8.951362610,-2.177978516,-36.468521118,-0.113996401,-0.072388977,0.948720098
133.887325,8.951362610,-2.177978516,-36.468521118,-0.113996401,-0.072388977,0.948720098
133.887960,7.097419739,0.835632324,-37.788406372,-0.094098940,-0.077393860,0.957265019
133.888579,7.097419739,0.835632324,-37.788406372,-0.094098940,-0.077393860,0.957265019
133.889233,7.097419739,0.835632324,-37.788406372,-0.094098940,-0.077393860,0.957265019
133.889867,7.097419739,0.835632324,-37.788406372,-0.094098940,-0.077393860,0.957265019
133.890522,7.097419739,0.835632324,-37.788406372,-0.094098940,-0.077393860,0.957265019
133.891150,7.097419739,0.835632324,-37.788406372,-0.094098940,-0.077393860,0.957265019
133.891805,7.097419739,0.835632324,-37.788406372,-0.094098940,-0.077393860,0.957265019
133.892443,7.097419739,0.835632324,-37.788406372,-0.094098940,-0.077393860,0.957265019
133.893093,7.097419739,0.835632324,-37.788406372,-0.094098940,-0.077393860,0.957265019
133.893730,7.097419739,0.835632324,-37.788406372,-0.094098940,-0.077393860,0.957265019
133.894392,7.097419739,0.835632324,-37.788406372,-0.094098940,-0.077393860,0.957265019
133.895022,7.097419739,0.835632324,-37.788406372,-0.094098940,-0.077393860,0.957265019
133.943935,8.333381653,13.637756348,-47.027603149,-0.073469058,-0.013917297,0.974354863
133.958138,4.778083801,16.880249023,-46.340957642,-0.029157532,-0.074097961,1.021351933
133.984004,1.917060852,17.620300293,-49.308792114,-0.014509095,-0.046021789,1.032216191
134.022616,-0.051322937,21.305297852,-52.459732056,0.017107116,-0.005372375,1.043690801
134.061107,-8.146110535,24.967407227,-45.349136353,0.086198911,-0.090577453,1.090077519
134.075289,-8.725944519,22.548889160,-46.318069458,0.093156919,-0.068604797,1.088002324
134.090813,-11.731925964,16.391967773,-46.577468872,0.105119810,-0.054444641,1.081654668
134.091561,-11.731925964,16.391967773,-46.577468872,0.105119810,-0.054444641,1.081654668
134.092199,-11.731925964,16.391967773,-46.577468872,0.105119810,-0.054444641,1.081654668
134.092845,-11.731925964,16.391967773,-46.577468872,0.105119810,-0.054444641,1.081654668
134.093470,-11.731925964,16.391967773,-46.577468872,0.105119810,-0.054444641,1.081654668
134.094123,-11.731925964,16.391967773,-46.577468872,0.105119810,-0.054444641,1.081654668
134.094753,-11.731925964,16.391967773,-46.577468872,0.105119810,-0.054444641,1.081654668
134.095409,-11.731925964,16.391967773,-46.577468872,0.105119810,-0.054444641,1.081654668
134.133545,-15.073600769,4.902099609,-42.312637329,0.112810239,0.024656922,1.028187871
134.172063,-8.458915710,-0.766540527,-40.657058716,0.053850282,0.005613953,0.976674199
134.186418,-5.040946960,-1.743103027,-41.160598755,0.052507509,-0.053712219,0.991078496
134.201749,-6.421867371,-2.597595215,-40.786758423,0.056291688,-0.083131164,0.994984746
134.240272,1.802619934,-9.639526367,-41.946426392,0.029558288,0.121702820,0.937733769
134.278585,6.189521790,1.919006348,-40.283218384,-0.016096009,0.062132508,0.960316777
134.292986,8.951362610,5.306457520,-39.833084106,-0.017194642,0.026243836,0.975209355
134.308336,7.677253723,8.602355957,-42.099014282,-0.016584290,-0.057496399,1.009389043
134.346869,10.446723938,10.349487305,-43.327346802,0.000749695,0.059080750,1.031972051
134.385385,6.052192688,11.989807129,-41.679397583,0.028337585,0.042723328,1.044545293
134.399561,5.891975403,11.188720703,-42.068496704,0.027238952,0.017943054,1.041371465
134.414907,4.335578918,6.595825195,-43.647781372,0.032976259,-0.049561828,1.031239629
134.415682,4.335578918,6.595825195,-43.647781372,0.032976259,-0.049561828,1.031239629
134.416321,4.335578918,6.595825195,-43.647781372,0.032976259,-0.049561828,1.031239629
134.416965,4.335578918,6.595825195,-43.647781372,0.032976259,-0.049561828,1.031239629
134.417579,4.335578918,6.595825195,-43.647781372,0.032976259,-0.049561828,1.031239629
134.418232,4.335578918,6.595825195,-43.647781372,0.032976259,-0.049561828,1.031239629
