time,gyro x,gyro y,gyro z,accel x,accel y,accel z
51.368873,0.343265533,-11.293075562,5.147319794,0.038145326,0.001970522,0.944518089
51.407584,7.263126373,-27.681015015,2.576213837,0.129698068,-0.018537290,0.990050316
51.421984,3.402652740,-33.517501831,3.529888153,0.136900216,-0.037946470,1.010436058
51.437447,2.334537506,-42.474411011,2.858501434,0.059751771,-0.013166197,0.994688988
51.475861,0.610294342,-40.147445679,-2.764362335,-0.025941588,-0.038678892,0.966856956
51.514069,0.999393463,9.275772095,-0.589984894,0.017393373,0.013811342,0.908751488
51.528501,1.625003815,30.126907349,4.361492157,0.079649232,-0.023908384,0.930846214
51.543824,1.884403229,35.116531372,5.696636200,0.074033998,-0.037214048,0.931578636
51.582339,1.670780182,48.002578735,1.790386200,0.031675600,-0.059674986,1.013854027
51.620737,-7.751522064,58.142044067,0.768047333,-0.033265807,-0.102155454,1.146300316
51.635055,-8.598384857,57.333328247,-2.718585968,-0.020448424,-0.060895689,1.144103050
51.650487,-10.185298920,53.686477661,-1.124042511,0.000059389,-0.059797056,1.123717308
51.688878,-9.849605560,31.751968384,0.050884247,0.062803529,-0.026593931,1.041563988
51.727307,-7.713375092,-14.489791870,-3.893512726,0.036436342,-0.059064634,0.945006371
51.741498,-5.592403412,-19.570968628,-1.871723175,0.025694154,-0.079450376,0.886290550
51.756927,-2.929744720,-21.730087280,-1.360553741,0.023985170,-0.037458189,0.834288597
51.795340,1.975955963,-15.611312866,-0.933307648,-0.010560729,-0.130231619,0.857237816
51.833712,3.761234283,4.064895630,4.475933075,-0.038758971,-0.144025564,0.853331566
51.848030,5.599918365,18.011428833,5.681377411,-0.030824400,-0.119855650,0.882262230
51.863326,5.683841705,22.207595825,6.337505341,-0.022035338,-0.131452322,0.901061058
51.901793,7.507266998,24.694778442,5.246501923,-0.030091979,-0.145002127,0.928282738
51.902538,7.507266998,24.694778442,5.246501923,-0.030091979,-0.145002127,0.928282738
51.903204,7.507266998,24.694778442,5.246501923,-0.030091979,-0.145002127,0.928282738
51.903871,7.507266998,24.694778442,5.246501923,-0.030091979,-0.145002127,0.928282738
51.904516,8.155765533,25.381423950,5.147319794,-0.032533385,-0.130964041,0.930724144
51.905174,8.155765533,25.381423950,5.147319794,-0.032533385,-0.130964041,0.930724144
51.905832,8.155765533,25.381423950,5.147319794,-0.032533385,-0.130964041,0.930724144
51.906494,8.155765533,25.381423950,5.147319794,-0.032533385,-0.130964041,0.930724144
51.907141,8.155765533,25.381423950,5.147319794,-0.032533385,-0.130964041,0.930724144
51.907816,8.155765533,25.381423950,5.147319794,-0.032533385,-0.130964041,0.930724144
51.908478,8.155765533,25.381423950,5.147319794,-0.032533385,-0.130964041,0.930724144
51.909138,8.155765533,25.381423950,5.147319794,-0.032533385,-0.130964041,0.930724144
51.909788,8.155765533,25.381423950,5.147319794,-0.032533385,-0.130964041,0.930724144
51.948116,6.973209381,15.364028931,6.650310516,0.015928529,-0.164045095,1.023497581
51.962314,6.759586334,9.809829712,5.635601044,0.004575990,-0.144635916,1.027159691
51.977779,4.768314362,4.598953247,6.001811981,-0.026063658,-0.139997244,1.005919456
52.016128,3.242435455,-4.388473511,7.932048798,0.003355287,-0.121564634,1.035826683
52.054513,4.676761627,-4.640243530,5.147319794,-0.078431822,-0.103254087,0.984313011
52.068870,4.974308014,1.959182739,6.688457489,-0.083924986,-0.095319517,0.990904808
52.084181,2.288761139,15.081741333,12.326580048,-0.062318541,-0.107892759,1.039977074
52.122679,0.701847076,6.605484009,8.290630341,-0.050355650,-0.102765806,1.026183128
52.161023,0.137271881,10.427810669,7.039409637,-0.081727721,-0.032575376,1.015074730
52.175384,-2.197322845,15.432693481,11.838298798,-0.034852721,-0.126813650,1.073546410
52.190847,-3.089962006,10.252334595,11.571269989,0.001402162,-0.090802915,1.091246605
52.229260,1.716556549,-19.448898315,3.087383270,-0.081605650,-0.123029478,1.054503441
52.230014,1.716556549,-19.448898315,3.087383270,-0.081605650,-0.123029478,1.054503441
52.230670,1.716556549,-19.448898315,3.087383270,-0.081605650,-0.123029478,1.054503441
52.231314,1.716556549,-19.448898315,3.087383270,-0.081605650,-0.123029478,1.054503441
52.231948,0.198307037,-15.344284058,5.597454071,-0.095643736,-0.106549986,1.046202660
52.280786,-4.180965424,1.219131470,10.800701141,-0.040834166,-0.073468931,1.117247581
52.306847,-0.885066986,-15.832565308,6.017070770,-0.070008971,-0.051496275,1.079649925
52.321243,-1.709041595,-13.436935425,5.475383759,-0.100770690,-0.089338072,1.052550316
52.359532,-3.089962006,9.352066040,7.985454559,-0.079408385,-0.036969908,1.095274925
52.397976,-2.449092865,-1.481674194,1.172405243,-0.067079283,-0.002179869,1.042540550
52.412147,-2.090511322,7.948257446,3.690105438,-0.131654471,0.052141421,0.990050316
52.427605,-1.426753998,14.524795532,2.972942352,-0.104310729,-0.027326353,1.012999535
52.428349,-1.426753998,14.524795532,2.972942352,-0.104310729,-0.027326353,1.012999535
52.429004,-1.426753998,14.524795532,2.972942352,-0.104310729,-0.027326353,1.012999535
52.429660,-1.426753998,14.524795532,2.972942352,-0.104310729,-0.027326353,1.012999535
52.430305,-1.426753998,14.524795532,2.972942352,-0.104310729,-0.027326353,1.012999535
52.430949,-5.645809174,20.063735962,5.483013153,-0.085756041,-0.063459165,1.008849144
52.431584,-5.645809174,20.063735962,5.483013153,-0.085756041,-0.063459165,1.008849144
52.432237,-5.645809174,20.063735962,5.483013153,-0.085756041,-0.063459165,1.008849144
52.432863,-5.645809174,20.063735962,5.483013153,-0.085756041,-0.063459165,1.008849144
52.433515,-5.645809174,20.063735962,5.483013153,-0.085756041,-0.063459165,1.008849144
52.434152,-5.645809174,20.063735962,5.483013153,-0.085756041,-0.063459165,1.008849144
52.434797,-5.645809174,20.063735962,5.483013153,-0.085756041,-0.063459165,1.008849144
52.435438,-5.645809174,20.063735962,5.483013153,-0.085756041,-0.063459165,1.008849144
52.436094,-5.645809174,20.063735962,5.483013153,-0.085756041,-0.063459165,1.008849144
52.436840,-5.645809174,20.063735962,5.483013153,-0.085756041,-0.063459165,1.008849144
52.437446,-5.645809174,20.063735962,5.483013153,-0.085756041,-0.063459165,1.008849144
52.475699,-2.639827728,13.952590942,2.950054169,-0.034974791,0.048601381,0.989195824
52.514139,3.204288483,20.521499634,5.299907684,-0.058168150,-0.041852720,1.027892113
52.528300,-0.358638763,20.109512329,6.726604462,-0.036317565,-0.080426939,1.050353050
52.543737,-2.052364349,8.642532349,5.528789520,-0.009584166,-0.026227720,1.054747581
52.582167,-2.449092865,-5.098007202,7.489543915,-0.054872252,0.055193178,1.042540550
52.620598,-3.662166595,-19.975326538,4.887920380,-0.067567565,0.005144350,1.016539574
52.634948,-2.761898041,-21.081588745,4.262310028,-0.076234557,-0.009137876,1.005309105
52.650227,-2.357540131,-13.520858765,5.559307098,-0.108094908,0.070696108,0.971861839
52.688672,-0.793514252,-4.998825073,7.939678192,-0.112611510,0.007219546,1.006651878
52.727069,-1.915035248,-7.684371948,2.675395966,-0.132020682,0.023088686,1.014098167
52.741388,-0.648555756,0.265457153,2.065044403,-0.139100760,0.091325991,1.001158714
52.756662,-0.099239349,5.110122681,1.889568329,-0.131288260,0.073137514,1.008727074
52.795118,-0.434932709,16.821243286,3.583293915,-0.094178893,0.002458803,1.084532738
52.833568,-3.402767181,23.016311646,11.304241180,-0.092836119,0.015398256,1.050841331
52.847749,-2.922115326,19.193984985,10.777812958,-0.103578307,0.010271303,1.046568871
52.863228,-2.609310150,7.894851685,8.443218231,-0.087953307,-0.012067564,1.057799339
52.901624,-2.563533783,-4.327438354,11.052471161,-0.110170104,-0.029401548,1.009947777
52.940061,0.953617096,-13.711593628,9.839397430,-0.163758963,-0.033063658,0.990172386
52.954236,0.892581940,-12.384078979,10.083538055,-0.169374198,-0.047712095,0.993834496
52.969702,0.183048248,-7.096908569,9.297710419,-0.172059745,-0.059674986,1.033873558
53.008139,-6.622371674,-8.462570190,4.079204559,-0.226381034,-0.075788267,1.002135277
53.046534,-3.395137787,-3.327987671,-4.130023956,-0.204286307,0.013078921,0.961730003
53.060886,-3.356990814,9.909011841,-1.192707062,-0.170106620,0.037981264,0.984435081
53.076201,-3.341732025,14.936782837,0.066143036,-0.157045096,0.049577944,1.007018089
53.125158,-4.287776947,6.643630981,-4.717487335,-0.154847831,-0.054425962,0.989928246
53.174116,1.747074127,8.322097778,-2.360004425,-0.130555838,0.063249819,0.985777855
53.188314,-2.296504974,2.447463989,-2.344745636,-0.120424010,-0.068952329,1.057799339
53.203631,-5.378780365,-4.312179565,-4.679340363,-0.122865416,-0.048322447,1.054137230
53.242111,3.791751862,-23.378036499,-9.577411652,-0.169618338,0.049089663,0.954039574
53.280529,-3.738460541,-1.168869019,-11.454242706,-0.092714049,0.066423647,0.952208519
53.294714,-4.303035736,11.961318970,-7.830280304,-0.073060729,0.071916811,0.920226097
53.310242,-0.320491791,31.637527466,-1.070636749,-0.084291197,0.104875796,0.892271996
53.348433,5.935611725,21.223403931,-6.403583527,-0.068544127,-0.071271665,0.953917503
53.386833,7.682743073,15.341140747,-3.908771515,-0.033509947,0.059953921,0.986632347
53.401026,6.553592682,17.126419067,-1.780170441,-0.028016783,0.056780092,0.988585472
53.416523,8.033695221,14.562942505,1.233440399,-0.013368346,0.052141421,0.974425316
53.454986,13.008060455,-16.137741089,-3.618854523,-0.064149596,-0.022809751,0.972472191
53.493331,9.170475006,-14.985702515,-0.780719757,-0.079896666,-0.037458189,0.967223167
53.507697,8.064212799,-9.156845093,1.912456512,-0.093690611,-0.017316587,0.947447777
53.523155,9.109439850,-7.585189819,1.141887665,-0.101625182,-0.018293150,0.956114769
53.561603,2.838077545,1.638748169,-1.543659210,-0.104066588,-0.090924986,1.056822777
53.599828,-2.059993744,16.378738403,-2.550739288,-0.099672057,-0.000470884,0.969298363
53.614204,0.221195221,24.381973267,-2.581256866,-0.083924986,-0.029279478,1.009093285
53.629532,-1.525936127,27.944900513,-0.658649445,-0.067323424,-0.065900572,1.049498558
53.667995,-7.827816010,13.037063599,2.385478973,-0.061830260,-0.017926939,1.023497581
53.706386,-0.701961517,-25.453231812,-3.145832062,-0.112977721,-0.042585142,1.043272972
53.720692,-0.946102142,-30.572555542,-3.359455109,-0.126649588,-0.029523619,1.040221214
53.735998,0.442447662,-33.563278198,-1.207965851,-0.170716971,0.055071108,0.984679222
53.774469,6.843509674,-13.223312378,-8.608478546,-0.211976737,0.012224428,1.090758324
53.812877,-3.433284760,21.025039673,-5.205768585,-0.109071471,0.121721499,1.056578636
53.827046,-0.885066986,22.543289185,-3.885883331,-0.104188658,0.133928537,1.024352074
53.842384,6.149234772,14.524795532,-4.702228546,-0.114076354,0.035661928,1.046568871
53.843182,6.149234772,14.524795532,-4.702228546,-0.114076354,0.035661928,1.046568871
53.843885,6.149234772,14.524795532,-4.702228546,-0.114076354,0.035661928,1.046568871
53.844579,6.149234772,14.524795532,-4.702228546,-0.114076354,0.035661928,1.046568871
53.845232,6.149234772,14.524795532,-4.702228546,-0.114076354,0.035661928,1.046568871
53.845901,6.149234772,14.524795532,-4.702228546,-0.114076354,0.035661928,1.046568871
53.846567,6.149234772,14.524795532,-4.702228546,-0.114076354,0.035661928,1.046568871
53.847240,6.149234772,14.524795532,-4.702228546,-0.114076354,0.035661928,1.046568871
53.885580,-2.143917084,-16.160629272,-8.875507355,-0.128846854,-0.075177915,1.113097191
53.886335,-2.143917084,-16.160629272,-8.875507355,-0.128846854,-0.075177915,1.113097191
53.886998,-2.143917084,-16.160629272,-8.875507355,-0.128846854,-0.075177915,1.113097191
53.887662,-2.143917084,-16.160629272,-8.875507355,-0.128846854,-0.075177915,1.113097191
53.925918,-2.349910736,-13.147018433,-6.380695343,-0.192079276,0.059709780,0.918517113
53.940114,-0.083980560,-11.048934937,-7.425922394,-0.179383963,0.050310366,0.906065941
53.966191,4.470767975,-1.687667847,-5.266803741,-0.182924002,0.107195131,0.909972191
54.004622,3.608646393,5.407669067,-7.082599640,-0.134950370,-0.056257017,1.026061058
54.043012,-2.235469818,-3.465316772,-6.960529327,-0.101381041,0.036028139,0.921202660
54.057427,0.175418854,-1.916549683,-4.671710968,-0.109071471,0.074358217,0.901061058
54.072731,2.143802643,0.784255981,-2.596515656,-0.125673026,0.015642397,0.920226097
54.111239,-2.441463470,-4.914901733,-5.518573761,-0.106996275,-0.004010923,0.933043480
54.149580,-1.411495209,3.828384399,-2.001422882,-0.108216979,-0.005841978,0.917052269
54.163925,-2.479610443,12.258865356,-0.345844269,-0.101503111,0.016130678,0.930602074
54.189746,-4.348812103,16.546585083,1.515727997,-0.080873229,0.039079897,0.875182152
54.228337,5.065860748,11.183120728,6.711345673,-0.098207213,-0.018049009,0.902159691
54.266752,3.890933990,-16.778610229,5.299907684,-0.116639830,-0.005231626,0.995909691
54.280934,6.843509674,-28.428695679,6.406169891,-0.148622245,0.091570131,0.966490746
54.296367,10.169925690,-31.228683472,6.749492645,-0.177919120,0.080827944,0.974791527
54.334770,6.202640533,-22.134445190,3.194194794,-0.252137870,-0.000959165,1.072447777
54.373167,8.369388580,1.806594849,-2.283710480,-0.305604666,0.119035952,0.992613792
54.387330,6.553592682,5.956985474,-5.236286163,-0.276551932,0.028948061,0.997252464
54.402827,10.063114166,8.947708130,-7.288593292,-0.198915213,0.123552553,1.027892113
54.441223,9.559574127,-12.895248413,-11.080402374,-0.239076346,0.098894350,1.065245628
54.479640,1.289310455,8.581497192,-15.314716339,-0.164613456,-0.007917173,1.020934105
54.493955,-1.213130951,9.008743286,-13.346332550,-0.116761900,0.036760561,0.973082542
54.509446,5.851688385,5.369522095,-15.329975128,-0.147767752,0.197649240,0.875548363
54.510201,5.851688385,5.369522095,-15.329975128,-0.147767752,0.197649240,0.875548363
54.548466,5.142154694,21.925308228,-10.523456573,-0.100770690,-0.021344908,0.938292503
54.586792,3.707828522,16.188003540,-14.780658722,-0.059144713,0.044328921,0.893248558
54.601162,8.529605865,14.654495239,-11.637348175,-0.080873229,0.066789858,0.951720238
54.616473,3.951969147,14.913894653,-12.949604034,-0.085511900,-0.050031431,0.965270042
54.654961,0.511112213,4.087783813,-13.117450714,-0.047303893,-0.027570494,0.843321800
54.693314,-0.213680267,-3.839157104,-14.025348663,-0.116273619,-0.073102720,0.942198753
54.707676,1.960697174,7.086135864,-5.045551300,-0.079286315,0.137590647,0.890440941
54.723003,4.692020416,7.665969849,-3.000873566,-0.083558775,0.106340639,0.882994652
54.761491,5.798282623,1.791336060,-20.388263702,-0.124940611,0.020647280,1.016051292
54.812147,4.493656158,14.616348267,-9.340900421,-0.094423033,0.249407053,1.017394066
54.826371,8.155765533,0.730850220,-14.933246613,-0.100404479,0.208879709,1.121886253
54.841871,0.923099518,-4.060409546,-15.833515167,-0.078920104,0.070207827,1.137999535
54.880246,-10.406551361,-19.723556519,-8.768695831,-0.096986510,0.111955874,1.080992699
54.918645,10.429325104,-33.616683960,-5.907672882,-0.180238456,0.183611155,1.089537621
54.932814,12.634220123,-38.232467651,-5.114215851,-0.179017752,0.168474436,1.148619652
54.948282,6.164493561,-61.395309448,-6.418842316,-0.173036307,0.107317202,1.200621605
54.986643,3.425540924,-87.503097534,-28.635639191,-0.348329276,0.041155092,1.074767113
55.035566,4.707279205,1.631118774,-18.038410187,-0.160096854,-0.129499197,0.959166527
55.051298,5.683841705,6.224014282,-18.221515656,-0.142274588,-0.127179861,0.954039574
55.065461,5.699100494,14.410354614,-13.254779816,-0.160463065,-0.142560720,0.984923363
55.103807,2.654972076,13.433792114,-12.026447296,-0.143617362,0.091570131,0.947569847
55.142242,1.563968658,-9.767196655,-22.852558136,-0.174745291,0.034075014,0.981749535
55.156568,-2.014217377,-6.753585815,-20.052570343,-0.183656424,0.018083803,0.954771996
55.171858,-3.562984467,-0.573776245,-17.016071320,-0.181215018,-0.000104673,0.934264183
55.172658,-3.562984467,-0.573776245,-17.016071320,-0.181215018,-0.000104673,0.934264183
55.173336,-4.135189056,3.424026489,-16.344684601,-0.160585135,0.001238100,0.916808128
55.174000,-4.135189056,3.424026489,-16.344684601,-0.160585135,0.001238100,0.916808128
55.212325,7.087650299,1.814224243,-14.254230499,-0.166810721,0.122453921,0.906798363
55.250713,3.707828522,-7.501266479,-16.573566437,-0.138734549,0.012224428,0.977843285
55.264895,6.431522369,-10.057113647,-12.018817902,-0.151796073,0.133074045,0.934386253
55.280206,9.971561432,-12.307785034,-11.553424835,-0.180604666,0.146501780,0.950499535
55.318703,0.282230377,-3.152511597,-23.516315460,-0.225160331,0.096819155,1.006285667
55.357128,9.178104401,4.209854126,-13.590473175,-0.161317557,0.119280092,0.998229027
55.371311,8.888187408,-0.802658081,-21.441120148,-0.192445487,0.093401186,1.036925316
55.397480,1.007022858,2.928115845,-20.739215851,-0.145204276,0.030290835,1.028502464
55.435975,10.330142975,-6.532333374,-16.695636749,-0.185853690,0.131731272,1.066222191
55.474312,5.386295319,-2.046249390,-28.933185577,-0.279725760,0.182146311,1.060973167
55.488667,4.341068268,6.643630981,-26.339191437,-0.239686698,0.172746897,1.061827660
55.504113,2.624454498,8.352615356,-21.906513214,-0.193177909,0.181535959,1.094664574
55.504825,2.624454498,8.352615356,-21.906513214,-0.193177909,0.181535959,1.094664574
55.505463,2.624454498,8.352615356,-21.906513214,-0.193177909,0.181535959,1.094664574
55.543734,-4.959163666,-5.601547241,-38.683551788,-0.256044120,0.118913881,1.012877464
55.582096,6.294193268,6.193496704,-30.588764191,-0.157533377,0.095232241,1.004820824
55.596381,4.821720123,-0.581405640,-33.350605011,-0.152284354,0.080950014,1.017638206
55.611845,3.608646393,-14.924667358,-37.302631378,-0.171693534,0.159197092,0.996764183
55.660789,2.654972076,-5.250595093,-37.630695343,-0.213075370,0.155290842,0.870421410
55.699285,3.005924225,-3.915451050,-46.671527863,-0.188539237,0.086809389,0.888976097
55.713462,3.311100006,-0.482223511,-46.763080597,-0.144960135,0.100359194,0.855162621
55.728922,4.920902252,2.523757935,-44.878620148,-0.126893729,0.081682436,0.846495628
55.767333,6.118717194,-0.611923218,-43.543476105,-0.135560721,0.081682436,0.891905785
55.805757,6.187381744,7.978775024,-41.666645050,-0.140809745,0.112322085,0.892638206
55.820062,6.782474518,7.910110474,-42.994159698,-0.130922049,0.094988100,0.924010277
55.835493,6.767215729,3.736831665,-46.396869659,-0.130067557,0.111589663,0.937438011
55.836241,6.767215729,3.736831665,-46.396869659,-0.130067557,0.111589663,0.937438011
55.836888,6.767215729,3.736831665,-46.396869659,-0.130067557,0.111589663,0.937438011
55.875210,-0.221309662,3.820755005,-50.783771515,-0.156068534,0.030534975,0.968565941
55.913579,8.102359772,3.538467407,-51.371234894,-0.151674002,0.188860178,0.978209496
55.927874,9.239139557,-1.512191772,-54.415363312,-0.145448416,0.152727365,1.014464378
55.943295,5.020084381,-6.822250366,-54.407733917,-0.135316581,0.090105288,1.048155785
55.981701,8.834781647,-12.513778687,-48.151630402,-0.170106620,0.287615061,0.978331566
56.020073,16.487064362,-37.027023315,-62.838214874,-0.163270682,0.224138498,1.114317894
56.034437,14.228763580,-40.345809937,-58.359760284,-0.148622245,0.217058420,1.103087425
56.049859,13.297977448,-50.889633179,-57.032245636,-0.176942557,0.251238108,1.075011253
56.088242,7.514896393,-37.042282104,-65.432205200,-0.291688651,0.118791811,1.115416527
56.126578,-0.549373627,-13.879440308,-56.490558624,-0.154115409,0.164812326,1.040953636
56.140925,3.448429108,-14.299057007,-54.896015167,-0.174989432,0.177141428,1.042540550
56.156354,1.991214752,-16.358993530,-56.963581085,-0.172792166,0.092058413,1.065978050
56.194796,-4.463253021,-16.511581421,-54.110187531,-0.125428885,0.089372866,0.986021996
56.233181,-2.792415619,-13.734481812,-53.072589874,-0.190736502,0.049333803,1.019713402
56.247495,-7.789669037,-9.454391479,-52.584308624,-0.153260916,0.049211733,1.014342308
56.262800,-9.826717377,-7.737777710,-49.646991730,-0.135072440,0.051164858,0.995787621
56.301271,-7.347164154,-8.439682007,-49.181598663,-0.152650565,0.062151186,0.975646019
56.339657,-8.857784271,5.331375122,-47.518390656,-0.111390807,0.057512514,0.974791527
56.354005,-7.820186615,6.552078247,-43.841022491,-0.101381041,0.079607241,0.967711449
56.369305,-2.037105560,0.036575317,-46.328205109,-0.135072440,0.112322085,1.001158714
56.407710,-5.294857025,-20.509384155,-46.969074249,-0.117006041,0.071062319,1.052672386
56.456593,-3.913936615,-24.278305054,-45.626300812,-0.208558768,0.096330874,1.055846214
56.470822,-6.813106537,-20.318649292,-48.464435577,-0.210023612,0.072649233,1.074034691
56.486328,-13.694820404,-11.338851929,-47.159809113,-0.143983573,0.086321108,1.035338402
56.524751,-0.846920013,8.245803833,-42.566913605,-0.185853690,0.077898256,1.068663597
56.563118,-15.937862396,28.311111450,-45.038837433,-0.146302909,0.159441233,1.072447777
56.589225,-8.522090912,26.090957642,-37.340778351,-0.074891783,0.147112131,0.988951683
56.603591,-4.615840912,20.819046021,-35.944599152,-0.089174010,0.149309397,1.007750511
56.641962,-7.530269623,-4.449508667,-34.708637238,-0.081239440,0.058122866,0.994078636
56.680355,2.082767487,-21.325729370,-31.817096710,-0.139711112,0.151262522,0.928893089
56.694662,1.373233795,-15.458724976,-31.496662140,-0.173158377,-0.006574400,0.999693871
56.710009,-3.234920502,-9.347579956,-30.306476593,-0.167909354,-0.033918150,1.000914574
56.748460,0.610294342,4.209854126,-23.287433624,-0.109681822,0.085344546,0.911803246
56.786847,-0.602779388,-4.228256226,-30.939716339,-0.141664237,-0.010968931,1.032774925
56.801231,-4.303035736,-3.099105835,-30.985492706,-0.135316581,0.010637514,1.021910667
56.816534,-2.464351654,0.875808716,-26.629108429,-0.101381041,0.134660959,0.976988792
56.854961,-6.050167084,-2.397201538,-31.717914581,-0.150453299,0.007097475,1.073546410
56.893377,-15.800533295,17.462112427,-24.378437042,-0.098451354,0.072771303,0.960143089
56.907551,-11.673030853,18.408157349,-20.456928253,-0.073793150,0.084245913,0.958434105
56.923007,-9.140071869,15.371658325,-23.867267609,-0.108583190,-0.027814634,1.032774925
56.961417,-18.348751068,16.546585083,-23.722309113,-0.094423033,0.021990053,1.002989769
56.999861,-7.942256927,2.317764282,-18.038410187,-0.086610533,0.056291811,0.956969261
57.014028,-3.593502045,-7.157943726,-22.349018097,-0.133729666,0.068132631,1.008849144
57.029500,-4.028377533,-9.034774780,-23.249286652,-0.126771659,0.027483217,1.024107933
57.067893,-2.449092865,-6.990097046,-15.162128448,-0.107118346,0.085344546,1.000548363
57.106282,-0.083980560,-8.172653198,-13.826984406,-0.212098807,0.108537905,0.999449730
57.120601,-0.396785736,-1.619003296,-16.024250031,-0.208558768,0.065935366,1.003111839
57.135880,-4.425106049,13.830520630,-18.030780792,-0.173036307,0.009294741,0.984313011
57.174333,1.922550201,11.488296509,-11.767047882,-0.114564635,-0.042585142,1.003600121
57.175062,1.922550201,11.488296509,-11.767047882,-0.114564635,-0.042585142,1.003600121
57.175711,1.922550201,11.488296509,-11.767047882,-0.114564635,-0.042585142,1.003600121
57.176372,1.922550201,11.488296509,-11.767047882,-0.114564635,-0.042585142,1.003600121
57.177008,1.922550201,11.488296509,-11.767047882,-0.114564635,-0.042585142,1.003600121
57.177673,1.922550201,11.488296509,-11.767047882,-0.114564635,-0.042585142,1.003600121
57.178317,1.922550201,11.488296509,-11.767047882,-0.114564635,-0.042585142,1.003600121
57.178981,1.922550201,11.488296509,-11.767047882,-0.114564635,-0.042585142,1.003600121
57.179627,1.922550201,11.488296509,-11.767047882,-0.114564635,-0.042585142,1.003600121
57.180285,1.922550201,11.488296509,-11.767047882,-0.114564635,-0.042585142,1.003600121
57.180922,1.075687408,4.927017212,-13.643878937,-0.144715995,0.037370913,1.005919456
57.181586,1.075687408,4.927017212,-13.643878937,-0.144715995,0.037370913,1.005919456
57.182220,1.075687408,4.927017212,-13.643878937,-0.144715995,0.037370913,1.005919456
57.182879,1.075687408,4.927017212,-13.643878937,-0.144715995,0.037370913,1.005919456
57.183514,1.075687408,4.927017212,-13.643878937,-0.144715995,0.037370913,1.005919456
57.221811,-0.251827240,9.069778442,-6.792682648,-0.168763846,0.070207827,0.953551292
57.236128,0.923099518,10.366775513,-4.175800323,-0.150209159,0.075945131,0.949034691
57.251546,1.830997467,-1.794479370,-2.512592316,-0.133851737,0.031755678,0.958312035
57.300455,-2.029476166,-0.466964722,-4.145282745,-0.247010916,-0.095929869,0.968077660
57.338925,-1.556453705,8.444168091,1.279216766,-0.171693534,-0.054181822,0.979186058
57.353098,-7.659969330,-5.311630249,-4.931110382,-0.184510916,-0.080915220,0.974181175
57.368525,-7.415828705,-8.935592651,-6.693500519,-0.226869315,0.018327944,0.942809105
57.406948,-10.292110443,12.281753540,-4.465717316,-0.213929862,-0.113019712,0.960387230
57.445370,-2.540645599,-10.125778198,-3.672260284,-0.180848807,-0.053449400,0.941954613
57.459530,-3.669795990,-18.182418823,-3.794330597,-0.228456229,-0.061506040,0.955992699
57.485537,-0.915584564,-16.938827515,-1.108783722,-0.244935721,-0.024030454,0.963072777
57.524057,2.113285065,-29.855392456,-7.357257843,-0.258607596,-0.004255064,0.982970238
57.562433,-6.591854095,-16.763351440,-5.564350128,-0.213929862,-0.082990415,1.031798363
57.576768,-5.706844330,-16.847274780,-4.313129425,-0.187318534,-0.029645689,1.015196800
57.592207,0.083866119,-19.807479858,-3.641742706,-0.243104666,0.008928530,1.013487816
57.630645,-8.590755463,14.250137329,-7.212299347,-0.277284354,-0.060041197,1.058897972
57.669062,-3.631649017,13.929702759,-3.527301788,-0.169618338,0.028093569,1.015074730
57.683239,0.305118561,5.842544556,-6.357807159,-0.199403495,0.085344546,1.006896019
57.698681,3.745975494,-0.253341675,-5.610126495,-0.190492362,-0.000470884,1.035338402
57.737091,0.060977936,-5.456588745,-2.955097198,-0.136049002,0.044695131,0.975401878
57.775421,4.554691315,-2.435348511,-0.383991241,-0.223573416,0.004778139,0.983824730
57.789804,1.022281647,11.816360474,-1.848834991,-0.221864432,0.022356264,0.975768089
57.805082,1.037540436,16.302444458,-1.284259796,-0.183778495,0.036760561,0.963683128
57.843501,3.066959381,6.346084595,0.111919403,-0.159120291,0.044450991,0.940367699
57.881834,4.981937408,-4.365585327,-1.772541046,-0.162049979,-0.007062681,0.948912621
57.896221,5.538883209,-12.452743530,-2.649921417,-0.125306815,-0.013654478,0.937682152
57.911670,6.751956940,-17.343185425,-2.337116241,-0.122865416,-0.013288267,0.937682152
57.950077,-0.801143646,-12.475631714,-5.503314972,-0.234437674,-0.126081228,0.995665550
57.988481,-4.333553314,12.571670532,-1.368183136,-0.137025565,-0.043073423,0.956725121
58.002658,-3.418025970,11.656143188,-1.787799835,-0.141786307,-0.004010923,0.963683128
58.018125,-2.662715912,6.971694946,-3.840106964,-0.137025565,-0.040143736,0.997740746
58.056521,-7.125911713,1.623489380,-1.299518585,-0.106630065,-0.044294126,0.973937035
58.094913,-3.318843842,-7.791183472,0.089031219,-0.157167166,-0.030378111,1.034361839
58.109236,-4.608211517,-8.523605347,-2.176898956,-0.175599784,0.015276186,1.027770042
58.124519,-3.204402924,-5.609176636,-2.199787140,-0.152528495,0.039568178,1.005797386
58.162911,2.738895416,-13.917587280,-0.330585480,-0.101625182,0.029802553,1.010069847
58.163647,2.738895416,-13.917587280,-0.330585480,-0.101625182,0.029802553,1.010069847
58.164299,4.791202545,-21.951339722,-1.238483429,-0.102845885,0.034563296,1.026427269
58.164935,4.791202545,-21.951339722,-1.238483429,-0.102845885,0.034563296,1.026427269
58.165574,4.791202545,-21.951339722,-1.238483429,-0.102845885,0.034563296,1.026427269
58.166196,4.791202545,-21.951339722,-1.238483429,-0.102845885,0.034563296,1.026427269
58.166832,4.791202545,-21.951339722,-1.238483429,-0.102845885,0.034563296,1.026427269
58.167477,4.791202545,-21.951339722,-1.238483429,-0.102845885,0.034563296,1.026427269
58.168111,4.791202545,-21.951339722,-1.238483429,-0.102845885,0.034563296,1.026427269
58.168747,4.791202545,-21.951339722,-1.238483429,-0.102845885,0.034563296,1.026427269
58.169390,4.791202545,-21.951339722,-1.238483429,-0.102845885,0.034563296,1.026427269
58.170029,4.791202545,-21.951339722,-1.238483429,-0.102845885,0.034563296,1.026427269
58.170671,4.791202545,-21.951339722,-1.238483429,-0.102845885,0.034563296,1.026427269
58.171315,4.791202545,-21.951339722,-1.238483429,-0.102845885,0.034563296,1.026427269
58.171946,4.791202545,-21.951339722,-1.238483429,-0.102845885,0.034563296,1.026427269
58.172586,4.791202545,-21.951339722,-1.238483429,-0.102845885,0.034563296,1.026427269
58.221397,6.271305084,-37.728927612,0.501018524,-0.135072440,0.008928530,0.969054222
58.235845,10.299625397,-26.467941284,5.513530731,-0.215272635,0.062761538,0.952574730
58.251137,12.847843170,-15.512130737,1.469951630,-0.277772635,0.085344546,0.971373558
58.289583,3.684940338,35.292007446,-1.597064972,-0.174745291,0.027971499,1.050475121
58.327942,3.196659088,34.345962524,-0.559467316,-0.117006041,0.072649233,1.021422386
58.342317,3.120365143,30.241348267,-0.589984894,-0.111512877,0.063127749,1.022276878
58.357772,2.311649323,20.468093872,0.409465790,-0.100770690,0.052995913,1.004210472
58.406728,4.989566803,-3.930709839,5.040508270,-0.122865416,-0.028913267,0.980895042
58.445153,1.449527740,-6.539962769,7.649761200,-0.159242362,-0.030256040,0.989928246
58.459456,0.633182526,-6.753585815,7.008892059,-0.162172049,-0.047467954,0.988585472
58.474756,-1.091060638,-5.479476929,7.420879364,-0.179017752,-0.022565611,0.985899925
58.513166,-3.807125092,0.440933228,4.872661591,-0.211000174,-0.013776548,1.008360863
58.551563,-4.585323334,-1.641891479,5.055767059,-0.189759940,0.037248842,0.991148949
58.565850,-2.838191986,-9.103439331,0.218730927,-0.192079276,-0.015363462,1.003478050
58.581363,-2.830562592,-8.866928101,1.584392548,-0.203065604,-0.023175962,1.008849144
58.619702,-8.216915131,-4.075668335,4.887920380,-0.174867362,-0.103498228,1.068785667
58.668652,-7.080135345,0.242568970,0.729900360,-0.260560721,-0.001813658,1.060118675
58.684327,-9.407100677,20.071365356,5.986553192,-0.215516776,0.003069155,1.094908714
58.698502,-10.818538666,24.031021118,7.657390594,-0.180726737,0.005266421,1.106017113
58.736819,-10.452327728,5.979873657,2.316814423,-0.190858573,0.041521303,1.086485863
58.775195,-5.157527924,-5.693099976,3.720623016,-0.127382010,-0.012799986,1.080870628
58.789554,-5.134639740,-12.056015015,4.674297333,-0.123719908,-0.013410337,1.071715355
58.805007,-1.510677338,-24.385116577,2.675395966,-0.170594901,0.037248842,1.049742699
58.843439,-4.089412689,-13.475082397,2.927165985,-0.198304862,0.019914858,1.002013206
58.881850,-5.279598236,6.964065552,-0.239032745,-0.227845877,0.031145327,0.959776878
58.896035,-5.546627045,15.272476196,-1.452106476,-0.236024588,0.038835756,0.944151878
58.911476,-5.798397064,33.735610962,-1.528400421,-0.173158377,-0.020856626,0.931700706
58.949894,-5.722103119,38.969375610,2.484661102,-0.081727721,-0.016584165,0.889708519
58.988320,-1.625118256,22.779800415,3.117900848,-0.080507018,-0.062238462,0.897765160
59.002647,-3.479061127,13.632156372,3.560405731,-0.072450377,-0.091413267,0.894591331
59.018088,-3.036556244,9.809829712,5.597454071,-0.072084166,-0.070905454,0.895934105
59.056503,-4.226741791,-9.423873901,7.451396942,-0.113832213,-0.034284361,0.882506371
59.094885,0.282230377,-15.115402222,9.633403778,-0.153016776,-0.025495298,0.894225121
59.109215,3.990116119,-18.632553101,9.763103485,-0.177064627,-0.045392759,0.961607933
59.135243,0.122013092,-27.162216187,3.125530243,-0.193788260,-0.096540220,1.002867699
59.173708,-0.145015717,-15.542648315,2.255779266,-0.196351737,-0.072126158,1.032042503
59.212114,-3.784236908,-9.713790894,-1.406330109,-0.250184745,0.063616030,1.074522972
59.226472,-4.470882416,-3.694198608,-5.159992218,-0.268617362,0.026750796,1.091368675
59.241742,-12.275753021,14.685012817,-4.152912140,-0.200868338,-0.036115415,1.082579613
59.280201,-9.948787689,11.663772583,-0.124591827,-0.128480643,-0.032087095,1.075865746
59.318596,-0.289974213,-4.693649292,-1.497882843,-0.180238456,-0.007428892,1.008116722
59.332910,-0.167903900,-2.198837280,0.439983368,-0.180726737,-0.066999204,1.008971214
59.348388,4.104557037,-2.313278198,2.095561981,-0.165101737,0.061174624,0.972594261
59.386808,10.803165436,-21.020553589,-3.130573273,-0.175965995,-0.034650572,1.053038597
59.425212,6.980838776,-10.659835815,2.965312958,-0.214906424,0.031511538,1.023009300
59.439557,2.563419342,-4.647872925,1.210552216,-0.216371268,-0.000348814,1.006651878
59.454974,2.784671783,-1.947067261,0.981670380,-0.243104666,0.098772280,0.984068871
59.493349,-1.045284271,10.748245239,-3.885883331,-0.181581229,-0.067121275,1.005919456
59.531743,0.213565826,1.837112427,-1.772541046,-0.172059745,-0.022199400,0.964293480
59.546072,-1.754817963,-0.344894409,-5.388874054,-0.214784354,-0.080793150,0.988463402
59.561506,-4.440364838,1.821853638,-5.388874054,-0.198182791,-0.108747251,0.995665550
59.562226,-4.440364838,1.821853638,-5.388874054,-0.198182791,-0.108747251,0.995665550
59.562852,-4.440364838,1.821853638,-5.388874054,-0.198182791,-0.108747251,0.995665550
59.563504,-4.440364838,1.821853638,-5.388874054,-0.198182791,-0.108747251,0.995665550
59.564131,-4.440364838,1.821853638,-5.388874054,-0.198182791,-0.108747251,0.995665550
59.613006,-6.095943451,-7.814071655,-2.855915070,-0.174623221,0.021135561,0.904723167
59.651451,-4.890499115,9.222366333,-6.228107452,-0.224061698,-0.128888845,0.982848167
59.665770,-9.338436127,18.888809204,-2.901691437,-0.147523612,-0.145978689,0.989439964
59.681209,-10.124263763,18.507339478,-2.535480499,-0.125306815,-0.150129080,0.982115746
59.719627,-0.755367279,3.492691040,-0.666278839,-0.130189627,-0.124494322,1.007506371
59.758018,-3.891048431,-17.701766968,4.506450653,-0.112489440,-0.004377134,0.989073753
59.772374,-0.381526947,-23.317001343,3.835063934,-0.147645682,-0.001081236,0.993834496
59.787795,0.633182526,-26.208541870,4.521709442,-0.220033377,-0.055036314,1.025694847
59.826239,-1.014766693,-7.722518921,-1.330036163,-0.166200370,-0.073102720,1.033385277
59.864623,5.615177155,-0.566146851,-4.336017609,-0.198060721,-0.028913267,1.011900902
59.878967,3.509464264,6.185867310,-3.763813019,-0.178041190,-0.118024595,1.034483910
59.894411,-1.716670990,16.462661743,0.165325165,-0.125184745,-0.039777525,0.999693871
59.895141,-1.716670990,16.462661743,0.165325165,-0.125184745,-0.039777525,0.999693871
59.895786,-1.716670990,16.462661743,0.165325165,-0.125184745,-0.039777525,0.999693871
59.896437,-1.716670990,16.462661743,0.165325165,-0.125184745,-0.039777525,0.999693871
59.897077,-1.716670990,16.462661743,0.165325165,-0.125184745,-0.039777525,0.999693871
59.897702,-1.716670990,16.462661743,0.165325165,-0.125184745,-0.039777525,0.999693871
59.898343,-1.716670990,16.462661743,0.165325165,-0.125184745,-0.039777525,0.999693871
59.898979,-1.716670990,16.462661743,0.165325165,-0.125184745,-0.039777525,0.999693871
59.899611,-1.716670990,16.462661743,0.165325165,-0.125184745,-0.039777525,0.999693871
59.937909,8.315982819,11.694290161,1.324993134,-0.110048033,-0.041608579,1.008605003
59.986827,3.082218170,7.925369263,6.116252899,-0.112123229,-0.001935728,0.938170433
60.001199,4.501285553,6.819107056,4.910808563,-0.128480643,0.005876772,0.929137230
60.016633,7.347049713,4.675247192,3.072124481,-0.133973807,0.015276186,0.919615746
60.055053,7.797183990,-1.237533569,3.781658173,-0.106630065,-0.049176939,0.917906761
60.093485,9.406986237,-14.650009155,0.562053680,-0.135316581,-0.043073423,0.915831566
60.107798,8.926334381,-15.123031616,-0.345844269,-0.144227713,-0.055280454,0.923644066
60.123220,5.248966217,-10.385177612,1.653057098,-0.132875174,-0.097760923,0.928771019
60.161640,5.882205963,-5.876205444,3.003459930,-0.183534354,-0.028547056,0.937804222
60.200016,-1.960811615,12.373306274,-0.017780304,-0.218690604,-0.078595884,0.961852074
60.214364,-2.441463470,20.452835083,1.454692841,-0.152528495,-0.045636900,0.959288597
60.229800,-2.456722260,18.232681274,0.127178192,-0.132508963,-0.075544126,0.957335472
60.230546,-2.456722260,18.232681274,0.127178192,-0.132508963,-0.075544126,0.957335472
60.231188,-1.930294037,13.067581177,-0.544208527,-0.124940611,-0.059064634,0.944029808
60.269479,5.691471100,-5.235336304,-3.252643585,-0.146424979,-0.109235533,1.012999535
60.307871,1.693668365,-22.142074585,-1.886981964,-0.132508963,-0.019269712,0.998106956
60.322192,10.650577545,-25.933883667,-2.001422882,-0.205751151,0.064104311,1.031432152
60.337633,10.200443268,-23.561141968,-2.520221710,-0.228578299,-0.022565611,1.071715355
60.376046,0.221195221,-2.969406128,-4.679340363,-0.166078299,-0.020246275,1.080748558
60.414417,7.369937897,-0.108383179,-5.190509796,-0.220887870,0.092424624,1.070372581
60.428767,5.042972565,0.082351685,-8.318561554,-0.217714041,0.077776186,1.068541527
60.444199,6.393375397,2.256729126,-7.700580597,-0.174379081,0.154070139,1.004576683
60.482614,11.009159088,-0.413558960,-4.740375519,-0.143739432,-0.049054869,1.067442894
60.521062,3.433170319,4.118301392,-1.604694366,-0.177674979,0.005632631,1.049742699
60.535215,0.846805573,4.827835083,-1.833576202,-0.179628104,0.075456850,1.010802269
60.550648,6.988468170,5.216934204,-0.498432159,-0.200013846,0.190202951,0.958434105
60.589078,0.801029205,11.129714966,-6.418842316,-0.168031424,-0.018171079,0.988463402
60.638011,2.952518463,-1.161239624,-6.357807159,-0.120912291,-0.017560728,0.949156761
60.652228,7.873477936,-10.537765503,-5.327838898,-0.125184745,0.036272280,0.955382347
60.667528,7.827701569,-14.840744019,-4.908222198,-0.124818541,-0.045636900,0.978941917
60.705963,6.507816315,-28.710983276,-3.428119659,-0.111268736,-0.004255064,0.954405785
60.744385,2.716007233,-29.458663940,-3.809589386,-0.180116385,-0.056745298,1.015807152
60.758542,1.205387115,-16.839645386,-2.535480499,-0.172548026,-0.016828306,0.991637230
60.773985,2.181949615,-12.162826538,-0.742572784,-0.152284354,-0.004743345,1.000304222
60.812324,1.426639557,-6.234786987,-4.755634308,-0.148866385,-0.037580259,1.077940941
60.850712,-10.231075287,7.841445923,-0.696796417,-0.085878111,-0.036603697,1.070616722
60.876754,-6.416378021,6.201126099,1.347881317,-0.101136900,0.074846499,1.040953636
60.891179,-2.075252533,2.317764282,-1.070636749,-0.126527518,0.050310366,1.089537621
60.929415,-6.004390717,-3.808639526,-0.177997589,-0.085023619,0.047991030,1.066588402
60.978318,1.213016510,-14.299057007,-3.405231476,-0.124086119,-0.010846861,1.102599144
60.993971,-1.442012787,-9.812973022,1.576763153,-0.121644713,0.032854311,1.085875511
61.008156,-1.487789154,-5.098007202,3.384929657,-0.120912291,0.071672671,1.050353050
61.046450,-0.480709076,-5.075119019,-0.338214874,-0.133363456,0.082536928,1.020689964
61.084852,-3.448543549,-0.268600464,-4.213947296,-0.111512877,0.028825991,1.002135277
61.099186,-5.004940033,5.224563599,-2.039569855,-0.101381041,0.071672671,0.949278831
61.114418,-3.654537201,6.399490356,-2.916950226,-0.100892760,0.092912905,0.929991722
61.152861,1.960697174,11.190750122,-2.565998077,-0.074037291,0.056902163,0.905577660
61.191298,0.045719147,7.459976196,-2.154010773,-0.017762877,-0.068586119,0.915099144
61.205465,0.152530670,4.446365356,-1.474994659,-0.032899596,-0.048078306,0.906920433
61.220920,-0.534114838,3.973342896,-1.612323761,-0.030824400,-0.086896665,0.907530785
61.221654,-0.534114838,3.973342896,-1.612323761,-0.030824400,-0.086896665,0.907530785
61.222300,-0.534114838,3.973342896,-1.612323761,-0.030824400,-0.086896665,0.907530785
61.222932,-0.534114838,3.973342896,-1.612323761,-0.030824400,-0.086896665,0.907530785
61.223558,-0.534114838,3.973342896,-1.612323761,-0.030824400,-0.086896665,0.907530785
61.224181,-0.534114838,3.973342896,-1.612323761,-0.030824400,-0.086896665,0.907530785
61.224793,-2.212581635,5.125381470,0.546794891,-0.026796080,-0.099714048,0.899474144
61.225446,-2.212581635,5.125381470,0.546794891,-0.026796080,-0.099714048,0.899474144
61.226075,-2.212581635,5.125381470,0.546794891,-0.026796080,-0.099714048,0.899474144
61.226705,-2.212581635,5.125381470,0.546794891,-0.026796080,-0.099714048,0.899474144
61.264992,-0.007686615,4.286148071,5.391460419,-0.021669127,-0.040754087,0.908995628
61.303416,2.624454498,-6.524703979,4.010540009,-0.055238463,0.020403139,0.914488792
61.317755,4.272403717,-10.110519409,4.041057587,-0.065980650,-0.054059751,0.946837425
61.333189,3.570499420,-10.591171265,4.224163055,-0.068788268,-0.075299986,0.965392113
61.371593,7.835330963,-23.049972534,5.277019501,-0.062562682,0.001848452,1.036070824
61.409930,0.122013092,-39.537094116,-0.109333038,-0.093202330,0.017717592,1.091490746
61.424301,3.112735748,-35.249374390,3.774028778,-0.111146666,0.128923655,1.081847191
61.439754,4.432621002,-32.556198120,2.278667450,-0.135560721,0.122820131,1.095396996
61.478179,-6.012020111,-2.549789429,-3.130573273,-0.156434745,0.010393374,1.172545433
61.516578,-9.666500092,36.962844849,3.789287567,-0.068544127,0.126238108,1.071471214
61.530885,-8.064327240,37.054397583,2.744060516,-0.064637877,0.093034975,1.070372581
61.546130,-7.522640228,26.274063110,-1.932758331,-0.044252135,0.050188296,1.055235863
61.584575,0.213565826,-3.686569214,6.879192352,-0.001161315,0.002336733,1.026671410
61.622945,2.906742096,-38.270614624,3.896099091,-0.104310729,0.113908999,0.977477074
61.637251,3.066959381,-42.009017944,3.468852997,-0.133485526,0.069963686,0.978087425
61.652498,2.342166901,-42.649887085,-2.802509308,-0.163758963,0.099870913,0.931700706
61.701497,5.599918365,-20.608566284,-3.359455109,-0.170350760,0.002702944,0.925108910
61.739958,-2.449092865,17.088272095,-1.932758331,-0.115663268,-0.111676939,0.918517113
61.766110,-0.328121185,30.172683716,1.790386200,-0.091127135,0.020158999,0.911681175
61.780464,1.182498932,28.471328735,-0.536579132,-0.096132018,0.031511538,0.932433128
61.818811,-1.724300385,13.502456665,-0.940937042,-0.046083190,0.005510561,0.947691917
61.857193,0.266971588,-6.295822144,-0.055927277,-0.064027525,0.009294741,0.955382347
61.871545,1.571598053,-10.476730347,-1.276630402,-0.086366393,-0.019513853,0.973937035
61.886992,0.144901276,-10.163925171,-2.421039581,-0.079774596,-0.072858579,0.984313011
61.887728,0.144901276,-10.163925171,-2.421039581,-0.079774596,-0.072858579,0.984313011
61.888355,0.144901276,-10.163925171,-2.421039581,-0.079774596,-0.072858579,0.984313011
61.889002,0.144901276,-10.163925171,-2.421039581,-0.079774596,-0.072858579,0.984313011
61.889611,0.144901276,-10.163925171,-2.421039581,-0.079774596,-0.072858579,0.984313011
61.927905,-2.945003510,1.921035767,4.163127899,-0.057191588,-0.024762876,0.952330589
61.966289,-3.936824799,5.995132446,2.927165985,-0.041932799,-0.000959165,0.970763206
61.980576,0.106754303,5.865432739,6.955486298,-0.010072447,0.013567202,0.987364769
61.995860,0.122013092,3.004409790,7.603984833,-0.011293150,-0.016950376,0.999327660
62.034263,0.869693756,-0.733993530,9.785991669,-0.082093932,0.072527163,1.036803246
62.072680,4.501285553,-5.593917847,7.787090302,-0.100770690,0.192888498,0.965758324
62.086829,7.789554596,-6.730697632,6.558757782,-0.119569518,0.187029123,0.974181175
62.102131,10.551395416,-7.905624390,-0.857013702,-0.120790221,0.111711733,1.006041527
62.140585,6.011905670,5.461074829,2.087932587,-0.072816588,0.026628725,1.028258324
62.179017,6.210269928,13.029434204,0.546794891,-0.081849791,0.104997866,0.988951683
62.193206,5.126895905,14.891006470,-1.314777374,-0.069276549,0.055315249,0.990782738
62.208665,4.913272858,20.727493286,2.980571747,-0.033998229,0.080827944,0.958678246
62.257656,8.293094635,10.336257935,2.210002899,-0.011659361,0.023332827,0.972838402
62.296146,10.017337799,-7.241867065,2.110820770,0.002867006,-0.015851744,0.986021996
62.310526,9.849491119,-16.580245972,3.606182098,0.000059389,0.000017397,0.979552269
62.325948,10.566654205,-19.715927124,2.812725067,-0.023378111,-0.008283384,0.984068871
62.364376,1.228275299,-4.785202026,7.489543915,-0.077089049,-0.096906431,1.020323753
62.402711,-4.707393646,12.953140259,7.329326630,-0.093080260,0.092424624,0.938780785
62.417100,-1.266536713,14.456130981,4.887920380,-0.106019713,0.111101381,0.945860863
62.432564,-1.327571869,16.973831177,2.431255341,-0.074525572,-0.017072447,0.991148949
62.471032,-2.403316498,7.765151978,4.407268524,-0.004457213,-0.002424009,0.963438988
62.509431,0.587406158,-11.941574097,1.057964325,-0.082460143,0.010271303,0.983092308
62.523749,1.068058014,-10.896347046,0.134807587,-0.094056822,0.060442202,0.991515160
62.539011,2.082767487,-7.028244019,2.148967743,-0.095399596,0.092790835,1.006773949
62.577450,3.463687897,-5.586288452,-1.551288605,-0.092347838,-0.007062681,1.067687035
62.615876,-0.160274506,7.444717407,-0.330585480,-0.116151549,0.165178537,1.028868675
62.630044,2.250614166,7.467605591,-1.139301300,-0.117738463,0.185442209,1.034483910
62.655977,6.935062408,5.888320923,-5.465167999,-0.123597838,0.247453928,0.997740746
62.694420,13.748111725,9.619094849,3.781658173,-0.060365416,0.077776186,1.096007347
62.732872,3.158512115,-14.382980347,1.302104950,-0.060243346,0.140154123,1.046324730
62.747065,0.373783112,-16.358993530,2.019268036,-0.099916197,0.022966616,1.048155785
62.762537,-3.578243256,-14.093063354,1.859050751,-0.120424010,0.068742983,1.019591331
62.800912,4.699649811,-0.001571655,3.674846649,-0.131898612,0.114763491,0.977965355
62.839295,1.243534088,7.070877075,3.095012665,-0.109315611,0.107805483,0.958067894
62.853462,0.877323151,7.337905884,1.241069794,-0.105897643,0.049944155,0.961730003
62.868979,-1.571712494,6.231643677,-0.300067902,-0.077699400,0.051897280,0.937682152
62.917936,3.967227936,-2.793930054,1.584392548,-0.052186705,0.035783999,0.955870628
62.956336,7.545413971,-18.403671265,3.194194794,-0.069032408,0.089617006,0.945372581
62.970662,7.865848541,-20.791671753,3.278118134,-0.086122252,0.049211733,0.969908714
62.985934,4.043521881,-22.996566772,-0.216144562,-0.108461119,0.050188296,0.970641136
63.024356,4.348697662,-14.077804565,1.065593719,-0.095887877,0.009905092,0.973692894
63.025087,4.348697662,-14.077804565,1.065593719,-0.095887877,0.009905092,0.973692894
63.025719,4.348697662,-14.077804565,1.065593719,-0.095887877,0.009905092,0.973692894
63.026363,4.348697662,-14.077804565,1.065593719,-0.095887877,0.009905092,0.973692894
63.026996,4.348697662,-14.077804565,1.065593719,-0.095887877,0.009905092,0.973692894
63.027632,4.348697662,-14.077804565,1.065593719,-0.095887877,0.009905092,0.973692894
63.028261,4.348697662,-14.077804565,1.065593719,-0.095887877,0.009905092,0.973692894
63.028913,4.348697662,-14.077804565,1.065593719,-0.095887877,0.009905092,0.973692894
63.029541,4.348697662,-14.077804565,1.065593719,-0.095887877,0.009905092,0.973692894
63.030182,4.348697662,-14.077804565,1.065593719,-0.095887877,0.009905092,0.973692894
63.030825,4.348697662,-14.077804565,1.065593719,-0.095887877,0.009905092,0.973692894
63.031469,4.348697662,-14.077804565,1.065593719,-0.095887877,0.009905092,0.973692894
63.032099,4.348697662,-14.077804565,1.065593719,-0.095887877,0.009905092,0.973692894
63.032751,4.348697662,-14.077804565,1.065593719,-0.095887877,0.009905092,0.973692894
63.033384,3.936710358,-11.483810425,-0.429767609,-0.108094908,0.031633608,0.976866722
63.034028,3.936710358,-11.483810425,-0.429767609,-0.108094908,0.031633608,0.976866722
63.034672,3.936710358,-11.483810425,-0.429767609,-0.108094908,0.031633608,0.976866722
63.035317,3.936710358,-11.483810425,-0.429767609,-0.108094908,0.031633608,0.976866722
63.073586,-3.227291107,8.482315063,-2.108234406,-0.086976744,0.023821108,1.008360863
63.087761,-2.845821381,12.235977173,0.172954559,-0.050843932,0.098894350,0.993346214
63.103200,3.311100006,11.541702271,7.130962372,-0.036927916,0.168474436,1.021300316
63.141611,0.045719147,-3.221176147,-1.925128937,-0.072816588,0.187395334,1.075865746
63.180018,-1.716670990,-4.937789917,7.253032684,0.028257631,0.041277163,1.059996605
63.194207,2.067508698,-16.252182007,5.772930145,-0.051454283,0.210222483,1.024840355
63.209671,5.500736237,-18.861434937,0.241619110,-0.085145690,0.226457834,1.039977074
63.210407,5.500736237,-18.861434937,0.241619110,-0.085145690,0.226457834,1.039977074
63.211074,5.500736237,-18.861434937,0.241619110,-0.085145690,0.226457834,1.039977074
63.211734,5.500736237,-18.861434937,0.241619110,-0.085145690,0.226457834,1.039977074
63.212378,5.172672272,-17.717025757,-1.429218292,-0.095643736,0.165788889,1.056090355
63.213034,5.172672272,-17.717025757,-1.429218292,-0.095643736,0.165788889,1.056090355
63.213675,5.172672272,-17.717025757,-1.429218292,-0.095643736,0.165788889,1.056090355
63.214336,5.172672272,-17.717025757,-1.429218292,-0.095643736,0.165788889,1.056090355
63.214969,5.172672272,-17.717025757,-1.429218292,-0.095643736,0.165788889,1.056090355
63.215627,5.172672272,-17.717025757,-1.429218292,-0.095643736,0.165788889,1.056090355
63.216267,5.172672272,-17.717025757,-1.429218292,-0.095643736,0.165788889,1.056090355
63.216918,5.172672272,-17.717025757,-1.429218292,-0.095643736,0.165788889,1.056090355
63.255192,0.495853424,7.398941040,4.956584930,-0.017884947,0.144548655,1.018248558
63.293516,-2.159175873,6.773330688,2.797466278,-0.056337096,0.085588686,1.013243675
63.307849,-2.479610443,10.206558228,3.590923309,-0.066957213,0.164812326,0.988341331
63.323336,-2.891597748,15.974380493,7.138591766,-0.054506041,0.119035952,0.957823753
63.361808,4.119815826,9.168960571,-0.124591827,-0.082582213,0.209490061,0.923155785
63.362553,4.119815826,9.168960571,-0.124591827,-0.082582213,0.209490061,0.923155785
63.363190,4.119815826,9.168960571,-0.124591827,-0.082582213,0.209490061,0.923155785
63.363825,4.119815826,9.168960571,-0.124591827,-0.082582213,0.209490061,0.923155785
63.412706,6.904544830,2.935745239,12.418132782,0.019712709,-0.018171079,0.918150902
63.426943,5.584659576,-6.227157593,4.727703094,-0.017640807,0.058611147,0.892882347
63.442257,9.231510162,-19.837997437,1.805644989,-0.058168150,0.003313296,0.956969261
63.491225,10.421695709,-20.867965698,3.644329071,-0.115419127,0.084123842,0.954527855
63.529719,-1.258907318,-10.667465210,-7.601398468,-0.100038268,-0.218122244,1.050475121
63.544022,-2.273616791,10.671951294,1.019817352,-0.081117369,0.070085756,0.948424339
63.559485,1.777591705,18.522598267,-4.778522491,-0.074037291,0.133684397,0.938902855
63.597866,-7.591304779,37.504531860,0.592571259,-0.077821471,-0.117292173,1.207579613
63.636237,-14.419612885,16.653396606,-3.931659698,-0.142152518,0.107073061,1.085021019
63.650571,-18.539485931,8.207656860,0.325542450,-0.237367362,0.046770327,1.104308128
63.666033,-18.974361420,4.209854126,-1.383441925,-0.273256034,0.019914858,1.103575706
63.704519,-22.338924408,1.631118774,-19.899982452,-0.258363456,0.131365061,1.105528831
63.742859,-28.785762787,21.284439087,-17.351764679,-0.234071463,0.111345522,1.069884300
63.757222,-32.692012787,22.230484009,-17.557758331,-0.226747245,0.226457834,0.876158714
63.772499,-9.018001556,13.647415161,-24.164813995,-0.157167166,0.173601389,0.880919456
63.810938,-4.600582123,-35.195968628,-24.622577667,-0.093446471,0.204118967,0.715147972
63.849298,9.063663483,-55.139205933,-30.115741730,-0.108827330,0.123308413,0.978819847
63.863649,4.592838287,-32.556198120,-19.915241241,-0.123109557,0.227434397,0.946471214
63.879101,1.220645905,6.483413696,-18.419879913,-0.136537284,0.174333811,0.928282738
63.879832,1.220645905,6.483413696,-18.419879913,-0.136537284,0.174333811,0.928282738
63.918126,-0.312862396,45.004226685,-12.629169464,-0.018861510,0.172868967,0.964049339
63.956528,2.754154205,46.049453735,-5.587238312,0.015928529,0.223772287,0.914488792
63.970705,4.066410065,29.402114868,-4.648822784,0.028623842,0.097673647,0.936705589
63.986148,6.179752350,18.446304321,-5.343097687,0.027647279,0.093157046,0.943175316
64.024561,8.018436432,-9.759567261,-3.313678741,-0.059877135,0.074114077,0.952696800
64.062949,4.707279205,-19.319198608,-5.175251007,-0.132997245,0.046282046,1.017394066
64.077114,2.059879303,-10.781906128,-3.145832062,-0.149232596,0.098894350,0.975157738
64.092532,2.586307526,-4.655502319,-1.787799835,-0.151429862,0.113054506,0.967345238
64.130945,2.044620514,3.324844360,-2.565998077,-0.126527518,0.116472475,0.956603050
64.169318,5.310001373,12.640335083,-1.070636749,-0.138246268,0.162859201,0.964415550
64.183465,7.499637604,14.196731567,0.111919403,-0.114686705,0.149675608,1.006407738
64.198781,2.441349030,4.316665649,-1.032489777,-0.078920104,0.047136538,1.074645042
64.237276,1.243534088,-15.451095581,-0.582355499,-0.102967955,0.094011538,1.038878441
64.286113,-4.074153900,-26.788375854,-0.574726105,-0.147889823,0.083391421,1.019713402
64.300534,-2.220211029,-24.644515991,-1.124042511,-0.157167166,0.123186342,0.995909691
64.315823,-1.083431244,-13.932846069,2.835613251,-0.160829276,0.080217592,1.010069847
64.354286,-1.365718842,-0.604293823,3.980022430,-0.112977721,0.158586740,1.011046410
64.392442,2.746524811,0.456192017,8.069377899,-0.125306815,0.096086733,0.962340355
64.406823,3.143253326,7.025100708,8.672100067,-0.144593924,0.045305483,0.982481956
64.422117,1.823368073,9.672500610,8.626323700,-0.132386893,0.049822085,0.998473167
64.460549,0.335636139,1.829483032,8.649211884,-0.119203307,0.064104311,0.968443871
64.498960,3.036441803,-9.355209351,5.887371063,-0.155091971,0.077654116,1.009581566
64.513111,1.747074127,-9.721420288,5.849224091,-0.160585135,0.080950014,1.019957542
64.528382,0.038089752,-9.545944214,3.720623016,-0.180848807,0.102434389,1.015685081
64.566865,-4.531917572,-1.771591187,2.240520477,-0.154969901,0.135027170,1.033751488
64.605254,-4.020748138,-2.549789429,2.087932587,-0.139589041,0.142473459,0.985533714
64.619402,-2.967891693,-1.474044800,1.431804657,-0.147157401,0.135515451,0.981261253
64.634670,-1.281795502,6.620742798,2.530437469,-0.152406424,0.184099436,0.981749535
64.673123,-0.709590912,18.019058228,6.017070770,-0.118104674,0.181169748,0.976134300
64.722050,5.042972565,15.730239868,5.055767059,-0.129823416,0.135637522,1.016173363
64.736239,1.968326569,14.326431274,3.339153290,-0.131532401,0.080950014,1.039122581
64.751772,1.060428619,14.532424927,2.614360809,-0.138124198,0.119646303,1.022398949
64.790122,1.991214752,13.250686646,0.890117645,-0.114930846,0.082658999,1.055602074
64.828473,-3.006038666,5.613662720,1.515727997,-0.114320494,0.097795717,1.002257347
64.842793,-1.213130951,0.768997192,1.584392548,-0.113466002,0.065569155,0.993712425
64.858234,-1.449642181,-3.106735229,1.248699188,-0.115174986,0.024187319,0.997496605
64.896693,-1.213130951,-10.362289429,-0.589984894,-0.168763846,0.047624819,0.963927269
64.935022,0.999393463,5.743362427,3.003459930,-0.133607596,0.018938296,1.018980980
64.949396,-1.396236420,2.050735474,2.530437469,-0.130433768,0.002947085,1.031554222
64.964668,-2.662715912,-6.044052124,-0.147480011,-0.142640799,0.035295717,1.006773949
65.003094,-1.625118256,-3.907821655,-0.773090363,-0.155946463,0.041155092,0.950743675
65.003810,-1.625118256,-3.907821655,-0.773090363,-0.155946463,0.041155092,0.950743675
65.004449,-1.625118256,-3.907821655,-0.773090363,-0.155946463,0.041155092,0.950743675
65.005080,-1.625118256,-3.907821655,-0.773090363,-0.155946463,0.041155092,0.950743675
65.005695,-1.625118256,-3.907821655,-0.773090363,-0.155946463,0.041155092,0.950743675
65.006326,-1.625118256,-3.907821655,-0.773090363,-0.155946463,0.041155092,0.950743675
65.006938,-1.625118256,-3.907821655,-0.773090363,-0.155946463,0.041155092,0.950743675
65.007581,-1.625118256,-3.907821655,-0.773090363,-0.155946463,0.041155092,0.950743675
65.008197,-1.625118256,-3.907821655,-0.773090363,-0.155946463,0.041155092,0.950743675
65.008835,-1.625118256,-3.907821655,-0.773090363,-0.155946463,0.041155092,0.950743675
65.009461,-1.625118256,-3.907821655,-0.773090363,-0.155946463,0.041155092,0.950743675
65.010096,-1.625118256,-3.907821655,-0.773090363,-0.155946463,0.041155092,0.950743675
65.010713,-0.427303314,-3.732345581,0.714641571,-0.143739432,0.050554506,0.957823753
65.011360,-0.427303314,-3.732345581,0.714641571,-0.143739432,0.050554506,0.957823753
65.011978,-0.427303314,-3.732345581,0.714641571,-0.143739432,0.050554506,0.957823753
65.012619,-0.427303314,-3.732345581,0.714641571,-0.143739432,0.050554506,0.957823753
65.013241,-0.427303314,-3.732345581,0.714641571,-0.143739432,0.050554506,0.957823753
65.051530,1.342716217,-17.861984253,-3.435749054,-0.155214041,0.023576967,0.949034691
65.065681,2.029361725,-17.083786011,-3.565448761,-0.173036307,0.031145327,0.939269066
65.080964,2.632083893,-9.889266968,-3.512042999,-0.166444510,0.035295717,0.951231956
65.129953,1.785221100,-10.316513062,-3.794330597,-0.150941581,0.038225405,0.978331566
65.168435,2.052249908,-4.090927124,-3.985065460,-0.162782401,0.027239077,1.000426292
65.182757,0.495853424,1.448013306,-2.558368683,-0.139589041,0.074114077,1.017271996
65.198197,-0.724849701,0.791885376,-2.474445343,-0.125184745,0.037004702,1.018126488
65.236559,-2.334651947,-7.264755249,-4.267353058,-0.135682791,0.041155092,1.035826683
65.274900,-3.990230560,-0.093124390,-3.245014191,-0.120546080,0.051286928,1.019713402
65.289295,-3.639278412,-5.304000854,-5.823749542,-0.116273619,0.039324038,1.025084496
65.304586,-3.234920502,-6.257675171,-7.074970245,-0.114198424,0.046892397,0.987486839
65.343056,-7.156429291,8.268692017,-6.373065948,-0.118837096,0.085344546,0.948546410
65.381225,-7.110652924,18.347122192,-5.999225616,-0.112733580,0.016252749,1.010802269
65.395613,-7.896480560,19.811965942,-6.289142609,-0.104921080,0.060808413,0.995665550
65.410936,-5.020198822,25.572158813,-4.580158234,-0.110292174,0.081926577,1.002135277
65.449380,-4.379329681,16.569473267,-4.618305206,-0.092958190,0.077043764,0.998595238
65.487833,-0.457820892,10.855056763,-4.412311554,-0.150331229,0.123918764,0.992491722
65.501994,-3.494319916,8.665420532,-3.023761749,-0.123231627,0.050066225,1.024718285
65.517305,-3.189144135,7.284500122,-1.284259796,-0.117250182,0.003923647,1.000304222
65.566289,-1.777706146,-18.716476440,-5.793231964,-0.127504081,0.022356264,0.981139183
65.604749,-1.197872162,-22.401473999,-5.129474640,-0.131898612,0.004533999,0.986754417
65.618913,-1.823482513,-27.108810425,-6.930011749,-0.156800956,-0.036847837,1.003844261
65.634318,-1.884517670,-24.522445679,-5.785602570,-0.182801932,0.011736147,0.985777855
65.672703,-5.195674896,-7.028244019,-4.145282745,-0.129090995,0.042742006,0.990294456
65.673413,-5.195674896,-7.028244019,-4.145282745,-0.129090995,0.042742006,0.990294456
65.711687,1.121463776,-29.115341187,-4.847187042,-0.107118346,0.037859194,0.976500511
65.725847,3.349246979,-28.268478394,-4.770893097,-0.137880057,0.058367006,0.994322777
65.741324,-0.145015717,-19.410751343,-3.481525421,-0.167909354,-0.003644712,1.028990746
65.779491,-5.470333099,-21.112106323,-4.053730011,0.011289857,-0.016950376,0.981261253
65.817847,0.549259186,-45.663497925,1.317363739,0.054746889,0.042009585,0.982604027
65.832182,0.686588287,-42.825363159,1.958232880,-0.021302916,0.063493960,0.971495628
65.847606,-0.160274506,-33.288619995,1.645427704,-0.107484557,0.018205874,0.958678246
65.907068,-5.790767670,-2.298019409,-6.289142609,-0.120912291,0.024065249,0.949400902
65.945628,2.677860260,-30.336044312,-6.212848663,0.111509584,0.009660952,0.930968285
65.959798,7.057132721,-33.586166382,-6.014484406,0.071714662,0.015154116,0.977355003
65.975106,6.843509674,-25.041244507,-3.763813019,0.013975404,-0.022199400,1.014220238
66.013598,-0.427303314,3.279067993,-0.574726105,0.037412904,-0.031110533,0.994322777
66.052015,1.502933502,6.903030396,-0.300067902,0.038267396,0.024675600,0.968688011
66.066162,0.976505280,10.816909790,0.821453094,0.069517396,0.020647280,0.958189964
66.081456,3.814640045,12.373306274,1.851421356,0.055479310,0.039201967,0.979063988
66.119910,5.081119537,1.409866333,3.476482391,0.055845521,0.016985171,1.017516136
66.158290,0.556888580,3.507949829,1.324993134,-0.072694518,0.008196108,1.087584496
66.172432,-1.930294037,9.603836060,3.056865692,-0.089296080,0.029680483,1.100035667
66.187933,-5.127010345,8.421279907,2.087932587,-0.008241393,-0.004499204,1.074034691
66.226116,-9.391841888,-30.000350952,-0.712055206,-0.038758971,-0.014753111,0.999449730
66.264525,-7.423458099,-6.578109741,-2.642292023,-0.225038260,-0.004010923,0.974913597
66.278668,-5.851802826,0.868179321,-5.083698273,-0.171571463,0.012224428,0.946715355
66.294196,-4.737911224,-1.138351440,-6.472248077,0.048155092,-0.008649595,0.865660667
66.332648,2.998294830,-16.366622925,-2.039569855,0.145933419,0.010027163,0.859313011
66.333374,2.998294830,-16.366622925,-2.039569855,0.145933419,0.010027163,0.859313011
66.334013,2.998294830,-16.366622925,-2.039569855,0.145933419,0.010027163,0.859313011
66.334670,2.998294830,-16.366622925,-2.039569855,0.145933419,0.010027163,0.859313011
66.372703,1.258792877,6.948806763,-2.985614777,-0.039613463,0.001116030,0.956114769
66.387111,-0.083980560,11.610366821,-3.763813019,-0.028749205,0.014909975,0.959776878
66.402388,-0.946102142,19.461013794,-3.138202667,0.021543764,0.033952944,0.954039574
66.440829,3.257694244,18.690444946,-3.153461456,0.045469545,0.015886538,0.996031761
66.479286,0.350894928,-4.495285034,-2.222675323,0.049375795,0.017107241,0.971129417
66.493430,1.090946198,-8.058212280,0.340801239,-0.055604674,0.017717592,0.993468285
66.508741,3.173770905,-2.740524292,0.073772430,-0.107362486,-0.022931822,1.007018089
66.547202,2.036991119,18.148757935,-0.216144562,0.050108217,-0.014875181,1.012267113
66.585641,2.387943268,41.365005493,0.920635223,-0.035096861,-0.016340025,1.118346214
66.599815,-1.289424896,40.785171509,-0.223773956,-0.027650572,-0.062238462,1.104552269
66.615130,-3.639278412,28.532363892,0.737529755,0.061338685,0.016741030,1.049254417
66.615918,-3.639278412,28.532363892,0.737529755,0.061338685,0.016741030,1.049254417
66.616613,-3.639278412,28.532363892,0.737529755,0.061338685,0.016741030,1.049254417
66.654942,-4.005489349,-6.364486694,-1.528400421,-0.064515807,0.011614077,1.059752464
66.655659,-4.005489349,-6.364486694,-1.528400421,-0.064515807,0.011614077,1.059752464
66.656305,-4.005489349,-6.364486694,-1.528400421,-0.064515807,0.011614077,1.059752464
66.705164,-7.995662689,2.752639771,-4.412311554,-0.070985533,-0.026960142,0.933653831
66.719372,-6.935176849,7.513381958,-3.771442413,-0.023622252,-0.031354673,0.934264183
66.734888,-7.209835052,9.367324829,-3.695148468,0.008970521,-0.007428892,0.974913597
66.773022,-0.442562103,-8.760116577,-1.177448273,-0.028871275,-0.019025572,1.024962425
66.821893,2.464237213,-27.017257690,-2.085346222,0.025938295,-0.031965025,0.972350121
66.836377,1.014652252,-29.481552124,-1.536029816,0.034361146,-0.032941587,0.958922386
66.851669,4.394474030,-26.544235229,1.637798309,-0.021302916,0.008196108,0.923766136
66.890101,7.759037018,-22.637985229,1.836162567,0.027891420,0.014909975,0.960631371
66.928494,8.277835846,-26.498458862,0.981670380,0.002867006,0.042986147,0.956480980
66.942792,7.682743073,-25.888107300,1.660686493,-0.006776549,0.021135561,0.963805199
66.958105,6.431522369,-24.911544800,1.630168915,0.009580873,0.037981264,0.971617699
66.996563,0.610294342,-12.086532593,-3.267902374,-0.088441588,0.013689272,1.077086449
67.034969,-3.776607513,13.258316040,-3.153461456,-0.033387877,0.019670717,0.958189964
67.049144,-0.152645111,11.289932251,-3.527301788,0.098814271,-0.012067564,0.920958519
67.064448,-0.541744232,6.506301880,-3.603595734,0.135069162,-0.013166197,0.915831566
67.102896,4.417362213,-2.595565796,-2.428668976,0.034117006,-0.022443540,0.953795433
67.141313,5.325260162,-5.639694214,0.249248505,0.092100404,-0.036847837,0.955016136
67.155477,5.523624420,-9.507797241,0.623088837,0.075987123,-0.021466978,0.968443871
67.170930,7.667484283,-13.055465698,1.553874969,0.017149232,0.010271303,0.987486839
67.209309,2.983036041,4.560806274,2.797466278,-0.021180846,0.023332827,1.051451683
67.247721,3.021183014,2.462722778,1.904827118,0.024473451,0.060075991,1.057555199
67.261875,3.082218170,1.150466919,0.409465790,0.030210756,0.055315249,1.061095238
67.277372,0.274600983,-0.787399292,2.904277802,0.080137514,0.066911928,1.020323753
67.278095,0.274600983,-0.787399292,2.904277802,0.080137514,0.066911928,1.020323753
67.278727,0.274600983,-0.787399292,2.904277802,0.080137514,0.066911928,1.020323753
67.279495,0.274600983,-0.787399292,2.904277802,0.080137514,0.066911928,1.020323753
67.280114,0.274600983,-0.787399292,2.904277802,0.080137514,0.066911928,1.020323753
67.318343,4.112186432,-32.258651733,-3.077167511,0.059019350,0.005144350,1.025816917
67.319057,4.112186432,-32.258651733,-3.077167511,0.059019350,0.005144350,1.025816917
67.319693,4.112186432,-32.258651733,-3.077167511,0.059019350,0.005144350,1.025816917
67.320469,4.112186432,-32.258651733,-3.077167511,0.059019350,0.005144350,1.025816917
67.321099,4.112186432,-32.258651733,-3.077167511,0.059019350,0.005144350,1.025816917
67.321743,4.112186432,-32.258651733,-3.077167511,0.059019350,0.005144350,1.025816917
67.322389,4.112186432,-32.258651733,-3.077167511,0.059019350,0.005144350,1.025816917
67.323055,4.112186432,-32.258651733,-3.077167511,0.059019350,0.005144350,1.025816917
