time,gyro x,gyro y,gyro z,accel x,accel y,accel z
69.005305,4.918357849,-18.698707581,1.999874115,0.041190919,0.002076536,0.974176884
69.007793,4.445335388,-15.509620667,-1.685123444,0.076225102,-0.014647096,0.938898563
69.008508,4.445335388,-15.509620667,-1.685123444,0.076225102,-0.014647096,0.938898563
69.009187,4.445335388,-15.509620667,-1.685123444,0.076225102,-0.014647096,0.938898563
69.009867,4.445335388,-15.509620667,-1.685123444,0.076225102,-0.014647096,0.938898563
69.010629,4.445335388,-15.509620667,-1.685123444,0.076225102,-0.014647096,0.938898563
69.011244,4.445335388,-15.509620667,-1.685123444,0.076225102,-0.014647096,0.938898563
69.011894,4.445335388,-15.509620667,-1.685123444,0.076225102,-0.014647096,0.938898563
69.012553,4.445335388,-15.509620667,-1.685123444,0.076225102,-0.014647096,0.938898563
69.013217,4.445335388,-15.509620667,-1.685123444,0.076225102,-0.014647096,0.938898563
69.013880,4.445335388,-15.509620667,-1.685123444,0.076225102,-0.014647096,0.938898563
69.014535,4.445335388,-15.509620667,-1.685123444,0.076225102,-0.014647096,0.938898563
69.015202,4.445335388,-15.509620667,-1.685123444,0.076225102,-0.014647096,0.938898563
69.015860,4.445335388,-15.509620667,-1.685123444,0.076225102,-0.014647096,0.938898563
69.016518,4.445335388,-15.509620667,-1.685123444,0.076225102,-0.014647096,0.938898563
69.017182,5.093833923,-12.885108948,3.220577240,0.093559086,-0.064573854,0.944025517
69.017841,5.093833923,-12.885108948,3.220577240,0.093559086,-0.064573854,0.944025517
69.018502,5.093833923,-12.885108948,3.220577240,0.093559086,-0.064573854,0.944025517
69.019170,5.093833923,-12.885108948,3.220577240,0.093559086,-0.064573854,0.944025517
69.019828,5.093833923,-12.885108948,3.220577240,0.093559086,-0.064573854,0.944025517
69.020499,5.093833923,-12.885108948,3.220577240,0.093559086,-0.064573854,0.944025517
69.021167,5.093833923,-12.885108948,3.220577240,0.093559086,-0.064573854,0.944025517
69.021833,5.093833923,-12.885108948,3.220577240,0.093559086,-0.064573854,0.944025517
69.022499,5.093833923,-12.885108948,3.220577240,0.093559086,-0.064573854,0.944025517
69.023170,5.093833923,-12.885108948,3.220577240,0.093559086,-0.064573854,0.944025517
69.023830,5.093833923,-12.885108948,3.220577240,0.093559086,-0.064573854,0.944025517
69.024501,5.093833923,-12.885108948,3.220577240,0.093559086,-0.064573854,0.944025517
69.025169,5.093833923,-12.885108948,3.220577240,0.093559086,-0.064573854,0.944025517
69.025834,5.093833923,-12.885108948,3.220577240,0.093559086,-0.064573854,0.944025517
69.027751,4.437705994,-7.590309143,7.630367279,0.061454590,-0.089109987,0.908869267
69.028519,4.437705994,-7.590309143,7.630367279,0.061454590,-0.089109987,0.908869267
69.029207,4.437705994,-7.590309143,7.630367279,0.061454590,-0.089109987,0.908869267
69.029883,4.437705994,-7.590309143,7.630367279,0.061454590,-0.089109987,0.908869267
69.030548,4.437705994,-7.590309143,7.630367279,0.061454590,-0.089109987,0.908869267
69.031224,4.437705994,-7.590309143,7.630367279,0.061454590,-0.089109987,0.908869267
69.031904,4.437705994,-7.590309143,7.630367279,0.061454590,-0.089109987,0.908869267
69.032569,4.437705994,-7.590309143,7.630367279,0.061454590,-0.089109987,0.908869267
69.033245,4.437705994,-7.590309143,7.630367279,0.061454590,-0.089109987,0.908869267
69.033919,4.437705994,-7.590309143,7.630367279,0.061454590,-0.089109987,0.908869267
69.034584,4.437705994,-7.590309143,7.630367279,0.061454590,-0.089109987,0.908869267
69.035364,4.437705994,-7.590309143,7.630367279,0.061454590,-0.089109987,0.908869267
69.035997,4.437705994,-7.590309143,7.630367279,0.061454590,-0.089109987,0.908869267
69.036665,4.437705994,-7.590309143,7.630367279,0.061454590,-0.089109987,0.908869267
69.037342,7.840415955,-3.539100647,9.911556244,-0.021309081,-0.071531862,0.880793095
69.038015,7.840415955,-3.539100647,9.911556244,-0.021309081,-0.071531862,0.880793095
69.038689,7.840415955,-3.539100647,9.911556244,-0.021309081,-0.071531862,0.880793095
69.039365,7.840415955,-3.539100647,9.911556244,-0.021309081,-0.071531862,0.880793095
69.040038,7.840415955,-3.539100647,9.911556244,-0.021309081,-0.071531862,0.880793095
69.040707,7.840415955,-3.539100647,9.911556244,-0.021309081,-0.071531862,0.880793095
69.058218,10.442039490,-11.939064026,4.197139740,0.079643071,0.084596068,0.866144657
69.058989,10.442039490,-11.939064026,4.197139740,0.079643071,0.084596068,0.866144657
69.059644,10.442039490,-11.939064026,4.197139740,0.079643071,0.084596068,0.866144657
69.060427,10.442039490,-11.939064026,4.197139740,0.079643071,0.084596068,0.866144657
69.061040,10.442039490,-11.939064026,4.197139740,0.079643071,0.084596068,0.866144657
69.061678,10.442039490,-11.939064026,4.197139740,0.079643071,0.084596068,0.866144657
69.062346,10.442039490,-11.939064026,4.197139740,0.079643071,0.084596068,0.866144657
69.062987,10.442039490,-11.939064026,4.197139740,0.079643071,0.084596068,0.866144657
69.063646,10.442039490,-11.939064026,4.197139740,0.079643071,0.084596068,0.866144657
69.064296,10.442039490,-11.939064026,4.197139740,0.079643071,0.084596068,0.866144657
69.064952,10.442039490,-11.939064026,4.197139740,0.079643071,0.084596068,0.866144657
69.065590,10.442039490,-11.939064026,4.197139740,0.079643071,0.084596068,0.866144657
69.066255,10.442039490,-11.939064026,4.197139740,0.079643071,0.084596068,0.866144657
69.066905,11.395713806,-11.099830627,4.677791595,-0.037544433,0.032349974,0.948420048
69.067565,11.395713806,-11.099830627,4.677791595,-0.037544433,0.032349974,0.948420048
69.068213,11.395713806,-11.099830627,4.677791595,-0.037544433,0.032349974,0.948420048
69.068877,11.395713806,-11.099830627,4.677791595,-0.037544433,0.032349974,0.948420048
69.069522,11.395713806,-11.099830627,4.677791595,-0.037544433,0.032349974,0.948420048
69.070185,11.395713806,-11.099830627,4.677791595,-0.037544433,0.032349974,0.948420048
69.070831,11.395713806,-11.099830627,4.677791595,-0.037544433,0.032349974,0.948420048
69.071498,11.395713806,-11.099830627,4.677791595,-0.037544433,0.032349974,0.948420048
69.072145,11.395713806,-11.099830627,4.677791595,-0.037544433,0.032349974,0.948420048
69.072802,11.395713806,-11.099830627,4.677791595,-0.037544433,0.032349974,0.948420048
69.073446,11.395713806,-11.099830627,4.677791595,-0.037544433,0.032349974,0.948420048
69.074110,11.395713806,-11.099830627,4.677791595,-0.037544433,0.032349974,0.948420048
69.074753,11.395713806,-11.099830627,4.677791595,-0.037544433,0.032349974,0.948420048
69.075419,11.395713806,-11.099830627,4.677791595,-0.037544433,0.032349974,0.948420048
69.076061,11.395713806,-11.099830627,4.677791595,-0.037544433,0.032349974,0.948420048
69.076728,11.395713806,-11.099830627,4.677791595,-0.037544433,0.032349974,0.948420048
69.078657,15.523216248,-2.547279358,4.593868256,-0.133247554,0.041505247,0.996271610
69.079401,15.523216248,-2.547279358,4.593868256,-0.133247554,0.041505247,0.996271610
69.080084,15.523216248,-2.547279358,4.593868256,-0.133247554,0.041505247,0.996271610
69.080753,15.523216248,-2.547279358,4.593868256,-0.133247554,0.041505247,0.996271610
69.081409,15.523216248,-2.547279358,4.593868256,-0.133247554,0.041505247,0.996271610
69.082074,15.523216248,-2.547279358,4.593868256,-0.133247554,0.041505247,0.996271610
69.082731,15.523216248,-2.547279358,4.593868256,-0.133247554,0.041505247,0.996271610
69.083399,15.523216248,-2.547279358,4.593868256,-0.133247554,0.041505247,0.996271610
69.084052,15.523216248,-2.547279358,4.593868256,-0.133247554,0.041505247,0.996271610
69.084837,15.523216248,-2.547279358,4.593868256,-0.133247554,0.041505247,0.996271610
69.085457,15.523216248,-2.547279358,4.593868256,-0.133247554,0.041505247,0.996271610
69.086106,15.523216248,-2.547279358,4.593868256,-0.133247554,0.041505247,0.996271610
69.086775,14.958641052,6.760581970,2.640743256,-0.149971187,0.039430052,1.054377079
69.087429,14.958641052,6.760581970,2.640743256,-0.149971187,0.039430052,1.054377079
69.088103,14.958641052,6.760581970,2.640743256,-0.149971187,0.039430052,1.054377079
69.088756,14.958641052,6.760581970,2.640743256,-0.149971187,0.039430052,1.054377079
69.089426,14.958641052,6.760581970,2.640743256,-0.149971187,0.039430052,1.054377079
69.090077,14.958641052,6.760581970,2.640743256,-0.149971187,0.039430052,1.054377079
69.090745,14.958641052,6.760581970,2.640743256,-0.149971187,0.039430052,1.054377079
69.108525,13.455650330,16.030296326,-1.196842194,-0.012642089,0.091432005,1.054621220
69.109287,13.455650330,16.030296326,-1.196842194,-0.012642089,0.091432005,1.054621220
69.110037,13.455650330,16.030296326,-1.196842194,-0.012642089,0.091432005,1.054621220
69.110651,13.455650330,16.030296326,-1.196842194,-0.012642089,0.091432005,1.054621220
69.111289,13.455650330,16.030296326,-1.196842194,-0.012642089,0.091432005,1.054621220
69.111957,13.455650330,16.030296326,-1.196842194,-0.012642089,0.091432005,1.054621220
69.112599,13.455650330,16.030296326,-1.196842194,-0.012642089,0.091432005,1.054621220
69.113267,13.455650330,16.030296326,-1.196842194,-0.012642089,0.091432005,1.054621220
69.113909,13.455650330,16.030296326,-1.196842194,-0.012642089,0.091432005,1.054621220
69.114564,13.455650330,16.030296326,-1.196842194,-0.012642089,0.091432005,1.054621220
69.115210,13.455650330,16.030296326,-1.196842194,-0.012642089,0.091432005,1.054621220
69.115879,13.455650330,16.030296326,-1.196842194,-0.012642089,0.091432005,1.054621220
69.116514,13.455650330,16.030296326,-1.196842194,-0.012642089,0.091432005,1.054621220
69.117179,13.440391541,12.391075134,1.153011322,0.111747563,0.031495482,1.014460087
69.117821,13.440391541,12.391075134,1.153011322,0.111747563,0.031495482,1.014460087
69.118482,13.440391541,12.391075134,1.153011322,0.111747563,0.031495482,1.014460087
69.119125,13.440391541,12.391075134,1.153011322,0.111747563,0.031495482,1.014460087
69.119786,13.440391541,12.391075134,1.153011322,0.111747563,0.031495482,1.014460087
69.120427,13.440391541,12.391075134,1.153011322,0.111747563,0.031495482,1.014460087
69.121086,13.440391541,12.391075134,1.153011322,0.111747563,0.031495482,1.014460087
69.121725,13.440391541,12.391075134,1.153011322,0.111747563,0.031495482,1.014460087
69.122389,13.440391541,12.391075134,1.153011322,0.111747563,0.031495482,1.014460087
69.123026,13.440391541,12.391075134,1.153011322,0.111747563,0.031495482,1.014460087
69.123690,13.440391541,12.391075134,1.153011322,0.111747563,0.031495482,1.014460087
69.124329,13.440391541,12.391075134,1.153011322,0.111747563,0.031495482,1.014460087
69.124991,13.440391541,12.391075134,1.153011322,0.111747563,0.031495482,1.014460087
69.125633,13.440391541,12.391075134,1.153011322,0.111747563,0.031495482,1.014460087
69.126304,13.440391541,12.391075134,1.153011322,0.111747563,0.031495482,1.014460087
69.126945,13.707420349,2.114280701,0.954647064,0.108085454,0.019166380,1.039240360
69.128900,13.707420349,2.114280701,0.954647064,0.108085454,0.019166380,1.039240360
69.129643,13.707420349,2.114280701,0.954647064,0.108085454,0.019166380,1.039240360
69.130337,13.707420349,2.114280701,0.954647064,0.108085454,0.019166380,1.039240360
69.131001,13.707420349,2.114280701,0.954647064,0.108085454,0.019166380,1.039240360
69.131660,13.707420349,2.114280701,0.954647064,0.108085454,0.019166380,1.039240360
69.132317,13.707420349,2.114280701,0.954647064,0.108085454,0.019166380,1.039240360
69.132974,13.707420349,2.114280701,0.954647064,0.108085454,0.019166380,1.039240360
69.133635,13.707420349,2.114280701,0.954647064,0.108085454,0.019166380,1.039240360
69.134396,13.707420349,2.114280701,0.954647064,0.108085454,0.019166380,1.039240360
69.135005,13.707420349,2.114280701,0.954647064,0.108085454,0.019166380,1.039240360
69.135646,13.707420349,2.114280701,0.954647064,0.108085454,0.019166380,1.039240360
69.136310,13.707420349,2.114280701,0.954647064,0.108085454,0.019166380,1.039240360
69.136958,12.364646912,-7.124916077,-1.357059479,0.024345215,0.029298216,1.088800907
69.137626,12.364646912,-7.124916077,-1.357059479,0.024345215,0.029298216,1.088800907
69.138282,12.364646912,-7.124916077,-1.357059479,0.024345215,0.029298216,1.088800907
69.138946,12.364646912,-7.124916077,-1.357059479,0.024345215,0.029298216,1.088800907
69.139592,12.364646912,-7.124916077,-1.357059479,0.024345215,0.029298216,1.088800907
69.140262,12.364646912,-7.124916077,-1.357059479,0.024345215,0.029298216,1.088800907
69.140913,12.364646912,-7.124916077,-1.357059479,0.024345215,0.029298216,1.088800907
69.158882,10.083457947,-12.763038635,-0.281314850,-0.004707519,0.066163450,1.083918095
69.159782,10.083457947,-12.763038635,-0.281314850,-0.004707519,0.066163450,1.083918095
69.160412,10.083457947,-12.763038635,-0.281314850,-0.004707519,0.066163450,1.083918095
69.161058,10.083457947,-12.763038635,-0.281314850,-0.004707519,0.066163450,1.083918095
69.161724,10.083457947,-12.763038635,-0.281314850,-0.004707519,0.066163450,1.083918095
69.162385,10.083457947,-12.763038635,-0.281314850,-0.004707519,0.066163450,1.083918095
69.163047,10.083457947,-12.763038635,-0.281314850,-0.004707519,0.066163450,1.083918095
69.163704,10.083457947,-12.763038635,-0.281314850,-0.004707519,0.066163450,1.083918095
69.164379,10.083457947,-12.763038635,-0.281314850,-0.004707519,0.066163450,1.083918095
69.165032,10.083457947,-12.763038635,-0.281314850,-0.004707519,0.066163450,1.083918095
69.165695,10.083457947,-12.763038635,-0.281314850,-0.004707519,0.066163450,1.083918095
69.166359,7.947227478,-10.916725159,1.191158295,0.039604004,-0.028318971,1.127375126
69.167018,7.947227478,-10.916725159,1.191158295,0.039604004,-0.028318971,1.127375126
69.167675,7.947227478,-10.916725159,1.191158295,0.039604004,-0.028318971,1.127375126
69.168342,7.947227478,-10.916725159,1.191158295,0.039604004,-0.028318971,1.127375126
69.168997,7.947227478,-10.916725159,1.191158295,0.039604004,-0.028318971,1.127375126
69.169663,7.947227478,-10.916725159,1.191158295,0.039604004,-0.028318971,1.127375126
69.170313,7.947227478,-10.916725159,1.191158295,0.039604004,-0.028318971,1.127375126
69.170976,7.947227478,-10.916725159,1.191158295,0.039604004,-0.028318971,1.127375126
69.171633,7.947227478,-10.916725159,1.191158295,0.039604004,-0.028318971,1.127375126
69.172301,7.947227478,-10.916725159,1.191158295,0.039604004,-0.028318971,1.127375126
69.172954,7.947227478,-10.916725159,1.191158295,0.039604004,-0.028318971,1.127375126
69.173620,7.947227478,-10.916725159,1.191158295,0.039604004,-0.028318971,1.127375126
69.174279,7.947227478,-10.916725159,1.191158295,0.039604004,-0.028318971,1.127375126
69.174941,7.947227478,-10.916725159,1.191158295,0.039604004,-0.028318971,1.127375126
69.175600,7.947227478,-10.916725159,1.191158295,0.039604004,-0.028318971,1.127375126
69.176269,3.453514099,-11.611000061,2.724666595,0.051200684,-0.064329714,1.192072392
69.176927,3.453514099,-11.611000061,2.724666595,0.051200684,-0.064329714,1.192072392
69.178868,3.453514099,-11.611000061,2.724666595,0.051200684,-0.064329714,1.192072392
69.179624,3.453514099,-11.611000061,2.724666595,0.051200684,-0.064329714,1.192072392
69.180325,3.453514099,-11.611000061,2.724666595,0.051200684,-0.064329714,1.192072392
69.181002,3.453514099,-11.611000061,2.724666595,0.051200684,-0.064329714,1.192072392
69.181669,3.453514099,-11.611000061,2.724666595,0.051200684,-0.064329714,1.192072392
69.182345,3.453514099,-11.611000061,2.724666595,0.051200684,-0.064329714,1.192072392
69.183013,3.453514099,-11.611000061,2.724666595,0.051200684,-0.064329714,1.192072392
69.183686,3.453514099,-11.611000061,2.724666595,0.051200684,-0.064329714,1.192072392
69.184471,3.453514099,-11.611000061,2.724666595,0.051200684,-0.064329714,1.192072392
69.185093,3.453514099,-11.611000061,2.724666595,0.051200684,-0.064329714,1.192072392
69.185744,3.453514099,-11.611000061,2.724666595,0.051200684,-0.064329714,1.192072392
69.186423,0.058433533,-13.220802307,1.923580170,0.064872563,-0.048826784,1.233088017
69.187084,0.058433533,-13.220802307,1.923580170,0.064872563,-0.048826784,1.233088017
69.187753,0.058433533,-13.220802307,1.923580170,0.064872563,-0.048826784,1.233088017
69.188420,0.058433533,-13.220802307,1.923580170,0.064872563,-0.048826784,1.233088017
69.189098,0.058433533,-13.220802307,1.923580170,0.064872563,-0.048826784,1.233088017
69.189757,0.058433533,-13.220802307,1.923580170,0.064872563,-0.048826784,1.233088017
69.190433,0.058433533,-13.220802307,1.923580170,0.064872563,-0.048826784,1.233088017
69.191101,0.058433533,-13.220802307,1.923580170,0.064872563,-0.048826784,1.233088017
69.191770,0.058433533,-13.220802307,1.923580170,0.064872563,-0.048826784,1.233088017
69.210021,-6.579139709,-10.100379944,4.181880951,0.074638188,-0.042479128,1.192438602
69.210771,-6.579139709,-10.100379944,4.181880951,0.074638188,-0.042479128,1.192438602
69.211415,-6.579139709,-10.100379944,4.181880951,0.074638188,-0.042479128,1.192438602
69.212074,-6.579139709,-10.100379944,4.181880951,0.074638188,-0.042479128,1.192438602
69.212711,-6.579139709,-10.100379944,4.181880951,0.074638188,-0.042479128,1.192438602
69.213376,-6.579139709,-10.100379944,4.181880951,0.074638188,-0.042479128,1.192438602
69.214009,-6.579139709,-10.100379944,4.181880951,0.074638188,-0.042479128,1.192438602
69.214672,-6.579139709,-10.100379944,4.181880951,0.074638188,-0.042479128,1.192438602
69.215310,-6.579139709,-10.100379944,4.181880951,0.074638188,-0.042479128,1.192438602
69.215970,-8.822181702,-6.522193909,4.876155853,0.073661625,-0.060911745,1.142878056
69.216607,-8.822181702,-6.522193909,4.876155853,0.073661625,-0.060911745,1.142878056
69.217265,-8.822181702,-6.522193909,4.876155853,0.073661625,-0.060911745,1.142878056
69.217898,-8.822181702,-6.522193909,4.876155853,0.073661625,-0.060911745,1.142878056
69.218549,-8.822181702,-6.522193909,4.876155853,0.073661625,-0.060911745,1.142878056
69.219184,-8.822181702,-6.522193909,4.876155853,0.073661625,-0.060911745,1.142878056
69.219838,-8.822181702,-6.522193909,4.876155853,0.073661625,-0.060911745,1.142878056
69.220469,-8.822181702,-6.522193909,4.876155853,0.073661625,-0.060911745,1.142878056
69.221130,-8.822181702,-6.522193909,4.876155853,0.073661625,-0.060911745,1.142878056
69.221755,-8.822181702,-6.522193909,4.876155853,0.073661625,-0.060911745,1.142878056
69.222412,-8.822181702,-6.522193909,4.876155853,0.073661625,-0.060911745,1.142878056
69.223041,-8.822181702,-6.522193909,4.876155853,0.073661625,-0.060911745,1.142878056
69.223695,-8.822181702,-6.522193909,4.876155853,0.073661625,-0.060911745,1.142878056
69.224327,-8.822181702,-6.522193909,4.876155853,0.073661625,-0.060911745,1.142878056
69.224984,-8.822181702,-6.522193909,4.876155853,0.073661625,-0.060911745,1.142878056
69.225623,-8.822181702,-6.522193909,4.876155853,0.073661625,-0.060911745,1.142878056
69.226283,-9.638526917,-5.133644104,3.945369720,0.051200684,-0.072508425,1.099421024
69.226918,-9.638526917,-5.133644104,3.945369720,0.051200684,-0.072508425,1.099421024
69.227570,-9.638526917,-5.133644104,3.945369720,0.051200684,-0.072508425,1.099421024
69.228205,-9.638526917,-5.133644104,3.945369720,0.051200684,-0.072508425,1.099421024
69.230139,-9.638526917,-5.133644104,3.945369720,0.051200684,-0.072508425,1.099421024
69.230876,-9.638526917,-5.133644104,3.945369720,0.051200684,-0.072508425,1.099421024
69.231549,-9.638526917,-5.133644104,3.945369720,0.051200684,-0.072508425,1.099421024
69.232205,-9.638526917,-5.133644104,3.945369720,0.051200684,-0.072508425,1.099421024
69.232867,-9.638526917,-5.133644104,3.945369720,0.051200684,-0.072508425,1.099421024
69.233523,-9.638526917,-5.133644104,3.945369720,0.051200684,-0.072508425,1.099421024
69.234277,-9.638526917,-5.133644104,3.945369720,0.051200684,-0.072508425,1.099421024
69.234896,-9.638526917,-5.133644104,3.945369720,0.051200684,-0.072508425,1.099421024
69.235533,-9.638526917,-5.133644104,3.945369720,0.051200684,-0.072508425,1.099421024
69.236196,-9.501197815,-2.852455139,3.640193939,0.051322754,-0.031492800,1.098566532
69.236852,-9.501197815,-2.852455139,3.640193939,0.051322754,-0.031492800,1.098566532
69.237509,-9.501197815,-2.852455139,3.640193939,0.051322754,-0.031492800,1.098566532
69.238160,-9.501197815,-2.852455139,3.640193939,0.051322754,-0.031492800,1.098566532
69.238824,-9.501197815,-2.852455139,3.640193939,0.051322754,-0.031492800,1.098566532
69.239474,-9.501197815,-2.852455139,3.640193939,0.051322754,-0.031492800,1.098566532
69.240136,-9.501197815,-2.852455139,3.640193939,0.051322754,-0.031492800,1.098566532
69.240786,-9.501197815,-2.852455139,3.640193939,0.051322754,-0.031492800,1.098566532
69.241457,-9.501197815,-2.852455139,3.640193939,0.051322754,-0.031492800,1.098566532
69.242111,-9.501197815,-2.852455139,3.640193939,0.051322754,-0.031492800,1.098566532
69.255693,-10.393836975,-1.059547424,7.935543060,0.076103032,-0.072386354,1.001886845
69.256442,-10.393836975,-1.059547424,7.935543060,0.076103032,-0.072386354,1.001886845
69.257097,-10.393836975,-1.059547424,7.935543060,0.076103032,-0.072386354,1.001886845
69.257761,-10.393836975,-1.059547424,7.935543060,0.076103032,-0.072386354,1.001886845
69.258512,-10.393836975,-1.059547424,7.935543060,0.076103032,-0.072386354,1.001886845
69.259124,-10.393836975,-1.059547424,7.935543060,0.076103032,-0.072386354,1.001886845
69.259755,-10.393836975,-1.059547424,7.935543060,0.076103032,-0.072386354,1.001886845
69.260420,-10.393836975,-1.059547424,7.935543060,0.076103032,-0.072386354,1.001886845
69.261061,-10.393836975,-1.059547424,7.935543060,0.076103032,-0.072386354,1.001886845
69.261715,-10.393836975,-1.059547424,7.935543060,0.076103032,-0.072386354,1.001886845
69.262363,-10.393836975,-1.059547424,7.935543060,0.076103032,-0.072386354,1.001886845
69.263022,-10.393836975,-1.059547424,7.935543060,0.076103032,-0.072386354,1.001886845
69.263664,-10.393836975,-1.059547424,7.935543060,0.076103032,-0.072386354,1.001886845
69.264327,-10.393836975,-1.059547424,7.935543060,0.076103032,-0.072386354,1.001886845
69.264970,-10.393836975,-1.059547424,7.935543060,0.076103032,-0.072386354,1.001886845
69.265633,-16.482093811,-5.873695374,4.525203705,-0.003120605,-0.025389284,1.030451298
69.266278,-16.482093811,-5.873695374,4.525203705,-0.003120605,-0.025389284,1.030451298
69.266936,-16.482093811,-5.873695374,4.525203705,-0.003120605,-0.025389284,1.030451298
69.267571,-16.482093811,-5.873695374,4.525203705,-0.003120605,-0.025389284,1.030451298
69.268234,-16.482093811,-5.873695374,4.525203705,-0.003120605,-0.025389284,1.030451298
69.268881,-16.482093811,-5.873695374,4.525203705,-0.003120605,-0.025389284,1.030451298
69.269533,-16.482093811,-5.873695374,4.525203705,-0.003120605,-0.025389284,1.030451298
69.270178,-16.482093811,-5.873695374,4.525203705,-0.003120605,-0.025389284,1.030451298
69.270837,-16.482093811,-5.873695374,4.525203705,-0.003120605,-0.025389284,1.030451298
69.271479,-16.482093811,-5.873695374,4.525203705,-0.003120605,-0.025389284,1.030451298
69.272141,-16.482093811,-5.873695374,4.525203705,-0.003120605,-0.025389284,1.030451298
69.272782,-16.482093811,-5.873695374,4.525203705,-0.003120605,-0.025389284,1.030451298
69.273440,-16.482093811,-5.873695374,4.525203705,-0.003120605,-0.025389284,1.030451298
69.274078,-16.482093811,-5.873695374,4.525203705,-0.003120605,-0.025389284,1.030451298
69.276008,-13.918617249,-12.648597717,1.168270111,-0.015449706,-0.035643190,0.933649540
69.276756,-13.918617249,-12.648597717,1.168270111,-0.015449706,-0.035643190,0.933649540
69.277462,-13.918617249,-12.648597717,1.168270111,-0.015449706,-0.035643190,0.933649540
69.278141,-13.918617249,-12.648597717,1.168270111,-0.015449706,-0.035643190,0.933649540
69.278811,-13.918617249,-12.648597717,1.168270111,-0.015449706,-0.035643190,0.933649540
69.279491,-13.918617249,-12.648597717,1.168270111,-0.015449706,-0.035643190,0.933649540
69.280166,-13.918617249,-12.648597717,1.168270111,-0.015449706,-0.035643190,0.933649540
69.280838,-13.918617249,-12.648597717,1.168270111,-0.015449706,-0.035643190,0.933649540
69.281515,-13.918617249,-12.648597717,1.168270111,-0.015449706,-0.035643190,0.933649540
69.282191,-13.918617249,-12.648597717,1.168270111,-0.015449706,-0.035643190,0.933649540
69.282865,-13.918617249,-12.648597717,1.168270111,-0.015449706,-0.035643190,0.933649540
69.283648,-13.918617249,-12.648597717,1.168270111,-0.015449706,-0.035643190,0.933649540
69.284270,-13.918617249,-12.648597717,1.168270111,-0.015449706,-0.035643190,0.933649540
69.284934,-13.918617249,-12.648597717,1.168270111,-0.015449706,-0.035643190,0.933649540
69.285616,-10.782936096,-15.540138245,-0.273685455,-0.010566894,-0.055662721,0.927912235
69.286291,-10.782936096,-15.540138245,-0.273685455,-0.010566894,-0.055662721,0.927912235
69.286960,-10.782936096,-15.540138245,-0.273685455,-0.010566894,-0.055662721,0.927912235
69.287636,-10.782936096,-15.540138245,-0.273685455,-0.010566894,-0.055662721,0.927912235
69.303535,-12.217262268,-13.197914124,1.038570404,-0.030708496,-0.086668581,0.966486454
69.304286,-12.217262268,-13.197914124,1.038570404,-0.030708496,-0.086668581,0.966486454
69.304938,-12.217262268,-13.197914124,1.038570404,-0.030708496,-0.086668581,0.966486454
69.305588,-15.444496155,-10.275856018,1.229305267,-0.049263183,-0.054442018,0.967829227
69.306237,-15.444496155,-10.275856018,1.229305267,-0.049263183,-0.054442018,0.967829227
69.306900,-15.444496155,-10.275856018,1.229305267,-0.049263183,-0.054442018,0.967829227
69.307652,-15.444496155,-10.275856018,1.229305267,-0.049263183,-0.054442018,0.967829227
69.308256,-15.444496155,-10.275856018,1.229305267,-0.049263183,-0.054442018,0.967829227
69.308889,-15.444496155,-10.275856018,1.229305267,-0.049263183,-0.054442018,0.967829227
69.309550,-15.444496155,-10.275856018,1.229305267,-0.049263183,-0.054442018,0.967829227
69.310195,-15.444496155,-10.275856018,1.229305267,-0.049263183,-0.054442018,0.967829227
69.310856,-15.444496155,-10.275856018,1.229305267,-0.049263183,-0.054442018,0.967829227
69.311493,-15.444496155,-10.275856018,1.229305267,-0.049263183,-0.054442018,0.967829227
69.312156,-15.444496155,-10.275856018,1.229305267,-0.049263183,-0.054442018,0.967829227
69.312791,-15.444496155,-10.275856018,1.229305267,-0.049263183,-0.054442018,0.967829227
69.313454,-15.444496155,-10.275856018,1.229305267,-0.049263183,-0.054442018,0.967829227
69.314098,-15.444496155,-10.275856018,1.229305267,-0.049263183,-0.054442018,0.967829227
69.314755,-15.444496155,-10.275856018,1.229305267,-0.049263183,-0.054442018,0.967829227
69.315398,-15.742042542,-9.459510803,-0.906925201,-0.041694824,-0.013670534,0.929743290
69.316050,-15.742042542,-9.459510803,-0.906925201,-0.041694824,-0.013670534,0.929743290
69.316687,-15.742042542,-9.459510803,-0.906925201,-0.041694824,-0.013670534,0.929743290
69.317346,-15.742042542,-9.459510803,-0.906925201,-0.041694824,-0.013670534,0.929743290
69.317981,-15.742042542,-9.459510803,-0.906925201,-0.041694824,-0.013670534,0.929743290
69.318637,-15.742042542,-9.459510803,-0.906925201,-0.041694824,-0.013670534,0.929743290
69.319277,-15.742042542,-9.459510803,-0.906925201,-0.041694824,-0.013670534,0.929743290
69.319931,-15.742042542,-9.459510803,-0.906925201,-0.041694824,-0.013670534,0.929743290
69.320561,-15.742042542,-9.459510803,-0.906925201,-0.041694824,-0.013670534,0.929743290
69.321221,-15.742042542,-9.459510803,-0.906925201,-0.041694824,-0.013670534,0.929743290
69.321861,-15.742042542,-9.459510803,-0.906925201,-0.041694824,-0.013670534,0.929743290
69.323785,-15.742042542,-9.459510803,-0.906925201,-0.041694824,-0.013670534,0.929743290
69.324515,-15.742042542,-9.459510803,-0.906925201,-0.041694824,-0.013670534,0.929743290
69.325216,-15.742042542,-9.459510803,-0.906925201,-0.041694824,-0.013670534,0.929743290
69.325882,-13.003089905,-6.705299377,-2.051334381,-0.029976074,-0.004271120,0.926325321
69.326541,-13.003089905,-6.705299377,-2.051334381,-0.029976074,-0.004271120,0.926325321
69.327203,-13.003089905,-6.705299377,-2.051334381,-0.029976074,-0.004271120,0.926325321
69.327871,-13.003089905,-6.705299377,-2.051334381,-0.029976074,-0.004271120,0.926325321
69.328521,-13.003089905,-6.705299377,-2.051334381,-0.029976074,-0.004271120,0.926325321
69.329185,-13.003089905,-6.705299377,-2.051334381,-0.029976074,-0.004271120,0.926325321
69.329849,-13.003089905,-6.705299377,-2.051334381,-0.029976074,-0.004271120,0.926325321
69.330503,-13.003089905,-6.705299377,-2.051334381,-0.029976074,-0.004271120,0.926325321
69.331163,-13.003089905,-6.705299377,-2.051334381,-0.029976074,-0.004271120,0.926325321
69.331826,-13.003089905,-6.705299377,-2.051334381,-0.029976074,-0.004271120,0.926325321
69.332481,-13.003089905,-6.705299377,-2.051334381,-0.029976074,-0.004271120,0.926325321
69.333258,-13.003089905,-6.705299377,-2.051334381,-0.029976074,-0.004271120,0.926325321
69.333877,-13.003089905,-6.705299377,-2.051334381,-0.029976074,-0.004271120,0.926325321
69.334510,-13.003089905,-6.705299377,-2.051334381,-0.029976074,-0.004271120,0.926325321
69.335163,-13.003089905,-6.705299377,-2.051334381,-0.029976074,-0.004271120,0.926325321
69.351267,-14.391639709,1.763328552,-0.578861237,0.010062989,-0.002684206,0.978693485
69.352031,-14.391639709,1.763328552,-0.578861237,0.010062989,-0.002684206,0.978693485
69.352680,-14.391639709,1.763328552,-0.578861237,0.010062989,-0.002684206,0.978693485
69.353339,-14.391639709,1.763328552,-0.578861237,0.010062989,-0.002684206,0.978693485
69.353974,-14.391639709,1.763328552,-0.578861237,0.010062989,-0.002684206,0.978693485
69.354628,-14.391639709,1.763328552,-0.578861237,0.010062989,-0.002684206,0.978693485
69.355267,-14.963844299,5.074485779,-0.899295807,0.028617676,0.070557982,0.969904423
69.355919,-14.963844299,5.074485779,-0.899295807,0.028617676,0.070557982,0.969904423
69.356555,-14.963844299,5.074485779,-0.899295807,0.028617676,0.070557982,0.969904423
69.357321,-14.963844299,5.074485779,-0.899295807,0.028617676,0.070557982,0.969904423
69.357925,-14.963844299,5.074485779,-0.899295807,0.028617676,0.070557982,0.969904423
69.358556,-14.963844299,5.074485779,-0.899295807,0.028617676,0.070557982,0.969904423
69.359207,-14.963844299,5.074485779,-0.899295807,0.028617676,0.070557982,0.969904423
69.359842,-14.963844299,5.074485779,-0.899295807,0.028617676,0.070557982,0.969904423
69.360499,-14.963844299,5.074485779,-0.899295807,0.028617676,0.070557982,0.969904423
69.361139,-14.963844299,5.074485779,-0.899295807,0.028617676,0.070557982,0.969904423
69.361786,-14.963844299,5.074485779,-0.899295807,0.028617676,0.070557982,0.969904423
69.362430,-14.963844299,5.074485779,-0.899295807,0.028617676,0.070557982,0.969904423
69.363074,-14.963844299,5.074485779,-0.899295807,0.028617676,0.070557982,0.969904423
69.363709,-14.963844299,5.074485779,-0.899295807,0.028617676,0.070557982,0.969904423
69.364367,-14.963844299,5.074485779,-0.899295807,0.028617676,0.070557982,0.969904423
69.365000,-12.919166565,8.210166931,-0.906925201,0.067436039,0.108399779,0.967463017
69.365651,-12.919166565,8.210166931,-0.906925201,0.067436039,0.108399779,0.967463017
69.366296,-12.919166565,8.210166931,-0.906925201,0.067436039,0.108399779,0.967463017
69.366941,-12.919166565,8.210166931,-0.906925201,0.067436039,0.108399779,0.967463017
69.367576,-12.919166565,8.210166931,-0.906925201,0.067436039,0.108399779,0.967463017
69.368233,-12.919166565,8.210166931,-0.906925201,0.067436039,0.108399779,0.967463017
69.368878,-12.919166565,8.210166931,-0.906925201,0.067436039,0.108399779,0.967463017
69.369528,-12.919166565,8.210166931,-0.906925201,0.067436039,0.108399779,0.967463017
69.371434,-12.919166565,8.210166931,-0.906925201,0.067436039,0.108399779,0.967463017
69.372170,-12.919166565,8.210166931,-0.906925201,0.067436039,0.108399779,0.967463017
69.372859,-12.919166565,8.210166931,-0.906925201,0.067436039,0.108399779,0.967463017
69.373519,-12.919166565,8.210166931,-0.906925201,0.067436039,0.108399779,0.967463017
69.374177,-12.919166565,8.210166931,-0.906925201,0.067436039,0.108399779,0.967463017
69.374852,-12.919166565,8.210166931,-0.906925201,0.067436039,0.108399779,0.967463017
69.375508,-12.140968323,9.461387634,-0.296573639,0.094901860,0.033814818,0.987848759
69.376171,-12.140968323,9.461387634,-0.296573639,0.094901860,0.033814818,0.987848759
69.376825,-12.140968323,9.461387634,-0.296573639,0.094901860,0.033814818,0.987848759
69.377489,-12.140968323,9.461387634,-0.296573639,0.094901860,0.033814818,0.987848759
69.378143,-12.140968323,9.461387634,-0.296573639,0.094901860,0.033814818,0.987848759
69.378798,-12.140968323,9.461387634,-0.296573639,0.094901860,0.033814818,0.987848759
69.379450,-12.140968323,9.461387634,-0.296573639,0.094901860,0.033814818,0.987848759
69.380111,-12.140968323,9.461387634,-0.296573639,0.094901860,0.033814818,0.987848759
69.380759,-12.140968323,9.461387634,-0.296573639,0.094901860,0.033814818,0.987848759
69.381424,-12.140968323,9.461387634,-0.296573639,0.094901860,0.033814818,0.987848759
69.382072,-12.140968323,9.461387634,-0.296573639,0.094901860,0.033814818,0.987848759
69.382841,-12.140968323,9.461387634,-0.296573639,0.094901860,0.033814818,0.987848759
69.383456,-12.140968323,9.461387634,-0.296573639,0.094901860,0.033814818,0.987848759
69.402634,-14.940956116,4.921897888,-0.952701569,0.089896977,-0.030150026,0.978327274
69.403389,-14.940956116,4.921897888,-0.952701569,0.089896977,-0.030150026,0.978327274
69.404030,-14.940956116,4.921897888,-0.952701569,0.089896977,-0.030150026,0.978327274
69.404687,-14.940956116,4.921897888,-0.952701569,0.089896977,-0.030150026,0.978327274
69.405314,-13.834693909,3.075584412,-0.334720612,0.071464360,-0.014280885,0.944269657
69.405971,-13.834693909,3.075584412,-0.334720612,0.071464360,-0.014280885,0.944269657
69.406708,-13.834693909,3.075584412,-0.334720612,0.071464360,-0.014280885,0.944269657
69.407310,-13.834693909,3.075584412,-0.334720612,0.071464360,-0.014280885,0.944269657
69.407927,-13.834693909,3.075584412,-0.334720612,0.071464360,-0.014280885,0.944269657
69.408574,-13.834693909,3.075584412,-0.334720612,0.071464360,-0.014280885,0.944269657
69.409203,-13.834693909,3.075584412,-0.334720612,0.071464360,-0.014280885,0.944269657
69.409854,-13.834693909,3.075584412,-0.334720612,0.071464360,-0.014280885,0.944269657
69.410472,-13.834693909,3.075584412,-0.334720612,0.071464360,-0.014280885,0.944269657
69.411123,-13.834693909,3.075584412,-0.334720612,0.071464360,-0.014280885,0.944269657
69.411747,-13.834693909,3.075584412,-0.334720612,0.071464360,-0.014280885,0.944269657
69.412393,-13.834693909,3.075584412,-0.334720612,0.071464360,-0.014280885,0.944269657
69.413017,-13.834693909,3.075584412,-0.334720612,0.071464360,-0.014280885,0.944269657
69.413669,-13.834693909,3.075584412,-0.334720612,0.071464360,-0.014280885,0.944269657
69.414292,-13.834693909,3.075584412,-0.334720612,0.071464360,-0.014280885,0.944269657
69.414936,-12.331703186,3.273948669,0.115413666,0.066947758,-0.028807253,0.928034306
69.415559,-12.331703186,3.273948669,0.115413666,0.066947758,-0.028807253,0.928034306
69.416210,-12.331703186,3.273948669,0.115413666,0.066947758,-0.028807253,0.928034306
69.416833,-12.331703186,3.273948669,0.115413666,0.066947758,-0.028807253,0.928034306
69.417479,-12.331703186,3.273948669,0.115413666,0.066947758,-0.028807253,0.928034306
69.418107,-12.331703186,3.273948669,0.115413666,0.066947758,-0.028807253,0.928034306
69.418753,-12.331703186,3.273948669,0.115413666,0.066947758,-0.028807253,0.928034306
69.419376,-12.331703186,3.273948669,0.115413666,0.066947758,-0.028807253,0.928034306
69.420020,-12.331703186,3.273948669,0.115413666,0.066947758,-0.028807253,0.928034306
69.420647,-12.331703186,3.273948669,0.115413666,0.066947758,-0.028807253,0.928034306
69.422567,-12.331703186,3.273948669,0.115413666,0.066947758,-0.028807253,0.928034306
69.423310,-12.331703186,3.273948669,0.115413666,0.066947758,-0.028807253,0.928034306
69.424002,-12.331703186,3.273948669,0.115413666,0.066947758,-0.028807253,0.928034306
69.424686,-11.652687073,4.082664490,1.572628021,0.056693848,-0.060301393,0.928278446
69.425351,-11.652687073,4.082664490,1.572628021,0.056693848,-0.060301393,0.928278446
69.426021,-11.652687073,4.082664490,1.572628021,0.056693848,-0.060301393,0.928278446
69.426685,-11.652687073,4.082664490,1.572628021,0.056693848,-0.060301393,0.928278446
69.427351,-11.652687073,4.082664490,1.572628021,0.056693848,-0.060301393,0.928278446
69.428013,-11.652687073,4.082664490,1.572628021,0.056693848,-0.060301393,0.928278446
69.428681,-11.652687073,4.082664490,1.572628021,0.056693848,-0.060301393,0.928278446
69.429343,-11.652687073,4.082664490,1.572628021,0.056693848,-0.060301393,0.928278446
69.430009,-11.652687073,4.082664490,1.572628021,0.056693848,-0.060301393,0.928278446
69.430674,-11.652687073,4.082664490,1.572628021,0.056693848,-0.060301393,0.928278446
69.431340,-11.652687073,4.082664490,1.572628021,0.056693848,-0.060301393,0.928278446
69.432001,-11.652687073,4.082664490,1.572628021,0.056693848,-0.060301393,0.928278446
69.432784,-11.652687073,4.082664490,1.572628021,0.056693848,-0.060301393,0.928278446
69.433395,-11.652687073,4.082664490,1.572628021,0.056693848,-0.060301393,0.928278446
69.434047,-11.652687073,4.082664490,1.572628021,0.056693848,-0.060301393,0.928278446
69.434713,-11.416175842,5.639060974,2.297420502,0.049003419,-0.062620729,0.949762821
69.450790,-10.706642151,4.906639099,1.549739838,0.050346192,-0.052244753,0.979792118
69.451531,-10.706642151,4.906639099,1.549739838,0.050346192,-0.052244753,0.979792118
69.452179,-10.706642151,4.906639099,1.549739838,0.050346192,-0.052244753,0.979792118
69.452831,-10.706642151,4.906639099,1.549739838,0.050346192,-0.052244753,0.979792118
69.453472,-10.706642151,4.906639099,1.549739838,0.050346192,-0.052244753,0.979792118
69.454126,-10.706642151,4.906639099,1.549739838,0.050346192,-0.052244753,0.979792118
69.454759,-9.714820862,2.266868591,1.099605560,0.069022954,-0.048704714,1.003229618
69.455416,-9.714820862,2.266868591,1.099605560,0.069022954,-0.048704714,1.003229618
69.456047,-9.714820862,2.266868591,1.099605560,0.069022954,-0.048704714,1.003229618
69.456814,-9.714820862,2.266868591,1.099605560,0.069022954,-0.048704714,1.003229618
69.457410,-9.714820862,2.266868591,1.099605560,0.069022954,-0.048704714,1.003229618
69.458035,-9.714820862,2.266868591,1.099605560,0.069022954,-0.048704714,1.003229618
69.458684,-9.714820862,2.266868591,1.099605560,0.069022954,-0.048704714,1.003229618
69.459324,-9.714820862,2.266868591,1.099605560,0.069022954,-0.048704714,1.003229618
69.459972,-9.714820862,2.266868591,1.099605560,0.069022954,-0.048704714,1.003229618
69.460612,-9.714820862,2.266868591,1.099605560,0.069022954,-0.048704714,1.003229618
69.461261,-9.714820862,2.266868591,1.099605560,0.069022954,-0.048704714,1.003229618
69.461899,-9.714820862,2.266868591,1.099605560,0.069022954,-0.048704714,1.003229618
69.462539,-9.714820862,2.266868591,1.099605560,0.069022954,-0.048704714,1.003229618
69.463184,-9.714820862,2.266868591,1.099605560,0.069022954,-0.048704714,1.003229618
69.463825,-9.714820862,2.266868591,1.099605560,0.069022954,-0.048704714,1.003229618
69.464462,-10.142066956,-0.784889221,1.488704681,0.090629399,-0.056151003,1.015802860
69.465119,-10.142066956,-0.784889221,1.488704681,0.090629399,-0.056151003,1.015802860
69.465752,-10.142066956,-0.784889221,1.488704681,0.090629399,-0.056151003,1.015802860
69.466402,-10.142066956,-0.784889221,1.488704681,0.090629399,-0.056151003,1.015802860
69.467044,-10.142066956,-0.784889221,1.488704681,0.090629399,-0.056151003,1.015802860
69.467688,-10.142066956,-0.784889221,1.488704681,0.090629399,-0.056151003,1.015802860
69.468329,-10.142066956,-0.784889221,1.488704681,0.090629399,-0.056151003,1.015802860
69.468984,-10.142066956,-0.784889221,1.488704681,0.090629399,-0.056151003,1.015802860
69.470889,-10.142066956,-0.784889221,1.488704681,0.090629399,-0.056151003,1.015802860
69.471628,-10.142066956,-0.784889221,1.488704681,0.090629399,-0.056151003,1.015802860
69.472310,-10.142066956,-0.784889221,1.488704681,0.090629399,-0.056151003,1.015802860
69.472974,-10.142066956,-0.784889221,1.488704681,0.090629399,-0.056151003,1.015802860
69.473630,-10.142066956,-0.784889221,1.488704681,0.090629399,-0.056151003,1.015802860
69.474309,-10.142066956,-0.784889221,1.488704681,0.090629399,-0.056151003,1.015802860
69.474955,-10.370948792,-4.599586487,1.099605560,0.092704594,-0.042479128,1.011652470
69.475631,-10.370948792,-4.599586487,1.099605560,0.092704594,-0.042479128,1.011652470
69.476282,-10.370948792,-4.599586487,1.099605560,0.092704594,-0.042479128,1.011652470
69.476945,-10.370948792,-4.599586487,1.099605560,0.092704594,-0.042479128,1.011652470
69.477593,-10.370948792,-4.599586487,1.099605560,0.092704594,-0.042479128,1.011652470
69.478263,-10.370948792,-4.599586487,1.099605560,0.092704594,-0.042479128,1.011652470
69.478909,-10.370948792,-4.599586487,1.099605560,0.092704594,-0.042479128,1.011652470
69.479575,-10.370948792,-4.599586487,1.099605560,0.092704594,-0.042479128,1.011652470
69.480226,-10.370948792,-4.599586487,1.099605560,0.092704594,-0.042479128,1.011652470
69.480891,-10.370948792,-4.599586487,1.099605560,0.092704594,-0.042479128,1.011652470
69.481539,-10.370948792,-4.599586487,1.099605560,0.092704594,-0.042479128,1.011652470
69.482322,-10.370948792,-4.599586487,1.099605560,0.092704594,-0.042479128,1.011652470
69.482945,-10.370948792,-4.599586487,1.099605560,0.092704594,-0.042479128,1.011652470
69.500786,-9.020545959,-7.697120667,-0.227909088,0.048393067,-0.056517214,0.999323368
69.501525,-9.020545959,-7.697120667,-0.227909088,0.048393067,-0.056517214,0.999323368
69.502163,-9.020545959,-7.697120667,-0.227909088,0.048393067,-0.056517214,0.999323368
69.502814,-9.020545959,-7.697120667,-0.227909088,0.048393067,-0.056517214,0.999323368
69.503441,-9.020545959,-7.697120667,-0.227909088,0.048393067,-0.056517214,0.999323368
69.504095,-9.020545959,-7.697120667,-0.227909088,0.048393067,-0.056517214,0.999323368
69.504720,-9.134986877,-6.979957581,0.107784271,0.032645997,-0.074339479,0.992853642
69.505374,-9.134986877,-6.979957581,0.107784271,0.032645997,-0.074339479,0.992853642
69.506101,-9.134986877,-6.979957581,0.107784271,0.032645997,-0.074339479,0.992853642
69.506704,-9.134986877,-6.979957581,0.107784271,0.032645997,-0.074339479,0.992853642
69.507324,-9.134986877,-6.979957581,0.107784271,0.032645997,-0.074339479,0.992853642
69.507976,-9.134986877,-6.979957581,0.107784271,0.032645997,-0.074339479,0.992853642
69.508611,-9.134986877,-6.979957581,0.107784271,0.032645997,-0.074339479,0.992853642
69.509262,-9.134986877,-6.979957581,0.107784271,0.032645997,-0.074339479,0.992853642
69.509886,-9.134986877,-6.979957581,0.107784271,0.032645997,-0.074339479,0.992853642
69.510534,-9.134986877,-6.979957581,0.107784271,0.032645997,-0.074339479,0.992853642
69.511168,-9.134986877,-6.979957581,0.107784271,0.032645997,-0.074339479,0.992853642
69.511815,-9.134986877,-6.979957581,0.107784271,0.032645997,-0.074339479,0.992853642
69.512446,-9.134986877,-6.979957581,0.107784271,0.032645997,-0.074339479,0.992853642
69.513104,-9.134986877,-6.979957581,0.107784271,0.032645997,-0.074339479,0.992853642
69.513726,-9.134986877,-6.979957581,0.107784271,0.032645997,-0.074339479,0.992853642
69.514380,-9.043434143,-5.698219299,-0.540714264,0.017143067,-0.078856081,0.980402470
69.515006,-9.043434143,-5.698219299,-0.540714264,0.017143067,-0.078856081,0.980402470
69.515655,-9.043434143,-5.698219299,-0.540714264,0.017143067,-0.078856081,0.980402470
69.516278,-9.043434143,-5.698219299,-0.540714264,0.017143067,-0.078856081,0.980402470
69.516929,-9.043434143,-5.698219299,-0.540714264,0.017143067,-0.078856081,0.980402470
69.517550,-9.043434143,-5.698219299,-0.540714264,0.017143067,-0.078856081,0.980402470
69.518204,-9.043434143,-5.698219299,-0.540714264,0.017143067,-0.078856081,0.980402470
69.518832,-9.043434143,-5.698219299,-0.540714264,0.017143067,-0.078856081,0.980402470
69.520762,-9.043434143,-5.698219299,-0.540714264,0.017143067,-0.078856081,0.980402470
69.521479,-9.043434143,-5.698219299,-0.540714264,0.017143067,-0.078856081,0.980402470
69.522159,-9.043434143,-5.698219299,-0.540714264,0.017143067,-0.078856081,0.980402470
69.522814,-9.043434143,-5.698219299,-0.540714264,0.017143067,-0.078856081,0.980402470
69.523462,-9.043434143,-5.698219299,-0.540714264,0.017143067,-0.078856081,0.980402470
69.524128,-8.051612854,-3.127113342,-0.784854889,0.012260254,-0.069456667,0.971369267
69.524780,-8.051612854,-3.127113342,-0.784854889,0.012260254,-0.069456667,0.971369267
69.525434,-8.051612854,-3.127113342,-0.784854889,0.012260254,-0.069456667,0.971369267
69.526082,-8.051612854,-3.127113342,-0.784854889,0.012260254,-0.069456667,0.971369267
69.526733,-8.051612854,-3.127113342,-0.784854889,0.012260254,-0.069456667,0.971369267
69.527384,-8.051612854,-3.127113342,-0.784854889,0.012260254,-0.069456667,0.971369267
69.528033,-8.051612854,-3.127113342,-0.784854889,0.012260254,-0.069456667,0.971369267
69.528684,-8.051612854,-3.127113342,-0.784854889,0.012260254,-0.069456667,0.971369267
69.529337,-8.051612854,-3.127113342,-0.784854889,0.012260254,-0.069456667,0.971369267
69.529989,-8.051612854,-3.127113342,-0.784854889,0.012260254,-0.069456667,0.971369267
69.530645,-8.051612854,-3.127113342,-0.784854889,0.012260254,-0.069456667,0.971369267
69.531296,-8.051612854,-3.127113342,-0.784854889,0.012260254,-0.069456667,0.971369267
69.532051,-8.051612854,-3.127113342,-0.784854889,0.012260254,-0.069456667,0.971369267
69.532663,-8.051612854,-3.127113342,-0.784854889,0.012260254,-0.069456667,0.971369267
69.550823,-6.037452698,1.244529724,1.183528900,0.042533692,-0.068235964,1.007624149
69.551563,-6.037452698,1.244529724,1.183528900,0.042533692,-0.068235964,1.007624149
69.552203,-6.037452698,1.244529724,1.183528900,0.042533692,-0.068235964,1.007624149
69.552873,-6.037452698,1.244529724,1.183528900,0.042533692,-0.068235964,1.007624149
69.553495,-6.037452698,1.244529724,1.183528900,0.042533692,-0.068235964,1.007624149
69.554153,-6.129005432,0.664695740,0.573177338,0.058402833,-0.073484987,1.020075321
69.554782,-6.129005432,0.664695740,0.573177338,0.058402833,-0.073484987,1.020075321
69.555567,-6.129005432,0.664695740,0.573177338,0.058402833,-0.073484987,1.020075321
69.556172,-6.129005432,0.664695740,0.573177338,0.058402833,-0.073484987,1.020075321
69.556794,-6.129005432,0.664695740,0.573177338,0.058402833,-0.073484987,1.020075321
69.557446,-6.129005432,0.664695740,0.573177338,0.058402833,-0.073484987,1.020075321
69.558079,-6.129005432,0.664695740,0.573177338,0.058402833,-0.073484987,1.020075321
69.558725,-6.129005432,0.664695740,0.573177338,0.058402833,-0.073484987,1.020075321
69.559364,-6.129005432,0.664695740,0.573177338,0.058402833,-0.073484987,1.020075321
69.560018,-6.129005432,0.664695740,0.573177338,0.058402833,-0.073484987,1.020075321
69.560651,-6.129005432,0.664695740,0.573177338,0.058402833,-0.073484987,1.020075321
69.561307,-6.129005432,0.664695740,0.573177338,0.058402833,-0.073484987,1.020075321
69.561940,-6.129005432,0.664695740,0.573177338,0.058402833,-0.073484987,1.020075321
69.562585,-6.129005432,0.664695740,0.573177338,0.058402833,-0.073484987,1.020075321
69.563223,-6.129005432,0.664695740,0.573177338,0.058402833,-0.073484987,1.020075321
69.563881,-5.961158752,0.374778748,0.329036713,0.069389164,-0.062986940,1.011408329
69.564510,-5.961158752,0.374778748,0.329036713,0.069389164,-0.062986940,1.011408329
69.565165,-5.961158752,0.374778748,0.329036713,0.069389164,-0.062986940,1.011408329
69.565801,-5.961158752,0.374778748,0.329036713,0.069389164,-0.062986940,1.011408329
69.566447,-5.961158752,0.374778748,0.329036713,0.069389164,-0.062986940,1.011408329
69.567079,-5.961158752,0.374778748,0.329036713,0.069389164,-0.062986940,1.011408329
69.567731,-5.961158752,0.374778748,0.329036713,0.069389164,-0.062986940,1.011408329
69.568369,-5.961158752,0.374778748,0.329036713,0.069389164,-0.062986940,1.011408329
69.569019,-5.961158752,0.374778748,0.329036713,0.069389164,-0.062986940,1.011408329
69.570928,-5.961158752,0.374778748,0.329036713,0.069389164,-0.062986940,1.011408329
69.571659,-5.961158752,0.374778748,0.329036713,0.069389164,-0.062986940,1.011408329
69.572338,-5.961158752,0.374778748,0.329036713,0.069389164,-0.062986940,1.011408329
69.572997,-5.961158752,0.374778748,0.329036713,0.069389164,-0.062986940,1.011408329
69.573661,-5.961158752,0.374778748,0.329036713,0.069389164,-0.062986940,1.011408329
69.574326,-5.274513245,0.992759705,1.313228607,0.076835454,-0.057859987,0.995417118
69.574974,-5.274513245,0.992759705,1.313228607,0.076835454,-0.057859987,0.995417118
69.575637,-5.274513245,0.992759705,1.313228607,0.076835454,-0.057859987,0.995417118
69.576288,-5.274513245,0.992759705,1.313228607,0.076835454,-0.057859987,0.995417118
69.576942,-5.274513245,0.992759705,1.313228607,0.076835454,-0.057859987,0.995417118
69.577589,-5.274513245,0.992759705,1.313228607,0.076835454,-0.057859987,0.995417118
69.578251,-5.274513245,0.992759705,1.313228607,0.076835454,-0.057859987,0.995417118
69.578903,-5.274513245,0.992759705,1.313228607,0.076835454,-0.057859987,0.995417118
69.579561,-5.274513245,0.992759705,1.313228607,0.076835454,-0.057859987,0.995417118
69.580211,-5.274513245,0.992759705,1.313228607,0.076835454,-0.057859987,0.995417118
69.580875,-5.274513245,0.992759705,1.313228607,0.076835454,-0.057859987,0.995417118
69.581626,-5.274513245,0.992759705,1.313228607,0.076835454,-0.057859987,0.995417118
69.582236,-5.274513245,0.992759705,1.313228607,0.076835454,-0.057859987,0.995417118
69.582879,-5.274513245,0.992759705,1.313228607,0.076835454,-0.057859987,0.995417118
69.583540,-5.274513245,0.992759705,1.313228607,0.076835454,-0.057859987,0.995417118
69.599772,-4.191139221,1.114830017,1.572628021,0.058524903,-0.083494753,0.977961063
69.600509,-4.191139221,1.114830017,1.572628021,0.058524903,-0.083494753,0.977961063
69.601144,-4.191139221,1.114830017,1.572628021,0.058524903,-0.083494753,0.977961063
69.601792,-4.191139221,1.114830017,1.572628021,0.058524903,-0.083494753,0.977961063
69.602421,-4.191139221,1.114830017,1.572628021,0.058524903,-0.083494753,0.977961063
69.603064,-4.191139221,1.114830017,1.572628021,0.058524903,-0.083494753,0.977961063
69.603688,-3.603675842,0.794395447,1.076717377,0.034477051,-0.087278932,0.976252079
69.604342,-3.603675842,0.794395447,1.076717377,0.034477051,-0.087278932,0.976252079
69.605068,-3.603675842,0.794395447,1.076717377,0.034477051,-0.087278932,0.976252079
69.605675,-3.603675842,0.794395447,1.076717377,0.034477051,-0.087278932,0.976252079
69.606290,-3.603675842,0.794395447,1.076717377,0.034477051,-0.087278932,0.976252079
69.606932,-3.603675842,0.794395447,1.076717377,0.034477051,-0.087278932,0.976252079
69.607555,-3.603675842,0.794395447,1.076717377,0.034477051,-0.087278932,0.976252079
69.608200,-3.603675842,0.794395447,1.076717377,0.034477051,-0.087278932,0.976252079
69.608819,-3.603675842,0.794395447,1.076717377,0.034477051,-0.087278932,0.976252079
69.609464,-3.603675842,0.794395447,1.076717377,0.034477051,-0.087278932,0.976252079
69.610080,-3.603675842,0.794395447,1.076717377,0.034477051,-0.087278932,0.976252079
69.610720,-3.603675842,0.794395447,1.076717377,0.034477051,-0.087278932,0.976252079
69.611344,-3.603675842,0.794395447,1.076717377,0.034477051,-0.087278932,0.976252079
69.611985,-3.603675842,0.794395447,1.076717377,0.034477051,-0.087278932,0.976252079
69.612608,-3.603675842,0.794395447,1.076717377,0.034477051,-0.087278932,0.976252079
69.613254,-3.603675842,0.794395447,1.076717377,0.034477051,-0.087278932,0.976252079
69.613875,-2.833106995,0.832542419,1.183528900,0.014213379,-0.084959596,0.985407352
69.614513,-2.833106995,0.832542419,1.183528900,0.014213379,-0.084959596,0.985407352
69.615143,-2.833106995,0.832542419,1.183528900,0.014213379,-0.084959596,0.985407352
69.615778,-2.833106995,0.832542419,1.183528900,0.014213379,-0.084959596,0.985407352
69.616400,-2.833106995,0.832542419,1.183528900,0.014213379,-0.084959596,0.985407352
69.617045,-2.833106995,0.832542419,1.183528900,0.014213379,-0.084959596,0.985407352
69.617661,-2.833106995,0.832542419,1.183528900,0.014213379,-0.084959596,0.985407352
69.619573,-2.833106995,0.832542419,1.183528900,0.014213379,-0.084959596,0.985407352
69.620289,-2.833106995,0.832542419,1.183528900,0.014213379,-0.084959596,0.985407352
69.620957,-2.833106995,0.832542419,1.183528900,0.014213379,-0.084959596,0.985407352
69.621611,-2.833106995,0.832542419,1.183528900,0.014213379,-0.084959596,0.985407352
69.622254,-2.833106995,0.832542419,1.183528900,0.014213379,-0.084959596,0.985407352
69.622899,-2.833106995,0.832542419,1.183528900,0.014213379,-0.084959596,0.985407352
69.623550,-2.817848206,2.305015564,0.817317963,0.001884278,-0.075560182,0.993097782
69.624206,-2.817848206,2.305015564,0.817317963,0.001884278,-0.075560182,0.993097782
69.624849,-2.817848206,2.305015564,0.817317963,0.001884278,-0.075560182,0.993097782
69.625493,-2.817848206,2.305015564,0.817317963,0.001884278,-0.075560182,0.993097782
69.626139,-2.817848206,2.305015564,0.817317963,0.001884278,-0.075560182,0.993097782
69.626780,-2.817848206,2.305015564,0.817317963,0.001884278,-0.075560182,0.993097782
69.627423,-2.817848206,2.305015564,0.817317963,0.001884278,-0.075560182,0.993097782
69.628069,-2.817848206,2.305015564,0.817317963,0.001884278,-0.075560182,0.993097782
69.628704,-2.817848206,2.305015564,0.817317963,0.001884278,-0.075560182,0.993097782
69.629356,-2.817848206,2.305015564,0.817317963,0.001884278,-0.075560182,0.993097782
69.629995,-2.817848206,2.305015564,0.817317963,0.001884278,-0.075560182,0.993097782
69.630639,-2.817848206,2.305015564,0.817317963,0.001884278,-0.075560182,0.993097782
69.631386,-2.817848206,2.305015564,0.817317963,0.001884278,-0.075560182,0.993097782
69.648887,-2.939918518,3.846153259,-0.273685455,0.032279786,-0.075804323,1.000055790
69.649635,-2.939918518,3.846153259,-0.273685455,0.032279786,-0.075804323,1.000055790
69.650290,-2.939918518,3.846153259,-0.273685455,0.032279786,-0.075804323,1.000055790
69.650950,-2.939918518,3.846153259,-0.273685455,0.032279786,-0.075804323,1.000055790
69.651584,-2.939918518,3.846153259,-0.273685455,0.032279786,-0.075804323,1.000055790
69.652245,-2.939918518,3.846153259,-0.273685455,0.032279786,-0.075804323,1.000055790
69.652886,-2.939918518,3.846153259,-0.273685455,0.032279786,-0.075804323,1.000055790
69.653543,-3.313758850,3.594383240,-0.174503326,0.048759278,-0.078123659,0.991755009
69.654286,-3.313758850,3.594383240,-0.174503326,0.048759278,-0.078123659,0.991755009
69.654900,-3.313758850,3.594383240,-0.174503326,0.048759278,-0.078123659,0.991755009
69.655523,-3.313758850,3.594383240,-0.174503326,0.048759278,-0.078123659,0.991755009
69.656186,-3.313758850,3.594383240,-0.174503326,0.048759278,-0.078123659,0.991755009
69.656830,-3.313758850,3.594383240,-0.174503326,0.048759278,-0.078123659,0.991755009
69.657486,-3.313758850,3.594383240,-0.174503326,0.048759278,-0.078123659,0.991755009
69.658130,-3.313758850,3.594383240,-0.174503326,0.048759278,-0.078123659,0.991755009
69.658786,-3.313758850,3.594383240,-0.174503326,0.048759278,-0.078123659,0.991755009
69.659426,-3.313758850,3.594383240,-0.174503326,0.048759278,-0.078123659,0.991755009
69.660079,-3.313758850,3.594383240,-0.174503326,0.048759278,-0.078123659,0.991755009
69.660719,-3.313758850,3.594383240,-0.174503326,0.048759278,-0.078123659,0.991755009
69.661376,-3.313758850,3.594383240,-0.174503326,0.048759278,-0.078123659,0.991755009
69.662012,-3.313758850,3.594383240,-0.174503326,0.048759278,-0.078123659,0.991755009
69.662672,-3.313758850,3.594383240,-0.174503326,0.048759278,-0.078123659,0.991755009
69.663311,-3.596046448,3.632530212,0.008602142,0.043266114,-0.073607057,0.982355595
69.663962,-3.596046448,3.632530212,0.008602142,0.043266114,-0.073607057,0.982355595
69.664601,-3.596046448,3.632530212,0.008602142,0.043266114,-0.073607057,0.982355595
69.665259,-3.596046448,3.632530212,0.008602142,0.043266114,-0.073607057,0.982355595
69.665898,-3.596046448,3.632530212,0.008602142,0.043266114,-0.073607057,0.982355595
69.666545,-3.596046448,3.632530212,0.008602142,0.043266114,-0.073607057,0.982355595
69.667185,-3.596046448,3.632530212,0.008602142,0.043266114,-0.073607057,0.982355595
69.669118,-3.596046448,3.632530212,0.008602142,0.043266114,-0.073607057,0.982355595
69.669860,-3.596046448,3.632530212,0.008602142,0.043266114,-0.073607057,0.982355595
69.670543,-3.596046448,3.632530212,0.008602142,0.043266114,-0.073607057,0.982355595
69.671211,-3.596046448,3.632530212,0.008602142,0.043266114,-0.073607057,0.982355595
69.671870,-3.596046448,3.632530212,0.008602142,0.043266114,-0.073607057,0.982355595
69.672530,-3.596046448,3.632530212,0.008602142,0.043266114,-0.073607057,0.982355595
69.673196,-3.054359436,4.227622986,-0.121097565,0.035697754,-0.065916628,0.975641727
69.673867,-3.054359436,4.227622986,-0.121097565,0.035697754,-0.065916628,0.975641727
69.674527,-3.054359436,4.227622986,-0.121097565,0.035697754,-0.065916628,0.975641727
69.675192,-3.054359436,4.227622986,-0.121097565,0.035697754,-0.065916628,0.975641727
69.675849,-3.054359436,4.227622986,-0.121097565,0.035697754,-0.065916628,0.975641727
69.676512,-3.054359436,4.227622986,-0.121097565,0.035697754,-0.065916628,0.975641727
69.677171,-3.054359436,4.227622986,-0.121097565,0.035697754,-0.065916628,0.975641727
69.677833,-3.054359436,4.227622986,-0.121097565,0.035697754,-0.065916628,0.975641727
69.678494,-3.054359436,4.227622986,-0.121097565,0.035697754,-0.065916628,0.975641727
69.679159,-3.054359436,4.227622986,-0.121097565,0.035697754,-0.065916628,0.975641727
69.679812,-3.054359436,4.227622986,-0.121097565,0.035697754,-0.065916628,0.975641727
69.680475,-3.054359436,4.227622986,-0.121097565,0.035697754,-0.065916628,0.975641727
69.681242,-3.054359436,4.227622986,-0.121097565,0.035697754,-0.065916628,0.975641727
69.681869,-3.054359436,4.227622986,-0.121097565,0.035697754,-0.065916628,0.975641727
69.699689,-2.337196350,4.166587830,-0.220279694,0.038017090,-0.081175417,0.974909306
69.700424,-2.337196350,4.166587830,-0.220279694,0.038017090,-0.081175417,0.974909306
69.701058,-2.337196350,4.166587830,-0.220279694,0.038017090,-0.081175417,0.974909306
69.701709,-2.337196350,4.166587830,-0.220279694,0.038017090,-0.081175417,0.974909306
69.702336,-2.337196350,4.166587830,-0.220279694,0.038017090,-0.081175417,0.974909306
69.702992,-2.291419983,3.350242615,-0.159244537,0.042655762,-0.070677370,0.974054813
69.703624,-2.291419983,3.350242615,-0.159244537,0.042655762,-0.070677370,0.974054813
69.704387,-2.291419983,3.350242615,-0.159244537,0.042655762,-0.070677370,0.974054813
69.704984,-2.291419983,3.350242615,-0.159244537,0.042655762,-0.070677370,0.974054813
69.705617,-2.291419983,3.350242615,-0.159244537,0.042655762,-0.070677370,0.974054813
69.706262,-2.291419983,3.350242615,-0.159244537,0.042655762,-0.070677370,0.974054813
69.706898,-2.291419983,3.350242615,-0.159244537,0.042655762,-0.070677370,0.974054813
69.707535,-2.291419983,3.350242615,-0.159244537,0.042655762,-0.070677370,0.974054813
69.708176,-2.291419983,3.350242615,-0.159244537,0.042655762,-0.070677370,0.974054813
69.708814,-2.291419983,3.350242615,-0.159244537,0.042655762,-0.070677370,0.974054813
69.709443,-2.291419983,3.350242615,-0.159244537,0.042655762,-0.070677370,0.974054813
69.710091,-2.291419983,3.350242615,-0.159244537,0.042655762,-0.070677370,0.974054813
69.710718,-2.291419983,3.350242615,-0.159244537,0.042655762,-0.070677370,0.974054813
69.711364,-2.291419983,3.350242615,-0.159244537,0.042655762,-0.070677370,0.974054813
69.711998,-2.291419983,3.350242615,-0.159244537,0.042655762,-0.070677370,0.974054813
69.712639,-2.291419983,3.350242615,-0.159244537,0.042655762,-0.070677370,0.974054813
69.713274,-1.696327209,2.556785583,-0.418643951,0.049369629,-0.053953737,0.978327274
69.713918,-1.696327209,2.556785583,-0.418643951,0.049369629,-0.053953737,0.978327274
69.714546,-1.696327209,2.556785583,-0.418643951,0.049369629,-0.053953737,0.978327274
69.715189,-1.696327209,2.556785583,-0.418643951,0.049369629,-0.053953737,0.978327274
69.715826,-1.696327209,2.556785583,-0.418643951,0.049369629,-0.053953737,0.978327274
69.716468,-1.696327209,2.556785583,-0.418643951,0.049369629,-0.053953737,0.978327274
69.717105,-1.696327209,2.556785583,-0.418643951,0.049369629,-0.053953737,0.978327274
69.717748,-1.696327209,2.556785583,-0.418643951,0.049369629,-0.053953737,0.978327274
69.719656,-1.696327209,2.556785583,-0.418643951,0.049369629,-0.053953737,0.978327274
69.720392,-1.696327209,2.556785583,-0.418643951,0.049369629,-0.053953737,0.978327274
69.721068,-1.696327209,2.556785583,-0.418643951,0.049369629,-0.053953737,0.978327274
69.721726,-1.696327209,2.556785583,-0.418643951,0.049369629,-0.053953737,0.978327274
69.722373,-1.696327209,2.556785583,-0.418643951,0.049369629,-0.053953737,0.978327274
69.723037,-1.147010803,2.106651306,-0.922183990,0.058280762,-0.049803346,0.980402470
69.723687,-1.147010803,2.106651306,-0.922183990,0.058280762,-0.049803346,0.980402470
69.724346,-1.147010803,2.106651306,-0.922183990,0.058280762,-0.049803346,0.980402470
69.724989,-1.147010803,2.106651306,-0.922183990,0.058280762,-0.049803346,0.980402470
69.725649,-1.147010803,2.106651306,-0.922183990,0.058280762,-0.049803346,0.980402470
69.726293,-1.147010803,2.106651306,-0.922183990,0.058280762,-0.049803346,0.980402470
69.726948,-1.147010803,2.106651306,-0.922183990,0.058280762,-0.049803346,0.980402470
69.727591,-1.147010803,2.106651306,-0.922183990,0.058280762,-0.049803346,0.980402470
69.728251,-1.147010803,2.106651306,-0.922183990,0.058280762,-0.049803346,0.980402470
69.728902,-1.147010803,2.106651306,-0.922183990,0.058280762,-0.049803346,0.980402470
69.729551,-1.147010803,2.106651306,-0.922183990,0.058280762,-0.049803346,0.980402470
69.730199,-1.147010803,2.106651306,-0.922183990,0.058280762,-0.049803346,0.980402470
69.730986,-1.147010803,2.106651306,-0.922183990,0.058280762,-0.049803346,0.980402470
69.731586,-1.147010803,2.106651306,-0.922183990,0.058280762,-0.049803346,0.980402470
69.749679,-1.497962952,0.138267517,-0.380496979,0.048515137,-0.078367800,0.984430790
69.750432,-1.497962952,0.138267517,-0.380496979,0.048515137,-0.078367800,0.984430790
69.751069,-1.497962952,0.138267517,-0.380496979,0.048515137,-0.078367800,0.984430790
69.751729,-1.497962952,0.138267517,-0.380496979,0.048515137,-0.078367800,0.984430790
69.752356,-1.497962952,0.138267517,-0.380496979,0.048515137,-0.078367800,0.984430790
69.753013,-1.467445374,-0.983253479,-0.823001862,0.040580567,-0.079588503,0.973566532
69.753751,-1.467445374,-0.983253479,-0.823001862,0.040580567,-0.079588503,0.973566532
69.754352,-1.467445374,-0.983253479,-0.823001862,0.040580567,-0.079588503,0.973566532
69.754972,-1.467445374,-0.983253479,-0.823001862,0.040580567,-0.079588503,0.973566532
69.755635,-1.467445374,-0.983253479,-0.823001862,0.040580567,-0.079588503,0.973566532
69.756264,-1.467445374,-0.983253479,-0.823001862,0.040580567,-0.079588503,0.973566532
69.756919,-1.467445374,-0.983253479,-0.823001862,0.040580567,-0.079588503,0.973566532
69.757543,-1.467445374,-0.983253479,-0.823001862,0.040580567,-0.079588503,0.973566532
69.758205,-1.467445374,-0.983253479,-0.823001862,0.040580567,-0.079588503,0.973566532
69.758827,-1.467445374,-0.983253479,-0.823001862,0.040580567,-0.079588503,0.973566532
69.759488,-1.467445374,-0.983253479,-0.823001862,0.040580567,-0.079588503,0.973566532
69.760122,-1.467445374,-0.983253479,-0.823001862,0.040580567,-0.079588503,0.973566532
69.760773,-1.467445374,-0.983253479,-0.823001862,0.040580567,-0.079588503,0.973566532
69.761403,-1.467445374,-0.983253479,-0.823001862,0.040580567,-0.079588503,0.973566532
69.762059,-1.467445374,-0.983253479,-0.823001862,0.040580567,-0.079588503,0.973566532
69.762686,-1.093605042,-1.914039612,-1.143436432,0.044608887,-0.070189089,0.957697392
69.763347,-1.093605042,-1.914039612,-1.143436432,0.044608887,-0.070189089,0.957697392
69.763975,-1.093605042,-1.914039612,-1.143436432,0.044608887,-0.070189089,0.957697392
69.764634,-1.093605042,-1.914039612,-1.143436432,0.044608887,-0.070189089,0.957697392
69.765265,-1.093605042,-1.914039612,-1.143436432,0.044608887,-0.070189089,0.957697392
69.765923,-1.093605042,-1.914039612,-1.143436432,0.044608887,-0.070189089,0.957697392
69.766544,-1.093605042,-1.914039612,-1.143436432,0.044608887,-0.070189089,0.957697392
69.767204,-1.093605042,-1.914039612,-1.143436432,0.044608887,-0.070189089,0.957697392
69.767831,-1.093605042,-1.914039612,-1.143436432,0.044608887,-0.070189089,0.957697392
69.769758,-1.093605042,-1.914039612,-1.143436432,0.044608887,-0.070189089,0.957697392
69.770484,-1.093605042,-1.914039612,-1.143436432,0.044608887,-0.070189089,0.957697392
69.771172,-1.093605042,-1.914039612,-1.143436432,0.044608887,-0.070189089,0.957697392
69.771835,-1.093605042,-1.914039612,-1.143436432,0.044608887,-0.070189089,0.957697392
69.772503,-0.330665588,-2.562538147,-0.655155182,0.049979981,-0.076414675,0.950739384
69.773169,-0.330665588,-2.562538147,-0.655155182,0.049979981,-0.076414675,0.950739384
69.773833,-0.330665588,-2.562538147,-0.655155182,0.049979981,-0.076414675,0.950739384
69.774496,-0.330665588,-2.562538147,-0.655155182,0.049979981,-0.076414675,0.950739384
69.775160,-0.330665588,-2.562538147,-0.655155182,0.049979981,-0.076414675,0.950739384
69.775823,-0.330665588,-2.562538147,-0.655155182,0.049979981,-0.076414675,0.950739384
69.776481,-0.330665588,-2.562538147,-0.655155182,0.049979981,-0.076414675,0.950739384
69.777147,-0.330665588,-2.562538147,-0.655155182,0.049979981,-0.076414675,0.950739384
69.777807,-0.330665588,-2.562538147,-0.655155182,0.049979981,-0.076414675,0.950739384
69.778463,-0.330665588,-2.562538147,-0.655155182,0.049979981,-0.076414675,0.950739384
69.779126,-0.330665588,-2.562538147,-0.655155182,0.049979981,-0.076414675,0.950739384
69.779788,-0.330665588,-2.562538147,-0.655155182,0.049979981,-0.076414675,0.950739384
69.780558,-0.330665588,-2.562538147,-0.655155182,0.049979981,-0.076414675,0.950739384
69.781179,-0.330665588,-2.562538147,-0.655155182,0.049979981,-0.076414675,0.950739384
69.781821,-0.330665588,-2.562538147,-0.655155182,0.049979981,-0.076414675,0.950739384
69.800095,0.432273865,-3.966346741,0.084896088,0.042167481,-0.092039675,0.989313602
69.800839,0.432273865,-3.966346741,0.084896088,0.042167481,-0.092039675,0.989313602
69.801483,0.432273865,-3.966346741,0.084896088,0.042167481,-0.092039675,0.989313602
69.802143,0.432273865,-3.966346741,0.084896088,0.042167481,-0.092039675,0.989313602
69.802881,0.447532654,-4.096046448,-0.082950592,0.043632325,-0.085447878,1.002863407
69.803464,0.447532654,-4.096046448,-0.082950592,0.043632325,-0.085447878,1.002863407
69.804091,0.447532654,-4.096046448,-0.082950592,0.043632325,-0.085447878,1.002863407
69.804738,0.447532654,-4.096046448,-0.082950592,0.043632325,-0.085447878,1.002863407
69.805374,0.447532654,-4.096046448,-0.082950592,0.043632325,-0.085447878,1.002863407
69.806023,0.447532654,-4.096046448,-0.082950592,0.043632325,-0.085447878,1.002863407
69.806652,0.447532654,-4.096046448,-0.082950592,0.043632325,-0.085447878,1.002863407
69.807306,0.447532654,-4.096046448,-0.082950592,0.043632325,-0.085447878,1.002863407
69.807936,0.447532654,-4.096046448,-0.082950592,0.043632325,-0.085447878,1.002863407
69.808580,0.447532654,-4.096046448,-0.082950592,0.043632325,-0.085447878,1.002863407
69.809215,0.447532654,-4.096046448,-0.082950592,0.043632325,-0.085447878,1.002863407
69.809876,0.447532654,-4.096046448,-0.082950592,0.043632325,-0.085447878,1.002863407
69.810505,0.447532654,-4.096046448,-0.082950592,0.043632325,-0.085447878,1.002863407
69.811156,0.447532654,-4.096046448,-0.082950592,0.043632325,-0.085447878,1.002863407
69.811790,0.447532654,-4.096046448,-0.082950592,0.043632325,-0.085447878,1.002863407
69.812445,0.363609314,-4.340187073,0.039119720,0.057060059,-0.073240846,1.001154423
69.813069,0.363609314,-4.340187073,0.039119720,0.057060059,-0.073240846,1.001154423
69.813717,0.363609314,-4.340187073,0.039119720,0.057060059,-0.073240846,1.001154423
69.814354,0.363609314,-4.340187073,0.039119720,0.057060059,-0.073240846,1.001154423
69.814998,0.363609314,-4.340187073,0.039119720,0.057060059,-0.073240846,1.001154423
69.815632,0.363609314,-4.340187073,0.039119720,0.057060059,-0.073240846,1.001154423
69.816287,0.363609314,-4.340187073,0.039119720,0.057060059,-0.073240846,1.001154423
69.816915,0.363609314,-4.340187073,0.039119720,0.057060059,-0.073240846,1.001154423
69.817563,0.363609314,-4.340187073,0.039119720,0.057060059,-0.073240846,1.001154423
69.818199,0.363609314,-4.340187073,0.039119720,0.057060059,-0.073240846,1.001154423
69.820120,0.363609314,-4.340187073,0.039119720,0.057060059,-0.073240846,1.001154423
69.820841,0.363609314,-4.340187073,0.039119720,0.057060059,-0.073240846,1.001154423
69.821522,0.363609314,-4.340187073,0.039119720,0.057060059,-0.073240846,1.001154423
69.822194,0.821372986,-5.248085022,0.214595795,0.063896000,-0.063109010,0.996637821
69.822851,0.821372986,-5.248085022,0.214595795,0.063896000,-0.063109010,0.996637821
69.823512,0.821372986,-5.248085022,0.214595795,0.063896000,-0.063109010,0.996637821
69.824166,0.821372986,-5.248085022,0.214595795,0.063896000,-0.063109010,0.996637821
69.824823,0.821372986,-5.248085022,0.214595795,0.063896000,-0.063109010,0.996637821
69.825478,0.821372986,-5.248085022,0.214595795,0.063896000,-0.063109010,0.996637821
69.826139,0.821372986,-5.248085022,0.214595795,0.063896000,-0.063109010,0.996637821
69.826784,0.821372986,-5.248085022,0.214595795,0.063896000,-0.063109010,0.996637821
69.827450,0.821372986,-5.248085022,0.214595795,0.063896000,-0.063109010,0.996637821
69.828101,0.821372986,-5.248085022,0.214595795,0.063896000,-0.063109010,0.996637821
69.828756,0.821372986,-5.248085022,0.214595795,0.063896000,-0.063109010,0.996637821
69.829419,0.821372986,-5.248085022,0.214595795,0.063896000,-0.063109010,0.996637821
69.830174,0.821372986,-5.248085022,0.214595795,0.063896000,-0.063109010,0.996637821
69.830786,0.821372986,-5.248085022,0.214595795,0.063896000,-0.063109010,0.996637821
69.831439,0.821372986,-5.248085022,0.214595795,0.063896000,-0.063109010,0.996637821
69.832102,1.149436951,-6.705299377,-0.113468170,0.064872563,-0.068602175,0.996515751
69.845692,1.225730896,-7.994667053,-0.227909088,0.063896000,-0.079588503,0.996393681
69.846420,1.225730896,-7.994667053,-0.227909088,0.063896000,-0.079588503,0.996393681
69.847065,1.225730896,-7.994667053,-0.227909088,0.063896000,-0.079588503,0.996393681
69.847718,1.225730896,-7.994667053,-0.227909088,0.063896000,-0.079588503,0.996393681
69.848354,1.225730896,-7.994667053,-0.227909088,0.063896000,-0.079588503,0.996393681
69.849004,1.225730896,-7.994667053,-0.227909088,0.063896000,-0.079588503,0.996393681
69.849641,1.225730896,-7.994667053,-0.227909088,0.063896000,-0.079588503,0.996393681
69.850291,1.225730896,-7.994667053,-0.227909088,0.063896000,-0.079588503,0.996393681
69.850926,1.225730896,-7.994667053,-0.227909088,0.063896000,-0.079588503,0.996393681
69.851582,1.225730896,-7.994667053,-0.227909088,0.063896000,-0.079588503,0.996393681
69.852222,1.096031189,-9.078041077,-0.090579987,0.060355958,-0.087401003,0.997126102
69.852983,1.096031189,-9.078041077,-0.090579987,0.060355958,-0.087401003,0.997126102
69.853575,1.096031189,-9.078041077,-0.090579987,0.060355958,-0.087401003,0.997126102
69.854212,1.096031189,-9.078041077,-0.090579987,0.060355958,-0.087401003,0.997126102
69.854868,1.096031189,-9.078041077,-0.090579987,0.060355958,-0.087401003,0.997126102
69.855497,1.096031189,-9.078041077,-0.090579987,0.060355958,-0.087401003,0.997126102
69.856144,1.096031189,-9.078041077,-0.090579987,0.060355958,-0.087401003,0.997126102
69.856781,1.096031189,-9.078041077,-0.090579987,0.060355958,-0.087401003,0.997126102
69.857426,1.096031189,-9.078041077,-0.090579987,0.060355958,-0.087401003,0.997126102
69.858059,1.096031189,-9.078041077,-0.090579987,0.060355958,-0.087401003,0.997126102
69.858708,1.096031189,-9.078041077,-0.090579987,0.060355958,-0.087401003,0.997126102
69.859344,1.096031189,-9.078041077,-0.090579987,0.060355958,-0.087401003,0.997126102
69.859989,1.096031189,-9.078041077,-0.090579987,0.060355958,-0.087401003,0.997126102
69.860631,1.096031189,-9.078041077,-0.090579987,0.060355958,-0.087401003,0.997126102
69.861276,1.096031189,-9.078041077,-0.090579987,0.060355958,-0.087401003,0.997126102
69.861908,1.179954529,-9.802833557,-0.212650299,0.050224122,-0.091063112,1.000910282
69.862552,1.179954529,-9.802833557,-0.212650299,0.050224122,-0.091063112,1.000910282
69.863197,1.179954529,-9.802833557,-0.212650299,0.050224122,-0.091063112,1.000910282
69.863841,1.179954529,-9.802833557,-0.212650299,0.050224122,-0.091063112,1.000910282
69.865749,1.179954529,-9.802833557,-0.212650299,0.050224122,-0.091063112,1.000910282
69.866486,1.179954529,-9.802833557,-0.212650299,0.050224122,-0.091063112,1.000910282
69.867172,1.179954529,-9.802833557,-0.212650299,0.050224122,-0.091063112,1.000910282
69.867837,1.179954529,-9.802833557,-0.212650299,0.050224122,-0.091063112,1.000910282
69.868485,1.179954529,-9.802833557,-0.212650299,0.050224122,-0.091063112,1.000910282
69.869150,1.179954529,-9.802833557,-0.212650299,0.050224122,-0.091063112,1.000910282
69.869797,1.179954529,-9.802833557,-0.212650299,0.050224122,-0.091063112,1.000910282
69.870453,1.179954529,-9.802833557,-0.212650299,0.050224122,-0.091063112,1.000910282
69.871104,1.179954529,-9.802833557,-0.212650299,0.050224122,-0.091063112,1.000910282
69.871764,1.179954529,-9.802833557,-0.212650299,0.050224122,-0.091063112,1.000910282
69.872416,1.096031189,-10.108009338,-0.349979401,0.043632325,-0.087401003,1.008234501
69.873080,1.096031189,-10.108009338,-0.349979401,0.043632325,-0.087401003,1.008234501
69.873734,1.096031189,-10.108009338,-0.349979401,0.043632325,-0.087401003,1.008234501
69.874398,1.096031189,-10.108009338,-0.349979401,0.043632325,-0.087401003,1.008234501
69.875044,1.096031189,-10.108009338,-0.349979401,0.043632325,-0.087401003,1.008234501
69.875710,1.096031189,-10.108009338,-0.349979401,0.043632325,-0.087401003,1.008234501
69.876363,1.096031189,-10.108009338,-0.349979401,0.043632325,-0.087401003,1.008234501
69.877023,1.096031189,-10.108009338,-0.349979401,0.043632325,-0.087401003,1.008234501
69.877678,1.096031189,-10.108009338,-0.349979401,0.043632325,-0.087401003,1.008234501
69.891585,0.531455994,-9.459510803,-0.319461823,0.038261231,-0.084715456,1.012751102
69.892334,0.241539001,-8.284584045,-0.571231842,0.033622559,-0.083860964,1.008112431
69.892982,0.241539001,-8.284584045,-0.571231842,0.033622559,-0.083860964,1.008112431
69.893648,0.241539001,-8.284584045,-0.571231842,0.033622559,-0.083860964,1.008112431
69.894277,0.241539001,-8.284584045,-0.571231842,0.033622559,-0.083860964,1.008112431
69.894935,0.241539001,-8.284584045,-0.571231842,0.033622559,-0.083860964,1.008112431
69.895565,0.241539001,-8.284584045,-0.571231842,0.033622559,-0.083860964,1.008112431
69.896226,0.241539001,-8.284584045,-0.571231842,0.033622559,-0.083860964,1.008112431
69.896864,0.241539001,-8.284584045,-0.571231842,0.033622559,-0.083860964,1.008112431
69.897515,0.241539001,-8.284584045,-0.571231842,0.033622559,-0.083860964,1.008112431
69.898147,0.241539001,-8.284584045,-0.571231842,0.033622559,-0.083860964,1.008112431
69.898808,0.241539001,-8.284584045,-0.571231842,0.033622559,-0.083860964,1.008112431
69.899432,0.241539001,-8.284584045,-0.571231842,0.033622559,-0.083860964,1.008112431
69.900093,0.241539001,-8.284584045,-0.571231842,0.033622559,-0.083860964,1.008112431
69.900728,0.241539001,-8.284584045,-0.571231842,0.033622559,-0.083860964,1.008112431
69.901388,0.241539001,-8.284584045,-0.571231842,0.033622559,-0.083860964,1.008112431
69.902107,0.249168396,-6.865516663,-0.937442780,0.032035645,-0.094847292,1.004816532
69.902714,0.249168396,-6.865516663,-0.937442780,0.032035645,-0.094847292,1.004816532
69.903334,0.249168396,-6.865516663,-0.937442780,0.032035645,-0.094847292,1.004816532
69.903992,0.249168396,-6.865516663,-0.937442780,0.032035645,-0.094847292,1.004816532
69.904628,0.249168396,-6.865516663,-0.937442780,0.032035645,-0.094847292,1.004816532
69.905286,0.249168396,-6.865516663,-0.937442780,0.032035645,-0.094847292,1.004816532
69.905916,0.249168396,-6.865516663,-0.937442780,0.032035645,-0.094847292,1.004816532
69.906572,0.249168396,-6.865516663,-0.937442780,0.032035645,-0.094847292,1.004816532
69.907206,0.249168396,-6.865516663,-0.937442780,0.032035645,-0.094847292,1.004816532
69.907871,0.249168396,-6.865516663,-0.937442780,0.032035645,-0.094847292,1.004816532
69.908494,0.249168396,-6.865516663,-0.937442780,0.032035645,-0.094847292,1.004816532
69.909154,0.249168396,-6.865516663,-0.937442780,0.032035645,-0.094847292,1.004816532
69.909787,0.249168396,-6.865516663,-0.937442780,0.032035645,-0.094847292,1.004816532
69.911718,-0.071266174,-5.629554749,-1.090030670,0.034965333,-0.107420534,1.005915165
69.912447,-0.071266174,-5.629554749,-1.090030670,0.034965333,-0.107420534,1.005915165
69.913136,-0.071266174,-5.629554749,-1.090030670,0.034965333,-0.107420534,1.005915165
69.913803,-0.071266174,-5.629554749,-1.090030670,0.034965333,-0.107420534,1.005915165
69.914454,-0.071266174,-5.629554749,-1.090030670,0.034965333,-0.107420534,1.005915165
69.915120,-0.071266174,-5.629554749,-1.090030670,0.034965333,-0.107420534,1.005915165
69.915778,-0.071266174,-5.629554749,-1.090030670,0.034965333,-0.107420534,1.005915165
69.916440,-0.071266174,-5.629554749,-1.090030670,0.034965333,-0.107420534,1.005915165
69.917102,-0.071266174,-5.629554749,-1.090030670,0.034965333,-0.107420534,1.005915165
69.917764,-0.071266174,-5.629554749,-1.090030670,0.034965333,-0.107420534,1.005915165
69.918422,-0.071266174,-5.629554749,-1.090030670,0.034965333,-0.107420534,1.005915165
69.919082,-0.071266174,-5.629554749,-1.090030670,0.034965333,-0.107420534,1.005915165
69.919739,-0.071266174,-5.629554749,-1.090030670,0.034965333,-0.107420534,1.005915165
69.920402,-0.071266174,-5.629554749,-1.090030670,0.034965333,-0.107420534,1.005915165
69.921057,-0.071266174,-5.629554749,-1.090030670,0.034965333,-0.107420534,1.005915165
69.921731,-0.368812561,-4.637733459,-0.975589752,0.041312989,-0.109861940,1.003351688
69.922394,-0.368812561,-4.637733459,-0.975589752,0.041312989,-0.109861940,1.003351688
69.923059,-0.368812561,-4.637733459,-0.975589752,0.041312989,-0.109861940,1.003351688
69.923719,-0.368812561,-4.637733459,-0.975589752,0.041312989,-0.109861940,1.003351688
69.937819,-0.544288635,-3.516212463,-0.998477936,0.046928223,-0.099608034,0.999567509
69.938561,-0.544288635,-3.516212463,-0.998477936,0.046928223,-0.099608034,0.999567509
69.939210,-0.544288635,-3.516212463,-0.998477936,0.046928223,-0.099608034,0.999567509
69.939867,-0.544288635,-3.516212463,-0.998477936,0.046928223,-0.099608034,0.999567509
69.940498,-0.544288635,-3.516212463,-0.998477936,0.046928223,-0.099608034,0.999567509
69.941150,-0.544288635,-3.516212463,-0.998477936,0.046928223,-0.099608034,0.999567509
69.941785,-0.361183167,-2.310768127,-1.013736725,0.051322754,-0.090208620,1.001764774
69.942439,-0.361183167,-2.310768127,-1.013736725,0.051322754,-0.090208620,1.001764774
69.943069,-0.361183167,-2.310768127,-1.013736725,0.051322754,-0.090208620,1.001764774
69.943716,-0.361183167,-2.310768127,-1.013736725,0.051322754,-0.090208620,1.001764774
69.944354,-0.361183167,-2.310768127,-1.013736725,0.051322754,-0.090208620,1.001764774
69.945001,-0.361183167,-2.310768127,-1.013736725,0.051322754,-0.090208620,1.001764774
69.945640,-0.361183167,-2.310768127,-1.013736725,0.051322754,-0.090208620,1.001764774
69.946293,-0.361183167,-2.310768127,-1.013736725,0.051322754,-0.090208620,1.001764774
69.946925,-0.361183167,-2.310768127,-1.013736725,0.051322754,-0.090208620,1.001764774
69.947572,-0.361183167,-2.310768127,-1.013736725,0.051322754,-0.090208620,1.001764774
69.948214,-0.361183167,-2.310768127,-1.013736725,0.051322754,-0.090208620,1.001764774
69.948871,-0.361183167,-2.310768127,-1.013736725,0.051322754,-0.090208620,1.001764774
69.949497,-0.361183167,-2.310768127,-1.013736725,0.051322754,-0.090208620,1.001764774
69.950152,-0.361183167,-2.310768127,-1.013736725,0.051322754,-0.090208620,1.001764774
69.950793,-0.361183167,-2.310768127,-1.013736725,0.051322754,-0.090208620,1.001764774
69.951555,-0.376441956,-1.105323792,-0.937442780,0.058891114,-0.091673464,1.004938602
69.952153,-0.376441956,-1.105323792,-0.937442780,0.058891114,-0.091673464,1.004938602
69.952774,-0.376441956,-1.105323792,-0.937442780,0.058891114,-0.091673464,1.004938602
69.953423,-0.376441956,-1.105323792,-0.937442780,0.058891114,-0.091673464,1.004938602
69.954063,-0.376441956,-1.105323792,-0.937442780,0.058891114,-0.091673464,1.004938602
69.954705,-0.376441956,-1.105323792,-0.937442780,0.058891114,-0.091673464,1.004938602
69.955343,-0.376441956,-1.105323792,-0.937442780,0.058891114,-0.091673464,1.004938602
69.955995,-0.376441956,-1.105323792,-0.937442780,0.058891114,-0.091673464,1.004938602
69.957897,-0.376441956,-1.105323792,-0.937442780,0.058891114,-0.091673464,1.004938602
69.958631,-0.376441956,-1.105323792,-0.937442780,0.058891114,-0.091673464,1.004938602
69.959307,-0.376441956,-1.105323792,-0.937442780,0.058891114,-0.091673464,1.004938602
69.959969,-0.376441956,-1.105323792,-0.937442780,0.058891114,-0.091673464,1.004938602
69.960618,-0.376441956,-1.105323792,-0.937442780,0.058891114,-0.091673464,1.004938602
69.961284,-0.719764709,-0.914588928,-0.838260651,0.064994633,-0.104002565,0.999933720
69.961919,-0.719764709,-0.914588928,-0.838260651,0.064994633,-0.104002565,0.999933720
69.962573,-0.719764709,-0.914588928,-0.838260651,0.064994633,-0.104002565,0.999933720
69.963214,-0.719764709,-0.914588928,-0.838260651,0.064994633,-0.104002565,0.999933720
69.963873,-0.719764709,-0.914588928,-0.838260651,0.064994633,-0.104002565,0.999933720
69.964510,-0.719764709,-0.914588928,-0.838260651,0.064994633,-0.104002565,0.999933720
69.965167,-0.719764709,-0.914588928,-0.838260651,0.064994633,-0.104002565,0.999933720
69.965800,-0.719764709,-0.914588928,-0.838260651,0.064994633,-0.104002565,0.999933720
69.966455,-0.719764709,-0.914588928,-0.838260651,0.064994633,-0.104002565,0.999933720
69.967096,-0.719764709,-0.914588928,-0.838260651,0.064994633,-0.104002565,0.999933720
69.967747,-0.719764709,-0.914588928,-0.838260651,0.064994633,-0.104002565,0.999933720
69.968389,-0.719764709,-0.914588928,-0.838260651,0.064994633,-0.104002565,0.999933720
69.969041,-0.719764709,-0.914588928,-0.838260651,0.064994633,-0.104002565,0.999933720
69.969676,-0.719764709,-0.914588928,-0.838260651,0.064994633,-0.104002565,0.999933720
69.983982,-0.933387756,-0.128761292,-0.853519440,0.059013184,-0.092161745,0.980768681
69.984720,-0.933387756,-0.128761292,-0.853519440,0.059013184,-0.092161745,0.980768681
69.985347,-0.933387756,-0.128761292,-0.853519440,0.059013184,-0.092161745,0.980768681
69.985972,-0.933387756,-0.128761292,-0.853519440,0.059013184,-0.092161745,0.980768681
69.986580,-0.933387756,-0.128761292,-0.853519440,0.059013184,-0.092161745,0.980768681
69.987211,-0.933387756,-0.128761292,-0.853519440,0.059013184,-0.092161745,0.980768681
69.987815,-0.933387756,-0.128761292,-0.853519440,0.059013184,-0.092161745,0.980768681
69.988448,-0.933387756,-0.128761292,-0.853519440,0.059013184,-0.092161745,0.980768681
69.989055,-0.933387756,-0.128761292,-0.853519440,0.059013184,-0.092161745,0.980768681
69.989680,-0.933387756,-0.128761292,-0.853519440,0.059013184,-0.092161745,0.980768681
69.990296,-0.933387756,-0.128761292,-0.853519440,0.059013184,-0.092161745,0.980768681
69.990925,-0.933387756,-0.128761292,-0.853519440,0.059013184,-0.092161745,0.980768681
69.991532,-0.437477112,0.145896912,-0.418643951,0.053031739,-0.093504518,0.984186649
69.992171,-0.437477112,0.145896912,-0.418643951,0.053031739,-0.093504518,0.984186649
69.992781,-0.437477112,0.145896912,-0.418643951,0.053031739,-0.093504518,0.984186649
69.993420,-0.437477112,0.145896912,-0.418643951,0.053031739,-0.093504518,0.984186649
69.994028,-0.437477112,0.145896912,-0.418643951,0.053031739,-0.093504518,0.984186649
69.994661,-0.437477112,0.145896912,-0.418643951,0.053031739,-0.093504518,0.984186649
69.995279,-0.437477112,0.145896912,-0.418643951,0.053031739,-0.093504518,0.984186649
69.995913,-0.437477112,0.145896912,-0.418643951,0.053031739,-0.093504518,0.984186649
69.996520,-0.437477112,0.145896912,-0.418643951,0.053031739,-0.093504518,0.984186649
69.997159,-0.437477112,0.145896912,-0.418643951,0.053031739,-0.093504518,0.984186649
69.997770,-0.437477112,0.145896912,-0.418643951,0.053031739,-0.093504518,0.984186649
69.998410,-0.437477112,0.145896912,-0.418643951,0.053031739,-0.093504518,0.984186649
69.999018,-0.437477112,0.145896912,-0.418643951,0.053031739,-0.093504518,0.984186649
69.999651,-0.437477112,0.145896912,-0.418643951,0.053031739,-0.093504518,0.984186649
70.000279,-0.437477112,0.145896912,-0.418643951,0.053031739,-0.093504518,0.984186649
70.001017,-0.437477112,0.145896912,-0.418643951,0.053031739,-0.093504518,0.984186649
70.001616,-0.384071350,1.030906677,-0.166873932,0.046562012,-0.097166628,0.997858524
70.002256,-0.384071350,1.030906677,-0.166873932,0.046562012,-0.097166628,0.997858524
70.004173,-0.384071350,1.030906677,-0.166873932,0.046562012,-0.097166628,0.997858524
70.004897,-0.384071350,1.030906677,-0.166873932,0.046562012,-0.097166628,0.997858524
70.005564,-0.384071350,1.030906677,-0.166873932,0.046562012,-0.097166628,0.997858524
70.006227,-0.384071350,1.030906677,-0.166873932,0.046562012,-0.097166628,0.997858524
70.006877,-0.384071350,1.030906677,-0.166873932,0.046562012,-0.097166628,0.997858524
70.007533,-0.384071350,1.030906677,-0.166873932,0.046562012,-0.097166628,0.997858524
70.008177,-0.384071350,1.030906677,-0.166873932,0.046562012,-0.097166628,0.997858524
70.008831,-0.384071350,1.030906677,-0.166873932,0.046562012,-0.097166628,0.997858524
70.009481,-0.384071350,1.030906677,-0.166873932,0.046562012,-0.097166628,0.997858524
70.010138,-0.384071350,1.030906677,-0.166873932,0.046562012,-0.097166628,0.997858524
70.010776,-0.384071350,1.030906677,-0.166873932,0.046562012,-0.097166628,0.997858524
70.011438,-0.658729553,2.221092224,-0.296573639,0.042289551,-0.084837526,1.002253056
70.012078,-0.658729553,2.221092224,-0.296573639,0.042289551,-0.084837526,1.002253056
70.012730,-0.658729553,2.221092224,-0.296573639,0.042289551,-0.084837526,1.002253056
70.013380,-0.658729553,2.221092224,-0.296573639,0.042289551,-0.084837526,1.002253056
70.014032,-0.658729553,2.221092224,-0.296573639,0.042289551,-0.084837526,1.002253056
70.014676,-0.658729553,2.221092224,-0.296573639,0.042289551,-0.084837526,1.002253056
70.015339,-0.658729553,2.221092224,-0.296573639,0.042289551,-0.084837526,1.002253056
70.032952,-1.139381409,5.158409119,-0.685672760,0.027030762,-0.084837526,0.982599735
70.033704,-1.139381409,5.158409119,-0.685672760,0.027030762,-0.084837526,0.982599735
70.034349,-1.139381409,5.158409119,-0.685672760,0.027030762,-0.084837526,0.982599735
70.034995,-1.139381409,5.158409119,-0.685672760,0.027030762,-0.084837526,0.982599735
70.035629,-1.139381409,5.158409119,-0.685672760,0.027030762,-0.084837526,0.982599735
70.036282,-1.139381409,5.158409119,-0.685672760,0.027030762,-0.084837526,0.982599735
70.036913,-1.139381409,5.158409119,-0.685672760,0.027030762,-0.084837526,0.982599735
70.037563,-1.139381409,5.158409119,-0.685672760,0.027030762,-0.084837526,0.982599735
70.038199,-1.139381409,5.158409119,-0.685672760,0.027030762,-0.084837526,0.982599735
70.038851,-1.139381409,5.158409119,-0.685672760,0.027030762,-0.084837526,0.982599735
70.039483,-1.139381409,5.158409119,-0.685672760,0.027030762,-0.084837526,0.982599735
70.040135,-1.139381409,5.158409119,-0.685672760,0.027030762,-0.084837526,0.982599735
70.040763,-1.139381409,5.158409119,-0.685672760,0.027030762,-0.084837526,0.982599735
70.041418,-1.299598694,7.637962341,-0.502567291,0.023368653,-0.092650026,0.971369267
70.042047,-1.299598694,7.637962341,-0.502567291,0.023368653,-0.092650026,0.971369267
70.042693,-1.299598694,7.637962341,-0.502567291,0.023368653,-0.092650026,0.971369267
70.043332,-1.299598694,7.637962341,-0.502567291,0.023368653,-0.092650026,0.971369267
70.043980,-1.299598694,7.637962341,-0.502567291,0.023368653,-0.092650026,0.971369267
70.044611,-1.299598694,7.637962341,-0.502567291,0.023368653,-0.092650026,0.971369267
70.045267,-1.299598694,7.637962341,-0.502567291,0.023368653,-0.092650026,0.971369267
70.045898,-1.299598694,7.637962341,-0.502567291,0.023368653,-0.092650026,0.971369267
70.046543,-1.299598694,7.637962341,-0.502567291,0.023368653,-0.092650026,0.971369267
70.047181,-1.299598694,7.637962341,-0.502567291,0.023368653,-0.092650026,0.971369267
70.047831,-1.299598694,7.637962341,-0.502567291,0.023368653,-0.092650026,0.971369267
70.048466,-1.299598694,7.637962341,-0.502567291,0.023368653,-0.092650026,0.971369267
70.049119,-1.299598694,7.637962341,-0.502567291,0.023368653,-0.092650026,0.971369267
70.049756,-1.299598694,7.637962341,-0.502567291,0.023368653,-0.092650026,0.971369267
70.050525,-1.299598694,7.637962341,-0.502567291,0.023368653,-0.092650026,0.971369267
70.051126,-0.986793518,9.118064880,-0.525455475,0.028251465,-0.089109987,0.958307743
70.053014,-0.986793518,9.118064880,-0.525455475,0.028251465,-0.089109987,0.958307743
70.053741,-0.986793518,9.118064880,-0.525455475,0.028251465,-0.089109987,0.958307743
70.054410,-0.986793518,9.118064880,-0.525455475,0.028251465,-0.089109987,0.958307743
70.055067,-0.986793518,9.118064880,-0.525455475,0.028251465,-0.089109987,0.958307743
70.055703,-0.986793518,9.118064880,-0.525455475,0.028251465,-0.089109987,0.958307743
70.056373,-0.986793518,9.118064880,-0.525455475,0.028251465,-0.089109987,0.958307743
70.057005,-0.986793518,9.118064880,-0.525455475,0.028251465,-0.089109987,0.958307743
70.057671,-0.986793518,9.118064880,-0.525455475,0.028251465,-0.089109987,0.958307743
70.058311,-0.986793518,9.118064880,-0.525455475,0.028251465,-0.089109987,0.958307743
70.058970,-0.986793518,9.118064880,-0.525455475,0.028251465,-0.089109987,0.958307743
70.059605,-0.986793518,9.118064880,-0.525455475,0.028251465,-0.089109987,0.958307743
70.060271,-0.986793518,9.118064880,-0.525455475,0.028251465,-0.089109987,0.958307743
70.060907,-0.544288635,9.583457947,-0.990848541,0.035087403,-0.078856081,0.958551884
70.061563,-0.544288635,9.583457947,-0.990848541,0.035087403,-0.078856081,0.958551884
70.062203,-0.544288635,9.583457947,-0.990848541,0.035087403,-0.078856081,0.958551884
70.062871,-0.544288635,9.583457947,-0.990848541,0.035087403,-0.078856081,0.958551884
70.063502,-0.544288635,9.583457947,-0.990848541,0.035087403,-0.078856081,0.958551884
70.064167,-0.544288635,9.583457947,-0.990848541,0.035087403,-0.078856081,0.958551884
70.064800,-0.544288635,9.583457947,-0.990848541,0.035087403,-0.078856081,0.958551884
70.082793,0.073692322,10.140403748,-1.257877350,0.056449708,-0.099730104,0.978693485
70.083530,0.073692322,10.140403748,-1.257877350,0.056449708,-0.099730104,0.978693485
70.084181,0.073692322,10.140403748,-1.257877350,0.056449708,-0.099730104,0.978693485
70.084839,0.073692322,10.140403748,-1.257877350,0.056449708,-0.099730104,0.978693485
70.085475,0.073692322,10.140403748,-1.257877350,0.056449708,-0.099730104,0.978693485
70.086132,0.073692322,10.140403748,-1.257877350,0.056449708,-0.099730104,0.978693485
70.086768,0.073692322,10.140403748,-1.257877350,0.056449708,-0.099730104,0.978693485
70.087422,0.073692322,10.140403748,-1.257877350,0.056449708,-0.099730104,0.978693485
70.088055,0.073692322,10.140403748,-1.257877350,0.056449708,-0.099730104,0.978693485
70.088712,0.073692322,10.140403748,-1.257877350,0.056449708,-0.099730104,0.978693485
70.089348,0.073692322,10.140403748,-1.257877350,0.056449708,-0.099730104,0.978693485
70.090002,0.073692322,10.140403748,-1.257877350,0.056449708,-0.099730104,0.978693485
70.090642,-0.277259827,10.628684998,-0.571231842,0.059989747,-0.102659792,0.973566532
70.091299,-0.277259827,10.628684998,-0.571231842,0.059989747,-0.102659792,0.973566532
70.091934,-0.277259827,10.628684998,-0.571231842,0.059989747,-0.102659792,0.973566532
70.092590,-0.277259827,10.628684998,-0.571231842,0.059989747,-0.102659792,0.973566532
70.093232,-0.277259827,10.628684998,-0.571231842,0.059989747,-0.102659792,0.973566532
70.093890,-0.277259827,10.628684998,-0.571231842,0.059989747,-0.102659792,0.973566532
70.094521,-0.277259827,10.628684998,-0.571231842,0.059989747,-0.102659792,0.973566532
70.095182,-0.277259827,10.628684998,-0.571231842,0.059989747,-0.102659792,0.973566532
70.095822,-0.277259827,10.628684998,-0.571231842,0.059989747,-0.102659792,0.973566532
70.096477,-0.277259827,10.628684998,-0.571231842,0.059989747,-0.102659792,0.973566532
70.097120,-0.277259827,10.628684998,-0.571231842,0.059989747,-0.102659792,0.973566532
70.097776,-0.277259827,10.628684998,-0.571231842,0.059989747,-0.102659792,0.973566532
70.098414,-0.277259827,10.628684998,-0.571231842,0.059989747,-0.102659792,0.973566532
70.099074,-0.277259827,10.628684998,-0.571231842,0.059989747,-0.102659792,0.973566532
70.099714,-0.277259827,10.628684998,-0.571231842,0.059989747,-0.102659792,0.973566532
70.100489,-0.635841370,11.589988708,-0.769596100,0.053031739,-0.094114870,0.959284306
70.101078,-0.635841370,11.589988708,-0.769596100,0.053031739,-0.094114870,0.959284306
70.102986,-0.635841370,11.589988708,-0.769596100,0.053031739,-0.094114870,0.959284306
70.103731,-0.635841370,11.589988708,-0.769596100,0.053031739,-0.094114870,0.959284306
70.104419,-0.635841370,11.589988708,-0.769596100,0.053031739,-0.094114870,0.959284306
70.105091,-0.635841370,11.589988708,-0.769596100,0.053031739,-0.094114870,0.959284306
70.105744,-0.635841370,11.589988708,-0.769596100,0.053031739,-0.094114870,0.959284306
70.106412,-0.635841370,11.589988708,-0.769596100,0.053031739,-0.094114870,0.959284306
70.107061,-0.635841370,11.589988708,-0.769596100,0.053031739,-0.094114870,0.959284306
70.107719,-0.635841370,11.589988708,-0.769596100,0.053031739,-0.094114870,0.959284306
70.108378,-0.635841370,11.589988708,-0.769596100,0.053031739,-0.094114870,0.959284306
70.109037,-0.635841370,11.589988708,-0.769596100,0.053031739,-0.094114870,0.959284306
70.109685,-0.635841370,11.589988708,-0.769596100,0.053031739,-0.094114870,0.959284306
70.110356,0.363609314,11.452659607,-1.021366119,0.048515137,-0.080809206,0.945002079
70.111005,0.363609314,11.452659607,-1.021366119,0.048515137,-0.080809206,0.945002079
70.111666,0.363609314,11.452659607,-1.021366119,0.048515137,-0.080809206,0.945002079
70.112324,0.363609314,11.452659607,-1.021366119,0.048515137,-0.080809206,0.945002079
70.112985,0.363609314,11.452659607,-1.021366119,0.048515137,-0.080809206,0.945002079
70.113640,0.363609314,11.452659607,-1.021366119,0.048515137,-0.080809206,0.945002079
70.114308,0.363609314,11.452659607,-1.021366119,0.048515137,-0.080809206,0.945002079
70.114958,0.363609314,11.452659607,-1.021366119,0.048515137,-0.080809206,0.945002079
70.133138,1.607200623,11.155113220,-0.754337311,0.044120606,-0.102415651,0.953547001
70.133896,1.607200623,11.155113220,-0.754337311,0.044120606,-0.102415651,0.953547001
70.134538,1.607200623,11.155113220,-0.754337311,0.044120606,-0.102415651,0.953547001
70.135195,1.607200623,11.155113220,-0.754337311,0.044120606,-0.102415651,0.953547001
70.135831,1.607200623,11.155113220,-0.754337311,0.044120606,-0.102415651,0.953547001
70.136493,1.607200623,11.155113220,-0.754337311,0.044120606,-0.102415651,0.953547001
70.137128,1.607200623,11.155113220,-0.754337311,0.044120606,-0.102415651,0.953547001
70.137784,1.607200623,11.155113220,-0.754337311,0.044120606,-0.102415651,0.953547001
70.138421,1.607200623,11.155113220,-0.754337311,0.044120606,-0.102415651,0.953547001
70.139073,1.607200623,11.155113220,-0.754337311,0.044120606,-0.102415651,0.953547001
70.139705,1.607200623,11.155113220,-0.754337311,0.044120606,-0.102415651,0.953547001
70.140368,1.553794861,10.476097107,-1.097660065,0.046806153,-0.110960573,0.968195438
70.140996,1.553794861,10.476097107,-1.097660065,0.046806153,-0.110960573,0.968195438
70.141651,1.553794861,10.476097107,-1.097660065,0.046806153,-0.110960573,0.968195438
70.142289,1.553794861,10.476097107,-1.097660065,0.046806153,-0.110960573,0.968195438
70.142945,1.553794861,10.476097107,-1.097660065,0.046806153,-0.110960573,0.968195438
70.143574,1.553794861,10.476097107,-1.097660065,0.046806153,-0.110960573,0.968195438
70.144235,1.553794861,10.476097107,-1.097660065,0.046806153,-0.110960573,0.968195438
70.144874,1.553794861,10.476097107,-1.097660065,0.046806153,-0.110960573,0.968195438
70.145526,1.553794861,10.476097107,-1.097660065,0.046806153,-0.110960573,0.968195438
70.146162,1.553794861,10.476097107,-1.097660065,0.046806153,-0.110960573,0.968195438
70.146816,1.553794861,10.476097107,-1.097660065,0.046806153,-0.110960573,0.968195438
70.147451,1.553794861,10.476097107,-1.097660065,0.046806153,-0.110960573,0.968195438
70.148112,1.553794861,10.476097107,-1.097660065,0.046806153,-0.110960573,0.968195438
70.148750,1.553794861,10.476097107,-1.097660065,0.046806153,-0.110960573,0.968195438
70.149528,1.553794861,10.476097107,-1.097660065,0.046806153,-0.110960573,0.968195438
70.150134,1.416465759,9.980186462,-1.280765533,0.051444825,-0.102537721,0.965387821
70.150762,1.416465759,9.980186462,-1.280765533,0.051444825,-0.102537721,0.965387821
70.151419,1.416465759,9.980186462,-1.280765533,0.051444825,-0.102537721,0.965387821
70.153326,1.416465759,9.980186462,-1.280765533,0.051444825,-0.102537721,0.965387821
70.154057,1.416465759,9.980186462,-1.280765533,0.051444825,-0.102537721,0.965387821
70.154741,1.416465759,9.980186462,-1.280765533,0.051444825,-0.102537721,0.965387821
70.155402,1.416465759,9.980186462,-1.280765533,0.051444825,-0.102537721,0.965387821
70.156052,1.416465759,9.980186462,-1.280765533,0.051444825,-0.102537721,0.965387821
70.156711,1.416465759,9.980186462,-1.280765533,0.051444825,-0.102537721,0.965387821
70.157365,1.416465759,9.980186462,-1.280765533,0.051444825,-0.102537721,0.965387821
70.158026,1.416465759,9.980186462,-1.280765533,0.051444825,-0.102537721,0.965387821
70.158676,1.416465759,9.980186462,-1.280765533,0.051444825,-0.102537721,0.965387821
70.159338,1.416465759,9.980186462,-1.280765533,0.051444825,-0.102537721,0.965387821
70.159992,1.416465759,9.980186462,-1.280765533,0.051444825,-0.102537721,0.965387821
70.160654,2.011558533,9.705528259,-0.937442780,0.047782715,-0.100706667,0.961603642
70.161294,2.011558533,9.705528259,-0.937442780,0.047782715,-0.100706667,0.961603642
70.161954,2.011558533,9.705528259,-0.937442780,0.047782715,-0.100706667,0.961603642
70.162601,2.011558533,9.705528259,-0.937442780,0.047782715,-0.100706667,0.961603642
70.163261,2.011558533,9.705528259,-0.937442780,0.047782715,-0.100706667,0.961603642
70.163913,2.011558533,9.705528259,-0.937442780,0.047782715,-0.100706667,0.961603642
70.164570,2.011558533,9.705528259,-0.937442780,0.047782715,-0.100706667,0.961603642
70.165220,2.011558533,9.705528259,-0.937442780,0.047782715,-0.100706667,0.961603642
70.181632,2.728721619,12.009605408,-1.166324615,0.021293458,-0.098997682,0.977228642
70.182382,2.728721619,12.009605408,-1.166324615,0.021293458,-0.098997682,0.977228642
70.183023,2.728721619,12.009605408,-1.166324615,0.021293458,-0.098997682,0.977228642
70.183676,2.728721619,12.009605408,-1.166324615,0.021293458,-0.098997682,0.977228642
70.184309,2.728721619,12.009605408,-1.166324615,0.021293458,-0.098997682,0.977228642
70.184953,2.728721619,12.009605408,-1.166324615,0.021293458,-0.098997682,0.977228642
70.185579,2.728721619,12.009605408,-1.166324615,0.021293458,-0.098997682,0.977228642
70.186237,2.728721619,12.009605408,-1.166324615,0.021293458,-0.098997682,0.977228642
70.186872,2.728721619,12.009605408,-1.166324615,0.021293458,-0.098997682,0.977228642
70.187512,2.728721619,12.009605408,-1.166324615,0.021293458,-0.098997682,0.977228642
70.188148,2.728721619,12.009605408,-1.166324615,0.021293458,-0.098997682,0.977228642
70.188796,2.728721619,12.009605408,-1.166324615,0.021293458,-0.098997682,0.977228642
70.189420,2.728721619,12.009605408,-1.166324615,0.021293458,-0.098997682,0.977228642
70.190071,2.583763123,14.519676208,-0.479679108,0.038139161,-0.104734987,0.977106571
70.190698,2.583763123,14.519676208,-0.479679108,0.038139161,-0.104734987,0.977106571
70.191346,2.583763123,14.519676208,-0.479679108,0.038139161,-0.104734987,0.977106571
70.191980,2.583763123,14.519676208,-0.479679108,0.038139161,-0.104734987,0.977106571
70.192632,2.583763123,14.519676208,-0.479679108,0.038139161,-0.104734987,0.977106571
70.193260,2.583763123,14.519676208,-0.479679108,0.038139161,-0.104734987,0.977106571
70.193916,2.583763123,14.519676208,-0.479679108,0.038139161,-0.104734987,0.977106571
70.194541,2.583763123,14.519676208,-0.479679108,0.038139161,-0.104734987,0.977106571
70.195194,2.583763123,14.519676208,-0.479679108,0.038139161,-0.104734987,0.977106571
70.195826,2.583763123,14.519676208,-0.479679108,0.038139161,-0.104734987,0.977106571
70.196478,2.583763123,14.519676208,-0.479679108,0.038139161,-0.104734987,0.977106571
70.197112,2.583763123,14.519676208,-0.479679108,0.038139161,-0.104734987,0.977106571
70.197760,2.583763123,14.519676208,-0.479679108,0.038139161,-0.104734987,0.977106571
70.198397,2.583763123,14.519676208,-0.479679108,0.038139161,-0.104734987,0.977106571
70.199156,2.583763123,14.519676208,-0.479679108,0.038139161,-0.104734987,0.977106571
70.199754,2.583763123,14.519676208,-0.479679108,0.038139161,-0.104734987,0.977106571
70.201655,3.178855896,15.412315369,1.099605560,0.060355958,-0.093504518,0.989313602
70.202393,3.178855896,15.412315369,1.099605560,0.060355958,-0.093504518,0.989313602
70.203079,3.178855896,15.412315369,1.099605560,0.060355958,-0.093504518,0.989313602
70.203751,3.178855896,15.412315369,1.099605560,0.060355958,-0.093504518,0.989313602
70.204400,3.178855896,15.412315369,1.099605560,0.060355958,-0.093504518,0.989313602
70.205062,3.178855896,15.412315369,1.099605560,0.060355958,-0.093504518,0.989313602
70.205712,3.178855896,15.412315369,1.099605560,0.060355958,-0.093504518,0.989313602
70.206377,3.178855896,15.412315369,1.099605560,0.060355958,-0.093504518,0.989313602
70.207024,3.178855896,15.412315369,1.099605560,0.060355958,-0.093504518,0.989313602
70.207692,3.178855896,15.412315369,1.099605560,0.060355958,-0.093504518,0.989313602
70.208342,3.178855896,15.412315369,1.099605560,0.060355958,-0.093504518,0.989313602
70.209008,3.178855896,15.412315369,1.099605560,0.060355958,-0.093504518,0.989313602
70.209661,3.178855896,15.412315369,1.099605560,0.060355958,-0.093504518,0.989313602
70.210326,3.812095642,16.167625427,1.488704681,0.057548340,-0.097288698,1.009333134
70.210976,3.812095642,16.167625427,1.488704681,0.057548340,-0.097288698,1.009333134
70.211648,3.812095642,16.167625427,1.488704681,0.057548340,-0.097288698,1.009333134
70.212299,3.812095642,16.167625427,1.488704681,0.057548340,-0.097288698,1.009333134
70.212967,3.812095642,16.167625427,1.488704681,0.057548340,-0.097288698,1.009333134
70.213623,3.812095642,16.167625427,1.488704681,0.057548340,-0.097288698,1.009333134
70.214289,3.812095642,16.167625427,1.488704681,0.057548340,-0.097288698,1.009333134
70.231952,2.949974060,19.402488708,3.685970306,0.074149907,-0.109007448,1.005304813
70.232695,2.949974060,19.402488708,3.685970306,0.074149907,-0.109007448,1.005304813
70.233342,2.949974060,19.402488708,3.685970306,0.074149907,-0.109007448,1.005304813
70.233988,2.949974060,19.402488708,3.685970306,0.074149907,-0.109007448,1.005304813
70.234624,2.949974060,19.402488708,3.685970306,0.074149907,-0.109007448,1.005304813
70.235275,2.949974060,19.402488708,3.685970306,0.074149907,-0.109007448,1.005304813
70.235906,2.949974060,19.402488708,3.685970306,0.074149907,-0.109007448,1.005304813
70.236547,2.949974060,19.402488708,3.685970306,0.074149907,-0.109007448,1.005304813
70.237182,2.949974060,19.402488708,3.685970306,0.074149907,-0.109007448,1.005304813
70.237827,2.949974060,19.402488708,3.685970306,0.074149907,-0.109007448,1.005304813
70.238465,2.949974060,19.402488708,3.685970306,0.074149907,-0.109007448,1.005304813
70.239115,2.949974060,19.402488708,3.685970306,0.074149907,-0.109007448,1.005304813
70.239743,3.346702576,18.845542908,4.700679779,0.076591313,-0.117918581,0.990290165
70.240394,3.346702576,18.845542908,4.700679779,0.076591313,-0.117918581,0.990290165
70.241021,3.346702576,18.845542908,4.700679779,0.076591313,-0.117918581,0.990290165
70.241667,3.346702576,18.845542908,4.700679779,0.076591313,-0.117918581,0.990290165
70.242303,3.346702576,18.845542908,4.700679779,0.076591313,-0.117918581,0.990290165
70.242945,3.346702576,18.845542908,4.700679779,0.076591313,-0.117918581,0.990290165
70.243573,3.346702576,18.845542908,4.700679779,0.076591313,-0.117918581,0.990290165
70.244223,3.346702576,18.845542908,4.700679779,0.076591313,-0.117918581,0.990290165
70.244860,3.346702576,18.845542908,4.700679779,0.076591313,-0.117918581,0.990290165
70.245502,3.346702576,18.845542908,4.700679779,0.076591313,-0.117918581,0.990290165
70.246138,3.346702576,18.845542908,4.700679779,0.076591313,-0.117918581,0.990290165
70.246780,3.346702576,18.845542908,4.700679779,0.076591313,-0.117918581,0.990290165
70.247417,3.346702576,18.845542908,4.700679779,0.076591313,-0.117918581,0.990290165
70.248063,3.346702576,18.845542908,4.700679779,0.076591313,-0.117918581,0.990290165
70.248807,3.346702576,18.845542908,4.700679779,0.076591313,-0.117918581,0.990290165
70.249401,3.346702576,18.845542908,4.700679779,0.076591313,-0.117918581,0.990290165
70.250019,3.712913513,17.502769470,5.013484955,0.071220219,-0.114378542,0.971735477
70.251949,3.712913513,17.502769470,5.013484955,0.071220219,-0.114378542,0.971735477
70.252690,3.712913513,17.502769470,5.013484955,0.071220219,-0.114378542,0.971735477
70.253383,3.712913513,17.502769470,5.013484955,0.071220219,-0.114378542,0.971735477
70.254035,3.712913513,17.502769470,5.013484955,0.071220219,-0.114378542,0.971735477
70.254691,3.712913513,17.502769470,5.013484955,0.071220219,-0.114378542,0.971735477
70.255350,3.712913513,17.502769470,5.013484955,0.071220219,-0.114378542,0.971735477
70.256002,3.712913513,17.502769470,5.013484955,0.071220219,-0.114378542,0.971735477
70.256661,3.712913513,17.502769470,5.013484955,0.071220219,-0.114378542,0.971735477
70.257319,3.712913513,17.502769470,5.013484955,0.071220219,-0.114378542,0.971735477
70.257971,3.712913513,17.502769470,5.013484955,0.071220219,-0.114378542,0.971735477
70.258626,3.712913513,17.502769470,5.013484955,0.071220219,-0.114378542,0.971735477
70.259285,3.712913513,17.502769470,5.013484955,0.071220219,-0.114378542,0.971735477
70.259938,4.369041443,16.213401794,5.661983490,0.062919438,-0.101561159,0.960871220
70.260587,4.369041443,16.213401794,5.661983490,0.062919438,-0.101561159,0.960871220
70.261245,4.369041443,16.213401794,5.661983490,0.062919438,-0.101561159,0.960871220
70.261904,4.369041443,16.213401794,5.661983490,0.062919438,-0.101561159,0.960871220
70.262554,4.369041443,16.213401794,5.661983490,0.062919438,-0.101561159,0.960871220
70.263211,4.369041443,16.213401794,5.661983490,0.062919438,-0.101561159,0.960871220
70.263869,4.369041443,16.213401794,5.661983490,0.062919438,-0.101561159,0.960871220
70.281695,5.978843689,12.703880310,6.661434174,0.045585450,-0.089109987,0.986750126
70.282438,5.978843689,12.703880310,6.661434174,0.045585450,-0.089109987,0.986750126
70.283081,5.978843689,12.703880310,6.661434174,0.045585450,-0.089109987,0.986750126
70.283734,5.978843689,12.703880310,6.661434174,0.045585450,-0.089109987,0.986750126
70.284374,5.978843689,12.703880310,6.661434174,0.045585450,-0.089109987,0.986750126
70.285022,5.978843689,12.703880310,6.661434174,0.045585450,-0.089109987,0.986750126
70.285659,5.978843689,12.703880310,6.661434174,0.045585450,-0.089109987,0.986750126
70.286317,5.978843689,12.703880310,6.661434174,0.045585450,-0.089109987,0.986750126
70.286947,5.978843689,12.703880310,6.661434174,0.045585450,-0.089109987,0.986750126
70.287600,5.978843689,12.703880310,6.661434174,0.045585450,-0.089109987,0.986750126
70.288243,5.978843689,12.703880310,6.661434174,0.045585450,-0.089109987,0.986750126
70.288902,5.978843689,12.703880310,6.661434174,0.045585450,-0.089109987,0.986750126
70.289528,6.078025818,10.331138611,6.508846283,0.038017090,-0.096190065,1.004450321
70.290190,6.078025818,10.331138611,6.508846283,0.038017090,-0.096190065,1.004450321
70.290824,6.078025818,10.331138611,6.508846283,0.038017090,-0.096190065,1.004450321
70.291474,6.078025818,10.331138611,6.508846283,0.038017090,-0.096190065,1.004450321
70.292116,6.078025818,10.331138611,6.508846283,0.038017090,-0.096190065,1.004450321
70.292766,6.078025818,10.331138611,6.508846283,0.038017090,-0.096190065,1.004450321
70.293398,6.078025818,10.331138611,6.508846283,0.038017090,-0.096190065,1.004450321
70.294052,6.078025818,10.331138611,6.508846283,0.038017090,-0.096190065,1.004450321
70.294689,6.078025818,10.331138611,6.508846283,0.038017090,-0.096190065,1.004450321
70.295340,6.078025818,10.331138611,6.508846283,0.038017090,-0.096190065,1.004450321
70.295979,6.078025818,10.331138611,6.508846283,0.038017090,-0.096190065,1.004450321
70.296633,6.078025818,10.331138611,6.508846283,0.038017090,-0.096190065,1.004450321
70.297272,6.078025818,10.331138611,6.508846283,0.038017090,-0.096190065,1.004450321
70.297931,6.078025818,10.331138611,6.508846283,0.038017090,-0.096190065,1.004450321
70.298673,6.078025818,10.331138611,6.508846283,0.038017090,-0.096190065,1.004450321
70.299278,5.406639099,7.683738708,6.516475677,0.038993653,-0.102781862,1.001764774
70.299899,5.406639099,7.683738708,6.516475677,0.038993653,-0.102781862,1.001764774
70.301823,5.406639099,7.683738708,6.516475677,0.038993653,-0.102781862,1.001764774
70.302558,5.406639099,7.683738708,6.516475677,0.038993653,-0.102781862,1.001764774
70.303245,5.406639099,7.683738708,6.516475677,0.038993653,-0.102781862,1.001764774
70.303902,5.406639099,7.683738708,6.516475677,0.038993653,-0.102781862,1.001764774
70.304549,5.406639099,7.683738708,6.516475677,0.038993653,-0.102781862,1.001764774
70.305206,5.406639099,7.683738708,6.516475677,0.038993653,-0.102781862,1.001764774
70.305867,5.406639099,7.683738708,6.516475677,0.038993653,-0.102781862,1.001764774
70.306516,5.406639099,7.683738708,6.516475677,0.038993653,-0.102781862,1.001764774
70.307171,5.406639099,7.683738708,6.516475677,0.038993653,-0.102781862,1.001764774
70.307828,5.406639099,7.683738708,6.516475677,0.038993653,-0.102781862,1.001764774
70.308481,5.406639099,7.683738708,6.516475677,0.038993653,-0.102781862,1.001764774
70.309138,5.101463318,4.738792419,6.531734467,0.037772950,-0.088987917,0.980280399
70.309789,5.101463318,4.738792419,6.531734467,0.037772950,-0.088987917,0.980280399
70.310444,5.101463318,4.738792419,6.531734467,0.037772950,-0.088987917,0.980280399
70.311097,5.101463318,4.738792419,6.531734467,0.037772950,-0.088987917,0.980280399
70.311750,5.101463318,4.738792419,6.531734467,0.037772950,-0.088987917,0.980280399
70.312401,5.101463318,4.738792419,6.531734467,0.037772950,-0.088987917,0.980280399
70.313050,5.101463318,4.738792419,6.531734467,0.037772950,-0.088987917,0.980280399
70.313705,5.101463318,4.738792419,6.531734467,0.037772950,-0.088987917,0.980280399
70.314362,5.101463318,4.738792419,6.531734467,0.037772950,-0.088987917,0.980280399
70.334430,7.291099548,-1.067176819,6.196041107,0.028617676,-0.057982057,0.970148563
70.335185,7.291099548,-1.067176819,6.196041107,0.028617676,-0.057982057,0.970148563
70.335833,7.291099548,-1.067176819,6.196041107,0.028617676,-0.057982057,0.970148563
70.336486,7.291099548,-1.067176819,6.196041107,0.028617676,-0.057982057,0.970148563
70.337122,7.291099548,-1.067176819,6.196041107,0.028617676,-0.057982057,0.970148563
70.337768,7.291099548,-1.067176819,6.196041107,0.028617676,-0.057982057,0.970148563
70.338405,7.291099548,-1.067176819,6.196041107,0.028617676,-0.057982057,0.970148563
70.339052,7.817527771,-3.371253967,5.974788666,0.022270020,-0.068846315,0.990778446
70.339683,7.817527771,-3.371253967,5.974788666,0.022270020,-0.068846315,0.990778446
70.340338,7.817527771,-3.371253967,5.974788666,0.022270020,-0.068846315,0.990778446
70.340971,7.817527771,-3.371253967,5.974788666,0.022270020,-0.068846315,0.990778446
70.341620,7.817527771,-3.371253967,5.974788666,0.022270020,-0.068846315,0.990778446
70.342258,7.817527771,-3.371253967,5.974788666,0.022270020,-0.068846315,0.990778446
70.342909,7.817527771,-3.371253967,5.974788666,0.022270020,-0.068846315,0.990778446
70.343542,7.817527771,-3.371253967,5.974788666,0.022270020,-0.068846315,0.990778446
70.344193,7.817527771,-3.371253967,5.974788666,0.022270020,-0.068846315,0.990778446
70.344825,7.817527771,-3.371253967,5.974788666,0.022270020,-0.068846315,0.990778446
70.345479,7.817527771,-3.371253967,5.974788666,0.022270020,-0.068846315,0.990778446
70.346112,7.817527771,-3.371253967,5.974788666,0.022270020,-0.068846315,0.990778446
70.346765,7.817527771,-3.371253967,5.974788666,0.022270020,-0.068846315,0.990778446
70.347405,7.817527771,-3.371253967,5.974788666,0.022270020,-0.068846315,0.990778446
70.348156,7.817527771,-3.371253967,5.974788666,0.022270020,-0.068846315,0.990778446
70.348757,7.817527771,-3.371253967,5.974788666,0.022270020,-0.068846315,0.990778446
70.349401,7.443687439,-4.981056213,5.852718353,0.015434083,-0.077269167,1.010797977
70.350038,7.443687439,-4.981056213,5.852718353,0.015434083,-0.077269167,1.010797977
70.350677,7.443687439,-4.981056213,5.852718353,0.015434083,-0.077269167,1.010797977
70.351325,7.443687439,-4.981056213,5.852718353,0.015434083,-0.077269167,1.010797977
70.351963,7.443687439,-4.981056213,5.852718353,0.015434083,-0.077269167,1.010797977
70.352605,7.443687439,-4.981056213,5.852718353,0.015434083,-0.077269167,1.010797977
70.354517,7.443687439,-4.981056213,5.852718353,0.015434083,-0.077269167,1.010797977
70.355251,7.443687439,-4.981056213,5.852718353,0.015434083,-0.077269167,1.010797977
70.355937,7.443687439,-4.981056213,5.852718353,0.015434083,-0.077269167,1.010797977
70.356606,7.443687439,-4.981056213,5.852718353,0.015434083,-0.077269167,1.010797977
70.357259,7.443687439,-4.981056213,5.852718353,0.015434083,-0.077269167,1.010797977
70.357917,7.443687439,-4.981056213,5.852718353,0.015434083,-0.077269167,1.010797977
70.358567,7.443687439,-4.981056213,5.852718353,0.015434083,-0.077269167,1.010797977
70.359227,6.871482849,-6.041542053,5.799312592,0.009208497,-0.067015260,1.016413212
70.359881,6.871482849,-6.041542053,5.799312592,0.009208497,-0.067015260,1.016413212
70.360537,6.871482849,-6.041542053,5.799312592,0.009208497,-0.067015260,1.016413212
70.361186,6.871482849,-6.041542053,5.799312592,0.009208497,-0.067015260,1.016413212
70.361842,6.871482849,-6.041542053,5.799312592,0.009208497,-0.067015260,1.016413212
70.362497,6.871482849,-6.041542053,5.799312592,0.009208497,-0.067015260,1.016413212
70.363155,6.871482849,-6.041542053,5.799312592,0.009208497,-0.067015260,1.016413212
70.363800,6.871482849,-6.041542053,5.799312592,0.009208497,-0.067015260,1.016413212
70.364456,6.871482849,-6.041542053,5.799312592,0.009208497,-0.067015260,1.016413212
70.365107,6.871482849,-6.041542053,5.799312592,0.009208497,-0.067015260,1.016413212
70.365760,6.871482849,-6.041542053,5.799312592,0.009208497,-0.067015260,1.016413212
70.366414,6.871482849,-6.041542053,5.799312592,0.009208497,-0.067015260,1.016413212
70.367066,6.871482849,-6.041542053,5.799312592,0.009208497,-0.067015260,1.016413212
70.387372,6.512901306,-7.132545471,5.684871674,0.003471192,-0.052733034,0.997248173
70.388115,6.512901306,-7.132545471,5.684871674,0.003471192,-0.052733034,0.997248173
70.388750,6.505271912,-7.819190979,5.692501068,0.007255372,-0.057249635,0.982843876
70.389392,6.505271912,-7.819190979,5.692501068,0.007255372,-0.057249635,0.982843876
70.390016,6.505271912,-7.819190979,5.692501068,0.007255372,-0.057249635,0.982843876
70.390665,6.505271912,-7.819190979,5.692501068,0.007255372,-0.057249635,0.982843876
70.391287,6.505271912,-7.819190979,5.692501068,0.007255372,-0.057249635,0.982843876
70.391932,6.505271912,-7.819190979,5.692501068,0.007255372,-0.057249635,0.982843876
70.392554,6.505271912,-7.819190979,5.692501068,0.007255372,-0.057249635,0.982843876
70.393196,6.505271912,-7.819190979,5.692501068,0.007255372,-0.057249635,0.982843876
70.393825,6.505271912,-7.819190979,5.692501068,0.007255372,-0.057249635,0.982843876
70.394472,6.505271912,-7.819190979,5.692501068,0.007255372,-0.057249635,0.982843876
70.395095,6.505271912,-7.819190979,5.692501068,0.007255372,-0.057249635,0.982843876
70.395740,6.505271912,-7.819190979,5.692501068,0.007255372,-0.057249635,0.982843876
70.396375,6.505271912,-7.819190979,5.692501068,0.007255372,-0.057249635,0.982843876
70.397125,6.505271912,-7.819190979,5.692501068,0.007255372,-0.057249635,0.982843876
70.397727,6.505271912,-7.819190979,5.692501068,0.007255372,-0.057249635,0.982843876
70.398361,6.505271912,-7.819190979,5.692501068,0.007255372,-0.057249635,0.982843876
70.398996,6.711265564,-8.467689514,5.318660736,0.002616700,-0.064207643,0.985651493
70.399632,6.711265564,-8.467689514,5.318660736,0.002616700,-0.064207643,0.985651493
70.400273,6.711265564,-8.467689514,5.318660736,0.002616700,-0.064207643,0.985651493
70.400907,6.711265564,-8.467689514,5.318660736,0.002616700,-0.064207643,0.985651493
70.401545,6.711265564,-8.467689514,5.318660736,0.002616700,-0.064207643,0.985651493
70.402178,6.711265564,-8.467689514,5.318660736,0.002616700,-0.064207643,0.985651493
70.402820,6.711265564,-8.467689514,5.318660736,0.002616700,-0.064207643,0.985651493
70.403457,6.711265564,-8.467689514,5.318660736,0.002616700,-0.064207643,0.985651493
70.404097,6.711265564,-8.467689514,5.318660736,0.002616700,-0.064207643,0.985651493
70.404729,6.711265564,-8.467689514,5.318660736,0.002616700,-0.064207643,0.985651493
70.405376,6.711265564,-8.467689514,5.318660736,0.002616700,-0.064207643,0.985651493
70.407266,6.711265564,-8.467689514,5.318660736,0.002616700,-0.064207643,0.985651493
70.407985,6.711265564,-8.467689514,5.318660736,0.002616700,-0.064207643,0.985651493
70.408659,7.191917419,-9.482398987,5.211849213,0.000175294,-0.061644167,1.000910282
70.409311,7.191917419,-9.482398987,5.211849213,0.000175294,-0.061644167,1.000910282
70.409949,7.191917419,-9.482398987,5.211849213,0.000175294,-0.061644167,1.000910282
70.410600,7.191917419,-9.482398987,5.211849213,0.000175294,-0.061644167,1.000910282
70.411249,7.191917419,-9.482398987,5.211849213,0.000175294,-0.061644167,1.000910282
70.411903,7.191917419,-9.482398987,5.211849213,0.000175294,-0.061644167,1.000910282
70.412545,7.191917419,-9.482398987,5.211849213,0.000175294,-0.061644167,1.000910282
70.413202,7.191917419,-9.482398987,5.211849213,0.000175294,-0.061644167,1.000910282
70.413839,7.191917419,-9.482398987,5.211849213,0.000175294,-0.061644167,1.000910282
70.414498,7.191917419,-9.482398987,5.211849213,0.000175294,-0.061644167,1.000910282
70.415141,7.191917419,-9.482398987,5.211849213,0.000175294,-0.061644167,1.000910282
70.415791,7.191917419,-9.482398987,5.211849213,0.000175294,-0.061644167,1.000910282
70.416439,7.191917419,-9.482398987,5.211849213,0.000175294,-0.061644167,1.000910282
70.417103,7.191917419,-9.482398987,5.211849213,0.000175294,-0.061644167,1.000910282
70.417744,7.191917419,-9.482398987,5.211849213,0.000175294,-0.061644167,1.000910282
70.418406,7.191917419,-9.482398987,5.211849213,0.000175294,-0.061644167,1.000910282
70.419057,6.627342224,-10.237709045,4.738826752,-0.003242675,-0.069700807,1.016169071
70.419720,6.627342224,-10.237709045,4.738826752,-0.003242675,-0.069700807,1.016169071
70.435496,5.948326111,-10.832801819,4.441280365,-0.009346191,-0.064329714,1.014704227
70.436240,5.948326111,-10.832801819,4.441280365,-0.009346191,-0.064329714,1.014704227
70.436887,5.948326111,-10.832801819,4.441280365,-0.009346191,-0.064329714,1.014704227
70.437537,5.948326111,-10.832801819,4.441280365,-0.009346191,-0.064329714,1.014704227
70.438168,5.948326111,-10.832801819,4.441280365,-0.009346191,-0.064329714,1.014704227
70.438813,5.757591248,-11.199012756,4.082698822,-0.012031738,-0.059446901,1.002741337
70.439441,5.757591248,-11.199012756,4.082698822,-0.012031738,-0.059446901,1.002741337
70.440096,5.757591248,-11.199012756,4.082698822,-0.012031738,-0.059446901,1.002741337
70.440721,5.757591248,-11.199012756,4.082698822,-0.012031738,-0.059446901,1.002741337
70.441377,5.757591248,-11.199012756,4.082698822,-0.012031738,-0.059446901,1.002741337
70.442003,5.757591248,-11.199012756,4.082698822,-0.012031738,-0.059446901,1.002741337
70.442654,5.757591248,-11.199012756,4.082698822,-0.012031738,-0.059446901,1.002741337
70.443280,5.757591248,-11.199012756,4.082698822,-0.012031738,-0.059446901,1.002741337
