time,gyro x,gyro y,gyro z,accel x,accel y,accel z
16.480470,16.671508789,-7.258178711,-11.178863525,-0.158300906,0.063639767,-1.004858613
16.481096,16.526550293,-7.754089355,-11.377227783,-0.157080203,0.065592892,-1.006079316
16.481723,16.610473633,-7.754089355,-11.392486572,-0.156591922,0.065714963,-1.008276582
16.482348,16.564697266,-8.097412109,-11.217010498,-0.154272586,0.069865353,-1.010840058
16.482973,16.381591797,-8.051635742,-11.575592041,-0.155127078,0.069377072,-1.013525605
16.483599,16.473144531,-8.288146973,-11.705291748,-0.155249149,0.068766721,-1.013647676
16.484225,16.671508789,-8.127929688,-11.743438721,-0.153540164,0.068278439,-1.011328340
16.484852,16.686767578,-8.387329102,-11.896026611,-0.157324344,0.067301877,-1.018408418
16.485479,16.663879395,-8.593322754,-11.827362061,-0.157446414,0.067179807,-1.019262910
16.486106,16.877502441,-8.448364258,-11.903656006,-0.160742313,0.066813596,-1.018408418
16.486732,16.763061523,-8.623840332,-11.926544189,-0.164648563,0.063639767,-1.020605683
16.487358,17.007202148,-8.692504883,-12.193572998,-0.170752078,0.064494260,-1.019751191
16.487983,17.258972168,-8.623840332,-12.079132080,-0.174780399,0.063517697,-1.019384980
16.488608,17.304748535,-8.730651855,-12.491119385,-0.177588016,0.064494260,-1.016699433
16.489235,17.503112793,-8.921386719,-12.407196045,-0.181250125,0.065714963,-1.018408418
16.489861,17.777770996,-9.020568848,-12.658966064,-0.184423953,0.064982541,-1.014990449
16.490488,18.082946777,-9.211303711,-12.811553955,-0.185156375,0.070109494,-1.014746308
16.491113,18.136352539,-9.394409180,-12.925994873,-0.190649539,0.069132932,-1.013769746
16.491738,17.999023438,-9.379150391,-13.009918213,-0.188940555,0.070231564,-1.007422090
16.492365,18.266052246,-9.546997070,-13.261688232,-0.192358524,0.068644650,-1.002783418
16.492991,18.372863770,-9.760620117,-13.658416748,-0.189550906,0.072672971,-1.005835176
16.493618,18.502563477,-9.806396484,-13.696563721,-0.190527469,0.070597775,-1.003271699
16.494245,18.540710449,-10.096313477,-13.902557373,-0.190893680,0.072062619,-0.995947480
16.494871,18.472045898,-10.325195312,-14.032257080,-0.188208133,0.071086057,-0.994238496
16.495497,18.258422852,-10.615112305,-14.306915283,-0.185766727,0.071330197,-0.991919160
16.496123,18.067687988,-10.576965332,-14.345062256,-0.181372195,0.073283322,-0.988134980
16.496749,17.922729492,-10.760070801,-14.421356201,-0.180761844,0.075602658,-0.986914277
16.497390,17.777770996,-10.935546875,-14.833343506,-0.177099735,0.077433713,-0.981665254
16.498017,17.152160645,-11.255981445,-14.886749268,-0.176855594,0.076579221,-0.982275605
16.498642,16.625732422,-11.324645996,-14.978302002,-0.169897586,0.076823361,-0.975805879
16.499268,16.511291504,-11.622192383,-15.230072021,-0.170385867,0.078410275,-0.980200410
16.499893,16.068786621,-11.797668457,-15.451324463,-0.164892703,0.075480588,-0.980078340
16.500518,15.321105957,-11.965515137,-15.321624756,-0.165991336,0.076701291,-0.976172090
16.501143,14.855712891,-11.828186035,-15.619171143,-0.160986453,0.076335080,-0.977026582
16.501769,14.382690430,-12.087585449,-15.680206299,-0.161352664,0.072428830,-0.974341035
16.502395,13.665527344,-12.163879395,-15.642059326,-0.163549930,0.074504025,-0.975561738
16.503021,13.039916992,-12.156250000,-15.741241455,-0.159155399,0.071940549,-0.974341035
16.515635,-12.152343750,-15.238525391,-16.397369385,-0.172827274,0.037516724,-0.932715058
16.516384,-13.548522949,-15.368225098,-16.511810303,-0.173681766,0.027873170,-0.927466035
16.517010,-14.860778809,-15.612365723,-16.694915771,-0.169897586,0.023112427,-0.926611543
16.517636,-15.974670410,-15.688659668,-16.267669678,-0.174047977,0.020182740,-0.918921113
16.518262,-17.218261719,-15.749694824,-16.061676025,-0.173559695,0.009318481,-0.915259004
16.525446,-27.189880371,-16.230346680,-15.191925049,-0.176123172,-0.060871948,-0.864111543
16.526071,-27.228027344,-16.443969727,-15.153778076,-0.176367313,-0.066487186,-0.858984590
16.526696,-27.624755859,-16.421081543,-14.848602295,-0.171484500,-0.074299686,-0.853247285
16.527321,-28.059631348,-16.459228516,-14.848602295,-0.171118289,-0.083821170,-0.849707246
16.527947,-28.586059570,-16.779663086,-14.512908936,-0.170996219,-0.086384647,-0.848852754
16.528572,-28.509765625,-16.749145508,-14.467132568,-0.166601688,-0.094319217,-0.847265840
16.529198,-28.578430176,-16.688110352,-14.421356201,-0.166479617,-0.101033084,-0.840796113
16.529824,-28.540283203,-16.993286133,-13.948333740,-0.165625125,-0.107380740,-0.837134004
16.530451,-28.502136230,-16.886474609,-13.894927979,-0.160254031,-0.113972537,-0.833716035
16.531077,-28.273254395,-16.840698242,-13.666046143,-0.158911258,-0.122761600,-0.834814668
16.531703,-27.884155273,-16.901733398,-13.330352783,-0.155615360,-0.127278194,-0.827734590
16.533358,-26.335388184,-16.985656738,-12.910736084,-0.146338016,-0.138996944,-0.817724824
16.533984,-25.671630859,-16.901733398,-12.597930908,-0.144140750,-0.147419795,-0.814306855
16.534609,-24.717956543,-17.046691895,-12.407196045,-0.142553836,-0.155232295,-0.811255097
16.535234,-24.023681641,-17.000915527,-12.132537842,-0.138281375,-0.159993038,-0.811377168
16.535860,-22.917419434,-17.115356445,-12.163055420,-0.136938602,-0.165119991,-0.807592988
16.536485,-22.024780273,-17.267944336,-12.002838135,-0.131933719,-0.168415889,-0.803198457
16.537111,-20.804077148,-17.275573730,-11.476409912,-0.127661258,-0.172322139,-0.801489472
16.537736,-19.346862793,-17.039062500,-11.461151123,-0.119848758,-0.176350459,-0.799414277
16.538363,-18.088012695,-17.130615234,-11.178863525,-0.113379031,-0.181111202,-0.793554902
16.538988,-16.974121094,-17.176391602,-10.949981689,-0.110815555,-0.183430538,-0.790259004
16.539614,-15.463500977,-17.176391602,-10.866058350,-0.107641727,-0.186726436,-0.787451386
16.540241,-13.983398438,-17.000915527,-10.583770752,-0.095800906,-0.185871944,-0.783178926
16.540866,-12.556701660,-16.947509766,-10.316741943,-0.086523563,-0.187458858,-0.784399629
16.541492,-10.878234863,-16.878845215,-10.347259521,-0.083349735,-0.186848506,-0.781347871
16.542118,-9.344726562,-16.367675781,-9.889495850,-0.076391727,-0.192341670,-0.775732636
16.542744,-7.780700684,-16.375305176,-9.683502197,-0.071753055,-0.192097530,-0.773291230
16.543369,-6.262451172,-16.199829102,-9.569061279,-0.065527469,-0.191975459,-0.765722871
16.543994,-4.408508301,-15.871765137,-9.157073975,-0.061987426,-0.192097530,-0.761084199
16.544619,-3.149658203,-15.368225098,-8.928192139,-0.060766723,-0.190266475,-0.759985566
16.545245,-1.616149902,-15.024902344,-8.493316650,-0.056005981,-0.190876827,-0.755957246
16.545871,0.108093262,-14.528991699,-8.447540283,-0.051611450,-0.191243038,-0.751318574
16.546498,1.580566406,-13.941528320,-8.012664795,-0.051855590,-0.190510616,-0.743750215
16.547124,3.266662598,-13.552429199,-7.631195068,-0.052465942,-0.189534053,-0.743139863
16.547750,4.899353027,-13.277770996,-7.455718994,-0.048437621,-0.187336788,-0.738257051
16.548376,6.135314941,-12.636901855,-7.219207764,-0.052343871,-0.183186397,-0.732519746
16.549001,7.546752930,-12.079956055,-6.936920166,-0.046728637,-0.183430538,-0.726294160
16.549628,8.889526367,-11.576416016,-6.692779541,-0.050390746,-0.180867061,-0.723608613
16.550255,10.453552246,-11.141540527,-6.761444092,-0.050756957,-0.178303584,-0.715307832
16.550881,11.582702637,-10.500671387,-6.692779541,-0.053564575,-0.174397334,-0.712744355
16.551508,12.780517578,-9.859802246,-6.120574951,-0.052221801,-0.169270381,-0.708227754
16.564083,15.870422363,-1.749755859,-1.901519775,-0.104467899,-0.067219608,-0.717383027
16.564794,15.092224121,-1.284362793,-1.954925537,-0.106298953,-0.065022342,-0.726172090
16.565420,14.153808594,-1.353027344,-1.642120361,-0.103369266,-0.061116088,-0.728735566
16.566046,13.612121582,-1.246215820,-1.558197021,-0.104834110,-0.058430541,-0.734594941
16.566673,12.536376953,-1.276733398,-1.253021240,-0.106787235,-0.054158080,-0.740210176
16.567298,11.620849609,-1.063110352,-1.146209717,-0.103247195,-0.053913940,-0.747412324
16.567923,10.812133789,-1.192810059,-1.069915771,-0.103003055,-0.052204955,-0.753882051
16.568549,9.766906738,-1.139404297,-0.924957275,-0.099585086,-0.049031127,-0.762060761
16.569174,8.813232422,-0.895263672,-0.680816650,-0.101049930,-0.048054565,-0.768164277
16.569800,7.951110840,-1.154663086,-0.406158447,-0.101904422,-0.044270385,-0.775000215
16.570426,6.867736816,-1.139404297,-0.337493896,-0.101904422,-0.045246948,-0.784155488
16.571051,5.883544922,-1.078369141,-0.261199951,-0.102880985,-0.042317260,-0.790503144
16.571677,5.563110352,-1.047851562,0.043975830,-0.100561649,-0.042073119,-0.794043183
16.572418,3.632873535,-1.223327637,0.326263428,-0.096289188,-0.040364135,-0.811133027
16.573090,2.717346191,-1.024963379,0.433074951,-0.099218875,-0.039387573,-0.818457246
16.573785,2.152770996,-1.017333984,0.730621338,-0.097754031,-0.035115112,-0.822607636
16.574518,1.473754883,-0.963928223,0.768768311,-0.100317508,-0.034748901,-0.829199433
16.575175,0.665039062,-1.070739746,0.768768311,-0.099340945,-0.035847533,-0.833593965
16.575891,-0.029235840,-1.070739746,1.035797119,-0.097998172,-0.035359252,-0.836645722
16.576695,-1.333862305,-0.979187012,1.379119873,-0.102880985,-0.029377807,-0.846289277
16.577402,-1.661926270,-0.742675781,1.371490479,-0.102026492,-0.034748901,-0.850439668
16.578086,-2.409606934,-0.864746094,1.577484131,-0.103735477,-0.031941283,-0.856421113
16.578796,-3.050476074,-0.727416992,1.600372314,-0.104467899,-0.031941283,-0.854834199
16.579476,-3.218322754,-0.513793945,1.752960205,-0.106176883,-0.031086791,-0.855566621
16.580161,-3.821044922,-0.406982422,1.707183838,-0.107275516,-0.032063354,-0.856787324
16.580876,-4.301696777,-0.483276367,1.859771729,-0.108618289,-0.029988158,-0.858862519
16.581551,-4.774719238,-0.605346680,2.042877197,-0.109716922,-0.030720580,-0.861303926
16.582247,-5.156188965,-0.361206055,2.119171143,-0.112036258,-0.029621948,-0.858618379
16.582913,-6.292968750,-0.490905762,2.119171143,-0.114843875,-0.026448119,-0.859472871
16.583614,-6.621032715,-0.544311523,2.309906006,-0.113379031,-0.029255737,-0.856543183
16.584242,-7.155090332,-0.551940918,2.378570557,-0.117895633,-0.029133666,-0.856787324
16.584868,-7.589965820,-0.376464844,2.439605713,-0.117651492,-0.028523315,-0.857763886
16.585494,-8.146911621,-0.597717285,2.401458740,-0.116674930,-0.029011596,-0.855322480
16.586119,-8.597045898,-0.780822754,2.645599365,-0.113256961,-0.028401244,-0.853247285
16.586744,-9.222656250,-0.666381836,2.653228760,-0.114843875,-0.030232299,-0.850317597
16.587369,-9.764343262,-0.643493652,2.859222412,-0.112280399,-0.028523315,-0.851538301
16.587996,-10.290771484,-0.818969727,2.653228760,-0.109716922,-0.030720580,-0.848242402
16.588621,-11.015563965,-0.948669434,2.912628174,-0.112036258,-0.028279174,-0.845068574
16.589248,-11.213928223,-1.032592773,3.172027588,-0.108496219,-0.025715698,-0.845312715
16.589873,-12.083679199,-1.162292480,3.210174561,-0.110327274,-0.026326049,-0.842260957
16.590499,-12.587219238,-1.047851562,3.194915771,-0.107275516,-0.028523315,-0.843603730
16.591126,-13.212829590,-1.597167969,3.362762451,-0.103125125,-0.029133666,-0.842383027
16.591751,-13.807922363,-1.414062500,3.347503662,-0.105688602,-0.028279174,-0.840551972
16.592377,-14.303833008,-1.864196777,3.576385498,-0.104101688,-0.025959838,-0.841650605
16.593002,-14.982849121,-1.620056152,3.667938232,-0.102758914,-0.025837768,-0.840185761
16.593627,-15.944152832,-2.032043457,3.759490967,-0.098608524,-0.026814330,-0.836523652
16.594253,-16.127258301,-2.154113770,4.072296143,-0.100439578,-0.026081908,-0.837011933
16.606884,-22.558837891,-6.563903809,6.094085693,-0.106787235,-0.014241089,-0.874975801
16.607651,-22.230773926,-6.800415039,5.994903564,-0.108130008,-0.011921753,-0.875708222
16.608277,-22.062927246,-7.029296875,6.170379639,-0.105444461,-0.013874878,-0.873633027
16.608903,-21.811157227,-7.281066895,5.972015381,-0.103979617,-0.013142456,-0.873755097
16.609530,-21.376281738,-7.548095703,5.972015381,-0.103247195,-0.011677613,-0.878882051
16.610156,-20.788818359,-7.715942383,5.987274170,-0.103735477,-0.012776245,-0.875830293
16.610782,-20.689636230,-8.188964844,6.162750244,-0.100561649,-0.008625855,-0.871924043
16.611409,-20.445495605,-8.082153320,5.949127197,-0.098974735,-0.006550659,-0.873388886
16.612035,-19.850402832,-8.600952148,5.972015381,-0.098364383,-0.006306519,-0.872656465
16.612661,-19.415527344,-8.852722168,6.055938721,-0.097509891,-0.002888550,-0.872168183
16.613286,-18.805175781,-8.867980957,5.910980225,-0.095434695,-0.005085816,-0.868872285
16.613913,-18.408447266,-8.967163086,5.758392334,-0.094091922,-0.000935425,-0.870703340
16.614538,-18.095642090,-9.318115234,6.033050537,-0.092138797,-0.003010620,-0.864477754
16.615163,-17.347961426,-9.455444336,5.788909912,-0.092016727,-0.001057495,-0.860571504
16.615790,-16.897827148,-9.463073730,6.101715088,-0.092749149,0.004191528,-0.861425996
16.616415,-16.142517090,-9.310485840,6.010162354,-0.090063602,0.006266723,-0.857641816
16.617041,-15.638977051,-9.836914062,5.979644775,-0.090429813,0.007365356,-0.852392793
16.617667,-15.158325195,-9.630920410,5.926239014,-0.093359500,0.005290161,-0.850561738
16.618293,-14.502197266,-9.783508301,6.025421143,-0.090796024,0.006388794,-0.849463105
16.618918,-13.968139648,-9.966613770,6.155120850,-0.090796024,0.009196411,-0.846167207
16.619543,-13.731628418,-9.951354980,5.926239014,-0.091040164,0.010417114,-0.840796113
16.620169,-12.938171387,-10.050537109,5.758392334,-0.093481570,0.008586059,-0.834570527
16.620794,-12.320190430,-10.042907715,5.926239014,-0.093115360,0.010050903,-0.831762910
16.621419,-11.694580078,-10.302307129,5.743133545,-0.091894656,0.013346802,-0.825171113
16.622046,-11.442810059,-10.309936523,5.575286865,-0.091894656,0.017619263,-0.821264863
16.622671,-10.817199707,-10.142089844,5.628692627,-0.092871219,0.016886842,-0.813452363
16.623298,-10.206848145,-10.454895020,5.560028076,-0.090063602,0.019938599,-0.808691621
16.623923,-9.771972656,-10.599853516,5.476104736,-0.088354617,0.019084107,-0.802466035
16.624548,-9.321838379,-10.325195312,5.262481689,-0.086279422,0.021647584,-0.794043183
16.625173,-8.871704102,-10.462524414,5.323516846,-0.083593875,0.025920045,-0.793188691
16.625799,-8.551269531,-10.332824707,5.460845947,-0.081762820,0.023844849,-0.788305879
16.626426,-8.268981934,-10.348083496,5.064117432,-0.077978641,0.030680787,-0.782202363
16.627051,-7.879882812,-10.302307129,5.193817139,-0.079687625,0.028727662,-0.775610566
16.627678,-7.429748535,-10.233642578,5.170928955,-0.076513797,0.029948365,-0.773047090
16.628303,-7.330566406,-10.180236816,5.155670166,-0.074194461,0.033976685,-0.773657441
16.628929,-7.025390625,-10.088684082,5.201446533,-0.074682742,0.035685670,-0.767309785
16.629554,-6.926208496,-10.172607422,5.148040771,-0.073950320,0.035807740,-0.759619355
16.630180,-6.552368164,-9.814025879,4.987823486,-0.070532352,0.037882935,-0.760840058
16.630807,-6.239562988,-9.752990723,5.155670166,-0.068579227,0.044596802,-0.756933808
16.631520,-6.071716309,-9.409667969,5.064117432,-0.070898563,0.045817506,-0.751928926
16.632145,-5.903869629,-9.432556152,4.865753174,-0.065405399,0.047770631,-0.751440644
16.633834,-5.430847168,-8.616210938,4.545318604,-0.064672977,0.056803834,-0.747534394
16.634459,-5.362182617,-8.242370605,4.522430420,-0.059668090,0.057902467,-0.741552949
16.635085,-5.194335938,-8.005859375,4.484283447,-0.060888793,0.060954224,-0.742529511
16.635710,-4.797607422,-7.494689941,4.491912842,-0.060888793,0.064128049,-0.739233613
16.636337,-4.843383789,-7.181884766,4.324066162,-0.058813598,0.069132932,-0.742285371
16.636962,-4.767089844,-7.097961426,4.133331299,-0.058569457,0.071574338,-0.743628144
16.649513,-9.337097168,-1.658203125,1.745330811,-0.108252078,0.101359494,-0.788550019
16.650172,-9.672790527,-1.795532227,1.424896240,-0.107031375,0.103556760,-0.789770722
16.650799,-10.313659668,-1.665832520,1.234161377,-0.105200320,0.100138791,-0.790869355
16.651424,-10.557800293,-1.444580078,1.165496826,-0.102392703,0.096964963,-0.790747285
16.652049,-10.718017578,-1.124145508,0.730621338,-0.102636844,0.099772580,-0.791723847
16.652676,-11.046081543,-1.192810059,0.883209229,-0.099707156,0.097087033,-0.794653535
16.653302,-11.381774902,-1.063110352,0.875579834,-0.102636844,0.094279416,-0.797705293
16.653928,-11.847167969,-0.712158203,0.600921631,-0.098242313,0.094645627,-0.797217011
16.654553,-12.045532227,-0.872375488,0.425445557,-0.097143680,0.091227658,-0.798681855
16.655180,-12.320190430,-0.490905762,0.372039795,-0.093969852,0.092692502,-0.798071504
16.655807,-12.457519531,-0.124694824,0.234710693,-0.093359500,0.089152463,-0.797217011
16.656432,-12.831359863,-0.002624512,0.295745850,-0.092627078,0.087443478,-0.799292207
16.657057,-13.121276855,0.233886719,0.097381592,-0.093725711,0.086588986,-0.803442597
16.657683,-13.449340820,0.317810059,0.181304932,-0.092382938,0.083415158,-0.801733613
16.658309,-13.601928711,0.851867676,-0.017059326,-0.095434695,0.079875119,-0.800268769
16.658935,-13.785034180,1.073120117,-0.215423584,-0.096289188,0.078776486,-0.803442597
16.659562,-13.830810547,1.141784668,-0.345123291,-0.100073367,0.077677853,-0.801733613
16.660187,-14.242797852,1.286743164,-0.154388428,-0.100805789,0.077677853,-0.805395722
16.660812,-14.288574219,1.591918945,-0.184906006,-0.102270633,0.070841916,-0.807104707
16.661438,-14.181762695,1.828430176,-0.360382080,-0.108252078,0.072428830,-0.807837129
16.662065,-14.227539062,1.950500488,-0.490081787,-0.104223758,0.071818478,-0.808325410
16.662691,-14.349609375,2.301452637,-0.276458740,-0.108862430,0.066447385,-0.812353730
16.663318,-14.174133301,2.484558105,-0.497711182,-0.109228641,0.066691525,-0.809546113
16.663945,-14.334350586,2.476928711,-0.467193604,-0.112036258,0.064372189,-0.813452363
16.664571,-14.204650879,2.789733887,-0.619781494,-0.116674930,0.063273557,-0.815405488
16.665196,-14.090209961,3.178833008,-0.932586670,-0.116919070,0.060465943,-0.817236543
16.665822,-14.090209961,2.927062988,-0.924957275,-0.115820438,0.059123170,-0.819067597
16.666448,-14.044433594,3.247497559,-1.024139404,-0.115942508,0.059611451,-0.820410371
16.667075,-13.861328125,3.598449707,-1.207244873,-0.118750125,0.058024537,-0.824194551
16.667700,-14.021545410,3.682373047,-1.237762451,-0.118750125,0.059489381,-0.824072480
16.668326,-13.830810547,3.819702148,-1.504791260,-0.116674930,0.055216920,-0.827246308
16.668952,-13.716369629,3.903625488,-1.329315186,-0.117163211,0.055216920,-0.828711152
16.669577,-13.380676270,4.216430664,-1.703155518,-0.120703250,0.052897584,-0.833838105
16.670202,-13.472229004,4.185913086,-1.466644287,-0.118139774,0.053630006,-0.836035371
16.670828,-13.418823242,4.460571289,-1.672637939,-0.118994266,0.050456177,-0.839209199
16.671453,-13.174682617,4.605529785,-1.832855225,-0.118383914,0.049357545,-0.841406465
16.672079,-13.319641113,4.567382812,-1.939666748,-0.119848758,0.047038209,-0.842260957
16.672706,-13.044982910,4.552124023,-2.153289795,-0.117407352,0.042277467,-0.847143769
16.673333,-13.044982910,4.552124023,-2.153289795,-0.117407352,0.042277467,-0.847143769
16.673958,-12.961059570,5.078552246,-2.099884033,-0.114233524,0.039469849,-0.846899629
16.674583,-12.777954102,4.971740723,-2.237213135,-0.105688602,0.037760865,-0.851904511
16.675210,-12.373596191,4.994628906,-2.427947998,-0.102636844,0.033488404,-0.851294160
16.675836,-12.114196777,5.048034668,-2.519500732,-0.098608524,0.030802857,-0.851050019
16.676461,-11.320739746,5.650756836,-2.740753174,-0.085058719,0.025920045,-0.852392793
16.677088,-11.091857910,6.131408691,-2.649200439,-0.084814578,0.029460084,-0.852759004
16.677713,-10.901123047,6.001708984,-2.794158936,-0.079931766,0.027751099,-0.853369355
16.678430,-10.267883301,6.535766602,-2.519500732,-0.074804813,0.029460084,-0.854345918
16.691160,-4.934936523,7.375000000,-1.932037354,-0.093725711,-0.021565307,-0.884985566
16.691908,-4.255920410,7.405517578,-1.886260986,-0.094702274,-0.023396362,-0.887182832
16.692535,-3.508239746,7.619140625,-1.825225830,-0.094702274,-0.027058471,-0.887182832
16.693160,-3.164916992,7.680175781,-1.588714600,-0.093359500,-0.025959838,-0.890844941
16.693787,-2.157836914,7.611511230,-1.443756104,-0.096533328,-0.029377807,-0.890478730
16.694412,-1.448303223,8.115051270,-1.504791260,-0.096289188,-0.032917846,-0.892187715
16.695038,-0.754028320,8.115051270,-1.237762451,-0.100073367,-0.034382690,-0.889502168
16.695664,0.558227539,8.183715820,-1.253021240,-0.100195438,-0.038166869,-0.889258027
16.696290,1.260131836,8.252380371,-1.100433350,-0.100683719,-0.037678588,-0.889868379
16.696917,2.930969238,8.366821289,-1.077545166,-0.099096805,-0.041218627,-0.891455293
16.697542,3.533691406,8.275268555,-1.062286377,-0.100561649,-0.037922729,-0.895483613
16.698167,4.685729980,8.435485840,-0.985992432,-0.100439578,-0.039021362,-0.891943574
16.698794,5.761474609,8.816955566,-0.825775146,-0.099218875,-0.037068237,-0.894507051
16.699421,6.936401367,8.733032227,-0.924957275,-0.096655399,-0.039875854,-0.896216035
16.700046,8.187622070,8.877990723,-0.970733643,-0.094946414,-0.039997924,-0.895849824
16.700673,9.538024902,9.236572266,-0.642669678,-0.095312625,-0.036579955,-0.899389863
16.701298,10.651916504,9.457824707,-0.696075439,-0.089819461,-0.033772338,-0.898047090
16.701924,12.009948730,9.610412598,-0.718963623,-0.089331180,-0.031453002,-0.902563691
16.702549,13.169616699,9.900329590,-0.627410889,-0.086157352,-0.026936401,-0.900488496
16.703175,14.436096191,10.426757812,-0.688446045,-0.085302860,-0.030110229,-0.903296113
16.703801,15.382141113,10.518310547,-0.520599365,-0.084448367,-0.026203979,-0.905615449
16.704427,16.610473633,11.006591797,-0.329864502,-0.084570438,-0.024617065,-0.906225801
16.705054,17.480224609,11.288879395,-0.261199951,-0.084570438,-0.016804565,-0.909521699
16.705679,18.288940430,11.616943359,-0.078094482,-0.084936649,-0.014363159,-0.911596894
16.706305,19.502014160,12.089965820,-0.024688721,-0.087133914,-0.008869995,-0.910498261
16.706930,20.341247559,12.334106445,0.311004639,-0.086767703,-0.006428589,-0.915259004
16.707556,21.348327637,12.753723145,0.265228271,-0.088598758,-0.000325073,-0.915869355
16.708182,22.103637695,13.196228027,0.295745850,-0.095434695,0.005534302,-0.918554902
16.708809,22.744506836,13.478515625,0.181304932,-0.094824344,0.008708130,-0.921362519
16.709435,23.667663574,13.699768066,0.440704346,-0.099218875,0.012858520,-0.924902558
16.710061,23.888916016,13.997314453,0.516998291,-0.100439578,0.021647584,-0.927466035
16.710687,24.468750000,14.195678711,0.333892822,-0.103613406,0.026042115,-0.928320527
16.711314,24.918884277,14.477966309,0.257598877,-0.107153445,0.033488404,-0.933691621
16.711939,25.475830078,14.523742676,0.188934326,-0.108862430,0.037638795,-0.934179902
16.712565,25.468200684,14.691589355,0.150787354,-0.105688602,0.043986451,-0.938574433
16.713192,25.658935547,14.897583008,0.120269775,-0.107031375,0.049357545,-0.941748261
16.713817,25.521606445,15.042541504,0.005828857,-0.108740360,0.059489381,-0.944189668
16.714442,25.491088867,15.012023926,-0.177276611,-0.103979617,0.063273557,-0.947241426
16.715068,25.361389160,15.202758789,0.005828857,-0.104956180,0.070475705,-0.948095918
16.715694,24.964660645,15.179870605,-0.047576904,-0.099585086,0.075968869,-0.959448457
16.716319,24.796813965,15.279052734,-0.192535400,-0.096533328,0.080607541,-0.956884980
16.716944,24.026245117,15.385864258,-0.291717529,-0.095312625,0.084757932,-0.962622285
16.717569,23.637145996,15.675781250,-0.360382080,-0.092260867,0.092448361,-0.967627168
16.718196,22.836059570,15.584228516,-0.123870850,-0.091284305,0.097941525,-0.973486543
16.718821,22.103637695,15.912292480,-0.162017822,-0.087744266,0.100016721,-0.975439668
16.719446,21.630615234,16.125915527,-0.238311768,-0.083960086,0.105265744,-0.980810761
16.720072,20.829528809,16.057250977,-0.261199951,-0.080664188,0.104655392,-0.981909394
16.732590,-1.631408691,21.039245605,-2.130401611,-0.117895633,0.134928837,-1.045752168
16.734466,-5.209594727,21.367309570,-2.214324951,-0.123144656,0.130778447,-1.059301972
16.735093,-6.315856934,21.405456543,-2.511871338,-0.128393680,0.127116337,-1.061133027
16.735718,-7.490783691,21.329162598,-2.344024658,-0.129004031,0.128459111,-1.066748261
16.736343,-8.719116211,21.619079590,-2.572906494,-0.133642703,0.122599728,-1.069433808
16.736968,-9.634643555,21.558044434,-2.611053467,-0.136572391,0.122965939,-1.077124238
16.737593,-10.367065430,21.428344727,-2.771270752,-0.136938602,0.116496213,-1.083838105
16.738219,-11.419921875,21.374938965,-2.748382568,-0.138159305,0.113200314,-1.089941621
16.738845,-12.335449219,21.321533203,-2.923858643,-0.141088992,0.111003049,-1.097632051
16.739471,-13.220458984,21.138427734,-2.931488037,-0.144384891,0.107463010,-1.103979707
16.740097,-14.021545410,21.306274414,-3.091705322,-0.145117313,0.100749142,-1.108862519
16.740723,-14.624267578,21.168945312,-3.198516846,-0.148901492,0.101115353,-1.115942597
16.741349,-15.226989746,20.726440430,-3.160369873,-0.148169070,0.097819455,-1.124609590
16.741975,-15.593200684,20.787475586,-3.473175049,-0.151220828,0.094035275,-1.131201386
16.742602,-16.485839844,20.390747070,-3.274810791,-0.150610477,0.092692502,-1.134253144
16.743228,-16.897827148,20.230529785,-3.496063232,-0.152319461,0.087687619,-1.142553926
16.743854,-17.256408691,19.810913086,-3.541839600,-0.155005008,0.083903439,-1.151587129
16.744481,-17.523437500,19.589660645,-3.808868408,-0.154760867,0.081339963,-1.158545136
16.745106,-17.584472656,19.253967285,-3.579986572,-0.155981570,0.079630978,-1.167334199
16.745732,-18.034606934,18.903015137,-3.831756592,-0.155493289,0.080851682,-1.175634980
16.746359,-18.110900879,18.445251465,-3.892791748,-0.156836063,0.078776486,-1.181250215
16.746986,-17.912536621,18.445251465,-3.854644775,-0.155859500,0.073161252,-1.188818574
16.747611,-17.851501465,17.735717773,-4.037750244,-0.156347781,0.072184689,-1.196753144
16.748237,-17.950683594,17.384765625,-3.991973877,-0.157690555,0.069743283,-1.203344941
16.748862,-17.683654785,16.927001953,-4.091156006,-0.156469852,0.065837033,-1.209692597
16.749487,-17.210632324,16.675231934,-4.320037842,-0.157446414,0.066325314,-1.219946504
16.750112,-17.141967773,16.072509766,-4.426849365,-0.157080203,0.063517697,-1.222754121
16.750737,-16.813903809,15.462158203,-4.457366943,-0.155859500,0.062296998,-1.230688691
16.751362,-16.188293457,15.111206055,-4.457366943,-0.155737430,0.065104611,-1.235449433
16.751988,-15.646606445,14.668701172,-4.861724854,-0.153540164,0.060832154,-1.241552949
16.752614,-15.112548828,14.081237793,-4.762542725,-0.154272586,0.065837033,-1.247534394
16.753239,-14.494567871,13.402221680,-4.983795166,-0.152075320,0.058756959,-1.251440644
16.753966,-13.899475098,12.898681641,-5.105865479,-0.151587039,0.057658326,-1.255224824
16.754665,-13.350158691,12.364624023,-5.288970947,-0.149023563,0.060221802,-1.260717988
16.755290,-12.655883789,11.998413086,-5.334747314,-0.147924930,0.060099732,-1.265600801
16.755917,-11.725097656,11.410949707,-5.731475830,-0.144018680,0.058756959,-1.267798066
16.756543,-11.137634277,10.892150879,-5.517852783,-0.139746219,0.062785275,-1.269262910
16.757170,-10.458618164,10.335205078,-5.693328857,-0.135229617,0.063517697,-1.267309785
16.757796,-9.596496582,9.923217773,-5.960357666,-0.132055789,0.061686646,-1.272070527
16.758422,-9.039550781,9.213684082,-6.097686768,-0.125708133,0.064005978,-1.270239472
16.759048,-8.032470703,8.656738281,-6.318939209,-0.123999149,0.065348752,-1.271948457
16.759674,-7.506042480,7.924316406,-6.616485596,-0.117895633,0.069743283,-1.267431855
16.760300,-6.926208496,7.672546387,-6.509674072,-0.110449344,0.067179807,-1.267920136
16.760926,-6.231933594,7.046936035,-6.959808350,-0.106176883,0.071818478,-1.264013886
16.761552,-5.499511719,6.566284180,-7.013214111,-0.102270633,0.073893674,-1.266333222
16.762177,-4.934936523,5.986450195,-7.287872314,-0.097143680,0.074015744,-1.259619355
16.762804,-4.408508301,5.429504395,-7.318389893,-0.091406375,0.073893674,-1.254858613
16.782204,-8.734375000,-0.551940918,-12.674224854,0.159570187,0.067057736,-1.110693574
16.782979,-9.054809570,-0.414611816,-12.864959717,0.162744015,0.064982541,-1.109839082
16.783687,-9.474426270,-0.185729980,-12.857330322,0.170068234,0.061198365,-1.110083222
16.784312,-10.077148438,-0.483276367,-13.070953369,0.178735226,0.052409302,-1.104956269
16.784948,-10.603576660,-0.246765137,-13.299835205,0.183373898,0.049601685,-1.101660371
16.785574,-11.015563965,-0.284912109,-13.383758545,0.193139523,0.046183717,-1.099829316
16.786199,-11.366516113,0.203369141,-13.536346436,0.198632687,0.038615357,-1.099951386
16.786825,-11.885314941,-0.139953613,-13.498199463,0.204247922,0.035807740,-1.099341035
16.787450,-12.274414062,0.432250977,-13.505828857,0.212426633,0.031657349,-1.094702363
16.788075,-12.503295898,0.630615234,-13.826263428,0.216943234,0.026896607,-1.092993379
16.788701,-13.014465332,1.034973145,-13.574493408,0.221093625,0.021525513,-1.090551972
16.789327,-13.014465332,1.309631348,-13.666046143,0.226953000,0.018595826,-1.088720918
16.789953,-13.266235352,1.904724121,-13.765228271,0.230981320,0.006999145,-1.084448457
16.790578,-13.624816895,2.446411133,-13.528717041,0.231713742,0.002116333,-1.079809785
16.791205,-13.929992676,2.751586914,-13.490570068,0.229394406,-0.003865113,-1.075293183
16.791831,-14.013916016,3.422973633,-13.383758545,0.230615109,-0.013142456,-1.071631074
16.792456,-14.128356934,4.010437012,-13.444793701,0.229760617,-0.019368041,-1.068457246
16.793083,-14.456420898,4.605529785,-13.299835205,0.224145383,-0.023274291,-1.063696504
16.793708,-14.296203613,5.231140137,-13.337982178,0.223901242,-0.029499877,-1.059301972
16.794334,-14.380126953,6.657836914,-13.116729736,0.214135617,-0.046711791,-1.051733613
16.794960,-14.380126953,6.657836914,-13.116729736,0.214135617,-0.046711791,-1.051733613
16.795586,-14.158874512,7.901428223,-13.063323975,0.205834836,-0.053913940,-1.047461152
16.796211,-14.059692383,8.588073730,-12.903106689,0.202905148,-0.062458862,-1.037939668
16.796837,-14.242797852,8.984802246,-12.727630615,0.194360226,-0.067097537,-1.035864472
16.797463,-14.227539062,9.579895020,-12.575042725,0.187280148,-0.069905154,-1.033056855
16.798089,-14.181762695,10.411499023,-12.597930908,0.182275265,-0.078572147,-1.033300996
16.798716,-14.464050293,11.006591797,-12.361419678,0.177758664,-0.080403201,-1.033545136
16.799341,-14.692932129,11.677978516,-11.941802979,0.173486203,-0.088459842,-1.031714082
16.799966,-14.609008789,12.013671875,-11.987579346,0.167138547,-0.090779178,-1.033178926
16.800592,-14.837890625,12.669799805,-11.751068115,0.157739133,-0.092732303,-1.032690644
16.801218,-15.013366699,13.104675293,-11.331451416,0.149072140,-0.101643436,-1.031714082
16.801843,-15.356689453,13.287780762,-11.323822021,0.146874875,-0.106404178,-1.036718965
16.802469,-15.532165527,14.004943848,-11.003387451,0.136498898,-0.112873904,-1.035376191
16.803095,-15.570312500,14.271972656,-10.751617432,0.128076047,-0.116780154,-1.041113496
16.803720,-15.684753418,14.424560547,-10.415924072,0.120995969,-0.121785037,-1.048925996
16.804345,-15.898376465,14.569519043,-9.996307373,0.115014523,-0.128254756,-1.047827363
16.804970,-15.791564941,14.912841797,-9.965789795,0.106835812,-0.139485225,-1.055639863
16.805596,-15.822082520,15.134094238,-9.500396729,0.099755734,-0.141438350,-1.063940644
16.806222,-15.806823730,15.126464844,-9.408843994,0.089257687,-0.148518428,-1.069189668
16.806848,-15.921264648,15.248535156,-8.966339111,0.086450070,-0.155720577,-1.075781465
16.807474,-15.692382812,15.210388184,-8.653533936,0.080590695,-0.159016475,-1.080420136
16.808101,-15.600830078,15.065429688,-8.539093018,0.075219601,-0.165242061,-1.092260957
16.808744,-15.394836426,15.073059082,-8.073699951,0.069482297,-0.170735225,-1.097387910
16.809370,-15.333801270,15.111206055,-7.882965088,0.066918820,-0.176350459,-1.103491426
16.809997,-14.952331543,14.775512695,-7.440460205,0.065209836,-0.180867061,-1.112524629
16.810622,-14.532714844,14.828918457,-7.097137451,0.062890500,-0.185261592,-1.118506074
16.823221,4.494995117,14.432189941,0.600921631,0.016625855,-0.184407100,-1.200659394
16.823927,5.380004883,14.416931152,0.867950439,0.018456910,-0.178547725,-1.203100801
16.824553,6.524414062,14.523742676,1.134979248,0.014062379,-0.178181514,-1.200049043
16.825178,7.386535645,14.363525391,1.386749268,0.014062379,-0.177204952,-1.198706269
16.825804,8.302062988,14.523742676,2.119171143,0.016381714,-0.170979366,-1.193823457
16.826429,8.958190918,14.378784180,2.218353271,0.013574097,-0.170369014,-1.189062715
16.827054,9.614318848,14.523742676,2.508270264,0.013452027,-0.165974483,-1.188940644
16.827681,10.171264648,14.523742676,3.011810303,0.012475464,-0.155598506,-1.186621308
16.828307,10.697692871,14.539001465,3.423797607,0.009423707,-0.154011592,-1.180395722
16.828933,11.002868652,14.287231445,3.873931885,0.006371949,-0.145710811,-1.177221894
16.829559,11.567443848,14.333007812,4.285919189,0.000390504,-0.139119014,-1.178076386
16.830185,11.407226562,14.310119629,4.575836182,0.002587769,-0.135334834,-1.171484590
16.830819,11.880249023,14.439819336,4.919158936,0.001367066,-0.128010616,-1.170263886
16.831445,11.948913574,14.233825684,5.178558350,-0.004614379,-0.122395389,-1.165869355
16.832070,11.994689941,14.554260254,5.460845947,-0.002172973,-0.113118045,-1.165259004
16.832696,11.834472656,14.302490234,5.582916260,-0.006933715,-0.110554568,-1.157812715
16.834441,11.712402344,14.394042969,6.528961182,-0.010595825,-0.087239139,-1.149878144
16.835066,11.491149902,14.271972656,6.895172119,-0.008886840,-0.082356326,-1.150732636
16.835692,11.201232910,14.371154785,6.963836670,-0.009619262,-0.075276248,-1.150000215
16.836317,10.903686523,14.302490234,7.383453369,-0.010107543,-0.069050662,-1.143774629
16.836942,10.735839844,14.233825684,7.612335205,-0.012304809,-0.063557498,-1.141455293
16.837568,10.255187988,14.271972656,7.879364014,-0.009375121,-0.056843627,-1.140967011
16.838193,9.827941895,14.477966309,7.894622803,-0.009008911,-0.051594604,-1.139258027
16.838820,9.431213379,14.348266602,8.100616455,-0.010473754,-0.044270385,-1.142675996
16.839447,8.889526367,14.348266602,8.619415283,-0.006689575,-0.038411010,-1.142309785
16.840072,8.347839355,14.668701172,8.733856201,-0.006567504,-0.034626830,-1.143286347
16.840699,7.836669922,14.653442383,8.840667725,-0.006567504,-0.028279174,-1.140600801
16.841325,7.333129883,14.577148438,9.191619873,-0.006811645,-0.023030151,-1.140356660
16.841952,7.119506836,14.462707520,9.077178955,-0.001440551,-0.016804565,-1.141699433
16.842577,6.516784668,14.668701172,9.245025635,-0.003393676,-0.013386597,-1.143896699
16.843203,6.196350098,14.447448730,9.534942627,-0.007055786,-0.005574097,-1.145239472
16.843830,5.677551270,14.630554199,9.580718994,-0.006079223,-0.001911988,-1.146582246
16.844456,5.524963379,14.645812988,10.023223877,-0.007544067,0.000895630,-1.147314668
16.845082,4.960388184,14.851806641,10.229217529,-0.009741332,0.005290161,-1.149145722
16.845707,4.815429688,14.767883301,10.213958740,-0.012915161,0.009684692,-1.154516816
16.846333,4.365295410,15.095947266,10.358917236,-0.015356567,0.015544067,-1.156103730
16.846959,4.220336914,15.256164551,10.564910889,-0.019873168,0.018351685,-1.156469941
16.847585,3.770202637,15.187500000,10.480987549,-0.021826293,0.020671021,-1.160376191
16.848210,3.403991699,15.637634277,10.618316650,-0.024878051,0.020548951,-1.158667207
16.848835,3.396362305,15.446899414,10.892974854,-0.028296020,0.023966920,-1.162573457
16.849462,3.403991699,15.401123047,10.862457275,-0.032568481,0.027262818,-1.165747285
16.850089,3.487915039,15.706298828,10.778533936,-0.032934692,0.028483521,-1.163305879
16.850714,3.480285645,15.546081543,10.969268799,-0.035131957,0.034098756,-1.164038301
16.851341,3.312438965,15.813110352,11.083709717,-0.038671996,0.034709107,-1.167090058
16.851967,3.602355957,15.790222168,10.992156982,-0.035620239,0.040324342,-1.166357636
16.852592,3.938049316,15.843627930,10.839569092,-0.035742309,0.045329224,-1.170508027
16.853218,4.151672363,15.729187012,10.877716064,-0.041479614,0.050822388,-1.174536347
16.853843,4.098266602,15.851257324,10.816680908,-0.040747192,0.055827271,-1.175390840
16.866507,12.177795410,15.034912109,8.337127686,-0.055639770,0.119547971,-1.185156465
16.867277,12.620300293,14.645812988,8.085357666,-0.056494262,0.123454221,-1.184912324
16.867903,13.329833984,14.592407227,7.940399170,-0.057592895,0.124796994,-1.188452363
16.868529,13.612121582,14.432189941,7.513153076,-0.056860473,0.125773564,-1.186133027
16.869156,14.077514648,14.348266602,7.177459717,-0.054419067,0.124674924,-1.186499238
16.869782,14.428466797,14.203308105,7.169830322,-0.049658325,0.127116337,-1.186865449
16.870407,15.015930176,13.852355957,7.063018799,-0.047216918,0.126750126,-1.184179902
16.871033,15.572875977,13.791320801,6.467926025,-0.044531371,0.127726689,-1.186865449
16.871659,16.251892090,13.409851074,6.528961182,-0.037817504,0.135172978,-1.184424043
16.872286,16.816467285,13.676879883,6.208526611,-0.038916137,0.137370244,-1.181372285
16.872912,17.655700684,13.409851074,5.529510498,-0.028784301,0.142008916,-1.180761933
16.873539,17.945617676,13.463256836,5.392181396,-0.020605590,0.144694462,-1.181006074
16.874165,18.723815918,13.303039551,5.247222900,-0.015356567,0.150187626,-1.181372285
16.874792,19.852966309,13.257263184,4.392730713,0.002831910,0.149455205,-1.175390840
16.875417,19.852966309,13.257263184,4.392730713,0.002831910,0.149455205,-1.175390840
16.876043,20.715087891,13.562438965,3.721343994,0.020410035,0.157511845,-1.173559785
16.876669,20.890563965,13.562438965,3.500091553,0.030053589,0.158854619,-1.170263886
16.877294,21.035522461,13.982055664,3.263580322,0.036523316,0.159953251,-1.169043183
16.877919,21.432250977,14.058349609,3.011810303,0.043603394,0.164591923,-1.168188691
16.878544,21.424621582,14.363525391,2.676116943,0.047021363,0.164591923,-1.163916230
16.879171,21.607727051,14.661071777,2.493011475,0.054467652,0.169474736,-1.163427949
16.879796,21.783203125,14.699218750,1.882659912,0.058862183,0.170573369,-1.161108613
16.880423,21.844238281,15.004394531,1.951324463,0.062646359,0.173869267,-1.162085176
16.881049,21.493286133,15.172241211,1.287567139,0.066918820,0.170695439,-1.161352754
16.881674,21.287292480,15.599487305,1.386749268,0.069116086,0.178630009,-1.154883027
16.882299,20.760864258,15.652893066,0.967132568,0.073998898,0.179850712,-1.157446504
16.882973,20.165771484,16.202209473,0.738250732,0.076074094,0.181925908,-1.157690644
16.883600,20.119995117,16.301391602,0.425445557,0.076806515,0.182658330,-1.155737519
16.884225,19.502014160,16.537902832,0.158416748,0.078637570,0.180338994,-1.155371308
16.884850,18.746704102,16.865966797,-0.383270264,0.079247922,0.180827275,-1.156469941
16.885475,17.884582520,17.049072266,-0.352752686,0.080224484,0.182780400,-1.152929902
16.886101,17.159790039,17.407653809,-0.772369385,0.085351437,0.184733525,-1.156714082
16.886726,16.206115723,17.377136230,-1.108062744,0.084008664,0.186930791,-1.152929902
16.887352,15.336364746,17.407653809,-1.291168213,0.083642453,0.187174931,-1.154516816
16.887979,14.092773438,17.758605957,-1.619232178,0.084374875,0.186320439,-1.159399629
16.888619,12.872070312,17.934082031,-1.886260986,0.086205930,0.187541142,-1.162085176
16.889266,11.636108398,17.750976562,-1.977813721,0.082910031,0.186686650,-1.162817597
16.889897,9.950012207,17.995117188,-2.633941650,0.087670773,0.187174931,-1.163794160
16.890540,8.828491211,18.109558105,-2.756011963,0.092065305,0.183879033,-1.169043183
16.891167,7.409423828,17.995117188,-3.015411377,0.093041867,0.185588017,-1.167822480
16.891792,5.860656738,18.002746582,-3.229034424,0.094018430,0.184123173,-1.172094941
16.892417,4.418701172,18.445251465,-3.389251709,0.094506711,0.182414189,-1.170263886
16.893044,2.824157715,18.666503906,-3.763092041,0.095361203,0.180705205,-1.175757051
16.893670,1.176208496,18.544433594,-3.862274170,0.093408078,0.177775517,-1.178808808
16.894297,-0.486999512,18.384216309,-4.236114502,0.093163937,0.177897587,-1.186255097
16.894923,-2.447753906,18.223999023,-4.304779053,0.092431515,0.175456181,-1.187475801
16.895548,-4.454284668,18.407104492,-4.419219971,0.091454953,0.168620244,-1.189795136
16.896174,-6.155639648,17.903564453,-4.426849365,0.092065305,0.162272587,-1.196020722
16.908723,-28.135925293,10.434387207,-6.189239502,0.149316281,-0.000935425,-1.285742402
16.909457,-28.387695312,9.930847168,-6.227386475,0.149926633,-0.011067261,-1.283545136
16.910093,-28.685241699,9.541748047,-6.021392822,0.154931515,-0.014363159,-1.278540254
16.910719,-28.814941406,9.564636230,-5.914581299,0.154931515,-0.024739135,-1.278906465
16.911344,-28.715759277,8.908508301,-5.754364014,0.152856320,-0.032307494,-1.277929902
16.911970,-28.830200195,8.572814941,-5.433929443,0.149804562,-0.034626830,-1.275976777
16.912596,-28.593688965,8.137939453,-5.357635498,0.151147336,-0.040364135,-1.273535371
16.913221,-28.647094727,7.848022461,-5.281341553,0.150536984,-0.045613158,-1.274634004
16.913846,-28.357177734,7.687805176,-5.090606689,0.153588742,-0.051838744,-1.269384980
16.914471,-28.288513184,7.214782715,-5.075347900,0.154931515,-0.056843627,-1.263769746
16.915098,-28.273254395,6.894348145,-4.899871826,0.156152219,-0.065266483,-1.259497285
16.915724,-28.196960449,6.612060547,-5.014312744,0.158715695,-0.074787967,-1.255102754
16.916349,-27.655273438,6.535766602,-4.869354248,0.162621945,-0.079426639,-1.252539277
16.916975,-27.220397949,6.230590820,-4.732025146,0.167382687,-0.086872928,-1.250219941
16.917600,-26.686340332,5.826232910,-4.602325439,0.168359250,-0.093342654,-1.243628144
16.918226,-26.198059082,5.368469238,-4.312408447,0.169824094,-0.099690311,-1.243628144
16.918852,-25.877624512,4.979370117,-3.946197510,0.172021359,-0.104084842,-1.240820527
16.919478,-25.534301758,4.719970703,-3.610504150,0.175439328,-0.111531131,-1.233740449
16.920105,-25.244384766,4.620788574,-3.465545654,0.174951047,-0.115315311,-1.229467988
16.920730,-24.893432617,4.391906738,-3.061187744,0.179345578,-0.119465701,-1.225439668
16.921356,-24.725585938,4.185913086,-2.794158936,0.176904172,-0.124592654,-1.223242402
16.921983,-24.336486816,4.124877930,-2.237213135,0.177636594,-0.128376827,-1.220434785
16.922609,-23.932128906,3.758666992,-2.122772217,0.175927609,-0.133015499,-1.215185761
16.923235,-23.665100098,3.514526367,-1.878631592,0.175317258,-0.135823116,-1.212866426
16.923862,-23.405700684,3.293273926,-1.306427002,0.171166867,-0.137532100,-1.211279511
16.924489,-22.917419434,2.972839355,-1.008880615,0.166772336,-0.142414913,-1.207251191
16.925114,-22.787719727,2.621887207,-0.352752686,0.167016476,-0.147663936,-1.205664277
16.925739,-22.551208496,2.202270508,0.028717041,0.162255734,-0.148884639,-1.203100801
16.926365,-22.322326660,1.981018066,0.341522217,0.159203976,-0.151203975,-1.198340058
16.926992,-22.154479980,1.507995605,0.776397705,0.155663937,-0.151326045,-1.198584199
16.927618,-22.017150879,0.897644043,1.249420166,0.152001828,-0.150349483,-1.197119355
16.928245,-21.544128418,0.615356445,1.669036865,0.145165890,-0.149739131,-1.195166230
16.928871,-21.452575684,0.050781250,2.096282959,0.147729367,-0.148518428,-1.191626191
16.929496,-21.177917480,-0.284912109,2.699005127,0.140893430,-0.152302608,-1.188086152
16.930121,-21.155029297,-0.902893066,2.981292725,0.137353390,-0.153889522,-1.190527558
16.930747,-20.834594727,-1.307250977,3.423797607,0.133569211,-0.156697139,-1.190405488
16.931374,-20.651489258,-1.993896484,3.858673096,0.131127805,-0.152668819,-1.188330293
16.932001,-20.285278320,-2.428771973,4.400360107,0.126977414,-0.154988155,-1.187475801
16.932628,-19.926696777,-3.000976562,4.613983154,0.122582883,-0.155232295,-1.187842011
16.933255,-19.690185547,-3.489257812,5.277740479,0.122216672,-0.152790889,-1.187231660
16.934993,-18.049865723,-5.022766113,6.635772705,0.108788937,-0.150715694,-1.191259980
16.935619,-17.798095703,-5.663635254,6.986724854,0.107568234,-0.151326045,-1.191015840
16.936246,-16.981750488,-6.312133789,7.551300049,0.106713742,-0.150471553,-1.190161347
16.936872,-16.119628906,-6.785156250,7.909881592,0.104516476,-0.150349483,-1.191259980
16.937497,-15.677124023,-7.227661133,8.245574951,0.100244015,-0.148274288,-1.188452363
16.938122,-14.525085449,-7.693054199,8.871185303,0.098901242,-0.148762569,-1.190161347
16.938749,-13.716369629,-8.120300293,9.061920166,0.094872922,-0.147908077,-1.188696504
16.951387,9.820312500,-16.840698242,15.630828857,0.019555543,-0.052937377,-1.119848847
16.952181,12.322753906,-17.679931641,15.951263428,0.021508668,-0.034748901,-1.108740449
16.952807,13.467163086,-17.588378906,15.829193115,0.019067261,-0.021931518,-1.101050019
16.953432,14.657348633,-17.916442871,16.363250732,0.020165894,-0.013752808,-1.100195527
16.954058,15.885681152,-17.977478027,16.340362549,0.022241089,-0.001911988,-1.091772676
16.954683,16.808837891,-18.069030762,16.409027100,0.020776246,0.009562622,-1.085547090
16.955310,17.686218262,-17.946960449,16.592132568,0.015771363,0.016642701,-1.078100801
16.955936,18.563598633,-18.061401367,16.683685303,0.015283082,0.024943482,-1.072363496
16.956562,19.463867188,-17.885925293,16.866790771,0.014550660,0.037394654,-1.063208222
16.957236,20.135253906,-17.878295898,16.843902588,0.012475464,0.050578248,-1.057837129
16.957863,20.753234863,-17.573120117,16.859161377,0.007348511,0.057170045,-1.050390840
16.958488,21.531433105,-17.527343750,17.194854736,0.001977418,0.068156369,-1.041479707
16.959115,21.546691895,-17.359497070,17.217742920,0.000146363,0.076823361,-1.031103730
16.959741,22.103637695,-17.275573730,17.179595947,-0.000708129,0.088786252,-1.026587129
16.960367,22.523254395,-16.955139160,17.294036865,-0.007788207,0.096598752,-1.017187715
16.960993,22.431701660,-16.764404297,17.438995361,-0.014746215,0.105876096,-1.008398652
16.961619,22.637695312,-16.520263672,17.187225342,-0.018042114,0.111857541,-1.000219941
16.962245,22.919982910,-16.138793945,17.164337158,-0.024145629,0.124552853,-0.992407441
16.962870,22.691101074,-15.864135742,17.027008057,-0.029272582,0.133219853,-0.984472871
16.963496,22.454589844,-15.757324219,16.897308350,-0.033545043,0.143107548,-0.977392793
16.964122,22.118896484,-15.497924805,16.912567139,-0.032202270,0.152506962,-0.970556855
16.964747,21.951049805,-15.337707520,16.706573486,-0.036718871,0.161418095,-0.962500215
16.965372,21.088928223,-15.070678711,16.882049561,-0.041113403,0.165446416,-0.955786347
16.965999,20.509094238,-14.704467773,16.912567139,-0.042578246,0.178752080,-0.951025605
16.966625,19.959777832,-14.528991699,16.569244385,-0.044409301,0.185221806,-0.942846894
16.967250,18.937438965,-14.246704102,16.546356201,-0.044165161,0.190348759,-0.936987519
16.967875,18.060058594,-14.010192871,16.500579834,-0.049414184,0.201823369,-0.933203340
16.968500,16.984313965,-13.666870117,16.203033447,-0.054785278,0.203776494,-0.928930879
16.969125,16.183227539,-13.529541016,16.309844971,-0.056005981,0.211955205,-0.923193574
16.969751,14.756530762,-13.285400391,16.027557373,-0.060278442,0.217326298,-0.920752168
16.970376,13.703674316,-12.957336426,15.890228271,-0.066259891,0.222087041,-0.919531465
16.971001,12.528747559,-12.606384277,15.768157959,-0.071386844,0.231974736,-0.917090058
16.971628,10.972351074,-12.659790039,15.775787354,-0.076757938,0.235148564,-0.915259004
16.972253,9.850830078,-12.514831543,15.524017334,-0.084082156,0.240153447,-0.916113496
16.972879,8.469909668,-11.896850586,15.173065186,-0.088232547,0.241496220,-0.913427949
16.973506,7.264465332,-12.110473633,15.356170654,-0.096289188,0.246256962,-0.914770722
16.974132,5.891174316,-11.782409668,15.073883057,-0.098974735,0.253581166,-0.914526582
16.974758,4.548400879,-11.805297852,14.921295166,-0.104101688,0.254557729,-0.914282441
16.975383,3.335327148,-11.751892090,14.577972412,-0.111547977,0.256022573,-0.917334199
16.976009,2.236694336,-11.492492676,14.303314209,-0.111425906,0.257121205,-0.919043183
16.976634,1.046508789,-11.683227539,14.143096924,-0.117285281,0.260783315,-0.918676972
16.977260,0.047058105,-11.530639648,13.570892334,-0.120825320,0.262248158,-0.918676972
16.977885,-0.982910156,-11.591674805,13.425933838,-0.124121219,0.264689565,-0.923559785
16.978511,-1.974731445,-11.469604492,13.212310791,-0.124975711,0.263957143,-0.925024629
16.979137,-2.806335449,-11.538269043,12.769805908,-0.126806766,0.262858510,-0.930029511
16.979763,-3.660827637,-11.530639648,12.327301025,-0.129614383,0.265544057,-0.931982636
16.980388,-4.500061035,-11.217834473,11.999237061,-0.126074344,0.263468862,-0.933081269
16.992900,-4.721313477,-9.928466797,5.094635010,-0.134253055,0.217448369,-0.947973847
16.993549,-4.248291016,-9.882690430,5.010711670,-0.131811649,0.220622197,-0.948217988
16.994176,-3.943115234,-9.928466797,4.591094971,-0.128393680,0.216715947,-0.944922090
16.994802,-3.714233398,-9.722473145,4.392730713,-0.128149539,0.216593876,-0.940649629
16.995428,-3.088623047,-9.608032227,4.301177979,-0.125586063,0.215739384,-0.939917207
16.996054,-2.905517578,-9.951354980,3.774749756,-0.128027469,0.212199345,-0.937109590
16.996679,-2.386718750,-9.974243164,3.698455811,-0.123632938,0.211466923,-0.935156465
16.997304,-2.241760254,-10.142089844,3.370391846,-0.124853641,0.210856572,-0.933935761
16.997929,-1.806884766,-9.951354980,2.821075439,-0.125708133,0.209513798,-0.932592988
16.998555,-1.478820801,-9.928466797,3.095733643,-0.124731570,0.210246220,-0.927832246
16.999181,-1.303344727,-10.187866211,2.615081787,-0.123632938,0.206828251,-0.928442597
16.999807,-1.036315918,-10.126831055,2.584564209,-0.125830203,0.208171025,-0.928564668
17.000432,-0.631958008,-9.997131348,2.035247803,-0.127905399,0.207926884,-0.925757051
17.001059,-0.433593750,-10.569335938,1.783477783,-0.129004031,0.205973759,-0.923803926
17.001685,-0.410705566,-10.454895020,1.661407471,-0.128149539,0.207926884,-0.921484590
17.002310,-0.128417969,-10.653259277,1.180755615,-0.125463992,0.207438603,-0.923559785
17.002937,-0.113159180,-10.760070801,0.974761963,-0.126318485,0.207316533,-0.921606660
17.003563,0.047058105,-10.889770508,0.707733154,-0.128393680,0.205485478,-0.917578340
17.004189,0.039428711,-10.943176270,0.417816162,-0.127050906,0.206095830,-0.916601777
17.004814,0.184387207,-11.225463867,0.089752197,-0.126074344,0.209025517,-0.915991426
17.005440,-0.090270996,-11.202575684,0.043975830,-0.125586063,0.207316533,-0.915014863
17.006067,-0.158935547,-11.309387207,-0.345123291,-0.124365360,0.202677861,-0.916723847
17.006694,-0.120788574,-11.500122070,-0.558746338,-0.125830203,0.204630986,-0.915991426
17.007320,-0.273376465,-11.599304199,-0.863922119,-0.126562625,0.204508916,-0.913183808
17.007946,-0.143676758,-11.652709961,-0.863922119,-0.125586063,0.202922001,-0.911718965
17.008572,-0.815063477,-11.553527832,-1.306427002,-0.124243289,0.201823369,-0.907568574
17.009199,-0.929504395,-11.851074219,-1.550567627,-0.119726688,0.202189580,-0.909155488
17.009824,-1.112609863,-11.843444824,-1.657379150,-0.121679813,0.199381962,-0.908300996
17.010449,-1.516967773,-11.950256348,-1.954925537,-0.120581180,0.199259892,-0.905005097
17.011074,-1.852661133,-12.270690918,-1.993072510,-0.120214969,0.201335087,-0.904272676
17.011699,-2.005249023,-12.308837891,-2.435577393,-0.123755008,0.197062626,-0.903051972
17.012326,-2.401977539,-12.446166992,-2.504241943,-0.120947391,0.195353642,-0.902075410
17.012951,-2.844482422,-12.552978516,-2.504241943,-0.120947391,0.193278447,-0.902075410
17.013576,-3.149658203,-12.659790039,-2.778900146,-0.119970828,0.193522587,-0.900122285
17.014202,-3.523498535,-12.766601562,-3.122222900,-0.120214969,0.193522587,-0.899267793
17.014827,-3.981262207,-12.804748535,-3.404510498,-0.115332156,0.186930791,-0.895361543
17.015453,-4.446655273,-13.041259766,-3.534210205,-0.111914188,0.187663212,-0.899389863
17.016078,-4.889160156,-12.987854004,-3.686798096,-0.112158328,0.183756962,-0.894995332
17.016704,-5.133300781,-13.209106445,-3.808868408,-0.111792117,0.182902470,-0.891943574
17.017331,-5.766540527,-13.285400391,-4.091156006,-0.111670047,0.179606572,-0.893164277
17.017957,-6.140380859,-13.125183105,-4.236114502,-0.108007938,0.179118291,-0.893530488
17.018583,-6.476074219,-13.582946777,-4.274261475,-0.106176883,0.174357548,-0.887182832
17.019208,-6.888061523,-13.598205566,-4.587066650,-0.103979617,0.170817509,-0.887915254
17.019833,-7.498413086,-13.567687988,-4.609954834,-0.103735477,0.166667119,-0.887915254
17.020459,-7.963806152,-13.842346191,-4.838836670,-0.102636844,0.165934697,-0.887182832
17.021085,-8.536010742,-13.872863770,-4.655731201,-0.100561649,0.164591923,-0.884375215
17.021710,-8.947998047,-13.949157715,-4.747283936,-0.100439578,0.157511845,-0.881323457
17.042140,-8.246093750,-14.574768066,-5.182159424,-0.064550906,0.040812623,-0.782568574
17.042894,-7.628112793,-14.155151367,-5.304229736,-0.062963992,0.039469849,-0.779272676
17.043519,-6.880432129,-13.857604980,-4.976165771,-0.062475707,0.038981568,-0.772802949
17.044144,-6.094604492,-13.727905273,-4.770172119,-0.061987426,0.039225709,-0.769262910
17.044769,-5.896240234,-13.216735840,-4.907501221,-0.061010864,0.038127076,-0.766211152
17.045396,-5.018859863,-13.041259766,-4.487884521,-0.060034301,0.037638795,-0.761328340
17.046030,-4.858642578,-12.766601562,-4.373443604,-0.064428836,0.037394654,-0.756689668
17.046679,-4.217773438,-12.430908203,-4.609954834,-0.066626102,0.035075318,-0.755346894
17.047304,-3.531127930,-11.996032715,-4.259002686,-0.067846805,0.035807740,-0.751562715
17.047930,-2.943664551,-11.942626953,-4.220855713,-0.069555789,0.037760865,-0.747778535
17.048555,-2.516418457,-11.568786621,-4.098785400,-0.070288211,0.038981568,-0.746191621
17.049180,-1.829772949,-11.080505371,-4.114044189,-0.070532352,0.039713990,-0.743628144
17.049807,-1.364379883,-10.889770508,-3.946197510,-0.072485477,0.039103638,-0.745092988
17.050433,-0.761657715,-10.500671387,-3.885162354,-0.076880008,0.040690552,-0.739721894
17.051059,-0.258117676,-10.386230469,-3.961456299,-0.076391727,0.042887818,-0.738623261
17.051686,0.207275391,-9.737731934,-3.709686279,-0.074438602,0.044230592,-0.736425996
17.052312,0.848144531,-9.310485840,-3.953826904,-0.074438602,0.044963013,-0.736425996
17.052938,1.374572754,-9.066345215,-3.755462646,-0.074316531,0.046183717,-0.731176972
17.053565,1.588195801,-8.646728516,-3.816497803,-0.076391727,0.046671998,-0.733496308
17.054190,1.870483398,-8.486511230,-3.839385986,-0.072973758,0.049357545,-0.732153535
17.054817,2.541870117,-7.967712402,-3.793609619,-0.071020633,0.051432740,-0.728613496
17.055442,2.618164062,-7.700683594,-3.633392334,-0.070654422,0.054484498,-0.730322480
17.056067,2.969116211,-7.120849609,-3.648651123,-0.070776492,0.057414185,-0.728857636
17.056693,2.999633789,-6.907226562,-3.541839600,-0.069677860,0.061198365,-0.732641816
17.057319,3.136962891,-6.479980469,-3.335845947,-0.067968875,0.063883908,-0.729956269
17.057945,3.274291992,-5.984069824,-3.312957764,-0.069555789,0.064372189,-0.729101777
17.058571,3.434509277,-5.495788574,-3.229034424,-0.071020633,0.068034299,-0.731421113
17.059197,3.083557129,-5.465270996,-2.916229248,-0.071753055,0.070719846,-0.731299043
17.059823,3.266662598,-4.870178223,-3.038299561,-0.074804813,0.074992307,-0.733130097
17.060448,3.098815918,-4.320861816,-3.007781982,-0.079077274,0.079020627,-0.731543183
17.061074,2.992004395,-4.244567871,-2.878082275,-0.082739383,0.079386838,-0.734839082
17.061700,2.694458008,-3.954650879,-2.794158936,-0.081884891,0.085368283,-0.732885957
17.062325,2.587646484,-3.672363281,-2.717864990,-0.086767703,0.085734494,-0.737280488
17.062951,2.282470703,-3.313781738,-2.664459229,-0.085791141,0.087443478,-0.737402558
17.063578,2.137512207,-3.115417480,-2.588165283,-0.090796024,0.092448361,-0.741797090
17.064205,1.572937012,-3.115417480,-2.519500732,-0.090551883,0.095133908,-0.740454316
17.064831,1.244873047,-2.924682617,-2.588165283,-0.095678836,0.099284299,-0.742773652
17.065456,0.832885742,-2.718688965,-2.496612549,-0.091406375,0.101847775,-0.748266816
17.066083,0.680297852,-2.573730469,-2.649200439,-0.092138797,0.102702267,-0.754248261
17.066709,0.138610840,-2.444030762,-2.717864990,-0.092260867,0.101969846,-0.752905488
17.067334,-0.212341309,-2.215148926,-2.633941650,-0.091650516,0.104289182,-0.755224824
17.067961,-0.906616211,-2.482177734,-2.473724365,-0.092260867,0.104777463,-0.758886933
17.068588,-1.318603516,-2.238037109,-2.778900146,-0.089941531,0.108195432,-0.764013886
17.069215,-1.692443848,-1.932861328,-2.656829834,-0.088598758,0.106364377,-0.765722871
17.069841,-2.180725098,-2.070190430,-2.626312256,-0.087866336,0.107707150,-0.769629121
17.070466,-2.669006348,-1.803161621,-2.824676514,-0.090307742,0.105998166,-0.775122285
17.071093,-3.004699707,-1.620056152,-2.588165283,-0.086889774,0.108561642,-0.777563691
17.083660,-6.018310547,0.882385254,-3.709686279,-0.097631961,0.102458127,-0.812964082
17.084350,-5.774169922,1.012084961,-3.671539307,-0.100927860,0.099284299,-0.819800019
17.084976,-5.774169922,1.012084961,-3.671539307,-0.100927860,0.099284299,-0.819800019
17.085601,-6.071716309,1.149414062,-3.862274170,-0.101416141,0.096476682,-0.820898652
17.086227,-5.880981445,1.057861328,-3.900421143,-0.100805789,0.098185666,-0.828100801
17.086854,-5.629211426,0.973937988,-3.953826904,-0.102514774,0.095378049,-0.826880097
17.087479,-5.476623535,0.943420410,-3.900421143,-0.104712039,0.097209103,-0.831030488
17.088105,-5.766540527,0.882385254,-4.030120850,-0.104589969,0.090495236,-0.832373261
17.088731,-5.270629883,0.943420410,-4.098785400,-0.106421024,0.093180783,-0.833716035
17.089356,-5.354553223,0.661132812,-4.213226318,-0.104834110,0.091105588,-0.836889863
17.089983,-5.110412598,0.813720703,-4.129302979,-0.106787235,0.088175900,-0.834814668
17.090609,-5.079895020,0.737426758,-4.259002686,-0.103491336,0.087809689,-0.838476777
17.091234,-5.041748047,0.912902832,-4.197967529,-0.107641727,0.087443478,-0.842016816
17.091860,-4.889160156,0.584838867,-4.304779053,-0.108496219,0.086833127,-0.842993379
17.092486,-4.622131348,0.279663086,-4.396331787,-0.111670047,0.085490353,-0.849096894
17.093112,-4.255920410,0.363586426,-4.388702393,-0.118017703,0.082316525,-0.853125215
17.093739,-4.606872559,0.127075195,-4.327667236,-0.116064578,0.081462033,-0.853003144
17.094364,-4.248291016,-0.040771484,-4.381072998,-0.121313602,0.080851682,-0.858862519
17.094990,-4.156738281,-0.208618164,-4.381072998,-0.125830203,0.081462033,-0.861303926
17.095615,-4.042297363,-0.529052734,-4.228485107,-0.133032352,0.080973752,-0.862158418
17.096241,-4.103332520,-1.147033691,-4.388702393,-0.131933719,0.078288205,-0.865820527
17.096867,-3.874450684,-1.414062500,-4.487884521,-0.135595828,0.079508908,-0.870215058
17.097493,-3.645568848,-1.772644043,-4.411590576,-0.137060672,0.079997189,-0.877295136
17.098119,-3.401428223,-2.169372559,-4.518402100,-0.138403445,0.082316525,-0.878027558
17.098745,-3.225952148,-2.848388672,-4.716766357,-0.139868289,0.076090939,-0.883886933
17.099372,-3.088623047,-3.214599609,-4.602325439,-0.141455203,0.076945432,-0.884131074
17.099997,-2.585083008,-3.527404785,-4.800689697,-0.140356570,0.076090939,-0.890478730
17.100623,-2.409606934,-3.718139648,-4.701507568,-0.140600711,0.077921994,-0.894629121
17.101250,-2.012878418,-4.145385742,-4.861724854,-0.137426883,0.075846799,-0.896948457
17.101876,-1.547485352,-4.282714844,-4.899871826,-0.132910281,0.072428830,-0.899145722
17.102502,-1.280456543,-4.946472168,-5.014312744,-0.134741336,0.073771603,-0.903662324
17.103129,-1.021057129,-5.175354004,-5.044830322,-0.131689578,0.077067502,-0.905493379
17.103756,-0.380187988,-5.587341309,-5.075347900,-0.131079227,0.075602658,-0.912695527
17.104382,-0.044494629,-5.877258301,-5.151641846,-0.132666141,0.073893674,-0.912207246
17.105059,0.306457520,-6.159545898,-5.144012451,-0.130590945,0.076823361,-0.914038301
17.105684,0.657409668,-6.296875000,-5.082977295,-0.129858524,0.076213010,-0.913427949
17.106313,1.244873047,-6.525756836,-5.113494873,-0.127905399,0.077189572,-0.914038301
17.106961,1.550048828,-6.701232910,-5.006683350,-0.129126102,0.076579221,-0.920385957
17.107679,1.946777344,-6.991149902,-5.067718506,-0.129004031,0.079508908,-0.917334199
17.108415,2.419799805,-7.212402344,-5.113494873,-0.130590945,0.079997189,-0.915625215
17.109053,2.763122559,-7.128479004,-5.220306396,-0.131445438,0.078898557,-0.915869355
17.109678,3.114074707,-7.250549316,-5.128753662,-0.133642703,0.080607541,-0.910254121
17.110304,3.548950195,-7.838012695,-5.342376709,-0.133764774,0.082194455,-0.910986543
17.110929,3.716796875,-7.998229980,-5.243194580,-0.133398563,0.083048947,-0.909033418
17.111554,4.090637207,-8.196594238,-5.395782471,-0.134741336,0.085612424,-0.906347871
17.112179,4.243225098,-8.402587891,-5.494964600,-0.137304813,0.086588986,-0.903662324
17.112806,4.433959961,-8.654357910,-5.350006104,-0.138647586,0.091227658,-0.899267793
17.126167,-2.279907227,-13.369323730,-6.189239502,-0.120214969,0.099650510,-0.849951386
17.126902,-2.752929688,-13.422729492,-6.227386475,-0.120825320,0.097453244,-0.845556855
17.127527,-3.592163086,-13.643981934,-6.112945557,-0.117895633,0.099528439,-0.846411347
17.128153,-4.133850098,-13.911010742,-6.257904053,-0.118383914,0.097453244,-0.846899629
17.128779,-4.446655273,-14.284851074,-5.975616455,-0.118017703,0.095744260,-0.846411347
17.129405,-4.728942871,-14.162780762,-6.105316162,-0.121435672,0.095378049,-0.847998261
17.130032,-5.217224121,-14.376403809,-6.227386475,-0.117163211,0.091838010,-0.845678926
17.130657,-5.911499023,-14.475585938,-6.166351318,-0.120581180,0.094157346,-0.844824433
17.131284,-5.919128418,-14.490844727,-6.112945557,-0.118017703,0.092326291,-0.846533418
17.131909,-6.567626953,-14.551879883,-6.074798584,-0.117163211,0.092448361,-0.848486543
17.132535,-6.659179688,-14.681579590,-6.250274658,-0.116674930,0.094523557,-0.843115449
17.133160,-7.277160645,-14.658691406,-6.204498291,-0.119848758,0.090129025,-0.841772676
17.133787,-7.147460938,-14.895202637,-6.242645264,-0.122168094,0.088175900,-0.842138886
17.134413,-7.574707031,-14.673950195,-6.181610107,-0.119238406,0.087809689,-0.840307832
17.135039,-7.826477051,-14.727355957,-6.402862549,-0.119482547,0.085246213,-0.839087129
17.135665,-8.040100098,-14.780761719,-6.280792236,-0.118505985,0.086588986,-0.839819551
17.136290,-8.024841309,-14.551879883,-6.387603760,-0.122900516,0.083171017,-0.837134004
17.136915,-8.314758301,-14.597656250,-6.387603760,-0.123510867,0.083293088,-0.834692597
17.137540,-8.299499512,-14.536621094,-6.235015869,-0.119970828,0.083048947,-0.833227754
17.138167,-8.383422852,-14.361145020,-6.280792236,-0.117773563,0.081584103,-0.829687715
17.138793,-8.551269531,-14.384033203,-6.196868896,-0.119360477,0.075846799,-0.828589082
17.139419,-8.467346191,-14.422180176,-6.647003174,-0.117285281,0.075846799,-0.824316621
17.140045,-8.536010742,-14.155151367,-6.265533447,-0.115332156,0.076457150,-0.820898652
17.140670,-8.711486816,-14.025451660,-6.341827393,-0.115088016,0.070719846,-0.814917207
17.142351,-8.879333496,-13.956787109,-6.471527100,-0.114965945,0.067179807,-0.804663301
17.142978,-8.879333496,-13.956787109,-6.471527100,-0.114965945,0.067179807,-0.804663301
17.143605,-8.871704102,-14.147521973,-6.425750732,-0.107885867,0.061686646,-0.798559785
17.144230,-8.879333496,-13.933898926,-6.463897705,-0.105810672,0.060832154,-0.795874238
17.144856,-8.490234375,-13.720275879,-6.616485596,-0.099585086,0.055338990,-0.790747285
17.145483,-8.703857422,-13.727905273,-6.517303467,-0.093603641,0.054850709,-0.787939668
17.146108,-8.413940430,-13.270141602,-6.715667725,-0.089697391,0.055094849,-0.780371308
17.146733,-8.139282227,-12.865783691,-6.616485596,-0.085302860,0.053263795,-0.778784394
17.147360,-8.017211914,-12.568237305,-6.547821045,-0.080664188,0.050334107,-0.774145722
17.147985,-7.712036133,-12.308837891,-6.578338623,-0.078711063,0.048503052,-0.768042207
17.148612,-7.338195801,-11.683227539,-6.402862549,-0.075415164,0.046916138,-0.766577363
17.149238,-7.239013672,-11.317016602,-6.341827393,-0.069555789,0.046305787,-0.761450410
17.149863,-7.086425781,-10.615112305,-6.349456787,-0.069677860,0.044108521,-0.756445527
17.150489,-6.926208496,-9.936096191,-6.250274658,-0.068701297,0.041056763,-0.753882051
17.151114,-6.621032715,-9.447814941,-6.044281006,-0.066137820,0.040934693,-0.749975801
17.151739,-6.529479980,-8.494140625,-6.029022217,-0.067846805,0.038249146,-0.743750215
17.152365,-6.231933594,-7.990600586,-5.708587646,-0.069311649,0.039347779,-0.740820527
17.152990,-6.094604492,-7.471801758,-5.700958252,-0.073462039,0.037516724,-0.738257051
17.153615,-5.964904785,-6.602050781,-5.685699463,-0.077246219,0.036784302,-0.733618379
17.154241,-6.079345703,-6.014587402,-5.388153076,-0.084326297,0.032023560,-0.732519746
17.154867,-5.819946289,-5.419494629,-5.380523682,-0.085913211,0.031657349,-0.729590058
17.155493,-5.629211426,-4.786254883,-5.235565186,-0.088964969,0.027384888,-0.730688691
17.156119,-5.659729004,-4.336120605,-5.159271240,-0.095068485,0.026530396,-0.728247285
17.168656,-1.936584473,-0.986816406,-3.335845947,-0.089941531,0.007609497,-0.848852754
17.169341,-1.059204102,-1.024963379,-3.061187744,-0.094213992,0.007853637,-0.857397676
17.169966,-0.723510742,-0.872375488,-2.771270752,-0.092505008,0.008586059,-0.867407441
17.170591,0.123352051,-1.139404297,-2.885711670,-0.092749149,0.007853637,-0.875097871
17.171217,1.176208496,-0.941040039,-2.885711670,-0.094091922,0.009318481,-0.882177949
17.171844,2.007812500,-0.994445801,-2.603424072,-0.093725711,0.012858520,-0.890600801
17.172470,3.175109863,-0.948669434,-2.672088623,-0.098120242,0.012004028,-0.899267793
17.173095,4.350036621,-0.941040039,-2.595794678,-0.097876102,0.015544067,-0.901220918
17.173721,5.250305176,-0.948669434,-2.702606201,-0.099218875,0.014445434,-0.907934785
17.174346,6.593078613,-0.818969727,-2.443206787,-0.096289188,0.019450318,-0.914404511
17.174971,7.508605957,-1.124145508,-2.565277100,-0.095678836,0.020915162,-0.922094941
17.175597,8.759826660,-1.063110352,-2.603424072,-0.095190555,0.020915162,-0.925634980
17.176222,10.110229492,-0.902893066,-2.725494385,-0.093359500,0.023722779,-0.929907441
17.176849,11.338562012,-1.276733398,-2.687347412,-0.092627078,0.030314576,-0.929175019
17.177474,12.711853027,-1.208068848,-2.878082275,-0.087500125,0.033976685,-0.934179902
17.178101,13.619750977,-0.788452148,-2.763641357,-0.086645633,0.032755982,-0.938818574
17.178726,14.848083496,-1.070739746,-2.778900146,-0.087378055,0.039591920,-0.939917207
17.179353,15.870422363,-0.941040039,-2.786529541,-0.085547000,0.044230592,-0.940405488
17.179980,16.801208496,-0.895263672,-2.878082275,-0.081030399,0.044963013,-0.941504121
17.180607,17.930358887,-0.887634277,-2.977264404,-0.080297977,0.050944459,-0.945654511
17.181233,18.777221680,-1.261474609,-2.954376221,-0.077612430,0.054850709,-0.943091035
17.181858,19.868225098,-0.826599121,-2.916229248,-0.076513797,0.058879029,-0.942724824
17.182484,20.676940918,-0.864746094,-3.045928955,-0.076757938,0.061320435,-0.946997285
17.183109,21.119445801,-0.994445801,-3.106964111,-0.075659305,0.064738400,-0.943823457
17.183735,21.607727051,-1.139404297,-3.122222900,-0.072729617,0.067301877,-0.942846894
17.184360,22.271484375,-1.078369141,-3.267181396,-0.073462039,0.072184689,-0.941626191
17.184985,22.775024414,-1.215698242,-3.419769287,-0.068945438,0.074626096,-0.937964082
17.185611,23.042053223,-1.368286133,-3.549468994,-0.066992313,0.080607541,-0.936499238
17.186237,23.400634766,-1.543762207,-3.641021729,-0.066259891,0.079753049,-0.933203340
17.186864,23.629516602,-1.589538574,-3.641021729,-0.060522582,0.086466916,-0.931372285
17.187490,23.667663574,-1.665832520,-3.770721436,-0.059790161,0.092448361,-0.930639863
17.188116,23.698181152,-1.909973145,-3.801239014,-0.056005981,0.093302853,-0.926611543
17.188741,23.660034180,-1.871826172,-3.801239014,-0.055273559,0.099284299,-0.922827363
17.189367,23.637145996,-2.115966797,-3.946197510,-0.050146606,0.102091916,-0.922339082
17.189993,23.331970215,-2.466918945,-3.969085693,-0.046240356,0.103922971,-0.922461152
17.190618,22.820800781,-2.337219238,-4.152191162,-0.048071411,0.107951291,-0.918921113
17.191245,22.263854980,-2.581359863,-3.930938721,-0.042334106,0.111857541,-0.918676972
17.191871,21.752685547,-2.917053223,-4.281890869,-0.041113403,0.111857541,-0.919043183
17.192496,21.142333984,-2.733947754,-4.205596924,-0.042700317,0.113322385,-0.915136933
17.193213,20.394653320,-3.077270508,-4.175079346,-0.040136840,0.118693478,-0.918799043
17.193838,19.631713867,-3.153564453,-4.320037842,-0.038916137,0.120280392,-0.916845918
17.194464,18.960327148,-3.222229004,-4.304779053,-0.036840942,0.121012814,-0.917334199
17.195089,18.227905273,-3.176452637,-4.526031494,-0.034887817,0.125041142,-0.918799043
17.195715,17.182678223,-3.519775391,-4.320037842,-0.037329223,0.123454221,-0.919287324
17.196342,16.328186035,-3.405334473,-4.571807861,-0.037329223,0.121989377,-0.918921113
17.196969,15.626281738,-3.519775391,-4.548919678,-0.035254028,0.127726689,-0.924048066
17.197594,14.726013184,-3.580810547,-4.663360596,-0.033545043,0.126261845,-0.921118379
17.210201,-2.562194824,-0.292541504,-5.853546143,0.018456910,0.094767697,-0.928442597
17.210924,-3.195434570,-0.048400879,-5.967987061,0.016625855,0.091227658,-0.929663301
17.211550,-4.416137695,0.355957031,-5.983245850,0.020165894,0.088175900,-0.923803926
17.212177,-5.118041992,0.867126465,-6.067169189,0.021508668,0.087443478,-0.926977754
17.212802,-5.827575684,1.164672852,-5.838287354,0.025048707,0.084880002,-0.921484590
17.213429,-6.811767578,1.302001953,-5.975616455,0.026635621,0.079142697,-0.919775605
17.214054,-7.483154297,1.797912598,-5.815399170,0.027978394,0.078898557,-0.918188691
17.214679,-8.330017090,2.354858398,-5.739105225,0.030663941,0.073161252,-0.917456269
17.215305,-8.909851074,2.415893555,-5.800140381,0.026879761,0.069255002,-0.915136933
17.215932,-9.733825684,2.843139648,-5.647552490,0.028954957,0.063273557,-0.914526582
17.216559,-10.519653320,3.300903320,-5.700958252,0.028466675,0.061808717,-0.911352754
17.217185,-11.137634277,3.705261230,-5.533111572,0.028710816,0.055583131,-0.910986543
17.217810,-12.060791016,4.201171875,-5.639923096,0.028222535,0.053141724,-0.908423066
17.218436,-12.640625000,4.491088867,-5.395782471,0.026513550,0.050822388,-0.907446504
17.219061,-13.388305664,4.857299805,-5.281341553,0.027001832,0.048991334,-0.909399629
17.219688,-13.929992676,5.124328613,-5.441558838,0.027001832,0.044840943,-0.909521699
17.220313,-14.418273926,5.688903809,-5.113494873,0.024560425,0.038859498,-0.911352754
17.220940,-15.844970703,6.253479004,-5.342376709,0.021752808,0.032755982,-0.909887910
17.221567,-16.348510742,6.581542969,-4.724395752,0.019799683,0.027995240,-0.914038301
17.222194,-16.844421387,6.848571777,-4.953277588,0.017968629,0.024211060,-0.916601777
17.222819,-17.378479004,7.344482422,-4.983795166,0.017602418,0.022990357,-0.914038301
17.223446,-18.110900879,7.573364258,-4.693878174,0.016992066,0.019694459,-0.918188691
17.224071,-18.553405762,7.947204590,-4.838836670,0.017358277,0.011881958,-0.920385957
17.224697,-18.866210938,8.229492188,-4.823577881,0.019677613,0.008463989,-0.923071504
17.225355,-19.316345215,8.359191895,-4.609954834,0.019311402,0.002848755,-0.925879121
17.225980,-19.385009766,8.366821289,-4.335296631,0.020410035,0.000285278,-0.928442597
17.226606,-19.781738281,8.832214355,-4.609954834,0.020654175,-0.003254761,-0.931982636
17.227231,-19.919067383,9.045837402,-4.243743896,0.024560425,-0.010334839,-0.937475801
17.227857,-20.033508301,9.236572266,-4.411590576,0.026757691,-0.011067261,-0.940649629
17.228483,-19.926696777,9.679077148,-4.045379639,0.032983277,-0.014241089,-0.944922090
17.229109,-20.231872559,10.045288086,-3.908050537,0.034692261,-0.018879760,-0.945410371
17.229735,-20.071655273,10.335205078,-3.679168701,0.038110230,-0.023640502,-0.951269746
17.230361,-20.071655273,10.854003906,-3.465545654,0.040063355,-0.022175658,-0.954809785
17.230987,-20.002990723,11.395690918,-3.564727783,0.045312379,-0.025349487,-0.958960176
17.231613,-19.743591309,11.464355469,-3.274810791,0.047265504,-0.024372924,-0.964087129
17.232239,-19.796997070,11.922119141,-3.015411377,0.045678589,-0.026814330,-0.967749238
17.232866,-19.713073730,12.112854004,-2.939117432,0.045800660,-0.030232299,-0.972021699
17.233492,-19.758850098,12.479064941,-2.611053467,0.048242066,-0.033650268,-0.975317597
17.234118,-19.591003418,12.601135254,-2.580535889,0.047631714,-0.035603393,-0.981665254
17.234744,-19.522338867,12.898681641,-2.450836182,0.043115113,-0.036213744,-0.986914277
17.235369,-19.507080078,12.959716797,-2.191436768,0.042504761,-0.039875854,-0.990576386
17.235996,-19.285827637,12.990234375,-1.985443115,0.036645386,-0.041096557,-0.996679902
17.236622,-19.041687012,13.173339844,-1.588714600,0.038476441,-0.037678588,-1.000097871
17.237247,-18.820434570,13.409851074,-1.527679443,0.036645386,-0.043537963,-1.005346894
17.237872,-18.652587891,13.142822266,-1.245391846,0.034936402,-0.044514526,-1.009619355
17.238497,-18.332153320,13.394592285,-1.207244873,0.031884644,-0.042561401,-1.015600801
17.239124,-18.141418457,13.364074707,-1.047027588,0.026025269,-0.045002807,-1.021582246
17.239750,-17.927795410,13.417480469,-0.856292725,0.024194214,-0.044270385,-1.027197480
17.253478,-12.106567383,13.753173828,2.187835693,-0.044165161,0.006999145,-1.088965058
17.254208,-12.076049805,13.852355957,2.164947510,-0.045752075,0.011149536,-1.087011933
17.254833,-11.976867676,13.562438965,2.187835693,-0.045019653,0.014567505,-1.087134004
17.255460,-12.022644043,13.730285645,2.309906006,-0.041601684,0.019206177,-1.089453340
17.256086,-12.022644043,13.707397461,2.302276611,-0.043921020,0.024455201,-1.090551972
17.256713,-11.961608887,13.341186523,2.401458740,-0.040991332,0.027262818,-1.090551972
17.257339,-12.098937988,13.425109863,2.584564209,-0.040503051,0.031046998,-1.089331269
17.257965,-12.060791016,13.295410156,2.813446045,-0.040258911,0.038005006,-1.089453340
17.258590,-12.449890137,13.036010742,2.607452393,-0.037085082,0.038981568,-1.092383027
17.259217,-12.343078613,12.974975586,2.630340576,-0.035254028,0.042765748,-1.092383027
17.259842,-12.724548340,12.967346191,2.714263916,-0.035742309,0.045329224,-1.093725801
17.260468,-12.823730469,12.631652832,2.630340576,-0.028906371,0.047282349,-1.091528535
17.261094,-12.915283203,12.555358887,2.805816650,-0.024633911,0.048869263,-1.093725801
17.261721,-12.869506836,12.372253418,2.988922119,-0.023413207,0.048747193,-1.095434785
17.262347,-12.922912598,12.387512207,2.737152100,-0.020605590,0.048747193,-1.098242402
17.262972,-12.587219238,12.227294922,2.813446045,-0.015234496,0.055705201,-1.100317597
17.263597,-12.587219238,11.922119141,2.920257568,-0.011694457,0.053507935,-1.099829316
17.264223,-12.373596191,11.883972168,2.401458740,-0.006445434,0.053752076,-1.098364472
17.264849,-12.152343750,11.700866699,2.615081787,-0.005224731,0.055827271,-1.099829316
17.265475,-12.129455566,11.380432129,2.523529053,-0.000463989,0.055338990,-1.100195527
17.266102,-11.786132812,11.136291504,2.439605713,0.008203004,0.058634888,-1.100805879
17.266742,-11.496215820,11.182067871,2.447235107,0.014672730,0.060465943,-1.103735566
17.267367,-11.122375488,10.716674805,2.065765381,0.016015504,0.063517697,-1.103735566
17.267992,-10.740905762,10.670898438,2.081024170,0.025781129,0.064860471,-1.106176972
17.268617,-10.306030273,10.556457520,1.981842041,0.028344605,0.072428830,-1.106665254
17.269242,-9.749084473,10.319946289,1.882659912,0.039330933,0.075724728,-1.108862519
17.269868,-9.138732910,10.297058105,1.478302002,0.045312379,0.076090939,-1.111548066
17.270495,-8.818298340,10.289428711,1.562225342,0.047021363,0.075846799,-1.117773652
17.271120,-8.162170410,10.335205078,1.226531982,0.053735230,0.078410275,-1.117285371
17.271746,-7.292419434,10.174987793,1.173126221,0.057641480,0.079264767,-1.123022676
17.272373,-7.048278809,10.113952637,0.883209229,0.063622922,0.082560666,-1.122412324
17.272999,-6.155639648,10.098693848,0.867950439,0.068994015,0.081950314,-1.125097871
17.273625,-5.354553223,10.159729004,0.631439209,0.071557492,0.083781369,-1.127417207
17.274250,-4.583984375,10.083435059,0.341522217,0.079247922,0.085490353,-1.130468965
17.274875,-3.813415527,10.304687500,0.043975830,0.081078976,0.089274533,-1.133642793
17.275501,-2.646118164,10.113952637,-0.322235107,0.089623898,0.084025510,-1.136572480
17.276128,-1.898437500,10.388610840,-0.459564209,0.096459836,0.088053830,-1.138037324
17.276754,-0.670104980,10.594604492,-0.772369385,0.107934445,0.087565549,-1.142798066
17.277380,0.085205078,10.281799316,-1.123321533,0.109521359,0.088542111,-1.146948457
17.278007,1.038879395,10.701416016,-1.359832764,0.119042844,0.092204221,-1.145483613
17.278632,1.878112793,10.571716309,-1.764190674,0.126000851,0.094401486,-1.149389863
17.279258,3.053039551,10.922668457,-2.092254639,0.134789914,0.095255978,-1.152319551
17.279884,3.762573242,11.151550293,-2.344024658,0.141869992,0.099406369,-1.154516816
17.280510,4.479736328,11.265991211,-2.542388916,0.146874875,0.104655392,-1.152075410
17.281136,5.219787598,11.296508789,-3.007781982,0.156030148,0.103678830,-1.155737519
17.281762,5.616516113,11.441467285,-3.114593506,0.165673703,0.112101682,-1.157568574
17.282389,6.310791016,11.594055176,-3.335845947,0.169457883,0.115153439,-1.159155488
17.301778,-14.990478516,4.498718262,-9.477508545,0.154321164,0.063639767,-1.249121308
17.302554,-16.066223145,4.246948242,-9.546173096,0.151391476,0.057658326,-1.248510957
17.303181,-17.058044434,4.040954590,-9.599578857,0.145287961,0.052409302,-1.247656465
17.303806,-18.133789062,3.903625488,-9.538543701,0.135888547,0.046183717,-1.246679902
17.304461,-18.850952148,3.484008789,-9.637725830,0.132226437,0.040568482,-1.247534394
17.305086,-19.713073730,3.316162109,-9.630096436,0.121972531,0.034587037,-1.246679902
17.305712,-20.674377441,3.155944824,-9.660614014,0.111474484,0.027873170,-1.247656465
17.306338,-21.612792969,2.759216309,-9.637725830,0.107690305,0.022380006,-1.242407441
17.306964,-22.307067871,3.026245117,-9.599578857,0.101464719,0.016154420,-1.242285371
17.307591,-23.222595215,2.721069336,-9.675872803,0.090966672,0.006388794,-1.242895722
17.308216,-24.000793457,2.553222656,-9.637725830,0.087182492,-0.001423706,-1.241430879
17.308843,-24.664550781,2.759216309,-9.561431885,0.079736203,-0.003743042,-1.233252168
17.309468,-25.244384766,2.187011719,-9.729278564,0.078393430,-0.012287964,-1.233740449
17.310152,-26.594787598,2.003906250,-9.454620361,0.063378781,-0.026570190,-1.223852754
17.310778,-27.098327637,2.087829590,-9.149444580,0.060082886,-0.037922729,-1.224096894
17.311403,-27.968078613,1.691101074,-9.317291260,0.052880738,-0.041828979,-1.216162324
17.312032,-28.746276855,1.561401367,-9.019744873,0.048974488,-0.049885619,-1.212011933
17.312657,-29.356628418,1.515625000,-8.653533936,0.044579957,-0.056843627,-1.208593965
17.313282,-30.111938477,1.347778320,-8.577239990,0.040307496,-0.066120975,-1.204565644
17.313907,-30.691772461,1.157043457,-8.226287842,0.031274293,-0.072102420,-1.202246308
17.314532,-31.477600098,1.034973145,-7.799041748,0.023705933,-0.081990115,-1.195776582
17.315158,-32.255798340,0.615356445,-7.753265381,0.018334839,-0.087727420,-1.191504121
17.315784,-33.079772949,0.409362793,-7.470977783,0.015405152,-0.094685428,-1.190527558
17.316409,-33.239990234,0.188110352,-7.287872314,0.013940308,-0.102375858,-1.183081269
17.317036,-33.522277832,-0.323059082,-7.181060791,0.011010621,-0.109700076,-1.181982636
17.317661,-33.781677246,-0.666381836,-6.975067139,0.006127808,-0.111286990,-1.176733613
17.318288,-33.789306641,-0.941040039,-6.715667725,0.004662964,-0.117146365,-1.173315644
17.318914,-34.277587891,-1.314880371,-6.303680420,0.000634644,-0.125813350,-1.172461152
17.319540,-34.369140625,-1.574279785,-6.341827393,-0.002783325,-0.131306514,-1.166601777
17.320165,-34.559875488,-2.268554688,-6.059539795,-0.002295043,-0.134358272,-1.168676972
17.320791,-34.758239746,-2.711059570,-5.792510986,-0.007299926,-0.145100459,-1.166235566
17.321416,-34.826904297,-3.206970215,-5.365264893,-0.004370239,-0.148030147,-1.163183808
17.322041,-34.674316406,-3.473999023,-5.266082764,-0.002295043,-0.155598506,-1.160254121
17.322667,-34.620910645,-3.954650879,-5.060089111,-0.003637817,-0.165974483,-1.162085176
17.323292,-34.277587891,-4.366638184,-4.617584229,-0.003149536,-0.169026241,-1.162695527
17.323917,-33.819824219,-4.816772461,-4.388702393,-0.003515746,-0.173420772,-1.159033418
17.324543,-33.507019043,-5.282165527,-3.877532959,0.001733277,-0.177693233,-1.163061738
17.325169,-32.797485352,-5.846740723,-3.755462646,0.002709839,-0.184529170,-1.159399629
17.325795,-31.996398926,-6.151916504,-3.267181396,0.005883668,-0.189167842,-1.160009980
17.326421,-31.050354004,-6.373168945,-2.878082275,0.004907105,-0.199543819,-1.160864472
17.327046,-30.020385742,-6.670715332,-2.603424072,0.007836793,-0.204060420,-1.159277558
17.327671,-28.700500488,-6.907226562,-2.351654053,0.012353394,-0.208699092,-1.156347871
17.328296,-27.624755859,-7.029296875,-2.115142822,0.010400269,-0.214070186,-1.157446504
17.328921,-26.175170898,-7.105590820,-1.771820068,0.012109254,-0.216755733,-1.153662324
17.329546,-24.603515625,-7.586242676,-1.390350342,0.013452027,-0.218952999,-1.147802949
17.330172,-22.947937012,-7.693054199,-1.123321533,0.015283082,-0.220661983,-1.150122285
17.330798,-21.322875977,-7.792236328,-0.696075439,0.019677613,-0.222493038,-1.144507051
17.343386,15.275329590,-2.611877441,4.049407959,0.043969605,-0.153401241,-0.989599824
17.344104,16.320556641,-2.024414062,4.011260986,0.041894410,-0.145832881,-0.983252168
17.344729,17.251342773,-1.246215820,4.301177979,0.041528199,-0.140095577,-0.976782441
17.345355,18.266052246,-0.834228516,4.201995850,0.041528199,-0.138508663,-0.966894746
17.345980,18.639892578,-0.147583008,4.552947998,0.042260621,-0.130452022,-0.956762910
17.346606,19.715637207,0.340698242,4.545318604,0.046899293,-0.123494022,-0.948462129
17.347232,20.203918457,1.179931641,4.964935303,0.046777222,-0.116780154,-0.940893769
17.347859,20.608276367,1.691101074,5.201446533,0.047753785,-0.112507693,-0.934179902
17.348484,20.875305176,2.095458984,5.018341064,0.051904175,-0.107014529,-0.926489472
17.349111,21.012634277,2.843139648,5.392181396,0.049462769,-0.101277225,-0.919409394
17.349737,20.860046387,3.415344238,5.476104736,0.052514527,-0.094929568,-0.914770722
17.350362,20.890563965,3.773925781,5.781280518,0.055322144,-0.087971561,-0.908423066
17.350987,20.837158203,4.483459473,5.979644775,0.056909058,-0.084309451,-0.906714082
17.351612,20.425170898,5.208251953,6.101715088,0.058740113,-0.076130740,-0.906836152
17.352238,19.952148438,5.971191406,6.132232666,0.057885621,-0.070393436,-0.901342988
17.354049,18.571228027,7.580993652,6.872283936,0.052514527,-0.056843627,-0.893896699
17.354676,17.793029785,8.412597656,6.712066650,0.059838746,-0.048420776,-0.894262910
17.355303,17.228454590,9.007690430,6.956207275,0.058495972,-0.046101440,-0.896093965
17.355928,16.381591797,9.450195312,7.070648193,0.056054566,-0.043415893,-0.898169160
17.356554,15.794128418,10.190246582,7.055389404,0.057153199,-0.040608276,-0.897070527
17.357180,15.061706543,10.464904785,7.207977295,0.060082886,-0.037312377,-0.901342988
17.357805,14.085144043,11.372802734,7.269012451,0.058495972,-0.035603393,-0.903906465
17.358431,13.276428223,12.158630371,7.505523682,0.059106324,-0.032673705,-0.910498261
17.359056,12.544006348,12.517211914,7.551300049,0.058740113,-0.032795776,-0.918066621
17.359681,12.124389648,13.036010742,7.619964600,0.059472535,-0.030964721,-0.918921113
17.360307,11.781066895,13.753173828,7.757293701,0.058495972,-0.030110229,-0.928808808
17.360934,10.979980469,14.394042969,7.680999756,0.058740113,-0.031453002,-0.930884004
17.361560,10.644287109,14.928100586,7.688629150,0.060204957,-0.027790893,-0.940283418
17.362186,9.934753418,15.675781250,7.886993408,0.058007691,-0.025471557,-0.945654511
17.362811,9.621948242,16.041992188,8.123504639,0.056420777,-0.024739135,-0.952368379
17.363436,9.179443359,16.553161621,8.215057373,0.056298707,-0.026936401,-0.959204316
17.364063,9.057373047,17.300842285,8.207427979,0.054101441,-0.024250854,-0.962622285
17.364688,8.851379395,17.880676270,8.360015869,0.054955933,-0.023152221,-0.972143769
17.365313,8.607238770,18.018005371,8.222686768,0.053491089,-0.022175658,-0.978491426
17.365939,8.462280273,18.941162109,8.184539795,0.049828980,-0.020466674,-0.983252168
17.366565,8.698791504,19.475219727,8.230316162,0.051293824,-0.019856323,-0.990942597
17.367190,8.729309082,20.352600098,8.291351318,0.058862183,-0.019123901,-0.997290254
17.367815,9.080261230,21.306274414,8.497344971,0.057031129,-0.017659057,-1.000219941
17.368440,8.996337891,21.985290527,8.161651611,0.054467652,-0.008869995,-1.004370332
17.369066,9.141296387,22.679565430,8.230316162,0.049951050,-0.002766480,-1.014624238
17.369691,8.920043945,23.274658203,8.047210693,0.048119996,0.001750122,-1.020849824
17.370316,8.950561523,23.778198242,7.902252197,0.047875855,0.000163208,-1.024878144
17.370942,8.668273926,24.586914062,8.138763428,0.041039918,-0.003254761,-1.026465058
17.371569,8.599609375,24.914978027,8.344757080,0.041894410,-0.000080933,-1.038061738
17.372194,8.668273926,25.677917480,8.154022217,0.035912964,0.001628052,-1.041357636
17.372820,8.324951172,25.937316895,8.184539795,0.030419800,-0.000935425,-1.048437715
17.373447,7.798522949,26.173828125,8.085357666,0.023583863,0.002238403,-1.058325410
17.374072,7.729858398,26.257751465,8.314239502,0.022607300,0.001872192,-1.061987519
17.386713,2.152770996,23.747680664,8.123504639,0.009545777,-0.005452027,-1.141089082
17.387489,1.626342773,23.511169434,8.192169189,0.011132691,-0.004353394,-1.142675996
17.388114,1.260131836,23.480651855,8.199798584,0.010156129,-0.006550659,-1.143896699
17.388739,0.909179688,23.144958496,8.146392822,0.009057496,-0.007405152,-1.143042207
17.389365,0.672668457,22.832153320,8.390533447,0.011010621,-0.013142456,-1.143286347
17.389990,0.420898438,22.809265137,8.497344971,0.011376832,-0.011189331,-1.144140840
17.390615,-0.021606445,22.984741211,8.222686768,0.011620972,-0.008259644,-1.145971894
17.391241,-0.258117676,22.732971191,8.291351318,0.015527222,-0.010212769,-1.143408418
17.391866,-0.761657715,22.603271484,8.398162842,0.012963746,-0.008625855,-1.146093965
17.392493,-1.158386230,22.702453613,8.253204346,0.014062379,-0.008747925,-1.143652558
17.393118,-1.402526855,22.725341797,8.596527100,0.017480347,-0.008137573,-1.145849824
17.393744,-1.867919922,22.496459961,8.413421631,0.021142457,-0.008992066,-1.143164277
17.394371,-2.165466309,22.778747559,8.421051025,0.025659058,-0.011311402,-1.141577363
17.395075,-2.379089355,22.816894531,8.535491943,0.024194214,-0.013508667,-1.140234590
17.395702,-2.661376953,22.992370605,8.474456787,0.025048707,-0.014973511,-1.138037324
17.396328,-3.157287598,23.274658203,8.718597412,0.028832886,-0.016560424,-1.136694551
17.396972,-3.950744629,23.251770020,8.810150146,0.029565308,-0.020832885,-1.132300019
17.397598,-4.019409180,23.648498535,8.810150146,0.031640504,-0.024128783,-1.128759980
17.398223,-4.568725586,23.602722168,8.993255615,0.031762574,-0.020588744,-1.125708222
17.398848,-5.201965332,23.854492188,9.183990479,0.031762574,-0.022786010,-1.122168183
17.399488,-5.888610840,24.045227051,9.275543213,0.030419800,-0.025837768,-1.116064668
17.400113,-6.552368164,24.144409180,9.435760498,0.031884644,-0.022053588,-1.113745332
17.400738,-6.895690918,24.014709473,9.351837158,0.028954957,-0.028035033,-1.107519746
17.401364,-7.727294922,24.220703125,9.618865967,0.030419800,-0.027302612,-1.105322480
17.401990,-8.696228027,24.472473145,9.557830811,0.030908082,-0.024861205,-1.104101777
17.402615,-9.382873535,24.373291016,9.740936279,0.024560425,-0.029011596,-1.099218965
17.403240,-10.290771484,24.289367676,9.824859619,0.026635621,-0.028279174,-1.099218965
17.403865,-10.931640625,24.235961914,9.893524170,0.026391480,-0.029011596,-1.096167207
17.404492,-11.870056152,24.060485840,10.130035400,0.029321168,-0.030354369,-1.098730683
17.405119,-12.640625000,24.083374023,10.236846924,0.027490113,-0.028889526,-1.095556855
17.405746,-13.312011719,24.190185547,10.313140869,0.029321168,-0.033650268,-1.094946504
17.406373,-14.029174805,23.961303711,10.450469971,0.024926636,-0.031941283,-1.095556855
17.407000,-15.097290039,23.602722168,10.725128174,0.025903199,-0.031941283,-1.100073457
17.407626,-15.730529785,23.419616699,10.938751221,0.026513550,-0.036946166,-1.102636933
17.408251,-16.546875000,23.335693359,10.999786377,0.024438355,-0.039997924,-1.103003144
17.408878,-17.111450195,23.144958496,10.946380615,0.026269410,-0.044636596,-1.107885957
17.409505,-17.515808105,23.000000000,11.213409424,0.021874879,-0.046345580,-1.111792207
17.410131,-17.996459961,22.992370605,11.449920654,0.026757691,-0.047810424,-1.116186738
17.410757,-18.347412109,22.710083008,11.312591553,0.024682496,-0.052937377,-1.118139863
17.411382,-18.652587891,22.565124512,11.564361572,0.021874879,-0.052449096,-1.120703340
17.412007,-19.148498535,22.305725098,11.640655518,0.021142457,-0.050862182,-1.132666230
17.412632,-19.262939453,22.214172363,11.762725830,0.020532105,-0.056721557,-1.135107636
17.413258,-19.346862793,21.924255371,11.938201904,0.019921754,-0.056355346,-1.141455293
17.413883,-19.369750977,21.687744141,11.983978271,0.021020386,-0.057453979,-1.143408418
17.414509,-19.423156738,21.672485352,12.273895264,0.025170777,-0.061604369,-1.146826386
17.415135,-19.056945801,21.519897461,12.373077393,0.021386597,-0.066120975,-1.151098847
17.415762,-18.980651855,21.382568359,12.281524658,0.022851441,-0.062336791,-1.152075410
17.428361,-3.721862793,16.782043457,13.944732666,0.019921754,-0.058308471,-1.160132051
17.429107,-3.019958496,16.835449219,14.097320557,0.019799683,-0.055867065,-1.159887910
17.429733,-2.241760254,16.797302246,14.036285400,0.016625855,-0.054280151,-1.156469941
17.430359,-1.722961426,16.667602539,14.089691162,0.015283082,-0.055256713,-1.151831269
17.430984,-1.158386230,16.530273438,14.188873291,0.015649293,-0.050495971,-1.147192597
17.431627,-0.563293457,16.560791016,14.425384521,0.013574097,-0.049885619,-1.144262910
17.432252,0.092834473,16.431091309,14.379608154,0.016625855,-0.047078002,-1.140478730
17.432877,0.390380859,16.247985840,14.463531494,0.016381714,-0.044270385,-1.129736543
17.433502,0.756591797,16.225097656,14.646636963,0.012109254,-0.041096557,-1.127783418
17.434128,1.244873047,16.156433105,14.555084229,0.015038941,-0.036213744,-1.123755097
17.434753,1.466125488,15.996215820,14.829742432,0.016137574,-0.034016479,-1.119360566
17.435380,1.855224609,15.835998535,14.776336670,0.014306519,-0.027912963,-1.111059785
17.436005,1.962036133,15.889404297,14.837371826,0.016992066,-0.023640502,-1.109594941
17.436630,2.007812500,15.416381836,14.608489990,0.019921754,-0.015217652,-1.100805879
17.437255,2.076477051,14.958618164,14.806854248,0.018578980,-0.012898316,-1.100927949
17.437880,1.794189453,15.202758789,14.837371826,0.018456910,-0.011189331,-1.096777558
17.438505,1.885742188,15.027282715,15.020477295,0.023583863,-0.007527222,-1.098364472
17.439131,1.420349121,14.867065430,15.089141846,0.021996949,-0.001179566,-1.093481660
17.439757,1.275390625,14.615295410,15.256988525,0.022973511,0.000529419,-1.089331269
17.440383,0.802368164,14.706848145,15.386688232,0.024438355,0.003703247,-1.088354707
17.441010,0.573486328,14.676330566,15.165435791,0.021996949,0.010295044,-1.083960176
17.441637,0.199645996,14.386413574,15.180694580,0.026147339,0.010661255,-1.081152558
17.442263,-0.143676758,14.348266602,15.432464600,0.027734254,0.011637817,-1.080175996
17.442889,-0.364929199,14.012573242,15.386688232,0.025903199,0.017253052,-1.078711152
17.443515,-0.914245605,14.142272949,15.447723389,0.026391480,0.019694459,-1.080542207
17.444140,-1.166015625,13.776062012,15.554534912,0.031274293,0.021037232,-1.079077363
17.444765,-1.814514160,13.661621094,15.585052490,0.030541871,0.022013795,-1.082739472
17.445390,-1.845031738,13.730285645,15.508758545,0.035912964,0.024211060,-1.078833222
17.446015,-2.302795410,13.768432617,15.592681885,0.037744019,0.026774537,-1.079565644
17.446640,-2.310424805,14.127014160,15.501129150,0.037744019,0.032389771,-1.077856660
17.447265,-2.890258789,14.043090820,15.256988525,0.038354371,0.036296021,-1.075659394
17.447891,-2.997070312,14.088867188,15.585052490,0.036279175,0.035075318,-1.078344941
17.448527,-3.210693359,14.195678711,15.432464600,0.037866089,0.040080201,-1.077734590
17.449154,-3.477722168,14.264343262,15.691864014,0.039330933,0.040202271,-1.078955293
17.449780,-3.676086426,14.424560547,15.470611572,0.036401246,0.042277467,-1.079687715
17.450405,-3.897338867,14.905212402,15.554534912,0.036401246,0.043376099,-1.076513886
17.451033,-4.210144043,14.981506348,15.600311279,0.034570191,0.046549927,-1.080786347
17.451658,-4.431396484,15.042541504,15.806304932,0.026635621,0.051676881,-1.080664277
17.452283,-4.751831055,15.263793945,15.653717041,0.023828004,0.052653443,-1.081640840
17.454003,-5.232482910,15.675781250,15.653717041,0.008080933,0.062174927,-1.084082246
17.454629,-5.636840820,16.041992188,15.661346436,-0.000830200,0.060588013,-1.083960176
17.455254,-6.003051758,15.881774902,15.630828857,-0.009497192,0.065104611,-1.084570527
17.455880,-6.140380859,15.965698242,15.516387939,-0.016211059,0.065714963,-1.089087129
17.456505,-6.109863281,16.026733398,15.340911865,-0.022436645,0.067301877,-1.086645722
17.457130,-6.514221191,16.255615234,15.302764893,-0.029272582,0.066569455,-1.089575410
17.457756,-6.613403320,16.034362793,15.249359131,-0.036963012,0.069255002,-1.093725801
17.458383,-6.796508789,16.179321289,15.096771240,-0.039282348,0.071940549,-1.093481660
17.459008,-7.055908203,16.133544922,15.096771240,-0.046362426,0.071330197,-1.095923066
17.471651,-7.399230957,8.710144043,12.510406494,-0.115942508,0.080973752,-1.172339082
17.472416,-7.048278809,8.252380371,12.319671631,-0.117163211,0.080973752,-1.172094941
17.473043,-6.819396973,7.512329102,12.304412842,-0.119848758,0.083048947,-1.173925996
17.473668,-6.453186035,6.970642090,12.220489502,-0.124731570,0.076945432,-1.172094941
17.474293,-6.163269043,6.642578125,12.113677979,-0.127295047,0.079142697,-1.177221894
17.474919,-5.530029297,5.955932617,12.014495850,-0.128881961,0.075724728,-1.178564668
17.475544,-4.965454102,5.353210449,11.938201904,-0.132299930,0.079875119,-1.178808808
17.476170,-4.614501953,4.964111328,11.541473389,-0.133276492,0.078654416,-1.177221894
17.476797,-3.912597656,4.674194336,11.556732178,-0.136450320,0.078044064,-1.179785371
17.477422,-3.515869141,3.941772461,11.579620361,-0.136084110,0.077799924,-1.178320527
17.478047,-2.997070312,3.522155762,11.098968506,-0.137060672,0.080729611,-1.179541230
17.478673,-2.348571777,3.155944824,10.961639404,-0.137915164,0.076823361,-1.176611543
17.479299,-1.639038086,2.461669922,10.892974854,-0.142187625,0.080241330,-1.177099824
17.479924,-0.906616211,2.064941406,10.831939697,-0.145239383,0.082438596,-1.173925996
17.480550,-0.410705566,1.981018066,10.496246338,-0.146215945,0.080607541,-1.171728730
17.481175,0.184387207,1.332519531,10.397064209,-0.146582156,0.082072385,-1.166723847
17.481801,0.474304199,0.684020996,10.313140869,-0.145727664,0.082682736,-1.161230683
17.482427,1.191467285,0.577209473,10.030853271,-0.144506961,0.083293088,-1.159765840
17.483053,1.672119141,0.203369141,9.969818115,-0.149145633,0.082560666,-1.153174043
17.483679,2.213806152,-0.345947266,9.748565674,-0.148047000,0.084513791,-1.148535371
17.484305,2.656311035,-0.597717285,9.504425049,-0.151953250,0.082682736,-1.144751191
17.484930,2.961486816,-0.811340332,9.611236572,-0.152319461,0.084391721,-1.143652558
17.485555,3.510803223,-1.543762207,9.275543213,-0.151587039,0.085368283,-1.136938691
17.486181,3.671020508,-1.711608887,9.267913818,-0.153540164,0.084635861,-1.133398652
17.486806,4.380554199,-2.108337402,8.977996826,-0.152807742,0.084391721,-1.131567597
17.487432,4.235595703,-2.779724121,8.970367432,-0.152319461,0.086100705,-1.128027558
17.488058,4.548400879,-2.718688965,8.581268311,-0.154394656,0.086588986,-1.120337129
17.488683,4.861206055,-3.443481445,8.627044678,-0.156958133,0.087199338,-1.116797090
17.489309,4.899353027,-3.725769043,8.230316162,-0.155249149,0.088786252,-1.113379121
17.489934,4.884094238,-4.053833008,8.039581299,-0.153662235,0.085490353,-1.111059785
17.490561,4.945129395,-4.580261230,8.382904053,-0.151464969,0.085612424,-1.103125215
17.491188,5.021423340,-4.915954590,7.955657959,-0.151464969,0.086222775,-1.102514863
17.491814,5.044311523,-5.289794922,7.619964600,-0.148169070,0.088175900,-1.098730683
17.492439,5.013793945,-5.831481934,7.879364014,-0.150488406,0.088053830,-1.094824433
17.493065,4.968017578,-6.327392578,7.764923096,-0.147436649,0.088786252,-1.092627168
17.493690,4.609436035,-6.785156250,7.528411865,-0.148535281,0.089518674,-1.090307832
17.494315,4.723876953,-6.640197754,7.536041260,-0.147924930,0.091715939,-1.087988496
17.494940,4.289001465,-7.380249023,7.574188232,-0.148901492,0.095988400,-1.087011933
17.495566,3.999084473,-7.845642090,7.375823975,-0.149389774,0.091960080,-1.087134004
17.496193,3.503173828,-8.372070312,7.352935791,-0.156836063,0.094645627,-1.087378144
17.496819,3.159851074,-8.906127930,7.192718506,-0.157446414,0.091715939,-1.087378144
17.497446,2.732604980,-9.493591309,7.207977295,-0.159399539,0.089274533,-1.084448457
17.498072,2.320617676,-10.027648926,7.238494873,-0.162085086,0.090251096,-1.084936738
17.498698,2.175659180,-10.432006836,6.956207275,-0.161963016,0.084635861,-1.082129121
17.499323,1.847595215,-11.225463867,6.879913330,-0.163183719,0.084025510,-1.083227754
17.499948,1.656860352,-11.492492676,6.910430908,-0.163794070,0.085368283,-1.078344941
17.500573,1.450866699,-12.202026367,6.635772705,-0.163183719,0.087443478,-1.079321504
17.501199,1.542419434,-12.583496094,6.223785400,-0.164404422,0.083537228,-1.081396699
17.513764,1.199096680,-17.039062500,4.797088623,-0.161963016,0.083415158,-1.025488496
17.514482,1.199096680,-17.283203125,4.499542236,-0.157568485,0.085734494,-1.022802949
17.515108,1.206726074,-17.397644043,4.324066162,-0.155615360,0.084757932,-1.018652558
17.515734,0.993103027,-17.611267090,4.201995850,-0.157446414,0.085368283,-1.013525605
17.516361,0.855773926,-17.779113770,4.247772217,-0.154394656,0.086588986,-1.004980683
17.516988,0.459045410,-17.931701660,4.140960693,-0.150976688,0.087321408,-1.003637910
17.517614,0.230163574,-18.122436523,4.003631592,-0.147924930,0.087931760,-0.995825410
17.518240,-0.082641602,-18.343688965,4.034149170,-0.148657352,0.084147580,-0.991797090
17.518865,-0.151306152,-18.618347168,4.186737061,-0.145483524,0.084880002,-0.986670136
17.519492,-0.433593750,-18.580200195,3.835784912,-0.142920047,0.083659299,-0.981543183
17.520118,-0.837951660,-18.847229004,3.980743408,-0.144629031,0.082560666,-0.976172090
17.520745,-0.952392578,-19.121887207,3.591644287,-0.143042117,0.084025510,-0.974218965
17.521371,-1.234680176,-19.137145996,3.889190674,-0.142187625,0.081950314,-0.969458222
17.521997,-1.715332031,-19.098999023,3.713714600,-0.141821414,0.083659299,-0.966162324
17.522622,-1.997619629,-19.495727539,3.881561279,-0.142065555,0.081462033,-0.961157441
17.523248,-2.424865723,-19.678833008,3.660308838,-0.145483524,0.078898557,-0.954565644
17.523873,-2.745300293,-19.762756348,3.530609131,-0.141211063,0.079508908,-0.952124238
17.524500,-2.966552734,-20.174743652,3.622161865,-0.140844852,0.077189572,-0.948828340
17.525127,-3.348022461,-20.273925781,3.576385498,-0.142309695,0.075236447,-0.945044160
17.525753,-3.599792480,-20.464660645,3.599273682,-0.141943485,0.077311642,-0.939062715
17.526379,-3.767639160,-20.670654297,3.568756104,-0.141333133,0.071696408,-0.939306855
17.527004,-4.049926758,-20.838500977,3.408538818,-0.140356570,0.073527463,-0.934912324
17.527631,-4.187255859,-21.120788574,3.301727295,-0.139013797,0.069499142,-0.935644746
17.528257,-4.362731934,-21.158935547,3.255950928,-0.133398563,0.066935666,-0.929785371
17.528882,-4.530578613,-21.342041016,3.347503662,-0.133642703,0.064494260,-0.926245332
17.529507,-4.851013184,-21.418334961,3.301727295,-0.132666141,0.066081174,-0.923193574
17.530134,-4.835754395,-21.258117676,3.202545166,-0.132055789,0.066325314,-0.918921113
17.530760,-4.995971680,-21.654846191,3.141510010,-0.126684695,0.064250119,-0.919897676
17.531387,-4.721313477,-21.677734375,3.278839111,-0.126196414,0.058634888,-0.914892793
17.532014,-4.881530762,-21.700622559,3.233062744,-0.121679813,0.057047974,-0.912207246
17.532641,-4.858642578,-21.807434082,3.080474854,-0.119848758,0.059855592,-0.909155488
17.533268,-4.881530762,-21.700622559,3.172027588,-0.117407352,0.054362427,-0.906592011
17.533895,-4.599243164,-21.647216797,3.225433350,-0.118872195,0.054484498,-0.903906465
17.534522,-4.477172852,-21.662475586,3.088104248,-0.115698367,0.051554810,-0.902441621
17.535148,-4.217773438,-21.456481934,3.042327881,-0.117773563,0.048747193,-0.899756074
17.535774,-3.874450684,-21.387817383,3.072845459,-0.116919070,0.047892701,-0.898657441
17.536400,-3.897338867,-21.624328613,3.133880615,-0.112768680,0.044474732,-0.892065644
17.537032,-3.286987305,-21.197082520,3.072845459,-0.109350711,0.043376099,-0.894629121
17.537659,-3.004699707,-21.265747070,2.927886963,-0.112524539,0.040568482,-0.888891816
17.538286,-2.905517578,-21.044494629,2.874481201,-0.110449344,0.041545045,-0.888403535
17.538913,-2.463012695,-21.097900391,2.973663330,-0.108740360,0.041667115,-0.885595918
17.539540,-2.325683594,-20.708801270,2.927886963,-0.108130008,0.038737427,-0.880346894
17.540166,-1.677185059,-20.563842773,3.072845459,-0.107885867,0.034709107,-0.878149629
17.540791,-1.288085938,-20.838500977,3.126251221,-0.107031375,0.041178834,-0.876196504
17.541416,-0.967651367,-20.533325195,2.973663330,-0.102880985,0.038493287,-0.875464082
17.542041,-0.631958008,-20.357849121,2.927886963,-0.102636844,0.038127076,-0.867285371
17.542667,-0.593811035,-20.304443359,2.859222412,-0.104223758,0.037150513,-0.871924043
17.563112,-2.607971191,-17.847778320,3.484832764,-0.071508914,0.019816529,-0.826513886
17.563883,-2.806335449,-17.794372559,3.797637939,-0.071753055,0.017130982,-0.823950410
17.564510,-3.096252441,-17.855407715,3.805267334,-0.074194461,0.014201294,-0.823217988
17.565137,-3.248840332,-17.740966797,3.873931885,-0.071630985,0.014811645,-0.823706269
17.565763,-3.142028809,-17.550231934,4.263031006,-0.073950320,0.012248169,-0.822973847
17.566389,-3.340393066,-17.634155273,4.179107666,-0.076147586,0.008952270,-0.826025605
17.567016,-3.653198242,-17.885925293,3.996002197,-0.072363406,0.007243286,-0.825171113
17.567642,-3.569274902,-17.618896484,4.057037354,-0.073584110,0.006632934,-0.822851777
17.568267,-3.813415527,-17.603637695,4.270660400,-0.072607547,0.001139770,-0.823828340
17.568893,-3.683715820,-17.695190430,4.201995850,-0.075537235,-0.000813355,-0.827002168
17.569518,-3.943115234,-17.542602539,4.270660400,-0.075659305,-0.003010620,-0.827734590
17.570144,-3.599792480,-17.519714355,4.568206787,-0.070410281,-0.002156128,-0.827978730
17.570769,-3.554016113,-17.298461914,4.476654053,-0.074438602,-0.005207886,-0.830786347
17.571395,-3.409057617,-17.481567383,4.842864990,-0.075781375,-0.008625855,-0.831030488
17.572022,-3.439575195,-17.443420410,4.995452881,-0.072851688,-0.008869995,-0.832007051
17.572648,-3.355651855,-17.390014648,5.010711670,-0.073584110,-0.011921753,-0.832373261
17.573275,-3.004699707,-17.168762207,5.132781982,-0.070288211,-0.015339722,-0.828589082
17.573902,-3.241210938,-17.191650391,5.193817139,-0.072485477,-0.014241089,-0.831762910
17.574528,-2.890258789,-17.260314941,5.354034424,-0.071630985,-0.016682494,-0.829443574
17.575154,-2.661376953,-17.122985840,5.590545654,-0.071997195,-0.014851441,-0.831762910
17.575779,-2.508789062,-17.290832520,5.720245361,-0.072729617,-0.018269408,-0.832739472
17.576406,-2.386718750,-17.306091309,5.819427490,-0.073950320,-0.018269408,-0.831762910
17.577033,-2.302795410,-17.115356445,5.880462646,-0.072485477,-0.021809448,-0.830786347
17.577658,-2.066284180,-16.932250977,6.178009033,-0.072485477,-0.020954955,-0.830420136
17.578283,-1.753479004,-16.932250977,6.246673584,-0.071386844,-0.022297729,-0.829931855
17.578909,-1.593261719,-17.191650391,6.384002686,-0.071020633,-0.022541869,-0.829077363
17.579534,-1.623779297,-16.886474609,6.536590576,-0.070532352,-0.023762573,-0.832495332
17.580161,-1.166015625,-16.779663086,6.803619385,-0.070898563,-0.025349487,-0.826513886
17.580787,-0.982910156,-16.710998535,6.757843018,-0.071997195,-0.024617065,-0.826758027
17.581414,-0.891357422,-16.657592773,7.085906982,-0.071142703,-0.023396362,-0.824926972
17.582041,-0.708251953,-16.642333984,7.101165771,-0.068090945,-0.022297729,-0.823950410
17.582668,-0.319152832,-16.573669434,7.261383057,-0.069189578,-0.023518432,-0.821142793
17.583293,-0.235229492,-16.840698242,7.269012451,-0.068701297,-0.024861205,-0.824194551
17.583920,-0.067382812,-16.810180664,7.459747314,-0.069799930,-0.022297729,-0.821997285
17.584546,0.329345703,-16.459228516,7.993804932,-0.063574344,-0.020954955,-0.820044160
17.585171,0.329345703,-16.459228516,7.993804932,-0.063574344,-0.020954955,-0.820044160
17.585798,0.375122070,-16.573669434,8.115875244,-0.063452274,-0.017414916,-0.816748261
17.586424,0.672668457,-16.512634277,8.253204346,-0.062841922,-0.015095581,-0.815649629
17.587050,0.848144531,-16.527893066,8.367645264,-0.061987426,-0.015705932,-0.816015840
17.587675,1.160949707,-16.634704590,8.604156494,-0.057837036,-0.014241089,-0.812842011
17.588302,0.924438477,-16.588928223,8.497344971,-0.058325317,-0.011189331,-0.811621308
17.588927,1.046508789,-16.497375488,8.901702881,-0.051123168,-0.009602417,-0.812842011
17.589553,1.237243652,-16.421081543,8.855926514,-0.054785278,-0.005452027,-0.811133027
17.590178,1.237243652,-16.573669434,9.145843506,-0.054174926,-0.006062378,-0.809179902
17.590805,1.206726074,-16.398193359,9.428131104,-0.051733520,-0.002034058,-0.811255097
17.591432,0.947326660,-16.382934570,9.443389893,-0.051977661,-0.004353394,-0.810400605
17.592058,1.084655762,-16.337158203,9.771453857,-0.049780395,0.000773559,-0.811133027
17.604639,0.314086914,-16.176940918,11.190521240,-0.047705200,0.053874146,-0.807226777
17.605349,0.222534180,-15.948059082,11.175262451,-0.047827270,0.057292115,-0.805639863
17.605976,-0.013977051,-16.245605469,11.236297607,-0.044287231,0.059977662,-0.802710176
17.606601,0.291198730,-15.894653320,10.984527588,-0.042700317,0.060832154,-0.802099824
17.607226,-0.029235840,-16.237976074,11.091339111,-0.039770629,0.064616330,-0.801611543
17.607853,0.016540527,-15.932800293,11.053192139,-0.037573364,0.065348752,-0.796606660
17.608478,-0.120788574,-15.887023926,11.053192139,-0.032690551,0.065470822,-0.798315644
17.609103,-0.151306152,-16.009094238,11.243927002,-0.030127075,0.068766721,-0.798925996
17.609728,-0.128417969,-15.772583008,10.969268799,-0.026953246,0.072184689,-0.792212129
17.610354,-0.204711914,-15.406372070,11.007415771,-0.024023559,0.074504025,-0.795385957
17.610980,-0.181823730,-15.505554199,11.213409424,-0.024511840,0.076457150,-0.793188691
17.611605,-0.189453125,-15.200378418,11.053192139,-0.024267700,0.079753049,-0.789038301
17.612230,-0.410705566,-14.864685059,11.213409424,-0.024878051,0.088420041,-0.790136933
17.612855,-0.677734375,-14.582397461,11.274444580,-0.027929809,0.089762814,-0.789038301
17.613480,-0.960021973,-14.452697754,11.495697021,-0.028906371,0.094157346,-0.789526582
17.614106,-1.448303223,-13.964416504,11.327850342,-0.031591918,0.093791135,-0.786352754
17.614731,-1.440673828,-13.788940430,11.175262451,-0.035498168,0.096720822,-0.784765840
17.615356,-1.906066895,-13.666870117,11.144744873,-0.038916137,0.098185666,-0.782324433
17.615983,-1.791625977,-13.392211914,11.266815186,-0.039770629,0.102091916,-0.777929902
17.616610,-1.837402344,-13.041259766,10.969268799,-0.041845825,0.104289182,-0.778418183
17.617236,-2.119689941,-12.911560059,11.053192139,-0.045019653,0.107218869,-0.779028535
17.617862,-2.585083008,-12.659790039,10.862457275,-0.047705200,0.110026486,-0.774878144
17.618488,-2.524047852,-12.629272461,10.831939697,-0.048559692,0.116374142,-0.772192597
17.619113,-2.653747559,-12.415649414,10.503875732,-0.047338989,0.122477658,-0.769751191
17.619738,-3.065734863,-12.110473633,10.595428467,-0.044531371,0.124064572,-0.768530488
17.620364,-3.279357910,-11.591674805,10.343658447,-0.046362426,0.128947392,-0.768774629
17.620989,-4.027038574,-11.317016602,10.091888428,-0.043310668,0.132243291,-0.767920136
17.621616,-4.271179199,-11.141540527,10.046112061,-0.046118286,0.133952275,-0.766455293
17.622242,-4.583984375,-10.798217773,10.007965088,-0.045507934,0.136149541,-0.765234590
17.622868,-5.156188965,-10.561706543,9.931671143,-0.044897582,0.137004033,-0.762793183
17.623494,-5.682617188,-10.111572266,9.748565674,-0.043188598,0.145426884,-0.765234590
17.624119,-6.468444824,-9.882690430,9.595977783,-0.047338989,0.144206181,-0.764258027
17.624746,-6.819396973,-9.257080078,9.557830811,-0.044043090,0.148844853,-0.759009004
17.625371,-7.452636719,-9.165527344,9.183990479,-0.047094848,0.148600712,-0.762426972
17.625996,-8.108764648,-8.745910645,9.161102295,-0.045874145,0.150187626,-0.763159394
17.626622,-8.413940430,-8.265258789,8.977996826,-0.044531371,0.152018681,-0.761816621
17.627249,-9.253173828,-8.013488770,8.901702881,-0.046240356,0.155924931,-0.760595918
17.627874,-9.924560547,-7.509948730,8.665191650,-0.045752075,0.150675908,-0.763769746
17.628500,-10.321289062,-7.227661133,8.428680420,-0.046606567,0.152384892,-0.762549043
17.629127,-10.786682129,-7.044555664,8.398162842,-0.045507934,0.153727666,-0.765478730
17.629753,-11.686950684,-6.800415039,8.123504639,-0.044897582,0.153239384,-0.763769746
17.630379,-12.129455566,-6.426574707,7.932769775,-0.047094848,0.154460087,-0.764868379
17.631005,-12.838989258,-6.319763184,7.818328857,-0.041845825,0.154460087,-0.765722871
17.631630,-13.540893555,-5.945922852,7.688629150,-0.042578246,0.154338017,-0.765356660
17.632257,-14.166503906,-5.511047363,7.299530029,-0.041845825,0.154093876,-0.766943574
17.632883,-15.089660645,-5.388977051,7.551300049,-0.043188598,0.154338017,-0.768164277
17.633509,-15.410095215,-5.015136719,7.223236084,-0.043310668,0.152140751,-0.771948457
17.646174,-20.712524414,-2.917053223,4.598724365,-0.075415164,0.078410275,-0.854467988
17.646937,-20.086914062,-2.306701660,4.659759521,-0.081640750,0.065837033,-0.856543183
17.647595,-19.323974609,-1.971008301,4.636871338,-0.087500125,0.060588013,-0.864477754
17.648220,-18.927246094,-1.810791016,4.644500732,-0.094091922,0.056071412,-0.868139863
17.648845,-17.958312988,-1.520874023,4.446136475,-0.102270633,0.059611451,-0.868750215
17.649471,-17.073303223,-1.497985840,4.461395264,-0.111181766,0.056315552,-0.874487519
17.650097,-16.279846191,-1.955749512,4.247772217,-0.118628055,0.052409302,-0.880468965
17.650722,-15.562683105,-1.993896484,4.255401611,-0.117407352,0.054240357,-0.883520722
17.651349,-14.616638184,-2.169372559,3.904449463,-0.120337039,0.049235474,-0.892553926
17.651974,-13.762145996,-2.215148926,3.820526123,-0.122656375,0.043620240,-0.896216035
17.652600,-12.678771973,-2.390625000,3.606903076,-0.121557742,0.036540162,-0.903540254
17.653226,-11.877685547,-2.756835938,3.370391846,-0.117163211,0.033244263,-0.907202363
17.653851,-10.893493652,-2.817871094,3.072845459,-0.115454227,0.033488404,-0.913305879
17.654477,-9.863525391,-3.359558105,2.790557861,-0.111914188,0.033122193,-0.917822480
17.655103,-8.932739258,-3.855468750,2.782928467,-0.109106570,0.028727662,-0.924780488
17.655728,-8.101135254,-4.191162109,2.988922119,-0.103369266,0.029460084,-0.933325410
17.656354,-6.819396973,-4.748107910,2.904998779,-0.097754031,0.022746217,-0.936499238
17.656979,-5.995422363,-4.938842773,3.049957275,-0.096411258,0.021281373,-0.937842011
17.657605,-4.980712891,-5.182983398,3.332244873,-0.095434695,0.015666138,-0.945776582
17.658232,-4.126220703,-5.305053711,2.988922119,-0.096289188,0.009928833,-0.945776582
17.658858,-3.302246094,-5.587341309,3.156768799,-0.096777469,0.009806762,-0.951147676
17.659485,-2.073913574,-5.991699219,3.454315186,-0.098242313,0.008952270,-0.953344941
17.660110,-1.433044434,-6.075622559,3.355133057,-0.097265750,0.009562622,-0.952246308
17.660736,-0.166564941,-6.624938965,3.492462158,-0.099829227,0.007609497,-0.955420136
17.661361,0.771850586,-6.670715332,3.751861572,-0.100805789,0.009684692,-0.956640840
17.663088,2.763122559,-7.311584473,3.835784912,-0.104956180,0.008830200,-0.955908418
17.663713,3.907531738,-7.357360840,3.484832764,-0.104345828,0.010783325,-0.954443574
17.664339,4.777282715,-8.066894531,3.896820068,-0.108862430,0.009440552,-0.955786347
17.664966,5.898803711,-8.112670898,3.805267334,-0.104223758,0.009074341,-0.954443574
17.665592,6.875366211,-8.440734863,3.889190674,-0.105200320,0.009318481,-0.951025605
17.666219,7.912963867,-8.555175781,3.843414307,-0.106543094,0.011637817,-0.947607636
17.666844,8.752197266,-8.822204590,3.736602783,-0.105078250,0.011515747,-0.942724824
17.667471,9.499877930,-9.211303711,3.690826416,-0.103491336,0.015421997,-0.940527558
17.668096,10.217041016,-9.173156738,3.927337646,-0.099340945,0.015055786,-0.939062715
17.668722,10.972351074,-9.539367676,3.667938232,-0.095068485,0.017253052,-0.932959199
17.669347,11.857360840,-9.722473145,3.706085205,-0.093115360,0.019206177,-0.931860566
17.669972,12.544006348,-9.821655273,3.889190674,-0.087866336,0.020793092,-0.929419160
17.670598,13.291687012,-9.897949219,3.889190674,-0.084082156,0.019938599,-0.920752168
17.671223,14.085144043,-9.936096191,3.927337646,-0.082861453,0.025675904,-0.921728730
17.671849,14.184326172,-9.646179199,3.873931885,-0.079077274,0.025431763,-0.920263886
17.672475,14.870971680,-9.928466797,3.873931885,-0.078100711,0.030192506,-0.917456269
17.673100,15.343994141,-9.752990723,3.942596436,-0.073462039,0.032023560,-0.916601777
17.673725,16.038269043,-9.684326172,4.064666748,-0.072973758,0.034220826,-0.911474824
17.674352,16.213745117,-9.493591309,4.057037354,-0.070532352,0.039225709,-0.908667207
17.674978,16.694396973,-9.501220703,4.064666748,-0.067602664,0.038371217,-0.907934785
17.675603,16.724914551,-9.455444336,4.201995850,-0.065893680,0.043131959,-0.906103730
17.676230,17.129272461,-9.341003418,4.537689209,-0.065405399,0.050578248,-0.901953340
17.688836,10.491699219,-9.768249512,4.057037354,-0.071875125,0.131755009,-0.921606660
17.689535,9.972900391,-9.852172852,3.797637939,-0.067724735,0.132365361,-0.922705293
17.690160,9.370178223,-9.424926758,3.767120361,-0.066992313,0.136759892,-0.926489472
17.690786,8.775085449,-9.478332520,3.767120361,-0.061987426,0.141764775,-0.922949433
17.691411,8.210510254,-9.478332520,3.751861572,-0.059179809,0.142985478,-0.921362519
17.692037,7.920593262,-8.578063965,3.744232178,-0.057837036,0.146159306,-0.924658418
17.692662,7.462829590,-8.890869141,3.492462158,-0.053320434,0.148356572,-0.921362519
17.693287,6.928771973,-8.608581543,3.339874268,-0.049902465,0.152018681,-0.920752168
17.693914,6.371826172,-8.219482422,3.400909424,-0.047094848,0.153971806,-0.922583222
17.694539,5.975097656,-7.899047852,3.278839111,-0.048681762,0.155924931,-0.917090058
17.695165,5.471557617,-7.181884766,3.309356689,-0.048193481,0.158976689,-0.919043183
17.695790,4.670471191,-7.128479004,3.095733643,-0.047827270,0.162394658,-0.917212129
17.696417,4.342407227,-6.678344727,3.004180908,-0.047949340,0.164591923,-0.910742402
17.697042,3.609985352,-6.296875000,2.813446045,-0.052343871,0.168376103,-0.905493379
17.697668,3.182739258,-6.022216797,2.798187256,-0.050268676,0.171549931,-0.901709199
17.698293,2.465576172,-5.526306152,2.714263916,-0.051001098,0.174601689,-0.897925019
17.698918,1.984924316,-5.091430664,2.523529053,-0.050390746,0.176310673,-0.896582246
17.699545,1.321166992,-4.809143066,2.508270264,-0.052832153,0.176554814,-0.889868379
17.700171,0.649780273,-4.267456055,2.157318115,-0.053930786,0.176798955,-0.886206269
17.700796,-0.250488281,-3.725769043,2.126800537,-0.055395629,0.178507939,-0.884009004
17.701422,-0.937133789,-3.184082031,1.882659912,-0.054419067,0.176798955,-0.876562715
17.702049,-1.539855957,-3.069641113,1.508819580,-0.055517700,0.172160283,-0.873877168
17.702676,-2.424865723,-2.375366211,1.470672607,-0.056616332,0.173747197,-0.871191621
17.703303,-2.989440918,-1.978637695,1.241790771,-0.055761840,0.173380986,-0.865454316
17.703929,-3.660827637,-1.627685547,1.211273193,-0.058569457,0.172648564,-0.861303926
17.704554,-4.599243164,-1.490356445,1.005279541,-0.054174926,0.171061650,-0.859350801
17.705180,-5.537658691,-0.933410645,0.875579834,-0.055273559,0.170085087,-0.857519746
17.705806,-6.231933594,-0.620605469,0.806915283,-0.056005981,0.165934697,-0.855810761
17.706431,-7.124572754,-0.178100586,0.578033447,-0.057470825,0.163371220,-0.855688691
17.707056,-8.078247070,-0.048400879,0.707733154,-0.053320434,0.167399541,-0.855078340
17.707681,-8.726745605,0.348327637,0.356781006,-0.051245239,0.160319462,-0.852026582
17.708306,-9.726196289,0.760314941,0.181304932,-0.048315551,0.160807744,-0.851172090
17.708932,-10.153442383,1.370666504,0.112640381,-0.046484496,0.155192509,-0.853247285
17.709557,-10.992675781,1.668212891,0.074493408,-0.041479614,0.155192509,-0.851294160
17.710183,-11.618286133,2.255676270,-0.039947510,-0.040869262,0.152995244,-0.851660371
17.710808,-12.304931641,2.614257812,-0.169647217,-0.033178832,0.147135869,-0.853979707
17.711433,-12.861877441,3.300903320,-0.329864502,-0.031713989,0.140788212,-0.856299043
17.712059,-13.380676270,3.453491211,-0.436676025,-0.029760864,0.138590947,-0.858496308
17.712686,-14.105468750,4.124877930,-0.413787842,-0.023046996,0.135417119,-0.858740449
17.713311,-14.311462402,4.788635254,-0.581634521,-0.020117309,0.133708134,-0.860815644
17.713937,-14.853149414,5.055664062,-0.512969971,-0.013525512,0.128703251,-0.868017793
17.714563,-15.059143066,5.688903809,-0.696075439,-0.010473754,0.127726689,-0.868506074
17.715189,-15.661865234,6.230590820,-0.589263916,-0.009375121,0.124674924,-0.873144746
17.715814,-15.875488281,6.810424805,-0.833404541,-0.004858520,0.122599728,-0.875586152
17.716439,-16.035705566,7.458923340,-0.779998779,0.001855347,0.118083127,-0.878271699
17.717066,-16.409545898,8.069274902,-0.688446045,0.002953980,0.112467892,-0.883154511
17.717693,-16.218811035,8.557556152,-0.848663330,0.007348511,0.109294064,-0.884253144
17.718320,-16.157775879,9.534118652,-0.642669678,0.011132691,0.105265744,-0.887060761
17.730939,-14.349609375,18.025634766,-0.505340576,-0.056128051,0.061808717,-1.001684785
17.731703,-14.250427246,18.109558105,-0.474822998,-0.053076293,0.061076295,-1.004248261
17.732329,-14.166503906,18.307922363,-0.360382080,-0.050146606,0.057902467,-1.014013886
17.732955,-14.052062988,18.193481445,-0.169647217,-0.049170043,0.056315552,-1.021093965
17.733581,-13.937622070,18.361328125,-0.322235107,-0.051123168,0.053874146,-1.029760957
17.734206,-13.624816895,18.353698730,0.066864014,-0.046728637,0.053752076,-1.035254121
17.734831,-13.426452637,18.559692383,-0.131500244,-0.047583129,0.053874146,-1.040869355
17.735456,-13.243347168,18.353698730,0.188934326,-0.049902465,0.052287232,-1.048925996
17.736083,-12.755065918,18.338439941,0.135528564,-0.051123168,0.048380982,-1.054052949
17.736709,-12.488037109,18.223999023,0.234710693,-0.054541137,0.046916138,-1.062719941
17.737334,-12.053161621,18.193481445,0.509368896,-0.053076293,0.041422974,-1.068091035
17.737961,-11.694580078,18.315551758,0.639068604,-0.059057739,0.043254029,-1.072729707
17.738588,-11.030822754,18.025634766,0.700103760,-0.060400512,0.041789185,-1.078711152
17.739213,-10.748535156,17.979858398,0.806915283,-0.060888793,0.038737427,-1.084814668
17.739840,-10.161071777,17.773864746,1.279937744,-0.064184695,0.036540162,-1.089941621
17.740466,-9.443908691,17.445800781,1.180755615,-0.070044070,0.037272584,-1.095434785
17.741092,-9.062438965,17.316101074,1.417266846,-0.069189578,0.040324342,-1.101660371
17.741719,-8.009582520,17.186401367,1.707183838,-0.075781375,0.038127076,-1.109594941
17.742344,-7.055908203,16.858337402,1.546966553,-0.079443485,0.039103638,-1.113867402
17.742969,-6.308227539,16.736267090,1.638519287,-0.081884891,0.039103638,-1.121313691
17.743594,-5.575805664,16.759155273,2.042877197,-0.081762820,0.043131959,-1.123388886
17.744220,-4.980712891,16.431091309,2.317535400,-0.088964969,0.041056763,-1.128637910
