time,gyro x,gyro y,gyro z,accel x,accel y,accel z
5.914249,-5.354553223,-5.053283691,-0.848663330,0.130029172,0.114298947,1.042260528
5.923860,-11.580139160,20.833251953,1.791107178,-0.045874145,-0.043660033,0.899316192
5.924486,-11.397033691,20.619628906,1.196014404,-0.039160278,-0.051228393,0.938866973
5.925111,-10.344177246,20.238159180,1.279937744,-0.035986450,-0.034748901,0.980615020
5.925736,-10.046630859,19.726989746,1.653778076,-0.026464965,-0.047688354,1.012719512
5.926362,-9.085327148,18.964050293,1.928436279,-0.029272582,-0.052815307,1.042748809
5.926987,-8.864074707,18.460510254,1.813995361,-0.026587036,-0.058552612,1.062157989
5.927612,-8.909851074,17.949340820,1.844512939,-0.035009887,-0.065388553,1.094018340
5.928238,-9.192138672,17.323730469,1.989471436,-0.006811645,-0.033039916,1.083886504
5.928863,-11.351257324,18.040893555,2.340423584,0.000146363,-0.013020386,1.067040801
5.929490,-13.785034180,19.841430664,3.599273682,0.016625855,0.021891724,1.071801543
5.930116,-17.088562012,23.717163086,4.690277100,0.076562375,0.071208127,1.028466582
5.930742,-18.820434570,25.563476562,3.751861572,0.092675656,0.001261841,1.092065215
5.931587,-16.836791992,22.488830566,2.081024170,0.051293824,-0.039631713,1.100976348
5.932212,-15.143066406,22.015808105,3.126251221,-0.020361450,-0.100911014,1.091332793
5.932838,-13.205200195,22.389648438,3.446685791,-0.094213992,-0.111531131,1.062768340
5.933464,-13.250976562,22.710083008,2.981292725,-0.065039188,-0.066609256,0.989404082
5.934105,-13.342529297,22.656677246,2.836334229,-0.034155395,-0.013508667,0.965234160
5.934730,-13.350158691,21.619079590,3.301727295,-0.030615356,-0.029255737,0.981591582
5.935355,-10.275512695,19.932983398,3.790008545,-0.035498168,-0.044880737,1.017968535
5.935980,-7.826477051,18.483398438,2.920257568,-0.033667114,-0.049519408,1.033471465
5.936606,-6.422668457,17.537353516,1.646148682,-0.024267700,-0.026692260,1.014672637
5.937233,-7.872253418,18.559692383,1.852142334,0.017358277,0.020182740,0.969750762
5.937859,-10.893493652,20.688293457,2.561676025,0.035058472,0.034587037,0.956567168
5.938484,-14.166503906,22.084472656,3.248321533,0.052270386,0.057170045,0.926415801
5.939111,-17.454772949,23.747680664,3.217803955,0.057153199,0.061198365,0.916650176
5.939738,-18.545776367,24.205444336,2.943145752,0.032494996,0.042765748,0.929345489
5.940365,-18.141418457,24.289367676,3.118621826,-0.000830200,0.025309693,0.939111114
5.940991,-17.210632324,24.838684082,2.714263916,-0.017431762,0.008708130,0.938012481
5.941616,-16.272216797,24.548767090,2.508270264,-0.048681762,-0.029011596,0.961938262
5.942242,-14.219909668,23.465393066,2.378570557,-0.087622195,-0.095051639,1.032983184
5.942867,-8.474975586,20.268676758,3.019439697,-0.144018680,-0.171711788,1.140038848
5.943493,-2.081542969,15.568969727,2.096282959,-0.168310672,-0.180622920,1.176904082
5.944118,2.549499512,10.319946289,1.196014404,-0.204809695,-0.159138545,1.224633574
5.944745,4.884094238,5.231140137,0.928985596,-0.187597781,-0.096150272,1.261987090
5.945371,5.822509766,1.401184082,1.073944092,-0.142065555,-0.028157104,1.299096465
5.945997,5.044311523,-1.703979492,1.020538330,-0.110083133,-0.002278198,1.323876739
5.946623,3.884643555,-4.450561523,0.791656494,-0.103491336,0.017741334,1.356957793
5.947248,3.510803223,-7.761718750,0.707733154,-0.093237430,0.032878052,1.348412871
5.947873,2.076477051,-10.126831055,0.219451904,-0.076880008,0.000285278,1.355004668
5.948499,5.273193359,-13.102294922,-0.291717529,-0.115088016,-0.120320193,1.508813262
5.949124,13.818115234,-17.573120117,-1.214874268,-0.071753055,-0.058186401,1.469018340
5.949749,12.238830566,-18.976928711,-3.412139893,-0.017553832,0.059855592,1.311425567
5.950374,4.014343262,-17.168762207,-3.526580811,0.059716675,0.169840947,1.160912871
5.951001,-5.964904785,-13.994934082,-0.810516357,0.104272336,0.222819462,1.068139434
5.951627,-16.005187988,-9.318115234,0.578033447,0.248071164,0.225871220,0.914086699
5.952254,-22.482543945,-3.283264160,-0.635040283,0.260644406,0.129313603,0.871728301
5.952881,-19.476562500,0.859497070,-0.253570557,0.178491086,0.035563599,0.925927520
5.953506,-10.695129395,2.255676270,-0.123870850,0.058251832,-0.000325073,0.907250762
5.966602,-18.103271484,7.291076660,0.944244385,0.036157105,-0.043537963,1.212426543
5.967319,-16.394287109,6.238220215,0.082122803,0.021264527,-0.076741092,1.206567168
5.967944,-13.662963867,5.688903809,0.204193115,-0.031225707,-0.058186401,1.199365020
5.968570,-12.434631348,5.749938965,0.257598877,-0.005713012,-0.003743042,1.157250762
5.969195,-15.211730957,7.001159668,-0.062835693,0.073388547,0.178141728,0.987450957
5.969820,-26.632934570,11.792419434,0.105010986,0.155908078,0.313639760,0.919824004
5.970445,-32.377868652,16.141174316,1.180755615,0.174340695,0.202189580,1.038476348
5.971070,-32.568603516,18.239257812,1.684295654,0.092919797,0.065592892,1.114404082
5.971695,-31.073242188,16.713378906,0.486480713,-0.162573367,-0.034748901,1.218041778
5.972322,-27.067810059,10.617492676,-0.131500244,-0.347754031,0.020915162,1.258935332
5.972948,-31.111389160,6.047485352,-1.176727295,-0.227514774,0.272990346,1.237084746
5.973573,-39.038330078,4.262207031,-2.199066162,-0.083715945,0.272746205,1.192895293
5.974199,-41.464477539,1.942871094,-1.611602783,-0.027197387,0.065226682,1.194726348
5.974825,-42.730957031,1.202819824,-1.581085205,0.025170777,0.018962037,0.999657989
5.975452,-46.942382812,4.704711914,-1.794708252,0.186059445,-0.033039916,0.807519317
5.976078,-47.484069824,11.471984863,-1.420867920,0.222558469,-0.121907108,0.811913848
5.976704,-41.708618164,14.203308105,0.219451904,0.153588742,-0.147663936,0.850854278
5.977329,-40.365844727,15.126464844,-0.306976318,0.049706910,-0.135945186,0.749169707
5.977955,-37.474304199,15.019653320,-0.291717529,-0.129980594,-0.146077022,0.767236114
5.978580,-35.391479492,13.242004395,0.578033447,-0.198339969,-0.088215701,0.762475371
5.979206,-32.156616211,8.740661621,0.227081299,-0.249121219,-0.096760623,0.851220489
5.979832,-28.875976562,4.269836426,-0.261199951,-0.233862430,0.010295044,0.868920684
5.980458,-30.043273926,1.515625000,-0.924957275,-0.124121219,0.070841916,0.860864043
5.981084,-31.126647949,0.157592773,-0.360382080,-0.027197387,0.026652467,0.927636504
5.981709,-38.473754883,4.079101562,-0.299346924,0.455712765,0.831095815,0.503198028
5.982334,-69.372802734,22.221801758,1.577484131,0.339135617,0.578166127,0.691308379
5.982960,-70.562988281,19.040344238,3.179656982,-0.321264774,0.058879029,1.154931426
5.983585,-71.051269531,9.122131348,1.875030518,-0.638159275,0.021769654,0.933984160
5.984211,-71.150451660,1.858947754,1.134979248,-0.396460086,-0.052204955,0.741357207
5.984836,-65.825134277,-3.123046875,-0.230682373,-0.096655399,-0.194905147,0.652001739
5.985462,-56.700378418,-3.733398438,-0.512969971,0.083398312,-0.329548717,0.613183379
5.986089,-46.187072754,-2.276184082,0.341522217,0.123437375,-0.482746959,0.648827910
5.986716,-37.115722656,-0.193359375,2.714263916,0.101830930,-0.497395396,0.727563262
5.987341,-30.150085449,-2.260925293,2.325164795,-0.098974735,-0.516926646,0.894555449
5.987966,-22.246032715,-7.738830566,1.279937744,-0.240942508,-0.878620982,1.270532012
5.988591,-12.404113770,-10.851623535,1.234161377,-0.130957156,-0.991902232,1.577905059
5.989217,-3.981262207,-8.631469727,3.316986084,0.123803586,-0.776448131,1.705346465
5.989844,-2.684265137,-2.962829590,5.010711670,0.245385617,-0.341511607,1.588403106
5.990470,-5.484252930,3.133056641,5.575286865,0.064599484,-0.133015499,1.493920684
5.991097,-9.649902344,4.391906738,5.231964111,-0.133154422,0.008586059,1.378320098
5.991724,-13.647705078,2.049682617,5.071746826,-0.174658328,0.061808717,1.207909942
5.992351,-15.158325195,-0.643493652,4.957305908,-0.101538211,0.077433713,1.013818145
5.992978,-13.830810547,-1.711608887,4.636871338,-0.020971801,0.084513791,0.816430449
5.993605,-11.099487305,-1.017333984,4.140960693,-0.016333129,0.043254029,0.688500762
5.994232,-6.209045410,-0.918151855,3.515350342,-0.043554809,-0.038411010,0.654687285
5.994858,-0.479370117,-2.321960449,2.981292725,-0.038794067,-0.094319217,0.657006621
5.995484,4.990905762,-3.863098145,3.072845459,-0.028051879,-0.139119014,0.679101348
5.996109,10.102600098,-5.381347656,3.103363037,-0.034399536,-0.215779170,0.779931426
6.010762,-0.731140137,0.485656738,1.981842041,-0.017187621,0.005412231,1.066552520
6.011461,-1.661926270,0.622985840,1.875030518,-0.014135864,-0.006428589,1.059106231
6.012087,-2.188354492,0.409362793,1.775848389,-0.013159301,-0.014119019,1.048364043
6.012714,-2.546936035,0.516174316,1.913177490,-0.002783325,-0.014973511,1.022851348
6.013339,-2.485900879,0.767944336,1.691925049,-0.002295043,-0.019978393,1.001733184
6.013964,-1.936584473,0.691650391,1.493560791,0.001244996,-0.018269408,0.979150176
6.014590,-1.059204102,0.600097656,1.379119873,0.004540894,-0.017170776,0.962426543
6.015217,0.207275391,0.378845215,1.180755615,0.001733277,-0.005940308,0.953027129
6.015842,1.649230957,0.554321289,1.020538330,-0.000341918,0.005168091,0.954614043
6.016467,2.908081055,0.340698242,0.806915283,-0.001440551,0.022013795,0.963158965
6.017093,3.869384766,0.134704590,0.669586182,-0.000952270,0.040080201,0.988427520
6.017718,4.151672363,0.218627930,0.547515869,-0.020239379,0.038737427,1.016259551
6.018344,4.044860840,-0.200988770,0.288116455,-0.011938598,0.015910279,1.039697051
6.018969,4.113525391,0.111816406,0.097381592,0.002099488,0.007365356,1.064477324
6.019595,3.419250488,0.432250977,-0.100982666,-0.004736450,-0.006794800,1.084130645
6.020221,2.564758301,0.577209473,-0.001800537,-0.012304809,-0.009724488,1.094994903
6.020846,1.427978516,0.302551270,-0.207794189,-0.015966918,-0.019001830,1.101952910
6.021472,0.375122070,0.729797363,-0.337493896,-0.005346801,-0.023884643,1.091943145
6.022097,-0.418334961,1.057861328,-0.085723877,0.006249879,-0.026326049,1.078027129
6.023789,-0.792175293,1.721618652,-0.108612061,0.009667847,-0.021931518,1.027856231
6.024414,-0.532775879,1.919982910,-0.169647217,0.006494019,-0.014851441,0.997338653
6.025039,-0.189453125,2.133605957,-0.070465088,-0.003515746,-0.011067261,0.977807403
6.025664,0.398010254,1.919982910,-0.001800537,-0.015356567,-0.010334839,0.964867949
6.026289,0.680297852,1.767395020,-0.223052979,-0.020971801,-0.015705932,0.956323028
6.026915,1.122802734,1.691101074,-0.337493896,-0.022314575,-0.026570190,0.956933379
6.027541,1.481384277,1.294372559,-0.162017822,-0.024755981,-0.038166869,0.967797637
6.028166,1.809448242,1.195190430,-0.162017822,-0.023046996,-0.054036010,0.979882598
6.028791,1.992553711,1.149414062,-0.215423584,-0.019873168,-0.063069217,0.999902129
6.029500,2.389282227,1.012084961,-0.169647217,-0.011694457,-0.061482299,1.017968535
6.030147,2.312988281,1.149414062,0.097381592,-0.015234496,-0.057209838,1.021508574
6.030772,2.305358887,1.279113770,-0.055206299,-0.016088989,-0.050129760,1.010278106
6.031398,1.992553711,1.294372559,-0.070465088,-0.018164184,-0.040486205,0.997582793
6.032033,1.862854004,1.240966797,-0.093353271,-0.021338012,-0.033406127,0.988427520
6.032659,1.832336426,1.179931641,0.074493408,-0.025122192,-0.030598510,0.976952910
6.033284,2.206176758,0.966308594,0.005828857,-0.029028442,-0.027790893,0.966210723
6.033910,2.450317383,0.600097656,-0.055206299,-0.027929809,-0.036579955,0.966454864
6.034535,2.724975586,0.386474609,0.021087646,-0.029882934,-0.041218627,0.968774199
6.035160,3.053039551,0.058410645,-0.001800537,-0.026953246,-0.047322143,0.976952910
6.035787,3.686279297,-0.117065430,-0.055206299,-0.020849731,-0.049519408,0.990502715
6.036414,4.128784180,-0.025512695,-0.085723877,-0.013159301,-0.041584838,1.001244903
6.037039,4.105895996,0.165222168,-0.017059326,-0.011206176,-0.034748901,1.014306426
6.037665,4.189819336,0.088928223,0.089752197,-0.012915161,-0.030110229,1.027123809
6.038292,3.877014160,0.088928223,0.036346436,-0.008886840,-0.025837768,1.033105254
6.038919,3.327697754,-0.063659668,0.089752197,-0.008398559,-0.019001830,1.030419707
6.039545,2.824157715,0.340698242,0.196563721,-0.005346801,-0.008747925,1.027734160
6.040171,2.465576172,0.386474609,0.028717041,-0.010473754,-0.000569214,1.020898223
6.040797,1.687377930,0.363586426,-0.100982666,-0.014990356,-0.000203003,1.020776153
6.041424,1.366943359,0.294921875,-0.055206299,-0.016821411,-0.013508667,1.012353301
6.042050,1.351684570,0.310180664,-0.024688721,-0.012915161,-0.019856323,0.995751739
6.055014,5.326599121,-1.368286133,0.204193115,-0.017309692,-0.041218627,0.984643340
6.055695,5.410522461,-1.368286133,-0.001800537,-0.014868286,-0.036457885,0.989892364
6.056320,5.822509766,-1.436950684,0.166046143,-0.015844848,-0.030232299,1.000390410
6.056945,5.914062500,-1.246215820,0.051605225,-0.017309692,-0.023640502,1.005883574
6.057571,5.647033691,-1.322509766,0.173675537,-0.017187621,-0.023884643,1.009789824
6.058196,5.456298828,-1.368286133,0.242340088,-0.014502075,-0.022053588,1.013085723
6.058821,5.280822754,-1.276733398,-0.055206299,-0.012915161,-0.021687377,1.018212676
6.059447,5.021423340,-1.208068848,0.341522217,-0.012915161,-0.020100463,1.023461699
6.060073,4.968017578,-1.124145508,0.089752197,-0.012304809,-0.022419799,1.018700957
6.060700,4.906982422,-1.032592773,0.043975830,-0.011328246,-0.021687377,1.023217559
6.061326,4.563659668,-1.230957031,0.204193115,-0.010717895,-0.019978393,1.023583770
6.061952,4.563659668,-1.040222168,0.105010986,-0.010595825,-0.017781127,1.023949981
6.062578,4.433959961,-0.895263672,0.158416748,-0.009375121,-0.017048705,1.026025176
6.063204,4.052490234,-0.963928223,0.066864014,-0.011328246,-0.016560424,1.023339629
6.063830,3.915161133,-0.757934570,0.005828857,-0.010717895,-0.016560424,1.021874785
6.064456,3.869384766,-0.651123047,-0.047576904,-0.011328246,-0.017414916,1.019067168
6.065083,3.701538086,-0.605346680,0.242340088,-0.010595825,-0.018513549,1.016991973
6.065708,3.541320801,-0.689270020,0.265228271,-0.014257934,-0.018391479,1.014794707
6.066334,3.518432617,-0.719787598,-0.001800537,-0.011694457,-0.021077026,1.013696074
6.066960,3.655761719,-0.643493652,-0.108612061,-0.012304809,-0.022541869,1.011620879
6.067585,3.472656250,-0.483276367,0.074493408,-0.011816528,-0.020832885,1.010888457
6.068211,3.693908691,-0.513793945,-0.047576904,-0.012793090,-0.022175658,1.008813262
6.068838,3.533691406,-0.422241211,-0.047576904,-0.012426879,-0.019123901,1.005395293
6.069463,3.739685059,-0.353576660,0.005828857,-0.014746215,-0.018757690,1.002831817
6.070088,3.732055664,-0.399353027,0.082122803,-0.015722778,-0.024372924,1.001244903
6.070713,3.541320801,-0.506164551,-0.116241455,-0.016943481,-0.025471557,0.999413848
6.071339,3.770202637,-0.315429688,0.074493408,-0.015844848,-0.029377807,0.997949004
6.071965,3.800720215,-0.559570312,0.127899170,-0.015112426,-0.030354369,0.999780059
6.072592,3.808349609,-0.468017578,-0.184906006,-0.015112426,-0.034260619,0.998559356
6.073217,4.006713867,-0.330688477,0.028717041,-0.017309692,-0.034260619,1.000756621
6.073842,4.037231445,-0.422241211,0.066864014,-0.018042114,-0.032429565,1.000390410
6.074468,4.029602051,-0.643493652,0.036346436,-0.019140746,-0.033772338,1.006005645
6.075093,4.388183594,-0.551940918,0.089752197,-0.019140746,-0.029621948,1.009301543
6.075719,4.411071777,-0.559570312,-0.116241455,-0.014990356,-0.027912963,1.008202910
6.076346,4.243225098,-0.704528809,0.089752197,-0.018652465,-0.021443237,1.008569121
6.076972,3.999084473,-0.574829102,0.097381592,-0.019873168,-0.019612182,1.008324981
6.077598,4.105895996,-0.719787598,0.013458252,-0.018652465,-0.022419799,1.005761504
6.078225,4.212707520,-0.757934570,-0.017059326,-0.015966918,-0.023152221,1.005395293
6.078852,4.044860840,-0.612976074,0.021087646,-0.014624145,-0.021565307,1.005151153
6.079477,4.021972656,-0.643493652,-0.009429932,-0.014380004,-0.021931518,1.004784942
6.080103,3.968566895,-0.521423340,0.112640381,-0.014990356,-0.024739135,1.003198028
6.080728,4.014343262,-0.483276367,0.021087646,-0.012793090,-0.023030151,1.001977324
6.081353,4.037231445,-0.590087891,0.173675537,-0.015112426,-0.026081908,1.007958770
6.081980,4.121154785,-0.712158203,0.227081299,-0.018408325,-0.023030151,1.009301543
6.082605,4.060119629,-0.559570312,0.028717041,-0.016088989,-0.024861205,1.007836699
6.083230,4.144042969,-0.498535156,-0.123870850,-0.014746215,-0.027912963,1.009911895
6.083855,4.235595703,-0.635864258,0.249969482,-0.018408325,-0.033650268,1.012353301
6.084480,4.479736328,-0.582458496,-0.078094482,-0.018408325,-0.038411010,1.019189239
6.085107,4.372924805,-0.284912109,0.143157959,-0.018774536,-0.039387573,1.021508574
6.097747,11.521667480,-2.001525879,-0.009429932,-0.015844848,-0.022786010,0.997216582
6.098517,11.735290527,-1.978637695,0.082122803,-0.012304809,-0.016316283,1.001489043
6.099143,11.735290527,-1.894714355,-0.162017822,-0.011938598,-0.020466674,1.011254668
6.099769,12.101501465,-2.146484375,0.043975830,-0.014502075,-0.022419799,1.016991973
6.100394,12.025207520,-2.108337402,-0.131500244,-0.017187621,-0.016438354,1.022729278
6.101019,11.880249023,-1.894714355,-0.131500244,-0.014868286,-0.011799683,1.020898223
6.101644,11.880249023,-1.711608887,-0.223052979,-0.010229614,-0.008503784,1.018090606
6.102269,11.712402344,-1.993896484,-0.337493896,-0.008032348,-0.008747925,1.015160918
6.102896,11.330932617,-1.627685547,0.028717041,-0.010473754,-0.011067261,1.016381621
6.103523,11.315673828,-1.536132812,-0.062835693,-0.008520629,-0.011921753,1.018456817
6.104155,11.453002930,-1.482727051,-0.291717529,-0.009130981,-0.013874878,1.014794707
6.104780,11.788696289,-1.391174316,-0.322235107,-0.011084106,-0.014607300,1.016625762
6.105406,11.826843262,-1.589538574,-0.345123291,-0.013281371,-0.010212769,1.014062285
6.106032,11.788696289,-1.757385254,-0.139129639,-0.010717895,-0.011311402,1.016503692
6.106658,12.048095703,-1.879455566,-0.459564209,-0.009985473,-0.014363159,1.016747832
6.107285,12.513488770,-1.795532227,-0.459564209,-0.011816528,-0.016438354,1.020776153
6.107911,12.696594238,-1.963378906,-0.429046631,-0.013159301,-0.010823120,1.022485137
6.108537,13.078063965,-2.115966797,-0.322235107,-0.013891723,-0.014729370,1.020654082
6.109162,13.352722168,-2.444030762,-0.467193604,-0.014746215,-0.035969604,1.032006621
6.109789,14.062255859,-2.344848633,-0.627410889,-0.010839965,-0.045124877,1.041161895
6.110414,14.649719238,-2.672912598,-0.581634521,-0.022192504,-0.049763549,1.053857207
6.111040,14.870971680,-3.191711426,-0.787628174,-0.033789184,-0.064411990,1.066186309
6.111665,15.420288086,-4.259826660,-0.894439697,-0.041967895,-0.079182498,1.080224395
6.112290,16.137451172,-5.167724609,-0.741851807,-0.047705200,-0.066120975,1.090600371
6.112917,16.503662109,-6.174804688,-0.741851807,-0.051489379,-0.045857299,1.097192168
6.113542,16.770690918,-7.136108398,-1.001251221,-0.051489379,-0.038288940,1.094018340
6.114167,17.350524902,-8.196594238,-0.955474854,-0.050756957,-0.028401244,1.090234160
6.114793,18.067687988,-9.386779785,-1.352203369,-0.054907348,-0.025959838,1.084496856
6.115419,18.494934082,-10.599853516,-1.497161865,-0.052954223,-0.041218627,1.083154082
6.116045,19.334167480,-11.706115723,-1.428497314,-0.053442504,-0.064045779,1.095116973
6.116672,20.493835449,-12.606384277,-1.665008545,-0.058813598,-0.063313358,1.094872832
6.117299,21.386474609,-14.101745605,-2.023590088,-0.059179809,-0.054890502,1.097680449
6.117925,22.195190430,-15.459777832,-2.214324951,-0.060522582,-0.043660033,1.093652129
6.118551,23.270935059,-16.833068848,-2.153289795,-0.062597781,-0.035237182,1.092431426
6.119178,23.972839355,-18.198730469,-2.237213135,-0.057837036,-0.031086791,1.083398223
6.119804,24.484008789,-19.488098145,-2.473724365,-0.052954223,-0.036457885,1.079369903
6.120429,25.338500977,-20.395996094,-2.794158936,-0.045874145,-0.041584838,1.075829864
6.121055,26.643127441,-21.807434082,-2.717864990,-0.042700317,-0.051838744,1.074609160
6.121682,27.978271484,-22.921325684,-2.855194092,-0.046118286,-0.059651244,1.071191192
6.122308,29.466003418,-24.103881836,-2.954376221,-0.048315551,-0.064411990,1.068627715
6.124039,34.783691406,-29.360534668,-1.985443115,-0.139868289,-0.073933475,1.101342559
6.124666,36.225646973,-31.359436035,-2.900970459,-0.090551883,-0.091023318,1.065331817
6.125292,37.774414062,-33.442260742,-4.259002686,-0.032324340,-0.056233276,1.074853301
6.125935,38.972229004,-34.113647461,-3.961456299,0.016137574,-0.046467651,1.055444121
6.126561,40.109008789,-34.365417480,-3.320587158,0.021264527,-0.020466674,1.057885528
6.127186,40.902465820,-34.014465332,-2.855194092,0.009423707,-0.020344604,1.051537871
6.127812,41.283935547,-34.495117188,-4.014862061,-0.012182739,-0.015705932,1.051049590
6.140538,11.338562012,-20.220520020,-5.327117920,-0.083105594,0.014323364,0.905419707
6.141290,13.642639160,-23.722412109,-3.518951416,-0.115454227,0.038371217,0.971459746
6.141917,15.260070801,-26.385070801,-2.565277100,-0.104467899,-0.023274291,0.989892364
6.142544,14.085144043,-26.682617188,-4.960906982,-0.069555789,0.014933716,0.986840606
6.143170,10.430664062,-25.233032227,-6.166351318,0.030541871,0.123942502,0.999535918
6.143796,5.799621582,-22.547485352,-5.067718506,0.141503781,0.161784306,0.967065215
6.144421,0.306457520,-19.694091797,-3.480804443,0.162866086,0.194377080,0.930810332
6.145048,-4.904418945,-16.573669434,-2.733123779,0.169091672,0.173625126,0.874169707
6.145675,-8.726745605,-13.033630371,-3.190887451,0.115869015,0.145548955,0.823388457
6.146302,-10.740905762,-10.546447754,-2.786529541,0.066552609,0.116007932,0.783959746
6.146928,-11.107116699,-8.333923340,-2.611053467,0.063256711,0.072550900,0.756738067
6.147555,-10.389953613,-5.877258301,-2.885711670,0.082177609,0.055461060,0.740136504
6.148180,-10.199218750,-3.084899902,-3.213775635,0.106469601,0.061930787,0.738183379
6.148805,-10.306030273,-0.590087891,-3.190887451,0.124413937,0.044108521,0.737084746
6.149431,-10.679870605,2.064941406,-2.397430420,0.109399289,0.011027466,0.743066192
6.150057,-10.656982422,4.056213379,-1.672637939,0.072167844,-0.037678588,0.752709746
6.150684,-10.046630859,5.513427734,-1.588714600,0.036401246,-0.073933475,0.771020293
6.151310,-8.566528320,6.314514160,-1.253021240,0.018212769,-0.088337772,0.800439239
6.151936,-6.720214844,6.795166016,-0.734222412,0.011498902,-0.089314334,0.840966582
6.152562,-3.912597656,6.947753906,-0.841033936,0.003320191,-0.080647342,0.878320098
6.153187,-1.402526855,6.764648438,-0.993621826,-0.026464965,-0.063923709,0.918725371
6.153814,-0.158935547,5.917785645,-1.253021240,-0.068457156,-0.061726440,0.955956817
6.154439,0.741333008,4.285095215,-0.993621826,-0.103613406,-0.068806522,0.987450957
6.155064,0.733703613,2.751586914,-0.902069092,-0.113134891,-0.072956912,1.021142364
6.155691,0.031799316,1.393554688,-1.047027588,-0.097387820,-0.077717654,1.042260528
6.156317,-0.883728027,-0.063659668,-1.184356689,-0.067480594,-0.081257693,1.055566192
6.156943,-1.471191406,-1.246215820,-0.993621826,-0.050756957,-0.087239139,1.061425567
6.157568,-1.486450195,-2.100708008,-0.635040283,-0.042700317,-0.102375858,1.059960723
6.158193,-1.333862305,-3.092529297,-0.436676025,-0.048803832,-0.112873904,1.052758574
6.158818,-0.509887695,-3.687622070,-0.711334229,-0.054052856,-0.118489139,1.040429473
6.159443,0.504821777,-4.694702148,-0.413787842,-0.054541137,-0.120808475,1.030663848
6.160069,1.756042480,-5.091430664,-0.299346924,-0.044165161,-0.120686404,1.016503692
6.160695,2.816528320,-5.884887695,-0.253570557,-0.027685668,-0.119587772,1.007958770
6.161321,4.083007812,-6.060363770,-0.238311768,-0.016699340,-0.124226443,0.997704864
6.161946,5.372375488,-6.220581055,-0.131500244,-0.001074340,-0.120076053,0.992577910
6.162571,6.753295898,-6.434204102,0.074493408,0.012109254,-0.118000858,0.982568145
6.163196,7.798522949,-6.022216797,0.402557373,0.019799683,-0.109944217,0.974633574
6.163822,9.194702148,-5.305053711,0.501739502,0.018456910,-0.103962772,0.975732207
6.164448,10.323852539,-4.832031250,0.303375244,0.014428589,-0.083454959,0.974511504
6.165074,11.391967773,-4.511596680,0.600921631,0.004418824,-0.060749877,0.974633574
6.172284,-0.082641602,-2.802612305,0.394927979,0.020165894,0.088420041,1.032128692
6.172910,-1.501708984,-2.215148926,0.593292236,0.023461793,0.079142697,1.021996856
6.173535,-2.272277832,-1.955749512,0.242340088,0.024438355,0.066447385,1.012475371
6.174160,-2.546936035,-1.665832520,0.349151611,0.028466675,0.054850709,1.005273223
6.174787,-2.630859375,-1.589538574,0.265228271,0.022851441,0.049723756,1.000268340
6.175413,-2.432495117,-1.177551270,0.005828857,0.019555543,0.038615357,0.992944121
6.176038,-2.043395996,-1.147033691,-0.017059326,0.011865113,0.032878052,0.985497832
6.176664,-1.379638672,-1.131774902,0.089752197,0.017358277,0.031413209,0.982446074
6.177289,-0.952392578,-1.139404297,-0.108612061,0.016992066,0.026042115,0.982568145
6.189935,-0.845581055,-0.170471191,-0.276458740,0.003076050,-0.039753783,0.998315215
6.190587,-0.677734375,-0.223876953,-0.192535400,-0.000097778,-0.039265502,0.999657989
6.191213,-0.082641602,-0.094177246,-0.230682373,-0.005957153,-0.042561401,0.999780059
6.191838,-0.082641602,-0.147583008,-0.146759033,-0.003881957,-0.045002807,0.999169707
6.192463,0.405639648,-0.109436035,0.005828857,-0.005835082,-0.044636596,1.001489043
6.193090,1.153320312,-0.269653320,0.028717041,-0.007177856,-0.039265502,1.002099395
6.193715,1.267761230,-0.490905762,-0.009429932,-0.007544067,-0.037068237,1.003075957
6.194340,1.649230957,-0.590087891,0.188934326,-0.006323364,-0.031086791,1.008447051
6.194966,1.969665527,-0.635864258,0.051605225,-0.005346801,-0.026814330,1.010278106
6.195593,2.091735840,-0.941040039,0.028717041,-0.006933715,-0.023030151,1.007226348
6.196220,2.175659180,-0.979187012,0.120269775,-0.008276489,-0.018757690,1.009423614
6.196845,2.435058594,-0.948669434,0.135528564,-0.001684692,-0.012165894,1.005273223
6.197471,2.404541016,-1.085998535,-0.024688721,-0.001684692,-0.007038941,1.006615996
6.198096,2.404541016,-1.208068848,0.158416748,0.002953980,-0.000080933,1.006005645
6.198723,2.297729492,-1.139404297,0.028717041,0.004174683,0.004313598,1.006005645
6.199348,2.106994629,-1.093627930,0.127899170,0.004907105,0.006999145,1.003930449
6.199975,2.168029785,-0.979187012,-0.032318115,0.006371949,0.007365356,1.001611114
6.200602,2.007812500,-1.078369141,-0.085723877,0.010034058,0.008097778,0.999169707
6.201228,1.771301270,-0.727416992,-0.085723877,0.009911988,0.010050903,0.995385528
6.201853,1.756042480,-0.605346680,0.036346436,0.011132691,0.008708130,0.994775176
6.202478,1.618713379,-0.384094238,0.028717041,0.010522339,0.009318481,0.995507598
6.203103,1.557678223,-0.185729980,-0.055206299,0.008325074,0.010172973,0.995385528
6.203730,1.664489746,-0.086547852,-0.123870850,0.007836793,0.007853637,0.995019317
6.204356,1.557678223,-0.078918457,-0.078094482,0.006860230,0.007365356,0.997460723
6.204981,1.290649414,0.210998535,-0.078094482,0.006616089,0.006999145,0.998071074
6.205607,1.214355469,0.272033691,-0.238311768,0.005151246,0.007853637,1.000024199
6.206234,1.160949707,0.005004883,-0.200164795,0.002221558,0.007609497,1.003686309
6.206859,0.932067871,0.119445801,-0.131500244,0.002221558,0.005900512,1.005395293
6.207485,0.741333008,0.058410645,-0.123870850,0.001977418,0.005900512,1.004784942
6.208111,0.497192383,0.317810059,-0.200164795,0.002221558,0.000285278,1.005273223
6.208737,0.398010254,0.294921875,-0.139129639,-0.003515746,-0.001301636,1.007714629
6.209362,0.169128418,-0.025512695,-0.253570557,-0.007666137,-0.001789917,1.008691192
6.209988,0.214904785,-0.292541504,-0.223052979,-0.004370239,-0.005574097,1.005395293
6.210614,-0.075012207,0.073669434,-0.123870850,-0.003881957,-0.006428589,1.002831817
6.211239,0.161499023,-0.338317871,-0.070465088,-0.006201293,-0.009236206,1.002831817
6.211864,-0.082641602,-0.597717285,-0.230682373,-0.008276489,-0.008747925,1.002099395
6.212490,-0.128417969,-0.597717285,-0.032318115,-0.006811645,-0.012043823,0.998071074
6.213115,0.047058105,-0.635864258,0.082122803,-0.003759887,-0.013752808,0.994531035
6.213741,0.153869629,-0.651123047,-0.123870850,-0.003149536,-0.014729370,0.993920684
6.214367,0.382751465,-0.826599121,-0.108612061,-0.003149536,-0.016560424,0.993188262
6.214993,0.420898438,-0.689270020,0.021087646,-0.002661254,-0.016316283,0.989282012
6.215620,0.657409668,-0.918151855,-0.123870850,-0.000463989,-0.017048705,0.986718535
6.216246,0.954956055,-0.780822754,0.021087646,-0.000830200,-0.018513549,0.982568145
6.216873,1.031250000,-0.704528809,-0.032318115,-0.000219848,-0.016316283,0.982324004
6.217499,1.145690918,-0.857116699,0.013458252,0.003930543,-0.018635619,0.983178496
6.218124,1.672119141,-0.910522461,0.005828857,0.002587769,-0.016926635,0.984643340
6.218751,1.946777344,-0.765563965,0.188934326,0.001000855,-0.016072143,0.986108184
6.219376,1.954406738,-0.643493652,0.082122803,0.002709839,-0.015950073,0.987450957
6.233112,0.489562988,-0.658752441,-0.100982666,0.004418824,0.018229615,1.006249785
6.233737,0.466674805,-0.933410645,0.005828857,0.007714722,0.017253052,1.006738067
6.234363,0.176757812,-0.696899414,0.211822510,0.007348511,0.016398560,1.000512481
6.234989,0.138610840,-0.635864258,-0.047576904,0.004907105,0.019328248,1.002465606
6.235615,-0.113159180,-0.605346680,0.097381592,0.004907105,0.016764771,0.996728301
6.236240,-0.334411621,-0.460388184,0.120269775,0.004662964,0.016642701,0.997582793
6.236865,-0.219970703,-0.513793945,0.036346436,0.006738160,0.018473756,0.994042754
6.237490,-0.486999512,-0.551940918,-0.116241455,0.007348511,0.017253052,0.996972442
6.238116,-0.364929199,-0.460388184,0.074493408,0.006616089,0.018107545,0.996850371
6.238743,-0.631958008,-0.490905762,0.089752197,0.004785035,0.018351685,0.995385528
6.239369,-0.555664062,-0.254394531,0.082122803,0.006738160,0.015788209,0.995019317
6.239994,-0.960021973,-0.109436035,0.028717041,0.006616089,0.017863404,0.994897246
6.240620,-0.914245605,-0.086547852,-0.253570557,0.008447144,0.016764771,0.997460723
6.241246,-0.960021973,-0.033142090,-0.100982666,0.006738160,0.017253052,0.998071074
6.241873,-1.036315918,0.180480957,-0.284088135,0.005029175,0.015544067,0.999047637
6.242499,-1.272827148,0.256774902,-0.093353271,0.004418824,0.012980591,1.000756621
6.243124,-1.356750488,0.355957031,-0.253570557,0.004052613,0.008219848,1.001366973
6.243749,-1.623779297,0.478027344,-0.245941162,0.004540894,0.011271606,1.002953887
6.244376,-1.585632324,0.508544922,-0.123870850,0.003320191,0.008830200,1.006493926
6.245003,-1.997619629,0.386474609,-0.245941162,0.002343629,0.001872192,1.008202910
6.245628,-2.234130859,0.500915527,-0.215423584,-0.001440551,0.002726684,1.006127715
6.246255,-2.287536621,0.554321289,-0.139129639,-0.000219848,0.000163208,1.009057403
6.246880,-2.264648438,0.355957031,-0.230682373,-0.002172973,-0.000447144,1.008691192
6.247506,-2.371459961,0.416992188,-0.009429932,-0.003515746,-0.004597534,1.007226348
6.248131,-2.386718750,0.478027344,0.059234619,-0.004736450,-0.004109253,1.008569121
6.248757,-2.730041504,0.325439453,0.066864014,-0.003881957,-0.002644409,1.005395293
6.249382,-2.577453613,0.310180664,-0.154388428,-0.003637817,-0.008137573,1.006127715
6.250008,-2.569824219,0.409362793,-0.085723877,-0.002295043,-0.008015503,1.003686309
6.250634,-2.539306641,0.149963379,-0.009429932,-0.005468871,-0.010701050,1.000512481
6.251261,-2.813964844,0.050781250,-0.116241455,-0.003637817,-0.012898316,1.001489043
6.251888,-2.585083008,0.233886719,-0.131500244,-0.002539184,-0.010945191,0.999902129
6.252514,-2.379089355,0.005004883,0.059234619,-0.000830200,-0.012654175,0.999902129
6.253140,-2.432495117,-0.002624512,-0.268829346,-0.002050903,-0.012654175,0.998803496
6.253765,-1.951843262,0.050781250,0.036346436,-0.002295043,-0.009358277,0.996850371
6.254391,-1.822143555,0.035522461,0.127899170,-0.003881957,-0.011433472,0.997338653
6.255016,-2.005249023,0.073669434,-0.146759033,-0.000097778,-0.010456909,0.994897246
6.255643,-1.883178711,0.104187012,-0.032318115,-0.002539184,-0.009114136,0.996728301
6.256270,-1.539855957,-0.139953613,-0.154388428,-0.003881957,-0.006184448,0.993798614
6.256897,-1.394897461,0.005004883,-0.184906006,-0.004858520,-0.005818238,0.996728301
6.257523,-1.532226562,-0.094177246,-0.184906006,-0.005835082,-0.006428589,0.991479278
6.258149,-1.562744141,-0.178100586,0.028717041,-0.003759887,-0.006306519,0.992577910
6.258774,-1.539855957,-0.216247559,0.005828857,-0.004004028,-0.008747925,0.991357207
6.259400,-1.471191406,0.134704590,-0.100982666,-0.002417114,-0.009724488,0.995873809
6.260033,-1.394897461,-0.155212402,-0.184906006,0.002465699,-0.011921753,0.997460723
6.260658,-1.394897461,0.058410645,-0.139129639,0.002099488,-0.010823120,0.999535918
6.261283,-1.417785645,-0.139953613,-0.001800537,0.002953980,-0.008625855,1.000756621
6.261909,-1.379638672,0.104187012,-0.047576904,0.000634644,-0.011799683,1.002587676
6.262535,-1.326232910,0.134704590,-0.078094482,-0.001196411,-0.009724488,1.000146270
6.263160,-1.242309570,-0.033142090,0.257598877,-0.001806762,-0.006672730,1.001733184
6.275811,-1.974731445,-0.033142090,0.059234619,-0.005346801,-0.009846558,1.002831817
6.276574,-1.837402344,0.203369141,0.173675537,-0.001684692,-0.011677613,1.001122832
6.277199,-1.700073242,0.210998535,-0.032318115,-0.000708129,-0.018025268,1.001489043
6.277826,-1.837402344,0.165222168,0.211822510,0.001733277,-0.020588744,1.007226348
6.278451,-1.852661133,0.088928223,0.341522217,0.005151246,-0.020588744,1.009545684
6.279077,-1.646667480,0.165222168,0.120269775,0.002465699,-0.022297729,1.007958770
6.279702,-1.372009277,-0.155212402,0.112640381,0.002343629,-0.022297729,1.007836699
6.280327,-1.433044434,-0.200988770,-0.047576904,-0.000586059,-0.018879760,1.005395293
6.280953,-0.944763184,-0.040771484,0.188934326,-0.002172973,-0.016438354,1.008324981
6.281579,-0.822692871,-0.300170898,0.036346436,-0.003149536,-0.014851441,1.003930449
6.282204,-0.967651367,-0.406982422,-0.093353271,-0.001806762,-0.016072143,1.002831817
6.282831,-0.998168945,-0.414611816,0.082122803,-0.001196411,-0.015828002,0.998681426
6.283456,-0.860839844,-0.353576660,0.097381592,0.000634644,-0.011433472,0.999780059
6.284082,-0.601440430,-0.696899414,0.242340088,0.001977418,-0.009114136,0.997094512
6.284708,-0.486999512,-0.658752441,0.272857666,0.003564332,-0.001667847,0.994653106
6.285335,-0.723510742,-0.712158203,0.013458252,0.003076050,-0.001179566,0.995019317
6.285960,-0.425964355,-0.513793945,0.066864014,0.007226441,-0.000080933,0.994897246
6.286586,-0.578552246,-0.574829102,0.120269775,0.006127808,0.001750122,0.995507598
6.287213,-0.448852539,-0.681640625,0.181304932,0.008691285,-0.002644409,0.997460723
6.287839,-0.265747070,-0.330688477,0.280487061,0.012109254,-0.001301636,0.999169707
6.288466,-0.456481934,-0.460388184,0.227081299,0.015405152,0.003581177,1.001733184
6.289092,-0.425964355,-0.086547852,0.326263428,0.013329957,0.007365356,1.002221465
6.289719,-0.609069824,0.050781250,0.234710693,0.009179566,0.011149536,1.006249785
6.290345,-0.723510742,-0.124694824,0.326263428,0.003564332,0.017741334,1.010156035
6.290971,-1.097351074,-0.101806641,0.013458252,0.004785035,0.020793092,1.012475371
6.291596,-1.150756836,0.005004883,0.028717041,0.007348511,0.014201294,1.018823028
6.292221,-1.593261719,0.142333984,0.143157959,0.011010621,0.005046020,1.017358184
6.292847,-1.806884766,0.371215820,-0.078094482,0.016869996,0.005900512,1.016137481
6.293472,-2.409606934,0.584838867,-0.017059326,0.018212769,0.006632934,1.018212676
6.294097,-2.592712402,0.432250977,0.173675537,0.017236207,0.007853637,1.018700957
6.294722,-3.050476074,0.294921875,-0.032318115,0.006005738,0.008830200,1.012597442
6.295348,-3.149658203,0.569580078,0.188934326,-0.003881957,0.009440552,1.012841582
6.295975,-3.279357910,0.439880371,-0.055206299,-0.006811645,0.014079223,1.005273223
6.296602,-3.523498535,0.363586426,-0.314605713,-0.006079223,0.014445434,1.003198028
6.297228,-3.706604004,0.142333984,-0.093353271,-0.002050903,0.011271606,1.003686309
6.297854,-3.714233398,0.210998535,0.196563721,0.003808472,0.002726684,1.000390410
6.298479,-3.576904297,-0.010253906,-0.284088135,0.012475464,-0.004719605,1.000878692
6.299106,-3.454833984,0.256774902,-0.078094482,0.015893433,-0.008015503,1.003198028
6.299731,-3.348022461,0.325439453,-0.085723877,0.016747925,-0.009968628,1.000512481
6.300358,-3.111511230,0.699279785,-0.017059326,0.017114136,-0.007649292,1.001000762
6.300983,-2.981811523,0.737426758,0.097381592,0.014184449,-0.006184448,1.000146270
6.301610,-2.997070312,0.745056152,0.043975830,0.009667847,-0.010212769,1.002099395
6.302236,-2.951293945,0.897644043,-0.100982666,0.003564332,-0.013020386,1.001733184
6.302861,-2.997070312,0.867126465,-0.368011475,0.000634644,-0.014973511,1.002709746
6.303487,-2.966552734,0.943420410,-0.268829346,0.002709839,-0.016682494,1.003930449
6.304114,-2.951293945,0.722167969,-0.200164795,0.002099488,-0.018025268,1.004296660
6.304741,-2.707153320,0.813720703,-0.062835693,0.001977418,-0.018757690,1.006127715
6.305366,-2.752929688,0.775573730,-0.055206299,0.001122925,-0.019734252,1.007836699
6.305991,-2.516418457,0.394104004,-0.162017822,-0.000952270,-0.018757690,1.008569121
6.318616,-1.013427734,0.127075195,0.059234619,-0.004492309,-0.008992066,1.006249785
6.319319,-1.188903809,0.096557617,0.013458252,-0.004370239,-0.009114136,1.007226348
6.319944,-1.181274414,0.035522461,-0.070465088,-0.000463989,-0.004963745,1.007714629
6.320569,-1.440673828,0.081298828,0.158416748,-0.001562621,-0.008747925,1.007470489
6.321196,-1.120239258,-0.101806641,-0.039947510,-0.001440551,-0.007038941,1.009667754
6.321821,-1.204162598,-0.109436035,0.135528564,-0.000219848,-0.004109253,1.009789824
6.322446,-1.219421387,0.012634277,-0.215423584,-0.002661254,-0.008015503,1.007104278
6.323072,-1.333862305,-0.040771484,0.089752197,0.001733277,-0.010456909,1.010522246
6.323699,-1.394897461,0.035522461,-0.047576904,0.001611207,-0.005818238,1.005395293
6.324326,-1.524597168,0.012634277,0.173675537,0.001977418,-0.005085816,1.006005645
6.324951,-1.448303223,0.127075195,-0.139129639,0.001000855,-0.006672730,1.004662871
6.325577,-1.310974121,0.195739746,-0.032318115,0.001611207,-0.007283081,1.004662871
6.326203,-1.616149902,-0.040771484,-0.009429932,0.000878785,-0.006306519,1.004052520
6.326829,-1.387268066,0.005004883,-0.116241455,0.002099488,-0.009480347,0.999902129
6.327454,-1.349121094,0.127075195,-0.009429932,0.000024293,-0.008747925,1.001489043
6.328079,-1.448303223,0.005004883,0.295745850,-0.001074340,-0.007649292,0.999047637
6.328706,-1.349121094,0.188110352,-0.093353271,0.000390504,-0.007893433,1.001611114
6.329333,-1.249938965,0.203369141,-0.108612061,-0.000219848,-0.006306519,0.998925567
6.329959,-1.249938965,0.111816406,0.097381592,-0.001684692,-0.007649292,0.998803496
6.330584,-1.104980469,0.134704590,-0.200164795,-0.001196411,-0.007161011,1.000878692
6.331209,-1.120239258,0.180480957,-0.154388428,0.001122925,-0.006306519,0.997949004
6.331835,-0.906616211,-0.040771484,0.089752197,-0.003881957,-0.007038941,1.000756621
6.333501,-1.059204102,-0.101806641,-0.085723877,-0.000097778,-0.006062378,1.001977324
6.334126,-0.792175293,0.035522461,0.059234619,-0.001074340,-0.007649292,1.002709746
6.334752,-0.860839844,0.005004883,0.043975830,-0.000830200,-0.007649292,0.999780059
6.335449,-0.715881348,0.195739746,0.043975830,-0.002417114,-0.009968628,1.000390410
6.336075,-0.891357422,-0.002624512,-0.032318115,-0.000830200,-0.008992066,1.003442168
6.336700,-0.952392578,0.088928223,-0.001800537,-0.000708129,-0.010945191,1.001611114
6.337327,-0.860839844,-0.048400879,-0.001800537,0.000146363,-0.013020386,1.002587676
6.337953,-0.700622559,0.111816406,-0.154388428,-0.000830200,-0.011189331,1.001733184
6.338578,-0.624328613,0.081298828,0.028717041,-0.001440551,-0.012287964,1.003075957
6.339203,-0.494628906,-0.017883301,0.204193115,-0.000952270,-0.011921753,1.001489043
6.339829,-0.914245605,0.203369141,-0.268829346,-0.002050903,-0.012532105,1.004784942
6.340456,-0.754028320,0.165222168,0.196563721,-0.002783325,-0.012165894,1.002709746
6.341081,-0.662475586,-0.147583008,-0.093353271,-0.004492309,-0.014607300,1.004662871
6.341707,-0.342041016,0.180480957,-0.108612061,-0.002783325,-0.011677613,1.007104278
6.342334,-0.494628906,0.226257324,-0.215423584,-0.003515746,-0.013142456,1.010278106
6.342959,-0.227600098,0.119445801,0.013458252,-0.000219848,-0.013752808,1.005273223
6.343584,-0.105529785,-0.139953613,-0.039947510,-0.003759887,-0.014363159,1.009179473
6.344209,-0.357299805,-0.017883301,0.074493408,-0.004248168,-0.014851441,1.009301543
6.344834,-0.105529785,-0.101806641,0.074493408,-0.005468871,-0.013508667,1.009179473
6.345461,0.024169922,-0.147583008,-0.009429932,-0.004492309,-0.011799683,1.010644317
6.346088,0.092834473,0.012634277,-0.146759033,-0.001074340,-0.011067261,1.008813262
6.346715,0.268310547,-0.193359375,-0.024688721,-0.001440551,-0.011311402,1.010156035
6.347342,0.138610840,-0.124694824,0.005828857,-0.003393676,-0.012410034,1.010278106
6.347967,0.459045410,-0.239135742,-0.108612061,0.002953980,-0.009114136,1.007836699
6.348594,0.314086914,-0.284912109,-0.108612061,-0.003637817,-0.014485230,1.007226348
6.349220,0.283569336,-0.040771484,0.158416748,-0.002050903,-0.013386597,1.002831817
6.361820,1.199096680,-0.384094238,0.028717041,0.001367066,-0.010701050,1.001733184
6.362563,1.275390625,-0.178100586,-0.055206299,-0.001562621,-0.010945191,1.000268340
6.363188,1.450866699,-0.506164551,0.036346436,0.001000855,-0.008992066,0.998193145
6.363815,1.473754883,-0.277282715,-0.009429932,-0.000830200,-0.006916870,1.001733184
6.364442,1.489013672,-0.200988770,0.097381592,-0.000097778,-0.009846558,1.001733184
6.365067,1.443237305,-0.353576660,0.112640381,0.001122925,-0.007771363,0.998925567
6.365692,1.527160645,-0.452758789,0.097381592,0.000024293,-0.008625855,1.000146270
6.366317,1.550048828,-0.406982422,-0.070465088,0.001244996,-0.009480347,1.000146270
6.366942,1.649230957,-0.345947266,0.120269775,0.002587769,-0.005574097,0.998437285
6.367568,1.397460938,-0.269653320,0.127899170,0.001489136,-0.005085816,1.000512481
6.368193,1.504272461,-0.422241211,0.036346436,0.005395386,-0.004231323,1.001611114
6.368819,1.412719727,-0.208618164,-0.047576904,0.003076050,-0.003132691,1.002099395
6.369444,1.450866699,-0.330688477,0.227081299,0.001977418,-0.002522339,1.002221465
6.370071,1.359313965,-0.384094238,-0.146759033,0.000634644,-0.001911988,1.004296660
6.370802,1.580566406,-0.185729980,0.105010986,0.005151246,-0.000447144,1.002343535
6.371516,1.473754883,-0.284912109,0.005828857,0.000512574,0.001505981,1.001733184
6.372142,1.504272461,-0.323059082,-0.116241455,-0.001440551,0.002482544,1.001000762
6.372768,1.534790039,-0.284912109,0.082122803,0.005639527,0.002604614,1.001122832
6.373393,1.237243652,-0.437500000,0.005828857,0.001733277,0.004679809,1.002099395
6.374020,1.313537598,-0.300170898,-0.116241455,0.003808472,0.001628052,0.999780059
6.374645,1.443237305,-0.513793945,0.036346436,0.002709839,0.002238403,0.996484160
6.375271,1.130432129,-0.338317871,-0.039947510,0.001611207,0.002848755,0.998315215
6.375897,0.939697266,-0.399353027,0.051605225,0.006860230,0.001017700,0.997460723
6.376577,1.061767578,-0.292541504,0.028717041,0.003198121,-0.000080933,1.001244903
6.377326,1.000732422,-0.262023926,0.127899170,0.002465699,0.001872192,0.998193145
6.378013,0.848144531,-0.361206055,0.127899170,0.005395386,0.000163208,0.996606231
6.378638,0.947326660,-0.017883301,-0.123870850,0.009179566,0.001139770,1.001611114
6.379323,0.825256348,-0.292541504,-0.062835693,0.006005738,-0.001667847,1.000634551
6.380042,0.802368164,-0.094177246,0.013458252,0.006860230,-0.001789917,1.001611114
6.380705,0.787109375,-0.162841797,0.120269775,0.006249879,0.000773559,0.999657989
6.381330,0.741333008,0.050781250,0.005828857,0.002953980,-0.003865113,1.002831817
6.382035,0.565856934,-0.231506348,0.196563721,0.006616089,-0.000691284,1.000512481
6.382703,0.787109375,-0.147583008,-0.070465088,0.000146363,0.002238403,1.006738067
6.383449,0.726074219,-0.139953613,0.036346436,0.001855347,0.000407348,1.007470489
6.384171,0.481933594,-0.109436035,0.005828857,0.001733277,-0.001545777,1.005273223
6.384897,0.420898438,-0.078918457,0.089752197,0.003564332,-0.000080933,1.006005645
6.385642,0.642150879,-0.071289062,-0.001800537,0.002709839,-0.000813355,1.005639434
6.386313,0.375122070,-0.300170898,-0.024688721,0.004785035,-0.003010620,1.004540801
6.386938,0.390380859,-0.185729980,-0.146759033,0.003320191,-0.002766480,1.005273223
6.387563,0.268310547,-0.155212402,0.013458252,0.003320191,-0.002156128,1.007470489
6.388190,0.359863281,0.012634277,-0.169647217,0.004296754,-0.001423706,1.006615996
6.388815,0.253051758,-0.124694824,-0.123870850,0.006616089,-0.003498902,1.005883574
6.389442,0.054687500,-0.139953613,-0.139129639,0.006616089,-0.001545777,1.001000762
6.390067,0.069946289,0.066040039,-0.131500244,0.007592652,-0.003987183,1.006493926
6.390692,0.306457520,0.005004883,0.051605225,0.003808472,-0.003254761,1.001733184
6.391319,0.192016602,0.020263672,-0.078094482,0.004907105,-0.004231323,1.006493926
6.391944,0.108093262,0.088928223,0.021087646,0.004907105,-0.003010620,1.002831817
6.392569,0.230163574,0.035522461,0.005828857,0.005273316,0.000041137,1.003075957
6.393196,0.123352051,-0.033142090,0.166046143,0.000756714,-0.002766480,1.005029082
6.393823,0.024169922,-0.071289062,-0.078094482,0.001977418,-0.000935425,1.004418731
6.406498,-0.372558594,0.226257324,0.059234619,0.000756714,-0.010090698,0.997582793
6.407165,-0.395446777,0.134704590,-0.100982666,0.001122925,-0.010945191,0.994408965
6.407791,-0.052124023,0.172851562,-0.070465088,-0.001196411,-0.011189331,0.997949004
6.408416,-0.174194336,0.081298828,-0.047576904,0.001122925,-0.007771363,0.996606231
6.409041,-0.143676758,-0.063659668,-0.154388428,0.000756714,-0.008259644,0.998803496
6.409666,-0.006347656,0.119445801,-0.154388428,0.001855347,-0.006550659,0.998315215
6.410291,-0.059753418,0.081298828,-0.169647217,0.001000855,-0.007161011,0.999291778
6.410917,0.161499023,0.127075195,0.082122803,-0.000952270,-0.001179566,1.000756621
6.411542,-0.006347656,0.027893066,-0.039947510,0.001977418,-0.002278198,1.001855254
6.412168,0.031799316,0.157592773,-0.230682373,0.000024293,-0.003010620,1.003930449
6.412794,0.100463867,-0.033142090,0.074493408,0.001733277,-0.003254761,1.001855254
6.413419,-0.181823730,0.043151855,-0.024688721,-0.001684692,-0.003743042,1.003808379
6.414045,-0.250488281,-0.033142090,-0.116241455,-0.001196411,-0.003498902,1.005151153
6.414672,-0.105529785,0.180480957,-0.032318115,-0.000341918,-0.005452027,1.005273223
6.415299,-0.258117676,0.256774902,-0.070465088,0.001244996,-0.004353394,1.003808379
6.422828,-0.471740723,0.119445801,-0.032318115,-0.003027465,-0.006062378,1.001366973
6.423454,-0.387817383,0.188110352,0.043975830,-0.002661254,-0.006184448,0.998559356
6.424080,-0.250488281,0.104187012,-0.146759033,-0.002661254,-0.010701050,1.004418731
6.424705,-0.136047363,0.043151855,-0.268829346,-0.000463989,-0.006306519,1.004418731
6.425331,-0.303894043,0.096557617,0.112640381,0.002099488,-0.007161011,1.004418731
6.425956,-0.334411621,0.218627930,-0.001800537,-0.001074340,-0.003132691,1.003808379
6.426582,-0.067382812,-0.010253906,-0.261199951,-0.001074340,-0.001423706,1.004418731
6.427380,-0.158935547,-0.063659668,0.089752197,0.001367066,0.001750122,1.006738067
6.428174,-0.219970703,-0.017883301,0.013458252,0.002099488,0.004923950,1.006860137
6.428911,-0.639587402,0.210998535,-0.207794189,0.001122925,0.001017700,1.003320098
6.429592,-0.364929199,0.027893066,0.158416748,0.001000855,0.004923950,1.003198028
6.430276,-0.677734375,0.050781250,0.059234619,0.002953980,0.008830200,1.004296660
6.430951,-0.754028320,0.005004883,-0.215423584,0.003320191,0.010905395,1.004174590
6.431577,-0.914245605,0.203369141,-0.032318115,0.004662964,0.009318481,1.005517364
6.432202,-1.234680176,0.157592773,-0.070465088,0.005029175,0.011515747,1.001489043
6.434136,-1.715332031,0.485656738,-0.253570557,0.003564332,0.006266723,1.002709746
6.434822,-1.730590820,0.500915527,-0.291717529,0.005395386,0.009074341,1.004907012
6.435479,-1.959472656,0.577209473,-0.047576904,0.003564332,0.005900512,1.003320098
6.436216,-2.188354492,0.493286133,-0.192535400,0.000634644,0.002238403,1.005273223
6.436843,-2.478271484,0.859497070,-0.024688721,-0.000219848,0.000529419,1.004540801
6.437478,-2.463012695,0.729797363,-0.368011475,0.002709839,-0.003010620,1.003320098
6.438137,-2.379089355,0.668762207,-0.238311768,0.003320191,-0.003620972,1.006860137
6.438764,-2.424865723,0.645874023,-0.146759033,0.004662964,-0.006916870,1.005151153
6.439389,-2.287536621,0.760314941,-0.154388428,0.005029175,-0.007038941,1.004174590
6.440015,-2.287536621,0.577209473,-0.306976318,0.002953980,-0.009480347,1.004907012
6.440642,-2.127319336,0.882385254,-0.108612061,0.002099488,-0.009236206,1.003686309
6.441268,-2.012878418,0.584838867,-0.368011475,-0.000219848,-0.009968628,1.006493926
6.441894,-1.829772949,0.470397949,-0.268829346,0.003320191,-0.014119019,1.003564239
6.442520,-1.806884766,0.439880371,-0.406158447,0.002099488,-0.013020386,1.006615996
6.443145,-1.959472656,0.760314941,-0.253570557,0.004052613,-0.012043823,1.005761504
6.443771,-1.600891113,0.546691895,-0.207794189,-0.001562621,-0.012532105,1.006982207
6.444397,-1.631408691,0.462768555,-0.436676025,0.000634644,-0.013508667,1.006249785
6.445032,-1.600891113,0.424621582,-0.223052979,0.000024293,-0.011189331,1.004418731
6.445657,-1.471191406,0.478027344,-0.207794189,0.001367066,-0.013630738,1.005273223
6.458333,-1.684814453,0.180480957,-0.001800537,0.002343629,0.001383911,0.991235137
6.459078,-1.867919922,0.394104004,-0.100982666,0.004418824,0.002116333,0.993188262
6.459704,-2.119689941,0.493286133,0.043975830,0.000878785,0.002726684,0.995019317
6.460330,-2.028137207,0.348327637,-0.131500244,0.001122925,0.000163208,0.995629668
6.460955,-2.157836914,0.218627930,-0.245941162,0.001000855,-0.002400269,0.996972442
6.461581,-2.035766602,0.439880371,0.028717041,0.003442261,0.001505981,0.996606231
6.462206,-1.989990234,0.371215820,-0.123870850,0.001489136,0.001750122,1.000024199
6.462831,-2.066284180,0.462768555,-0.032318115,0.001611207,-0.001667847,0.998559356
6.463457,-2.157836914,0.531433105,0.005828857,0.002587769,-0.001911988,0.997704864
6.464083,-2.356201172,0.462768555,0.005828857,-0.000708129,0.001261841,0.999047637
6.464708,-2.119689941,0.348327637,0.021087646,0.002099488,-0.000935425,0.996728301
6.465333,-2.195983887,0.081298828,0.043975830,-0.000097778,0.000407348,0.998193145
6.465958,-2.264648438,0.348327637,-0.078094482,0.000024293,-0.004841675,0.999657989
6.466583,-2.394348145,0.165222168,-0.276458740,-0.000219848,-0.008137573,1.001855254
6.467209,-2.302795410,0.416992188,-0.039947510,0.005761597,-0.005818238,1.001489043
6.467834,-2.173095703,0.394104004,-0.093353271,0.004785035,-0.007161011,1.000146270
6.468473,-2.203613281,0.134704590,-0.177276611,0.000146363,-0.006428589,1.000878692
6.469229,-2.066284180,0.195739746,-0.093353271,0.000878785,-0.005207886,1.002831817
6.469939,-2.257019043,0.149963379,-0.070465088,-0.001440551,-0.004353394,1.001366973
6.470681,-2.066284180,0.241516113,0.089752197,0.000390504,-0.002034058,1.000878692
6.471377,-2.379089355,0.134704590,-0.116241455,0.000756714,-0.000080933,1.000878692
6.472120,-2.356201172,0.066040039,-0.108612061,0.002953980,-0.003132691,0.997338653
6.472747,-2.478271484,0.226257324,-0.085723877,0.003564332,-0.001423706,1.002343535
6.473462,-2.142578125,0.302551270,-0.192535400,0.002099488,-0.004597534,0.998803496
6.474116,-2.295166016,0.088928223,-0.039947510,0.002099488,-0.006916870,1.001611114
6.474774,-2.401977539,0.203369141,-0.177276611,0.002709839,-0.007893433,1.002099395
6.475400,-2.325683594,0.355957031,-0.017059326,0.000146363,-0.010823120,1.000634551
6.476030,-2.241760254,0.325439453,-0.108612061,0.000634644,-0.009846558,1.002465606
6.476655,-2.257019043,0.264404297,-0.154388428,0.001000855,-0.010701050,1.005517364
6.477280,-2.394348145,0.210998535,-0.047576904,0.001000855,-0.012165894,1.003564239
6.477907,-2.401977539,0.142333984,-0.276458740,-0.002050903,-0.010701050,1.001611114
6.478532,-1.921325684,0.226257324,-0.032318115,-0.002539184,-0.005329956,1.000756621
6.479157,-2.134948730,-0.010253906,-0.100982666,-0.005713012,-0.006428589,1.000024199
6.479782,-2.051025391,-0.048400879,-0.070465088,-0.004004028,-0.010823120,0.999657989
6.480408,-2.058654785,0.096557617,-0.009429932,-0.001806762,-0.013386597,1.006615996
6.481033,-1.921325684,0.005004883,-0.177276611,0.001244996,-0.009968628,1.003686309
6.481660,-1.822143555,0.073669434,0.051605225,0.000024293,-0.012287964,1.003564239
6.482287,-1.906066895,-0.010253906,-0.123870850,0.001000855,-0.011433472,1.003930449
6.482914,-1.661926270,0.149963379,0.074493408,0.003198121,-0.012898316,1.009301543
6.483539,-1.570373535,0.020263672,-0.123870850,0.001000855,-0.011189331,1.007836699
6.484166,-1.433044434,0.096557617,-0.017059326,-0.000219848,-0.008381714,1.007104278
6.484791,-1.516967773,0.127075195,0.074493408,0.000268433,-0.003865113,1.006615996
6.485538,-1.570373535,0.043151855,-0.062835693,-0.002783325,-0.007771363,1.007958770
6.486299,-1.646667480,-0.101806641,-0.100982666,-0.000219848,-0.003132691,1.003808379
6.487042,-1.707702637,0.005004883,-0.078094482,-0.002417114,-0.003010620,1.007104278
6.487669,-1.501708984,0.005004883,-0.070465088,-0.000952270,-0.001423706,1.006982207
6.488294,-1.669555664,-0.063659668,-0.070465088,-0.000097778,-0.001911988,1.007470489
6.488919,-1.700073242,-0.025512695,0.120269775,0.001489136,-0.000935425,1.004907012
6.501488,-1.745849609,0.172851562,-0.245941162,-0.001562621,-0.009480347,1.005029082
6.502230,-1.852661133,0.195739746,-0.146759033,-0.000708129,-0.014119019,1.007226348
6.502856,-1.852661133,0.195739746,-0.146759033,-0.000708129,-0.014119019,1.007226348
6.503482,-1.806884766,0.493286133,-0.154388428,-0.000952270,-0.017414916,1.006127715
6.504108,-1.509338379,0.470397949,-0.100982666,-0.000097778,-0.019490112,1.005273223
6.504734,-1.524597168,0.531433105,-0.352752686,-0.001684692,-0.021443237,1.007470489
6.505359,-1.471191406,0.432250977,-0.215423584,-0.002661254,-0.021199096,1.005151153
6.505984,-1.227050781,0.317810059,-0.192535400,-0.001928832,-0.023152221,1.003808379
6.506609,-1.372009277,0.294921875,-0.154388428,-0.002661254,-0.021809448,1.002953887
6.507234,-0.998168945,0.416992188,-0.268829346,-0.006079223,-0.019612182,1.001122832
6.507859,-0.891357422,0.355957031,-0.085723877,-0.001196411,-0.018147338,1.003686309
6.508484,-0.815063477,0.203369141,-0.100982666,-0.003881957,-0.018025268,1.004784942
6.509109,-0.486999512,0.340698242,-0.139129639,-0.001074340,-0.020100463,1.006127715
6.509734,-0.586181641,0.340698242,-0.123870850,0.000512574,-0.018879760,1.003075957
6.510361,-0.570922852,0.218627930,-0.017059326,-0.003149536,-0.020344604,1.004540801
6.510987,-0.532775879,0.119445801,0.051605225,-0.002905395,-0.017536987,1.003442168
6.511614,-0.349670410,0.371215820,-0.345123291,-0.003881957,-0.016926635,1.000146270
6.512240,-0.273376465,0.012634277,0.043975830,-0.003149536,-0.013752808,1.002099395
6.512865,0.047058105,0.149963379,-0.177276611,-0.004736450,-0.014973511,1.005517364
6.513491,-0.166564941,0.027893066,-0.215423584,-0.004126098,-0.012776245,1.002709746
6.514117,-0.082641602,-0.086547852,-0.047576904,-0.003637817,-0.014851441,1.000756621
6.514743,0.001281738,-0.048400879,-0.139129639,-0.003881957,-0.011677613,1.001489043
6.515368,-0.013977051,0.111816406,-0.261199951,-0.003027465,-0.012654175,0.999291778
6.515993,0.047058105,-0.117065430,-0.078094482,-0.001440551,-0.012654175,0.999413848
6.516619,-0.029235840,-0.170471191,-0.123870850,0.001977418,-0.011311402,0.999169707
6.517245,-0.273376465,0.020263672,-0.093353271,-0.000586059,-0.010701050,0.997094512
6.517870,0.260681152,0.050781250,0.005828857,-0.000463989,-0.008137573,0.998071074
6.518497,0.245422363,-0.078918457,-0.108612061,0.001122925,-0.010578980,0.997216582
6.519122,0.024169922,-0.056030273,0.074493408,-0.001074340,-0.010334839,0.997582793
6.519748,-0.075012207,-0.063659668,-0.200164795,0.002465699,-0.008503784,1.001000762
6.520374,0.077575684,-0.002624512,-0.017059326,0.000512574,-0.009236206,0.999413848
6.520999,0.176757812,0.325439453,0.013458252,-0.001196411,-0.009236206,0.997704864
6.521625,-0.090270996,0.058410645,0.043975830,-0.000952270,-0.010578980,0.998315215
6.522250,0.047058105,-0.017883301,-0.116241455,-0.000463989,-0.012410034,0.998681426
6.522875,0.130981445,-0.033142090,0.135528564,-0.001318481,-0.012287964,0.999657989
6.523502,0.123352051,-0.094177246,-0.192535400,0.000390504,-0.012287964,0.999780059
6.524127,0.062316895,0.043151855,-0.001800537,0.000878785,-0.012532105,1.000146270
6.524754,0.214904785,0.043151855,0.082122803,-0.001928832,-0.012287964,0.998315215
6.525380,0.398010254,0.027893066,0.036346436,-0.001806762,-0.015705932,0.998071074
6.526006,0.604003906,-0.078918457,0.021087646,0.002221558,-0.013020386,0.999780059
6.526631,0.375122070,-0.124694824,-0.162017822,0.000268433,-0.012898316,1.000024199
6.527258,0.558227539,-0.048400879,0.028717041,-0.000586059,-0.011555542,1.001122832
6.527883,0.550598145,-0.284912109,0.074493408,-0.002905395,-0.012165894,0.998437285
6.528510,0.748962402,-0.078918457,0.074493408,0.000756714,-0.012410034,1.000878692
6.529137,0.619262695,-0.010253906,0.097381592,-0.000097778,-0.006672730,1.001244903
6.529762,0.825256348,-0.246765137,0.166046143,-0.001562621,-0.007649292,1.002343535
6.530389,0.672668457,-0.208618164,0.028717041,0.002099488,-0.007283081,1.002221465
6.531014,0.626892090,-0.094177246,-0.047576904,0.003076050,-0.008503784,1.001244903
6.531640,0.626892090,-0.185729980,-0.009429932,0.001977418,-0.006062378,1.001489043
6.545481,0.382751465,-0.262023926,0.143157959,-0.000463989,-0.002522339,1.003808379
6.546175,0.153869629,-0.033142090,0.211822510,0.004662964,-0.000080933,1.003686309
6.546800,0.306457520,-0.025512695,0.097381592,0.004662964,-0.000813355,1.005273223
6.547426,-0.029235840,-0.170471191,0.036346436,0.005273316,0.001383911,1.004662871
6.548051,0.115722656,-0.124694824,0.074493408,0.005151246,-0.000325073,1.003075957
6.548676,0.115722656,-0.124694824,0.089752197,0.005029175,0.000285278,1.006860137
6.549302,-0.120788574,-0.124694824,0.036346436,0.004296754,0.003459106,1.006982207
6.549928,-0.342041016,0.012634277,0.051605225,0.005761597,0.006266723,1.006127715
6.550554,-0.616699219,-0.056030273,0.112640381,0.005761597,0.005168091,1.006005645
6.551179,-0.525146484,0.096557617,0.394927979,0.005151246,0.008219848,1.006860137
6.551805,-0.860839844,0.386474609,0.173675537,0.006005738,0.008341919,1.007958770
6.552431,-1.005798340,0.020263672,0.051605225,0.003564332,0.009684692,1.010522246
6.553056,-1.120239258,0.180480957,0.196563721,0.005761597,0.010905395,1.009545684
6.553681,-1.166015625,0.149963379,-0.024688721,0.009423707,0.011271606,1.007836699
6.554307,-1.372009277,0.340698242,0.234710693,0.008935425,0.009196411,1.007104278
6.554933,-1.646667480,0.294921875,-0.162017822,0.004785035,0.005656372,1.006982207
6.555558,-1.799255371,0.333068848,-0.093353271,0.007592652,0.007731567,1.007958770
6.556185,-1.814514160,0.432250977,0.043975830,0.006494019,0.004801880,1.009057403
6.556810,-1.944213867,0.455139160,-0.284088135,0.006249879,0.006022583,1.009179473
6.557435,-2.096801758,0.401733398,0.051605225,0.007714722,0.003581177,1.006371856
6.558061,-1.913696289,0.600097656,-0.055206299,0.008569214,0.003947387,1.010033965
6.558686,-2.272277832,0.577209473,-0.261199951,0.007714722,0.005778442,1.010766387
6.559311,-2.279907227,0.470397949,0.021087646,0.006860230,0.004557739,1.013329864
6.559936,-2.234130859,0.783203125,0.051605225,0.005883668,0.002360473,1.009911895
6.560561,-2.127319336,0.722167969,-0.299346924,0.009301636,0.005534302,1.008935332
6.561187,-2.257019043,0.691650391,-0.238311768,0.007836793,0.006999145,1.011132598
6.561814,-2.348571777,0.821350098,-0.001800537,0.006616089,0.007853637,1.010888457
6.562440,-2.463012695,0.760314941,-0.177276611,0.007348511,0.005900512,1.012841582
6.563067,-2.516418457,0.844238281,-0.329864502,0.003808472,0.005656372,1.010522246
6.563692,-2.661376953,0.813720703,-0.322235107,0.004785035,0.006510864,1.013085723
6.564317,-2.638488770,0.943420410,-0.535858154,0.002587769,0.007853637,1.012719512
6.564942,-2.768188477,0.905273438,-0.368011475,0.005029175,0.005656372,1.010156035
6.565569,-2.714782715,0.973937988,-0.291717529,0.006249879,0.008463989,1.012353301
6.566195,-3.004699707,0.828979492,-0.383270264,0.008080933,0.009806762,1.010400176
6.566822,-3.164916992,1.080749512,-0.215423584,0.005883668,0.010050903,1.010888457
6.567447,-3.302246094,1.004455566,-0.238311768,0.004907105,0.011881958,1.012719512
6.568073,-3.424316406,1.286743164,-0.322235107,0.006127808,0.011393677,1.006982207
6.568699,-3.531127930,1.019714355,-0.436676025,0.006860230,0.012004028,1.009911895
6.569326,-3.889709473,1.164672852,-0.238311768,0.008080933,0.014079223,1.010033965
6.569952,-4.118591309,1.309631348,-0.451934814,0.010644410,0.012614380,1.011376739
6.570579,-4.263549805,1.332519531,-0.207794189,0.009789918,0.012126098,1.012109160
6.571205,-4.500061035,1.294372559,-0.314605713,0.006127808,0.017863404,1.012963653
6.571831,-4.477172852,1.408813477,-0.398529053,0.007836793,0.017985474,1.011620879
6.572456,-4.751831055,1.454589844,-0.413787842,0.006982300,0.020182740,1.011742949
6.573082,-4.973083496,1.813171387,-0.261199951,0.009057496,0.020060670,1.010888457
6.573708,-5.407958984,1.706359863,-0.368011475,0.007836793,0.017008912,1.009667754
6.574334,-5.522399902,1.820800781,-0.360382080,0.008691285,0.016886842,1.012109160
6.574959,-5.865722656,2.019165039,-0.505340576,0.009667847,0.010172973,1.012353301
6.575585,-6.186157227,1.881835938,-0.429046631,0.007104371,0.011271606,1.015405059
6.588242,-8.322387695,3.003356934,-1.062286377,0.000268433,-0.002888550,1.016991973
6.588975,-8.146911621,3.041503906,-1.069915771,0.002099488,-0.001179566,1.013696074
6.589600,-8.261352539,3.110168457,-1.031768799,0.003930543,-0.000569214,1.012719512
6.590227,-8.131652832,3.087280273,-1.176727295,0.003442261,0.001383911,1.011987090
6.590854,-8.612304688,3.224609375,-1.237762451,0.004785035,-0.004475464,1.008080840
6.591480,-8.429199219,3.094909668,-1.016510010,0.000146363,-0.008259644,1.004662871
6.592107,-8.352905273,3.331420898,-1.207244873,0.001489136,-0.004719605,1.006493926
6.592734,-8.711486816,3.369567871,-1.054656982,0.000268433,-0.005452027,1.001855254
6.593360,-8.841186523,3.392456055,-1.001251221,-0.000708129,-0.007893433,1.000390410
6.593986,-8.612304688,3.339050293,-0.963104248,-0.001196411,-0.007649292,0.998803496
6.594612,-8.406311035,3.529785156,-1.161468506,0.001489136,-0.009358277,0.998559356
6.595238,-8.352905273,3.468750000,-1.092803955,-0.000708129,-0.013142456,0.995141387
6.595863,-8.368164062,3.278015137,-0.940216064,-0.003759887,-0.013264527,0.993432403
6.596489,-8.177429199,3.468750000,-1.092803955,-0.000708129,-0.019001830,0.995629668
6.597114,-8.337646484,3.491638184,-0.902069092,-0.005713012,-0.020832885,0.995141387
6.597739,-8.505493164,3.384826660,-0.841033936,-0.005713012,-0.019001830,0.991967559
6.598366,-8.383422852,3.392456055,-1.016510010,-0.004980590,-0.018879760,0.994897246
6.598992,-8.368164062,3.361938477,-1.008880615,-0.009497192,-0.019978393,0.993066192
6.599618,-8.185058594,3.293273926,-1.069915771,-0.009741332,-0.029499877,0.996850371
6.600245,-8.253723145,3.278015137,-1.588714600,0.011376832,-0.096516483,1.001122832
6.600872,-7.086425781,4.414794922,-1.726043701,0.032861207,-0.188557491,1.019555449
6.601497,-5.354553223,6.299255371,-1.443756104,0.040795777,-0.244465694,1.039574981
6.602124,-3.790527344,7.191894531,-1.199615479,0.025170777,-0.225300655,1.042748809
6.602750,-2.958923340,6.795166016,-0.841033936,-0.009375121,-0.156819209,1.039452910
6.603375,-2.447753906,4.956481934,-0.406158447,-0.052588012,-0.078205936,1.035424590
6.604000,-1.272827148,2.713439941,-0.184906006,-0.093359500,-0.010212769,1.025048614
6.604626,0.558227539,1.027343750,-0.482452393,-0.113623172,0.026042115,1.015038848
6.605251,1.916259766,-0.155212402,-0.741851807,-0.104101688,0.055827271,1.006738067
6.605876,2.595275879,-0.735046387,-1.291168213,-0.050879028,0.069621213,0.997216582
6.606502,1.702636719,-1.024963379,-1.794708252,-0.014380004,0.071940549,0.990502715
6.607127,-0.013977051,-1.261474609,-0.963104248,0.039330933,0.040202271,0.984032989
6.607753,-1.768737793,-0.551940918,-0.596893311,0.059106324,-0.000569214,0.977685332
6.608379,-3.409057617,0.348327637,-0.505340576,0.066186398,-0.035115112,0.976708770
6.609006,-3.798156738,1.691101074,-0.520599365,0.061669800,-0.067097537,0.974389434
6.609633,-3.203063965,3.018615723,-0.207794189,0.047631714,-0.076741092,0.972558379
6.610260,-2.096801758,3.773925781,-0.291717529,0.024316285,-0.075398318,0.969872832
6.610886,-1.143127441,4.262207031,-0.406158447,0.002953980,-0.060627807,0.968041778
6.611511,-0.502258301,4.307983398,-0.421417236,-0.015112426,-0.039021362,0.969994903
6.612136,-0.052124023,4.079101562,-0.223052979,-0.029760864,-0.015217652,0.974389434
6.612761,-0.479370117,3.545043945,-0.406158447,-0.034033325,0.011149536,0.979882598
6.613386,-1.082092285,3.163574219,-0.162017822,-0.030127075,0.030802857,0.988915801
6.614012,-1.783996582,2.774475098,-0.261199951,-0.027685668,0.046671998,0.990502715
6.614637,-2.669006348,2.072570801,-0.375640869,-0.025976684,0.057536256,1.001122832
6.615262,-3.119140625,2.034423828,-0.291717529,-0.021582153,0.051921021,0.997704864
6.615887,-3.775268555,1.988647461,-0.604522705,-0.016088989,0.035441529,0.997460723
6.616513,-4.217773438,1.805541992,-0.635040283,-0.008154418,0.014567505,0.995629668
6.617138,-4.477172852,1.721618652,-0.764739990,-0.002539184,-0.018757690,0.997826934
6.617764,-4.599243164,1.652954102,-0.627410889,0.004052613,-0.047444213,0.994042754
6.618390,-4.263549805,1.698730469,-0.772369385,0.001977418,-0.062825076,0.989404082
6.631022,-1.021057129,0.592468262,-0.131500244,-0.023046996,-0.027790893,0.982324004
6.631722,-0.921875000,0.394104004,-0.207794189,-0.019140746,-0.026570190,0.981347442
6.632349,-0.853210449,0.294921875,-0.017059326,-0.015234496,-0.029011596,0.984277129
6.632974,-0.723510742,-0.132324219,-0.177276611,-0.010962036,-0.024006713,0.980859160
6.633601,-0.624328613,-0.063659668,-0.070465088,-0.007055786,-0.026203979,0.980859160
6.634227,-0.448852539,-0.422241211,0.059234619,-0.008642700,-0.023884643,0.976830840
6.634853,-0.464111328,-0.414611816,0.112640381,-0.009130981,-0.026326049,0.976342559
6.635478,-0.532775879,-0.246765137,-0.001800537,-0.005835082,-0.025105346,0.976830840
6.636103,-0.319152832,-0.490905762,0.097381592,-0.006811645,-0.026570190,0.977563262
6.636729,0.016540527,-0.521423340,-0.017059326,-0.005957153,-0.029255737,0.977807403
6.637356,0.405639648,-0.368835449,0.364410400,-0.008764770,-0.031941283,0.977197051
6.637983,0.741333008,-0.727416992,0.265228271,-0.010107543,-0.031941283,0.979516387
6.638609,1.138061523,-0.841857910,0.158416748,-0.012060668,-0.030720580,0.978661895
6.639234,1.168579102,-0.757934570,0.372039795,-0.011572387,-0.026936401,0.981957793
6.639860,1.359313965,-0.948669434,0.410186768,-0.014257934,-0.028767455,0.984521270
6.640486,1.618713379,-1.322509766,0.166046143,-0.011816528,-0.027058471,0.986352324
6.641113,1.572937012,-1.101257324,0.372039795,-0.011084106,-0.020466674,0.989282012
6.641739,1.702636719,-1.253845215,0.440704346,-0.005713012,-0.018879760,0.993432403
6.642364,1.778930664,-1.406433105,0.364410400,-0.002295043,-0.016560424,0.996362090
6.642991,1.427978516,-1.223327637,0.265228271,-0.004370239,-0.014485230,0.997094512
6.643617,1.244873047,-1.475097656,0.516998291,-0.002905395,-0.015950073,0.998925567
6.644242,1.183837891,-1.299621582,0.486480713,-0.001196411,-0.015339722,0.997704864
6.645881,1.038879395,-0.925781250,0.402557373,0.002831910,-0.016804565,1.008935332
6.646506,0.863403320,-1.238586426,0.654327393,0.000756714,-0.021321166,1.006982207
6.647132,0.817626953,-0.971557617,0.486480713,-0.000341918,-0.020466674,1.011498809
6.647757,1.145690918,-0.956298828,0.280487061,0.002099488,-0.017292846,1.013696074
6.648382,1.244873047,-0.956298828,0.509368896,0.002831910,-0.013874878,1.013329864
6.649009,1.496643066,-0.971557617,0.288116455,-0.000463989,-0.010945191,1.018456817
6.649634,1.984924316,-1.070739746,-0.009429932,0.001000855,0.002970825,1.020287871
6.650259,2.335876465,-1.406433105,0.265228271,-0.005346801,0.012370239,1.020898223
6.650884,2.793640137,-1.497985840,-0.284088135,-0.005835082,0.004801880,1.020409942
6.651510,3.304809570,-1.337768555,-0.619781494,0.000634644,-0.008503784,1.021996856
6.652135,3.609985352,-1.589538574,-1.069915771,0.011010621,-0.014729370,1.023583770
6.652762,4.357666016,-1.604797363,-1.115692139,0.024926636,-0.009724488,1.030419707
6.653388,5.334228516,-2.077819824,-1.710784912,0.040795777,0.017008912,1.042748809
6.654013,6.966918945,-2.611877441,-2.122772217,0.058740113,0.052043092,1.058373809
6.654638,10.041564941,-2.939941406,-2.786529541,0.061791871,0.112956174,1.076928496
6.655263,13.535827637,-3.039123535,-3.785980225,0.053124879,0.175944462,1.087670684
6.655888,17.106384277,-2.634765625,-5.281341553,0.043359254,0.208781376,1.094872832
6.656515,19.608825684,-2.138854980,-7.074249268,0.054101441,0.202189580,1.106103301
6.657141,21.119445801,-1.559020996,-8.981597900,0.093286008,0.160685673,1.117333770
6.657766,22.317260742,-1.253845215,-9.965789795,0.100488156,0.130656376,1.133447051
6.658391,23.568481445,-0.979187012,-10.866058350,0.078149289,0.152629033,1.150292754
6.659016,24.705261230,-0.826599121,-11.926544189,0.075463742,0.170817509,1.155419707
6.659643,25.323242188,-0.719787598,-13.360870361,0.042260621,0.212687626,1.140649199
6.660271,25.285095215,-1.383544922,-14.932525635,0.009667847,0.277018666,1.110375762
6.660896,24.621337891,-2.650024414,-15.779388428,-0.030615356,0.314982533,1.087548614
6.661522,22.698730469,-3.252746582,-16.290557861,-0.036963012,0.271647573,1.061059356
6.662148,20.387023926,-2.680541992,-17.824066162,0.004907105,0.193522587,1.030419707
6.681373,-4.675537109,-3.931762695,-21.180999756,-0.014257934,-0.222615108,1.099999785
6.682128,-2.821594238,-4.084350586,-20.997894287,0.001122925,-0.233845577,1.119897246
6.682754,-1.509338379,-3.962280273,-20.318878174,0.017724488,-0.236164913,1.139672637
6.683379,-0.616699219,-4.153015137,-19.891632080,0.037011597,-0.249836788,1.165795684
6.684006,0.573486328,-3.527404785,-19.594085693,0.042626832,-0.251667857,1.188866973
6.684632,2.114624023,-2.604248047,-19.418609619,0.046899293,-0.250203013,1.211816192
6.685257,3.869384766,-1.467468262,-18.892181396,0.040307496,-0.239827022,1.234643340
6.685882,5.822509766,-0.521423340,-19.075286865,0.041161988,-0.237019405,1.249169707
6.686507,7.516235352,-0.170471191,-18.991363525,0.034081910,-0.228840694,1.259179473
6.687133,8.431762695,0.424621582,-18.976104736,0.027978394,-0.223469600,1.263085723
6.687758,8.637756348,0.577209473,-18.594635010,0.013940308,-0.230427608,1.258935332
6.688384,8.782714844,0.439880371,-17.778289795,-0.003515746,-0.232380733,1.255639434
6.689009,9.019226074,0.752685547,-17.518890381,-0.012793090,-0.232258663,1.248193145
6.689635,9.377807617,0.333068848,-17.137420654,-0.018408325,-0.213581905,1.238793731
6.690261,9.995788574,0.165222168,-16.717803955,-0.016455200,-0.187214717,1.224023223
6.690886,10.957092285,-0.178100586,-16.458404541,-0.017920043,-0.161457881,1.204003692
6.691511,11.559814453,-0.750305176,-16.435516357,-0.026220825,-0.135701045,1.174096465
6.692136,11.376708984,-1.330139160,-16.145599365,-0.028784301,-0.108479373,1.138085723
6.692761,10.667175293,-1.131774902,-15.878570557,-0.035742309,-0.092610233,1.098412871
6.693387,9.293884277,-1.566650391,-15.397918701,-0.030737426,-0.077961795,1.060449004
6.694014,7.981628418,-1.269104004,-15.039337158,-0.020361450,-0.068562381,1.024682403
6.694639,6.783813477,-0.826599121,-14.848602295,0.000634644,-0.062336791,0.983178496
6.695266,5.891174316,-0.300170898,-14.367950439,0.008447144,-0.054524291,0.953759551
6.695892,5.540222168,-0.056030273,-13.734710693,0.013574097,-0.045491088,0.927026153
6.696518,5.181640625,0.577209473,-13.376129150,0.006860230,-0.035847533,0.902490020
6.697143,4.983276367,1.118896484,-13.009918213,0.006616089,-0.029866088,0.880273223
6.697769,4.426330566,1.797912598,-12.811553955,0.014672730,-0.026326049,0.867089629
6.698395,4.472106934,2.400634766,-12.323272705,0.003564332,-0.026081908,0.852929473
6.699020,4.533142090,2.942321777,-11.934173584,0.000512574,-0.028279174,0.849267364
6.699646,4.754394531,3.049133301,-11.598480225,-0.012182739,-0.022663940,0.844628692
6.700271,4.617065430,2.652404785,-11.392486572,-0.029272582,-0.011433472,0.844384551
6.700897,4.792541504,2.446411133,-11.117828369,-0.046484496,-0.003132691,0.849145293
6.701523,4.403442383,1.950500488,-10.766876221,-0.060522582,0.007121216,0.858544707
6.702150,4.006713867,1.324890137,-10.454071045,-0.061132934,0.007243286,0.867699981
6.702776,3.457397461,0.577209473,-10.240447998,-0.059546020,0.002360473,0.879662871
6.703403,3.068298340,0.111816406,-10.080230713,-0.044409301,-0.003010620,0.891625762
6.704031,2.671569824,-0.521423340,-9.851348877,-0.032690551,-0.009480347,0.903222442
6.704658,2.480834961,-0.849487305,-9.569061279,-0.026953246,-0.013386597,0.913720489
6.705283,2.419799805,-1.337768555,-9.553802490,-0.026220825,-0.019978393,0.925195098
6.705910,2.152770996,-1.436950684,-9.248626709,-0.026831176,-0.020466674,0.931298614
6.706537,1.969665527,-1.787902832,-9.179962158,-0.023169067,-0.024983276,0.937280059
6.707162,1.786560059,-1.780273438,-9.050262451,-0.024145629,-0.028645385,0.943627715
6.707787,1.450866699,-2.001525879,-8.989227295,-0.015478637,-0.037678588,0.948266387
6.708414,1.595825195,-2.421142578,-8.760345459,-0.002539184,-0.049031127,0.959008574
6.709039,2.168029785,-2.283813477,-8.615386963,-0.000708129,-0.055867065,0.974633574
6.709665,2.839416504,-2.108337402,-8.439910889,0.003686402,-0.056721557,0.985741973
6.710291,3.724426270,-2.077819824,-8.523834229,0.006982300,-0.060505737,0.995141387
6.710917,4.380554199,-2.100708008,-8.531463623,0.009545777,-0.070271365,1.008202910
6.723578,3.358215332,2.873657227,-7.577789307,0.030419800,-0.022786010,1.050439239
6.724367,3.457397461,3.155944824,-7.249725342,0.027368043,-0.031330932,1.041161895
6.724992,3.838867188,3.720520020,-7.142913818,0.019677613,-0.027668823,1.031518340
6.725618,3.976196289,3.957031250,-7.280242920,0.010522339,-0.021931518,1.029443145
6.726245,4.357666016,4.262207031,-6.997955322,0.005517457,-0.012532105,1.027001739
6.726870,4.639953613,4.422424316,-7.203948975,0.000024293,-0.007283081,1.025414824
6.727497,4.899353027,4.254577637,-6.997955322,0.002831910,-0.006306519,1.020165801
6.728123,5.090087891,4.277465820,-7.181060791,-0.000830200,-0.009114136,1.017480254
6.728750,4.929870605,4.338500977,-6.959808350,0.002587769,-0.013020386,1.013940215
6.729375,4.807800293,4.460571289,-7.112396240,0.002831910,-0.023274291,1.011742949
6.730002,5.174011230,4.323242188,-6.814849854,0.005151246,-0.013508667,1.007104278
6.730628,4.838317871,4.468200684,-6.837738037,0.003320191,-0.006794800,1.007714629
6.731254,4.731506348,4.437683105,-6.753814697,-0.009130981,-0.002156128,1.002587676
6.731879,4.342407227,4.430053711,-7.020843506,-0.016455200,0.002360473,1.000512481
6.732504,3.907531738,4.193542480,-6.761444092,-0.016455200,0.000407348,0.995751739
6.733131,3.442138672,4.101989746,-6.791961670,-0.005102661,-0.018025268,0.992577910
6.733757,2.961486816,4.262207031,-6.647003174,-0.004248168,-0.027058471,0.982568145
6.734383,2.770751953,4.414794922,-6.486785889,-0.003149536,-0.036946166,0.982324004
6.735009,2.671569824,4.071472168,-6.235015869,-0.006689575,-0.038288940,0.975854278
6.735635,3.060668945,4.048583984,-6.082427979,-0.016088989,-0.037922729,0.973657012
6.736262,3.449768066,3.567932129,-6.196868896,-0.019140746,-0.038411010,0.963158965
6.736887,4.220336914,3.331420898,-6.166351318,-0.026953246,-0.043415893,0.957665801
6.737513,4.563659668,3.110168457,-6.296051025,-0.028296020,-0.048054565,0.953393340
6.738140,5.364746094,2.888916016,-6.173980713,-0.024511840,-0.053913940,0.949731231
6.738766,6.005615234,2.782104492,-5.998504639,-0.017187621,-0.071125858,0.946679473
6.739393,6.585449219,2.660034180,-5.967987061,-0.018286254,-0.081745975,0.941796660
6.740020,7.165283203,2.660034180,-5.754364014,-0.020117309,-0.087117068,0.941430449
6.740647,8.042663574,2.286193848,-5.479705811,-0.021215942,-0.085286014,0.941308379
6.741272,8.172363281,2.148864746,-5.044830322,-0.028173950,-0.081990115,0.939599395
6.741897,8.210510254,1.912353516,-4.938018799,-0.035376098,-0.078572147,0.939233184
6.742522,8.309692383,1.797912598,-4.510772705,-0.036840942,-0.075032108,0.944115996
6.743147,8.210510254,1.775024414,-4.129302979,-0.038916137,-0.064656131,0.948754668
6.743774,7.516235352,1.698730469,-4.114044189,-0.035864379,-0.062825076,0.949731231
6.744401,6.760925293,1.866577148,-3.892791748,-0.032080200,-0.083210818,0.950951934
6.746096,6.173461914,1.668212891,-2.656829834,-0.049780395,-0.109944217,0.937157989
6.746721,5.273193359,1.179931641,-2.214324951,-0.059057739,-0.118000858,0.928368926
6.747347,4.639953613,0.752685547,-1.977813721,-0.060522582,-0.134724483,0.924828887
6.747974,4.617065430,0.653503418,-0.940216064,-0.063574344,-0.154866084,0.916161895
6.748600,4.845947266,-0.002624512,-0.619781494,-0.063940555,-0.164875850,0.910668731
6.749226,5.082458496,-0.284912109,-0.116241455,-0.067114383,-0.173664913,0.901513457
6.749852,5.692810059,-0.963928223,0.188934326,-0.068457156,-0.174397334,0.894189239
6.750477,6.203979492,-1.780273438,1.020538330,-0.073950320,-0.176472530,0.885033965
6.751102,6.913513184,-2.070190430,1.417266846,-0.081884891,-0.175618038,0.875268340
6.751728,7.638305664,-2.939941406,1.867401123,-0.090307742,-0.172566280,0.866601348
6.752354,8.141845703,-3.771545410,2.401458740,-0.090307742,-0.165730342,0.858422637
6.752981,8.248657227,-4.465820312,2.996551514,-0.090918094,-0.158772334,0.849267364
6.753608,8.660644531,-5.129577637,3.454315186,-0.088354617,-0.155964717,0.841943145
6.754235,8.714050293,-6.060363770,4.301177979,-0.084936649,-0.156330928,0.836572051
6.754860,8.935302734,-6.647827148,4.736053467,-0.083593875,-0.155720577,0.830590606
6.767695,27.474731445,-9.554626465,13.471710205,0.088769406,-0.031086791,1.226342559
6.768432,25.971740723,-8.639099121,13.715850830,0.089257687,-0.010334839,1.275536895
6.769058,23.476928711,-7.845642090,14.318572998,0.089257687,0.003214966,1.330224395
6.769685,20.394653320,-6.502868652,14.791595459,0.090844601,0.022868287,1.381860137
6.770312,17.197937012,-4.595520020,15.104400635,0.094506711,0.048136842,1.421044707
6.770937,13.955444336,-3.168823242,15.264617920,0.093652219,0.074748166,1.450951934
6.771562,10.720581055,-1.497985840,15.340911865,0.091821164,0.082560666,1.471093535
6.772189,7.279724121,-0.086547852,15.325653076,0.075952023,0.074870236,1.481469512
6.772814,3.846496582,1.080749512,15.180694580,0.066918820,0.054362427,1.469628692
6.773441,-0.158935547,1.981018066,15.302764893,0.047265504,0.034587037,1.449242949
6.774067,-4.027038574,2.530334473,15.577423096,0.023217652,0.022746217,1.415185332
6.774693,-7.742553711,2.835510254,15.836822510,0.009423707,0.002238403,1.370141387
6.775319,-10.405212402,2.988098145,15.699493408,-0.003515746,-0.006306519,1.316552520
6.775945,-12.434631348,2.789733887,15.897857666,-0.017920043,-0.012898316,1.250390410
6.776570,-13.655334473,2.278564453,16.225921631,-0.022924926,-0.025105346,1.187646270
6.777197,-14.227539062,2.209899902,16.149627686,-0.014135864,-0.039631713,1.117455840
6.777848,-14.052062988,2.263305664,16.042816162,-0.005468871,-0.055012573,1.054345489
6.778473,-13.807922363,2.339599609,16.088592529,0.008691285,-0.067707889,1.000390410
6.779098,-13.090759277,2.415893555,16.340362549,0.015283082,-0.082478397,0.947533965
6.779724,-11.618286133,2.232788086,16.546356201,0.027001832,-0.100422733,0.887109160
6.780350,-9.047180176,2.591369629,16.645538330,0.022973511,-0.115071170,0.828759551
6.780975,-6.384521484,2.904174805,16.889678955,0.007226441,-0.120076053,0.781884551
6.781600,-3.523498535,2.888916016,17.027008057,-0.014257934,-0.102742068,0.752587676
6.782226,-0.532775879,2.347229004,16.843902588,-0.029760864,-0.090046756,0.739892364
6.782851,2.595275879,2.164123535,16.958343506,-0.036108520,-0.080281131,0.736962676
6.783478,6.036132812,1.713989258,16.683685303,-0.040869262,-0.070393436,0.738427520
6.784104,9.850830078,1.546142578,16.416656494,-0.035986450,-0.059895385,0.739282012
6.784729,12.894958496,0.607727051,16.256439209,-0.036352661,-0.054524291,0.752465606
6.785356,15.473693848,-0.521423340,15.928375244,-0.051489379,-0.037312377,0.766259551
6.785981,17.335266113,-1.391174316,16.042816162,-0.058813598,-0.026203979,0.789330840
6.786608,18.960327148,-2.466918945,15.806304932,-0.056494262,-0.002644409,0.813500762
6.787233,20.219177246,-3.451110840,15.676605225,-0.057959106,0.030924927,0.835595489
6.787858,20.959228516,-4.412414551,15.516387939,-0.057592895,0.066569455,0.858422637
6.788483,21.684020996,-5.289794922,15.249359131,-0.050756957,0.091838010,0.882714629
6.789108,22.302001953,-6.029846191,14.928924561,-0.042089965,0.115641721,0.906030059
6.789733,22.157043457,-6.457092285,14.486419678,-0.033178832,0.132609501,0.925195098
6.790359,22.401184082,-6.823303223,14.188873291,-0.021948364,0.134928837,0.943139434
6.790985,22.210449219,-7.128479004,13.784515381,-0.011694457,0.138957158,0.957665801
6.791610,21.996826172,-7.715942383,13.227569580,0.003686402,0.148478642,0.972436309
6.792237,21.745056152,-7.906677246,13.029205322,0.018456910,0.158854619,0.990014434
6.792862,20.860046387,-8.188964844,12.258636475,0.038720582,0.172038212,1.005517364
6.793489,20.242065430,-8.150817871,11.991607666,0.057031129,0.184611455,1.018823028
6.794114,19.296020508,-7.860900879,11.709320068,0.070580930,0.201213017,1.031152129
6.794741,17.258972168,-6.121398926,10.961639404,0.090722531,0.221842900,1.064111114
6.795367,17.258972168,-6.121398926,10.961639404,0.090722531,0.221842900,1.064111114
6.795992,14.962524414,-3.954650879,9.817230225,0.094750851,0.254191518,1.096215606
6.796619,12.948364258,-3.130676270,9.466278076,0.093163937,0.261637807,1.107690215
6.797244,10.972351074,-2.199890137,9.115325928,0.077050656,0.265055776,1.116601348
6.809881,-0.044494629,-2.207519531,0.974761963,-0.002417114,0.011027466,0.843285918
6.810604,1.046508789,-2.352478027,1.035797119,-0.008398559,-0.001179566,0.853906035
6.811231,1.839965820,-2.268554688,0.776397705,-0.009375121,-0.012287964,0.866235137
6.811856,2.663940430,-2.718688965,0.875579834,-0.015356567,-0.024739135,0.881127715
6.812481,3.281921387,-2.955200195,1.051055908,-0.024633911,-0.038777221,0.899926543
6.813107,4.121154785,-3.351928711,1.051055908,-0.029150512,-0.042683471,0.914330840
6.813733,4.556030273,-3.626586914,1.081573486,-0.031103637,-0.050740112,0.936913848
6.814359,4.670471191,-3.985168457,1.318084717,-0.029638793,-0.070149295,0.955224395
6.814985,4.754394531,-3.992797852,1.760589600,-0.027685668,-0.090779178,0.975732207
6.815611,4.739135742,-4.000427246,1.936065674,-0.028540161,-0.103962772,0.992944121
6.816238,4.182189941,-4.030944824,2.500640869,-0.028662231,-0.117390506,1.007836699
6.816863,3.472656250,-4.473449707,3.156768799,-0.032446411,-0.120442264,1.017724395
6.817488,2.679199219,-4.816772461,3.835784912,-0.039526489,-0.118733279,1.023583770
6.818114,1.893371582,-5.373718262,4.041778564,-0.050146606,-0.108479373,1.026513457
6.818739,1.046508789,-6.090881348,4.850494385,-0.055273559,-0.091389529,1.021874785
6.819365,0.840515137,-7.036926270,5.087005615,-0.060400512,-0.081501834,1.016137481
6.819991,0.626892090,-7.364990234,5.109893799,-0.050756957,-0.068928592,1.011254668
6.820616,1.046508789,-8.333923340,5.598175049,-0.054296996,-0.052204955,0.998803496
6.821241,1.244873047,-8.852722168,5.552398682,-0.050268676,-0.037922729,0.981957793
6.821866,1.130432129,-9.638549805,5.651580811,-0.044165161,-0.044270385,0.963647246
6.822491,1.099914551,-10.149719238,5.819427490,-0.030859496,-0.056965698,0.950951934
6.823117,0.855773926,-10.142089844,6.147491455,-0.019262817,-0.065998904,0.937402129
6.823743,1.427978516,-10.111572266,6.475555420,-0.018408325,-0.073567264,0.926293731
6.824368,1.923889160,-10.081054688,6.643402100,-0.016455200,-0.081013553,0.917992949
6.824993,3.251403809,-10.126831055,6.574737549,-0.024389770,-0.088337772,0.907372832
6.825618,4.525512695,-10.203125000,6.689178467,-0.038549926,-0.095417850,0.897729278
6.826243,5.708068848,-10.645629883,6.956207275,-0.051489379,-0.108723514,0.885400176
6.826869,6.493896484,-11.309387207,7.124053955,-0.061499145,-0.122395389,0.878442168
6.827495,6.913513184,-11.767150879,7.398712158,-0.061010864,-0.140950069,0.873803496
6.828120,7.462829590,-12.079956055,7.612335205,-0.059912231,-0.156086788,0.872216582
6.828745,8.309692383,-12.484313965,8.092987061,-0.051001098,-0.171833858,0.875756621
6.829370,9.599060059,-12.499572754,8.428680420,-0.038183715,-0.181965694,0.880639434
6.829997,11.041015625,-12.964965820,8.604156494,-0.032568481,-0.194661006,0.888696074
6.830623,12.559265137,-13.178588867,8.939849854,-0.029638793,-0.205525264,0.895898223
6.831248,14.649719238,-13.567687988,9.542572021,-0.033911254,-0.206990108,0.903954864
6.831874,16.457885742,-13.987304688,9.847747803,-0.035620239,-0.207966670,0.912133574
6.832500,18.060058594,-14.315368652,10.015594482,-0.037207153,-0.205281124,0.927636504
6.833126,19.601196289,-14.620544434,10.580169678,-0.032080200,-0.204548702,0.943871856
6.833753,21.279663086,-14.933349609,10.923492432,-0.025366332,-0.198078975,0.962182403
6.834379,23.049682617,-15.116455078,11.190521240,-0.016577270,-0.191243038,0.982201934
6.835004,24.484008789,-15.223266602,11.480438232,-0.011450317,-0.179280147,1.003808379
6.835631,26.589721680,-15.566589355,11.976348877,-0.006323364,-0.167805538,1.023949981
6.836256,28.207153320,-15.635253906,12.075531006,-0.005346801,-0.144490108,1.045678496
6.836882,29.588073730,-15.940429688,12.365447998,0.000634644,-0.118733279,1.059106231
6.837508,30.732482910,-16.421081543,12.662994385,0.002587769,-0.093586795,1.074120879
6.838135,31.419128418,-16.901733398,12.632476807,0.008080933,-0.067341678,1.086694121
6.838760,32.128662109,-17.214538574,12.678253174,0.012475464,-0.041462768,1.100732207
6.839385,32.449096680,-16.962768555,12.830841064,0.020287964,-0.028157104,1.116723418
6.853256,-8.268981934,2.248046875,22.657501221,-0.013403442,-0.126179561,1.016747832
6.854272,-7.872253418,2.469299316,23.779022217,-0.024145629,-0.079304568,1.018700957
6.855081,-7.200866699,2.270935059,24.282562256,-0.002172973,-0.063923709,1.023705840
6.855887,-6.033569336,2.644775391,24.946319580,0.039819214,-0.093098514,1.033959746
6.856524,-5.209594727,3.102539062,25.297271729,0.039453004,-0.108723514,1.041039824
6.857275,-4.255920410,3.255126953,25.632965088,0.022363160,-0.103962772,1.044946074
6.857900,-3.348022461,3.110168457,25.716888428,0.007958863,-0.091145389,1.047753692
6.858525,-2.424865723,2.942321777,25.861846924,-0.003271606,-0.064778201,1.052880645
6.859150,-1.524597168,2.904174805,26.136505127,-0.009375121,-0.043782104,1.057031035
6.859775,-1.059204102,2.804992676,26.250946045,-0.003149536,-0.028157104,1.058373809
6.860401,-0.845581055,2.782104492,26.350128174,0.002465699,-0.017659057,1.060449004
6.861032,-0.761657715,2.675292969,26.258575439,0.001244996,-0.008137573,1.064111114
6.861657,-0.921875000,2.377746582,26.472198486,0.014062379,-0.002888550,1.063134551
6.862282,-1.310974121,2.782104492,26.449310303,0.024560425,-0.001789917,1.057153106
6.862907,-1.455932617,2.278564453,26.266204834,0.010888550,0.015177856,1.051171660
6.863533,-1.875549316,2.270935059,26.472198486,-0.001440551,0.041422974,1.044213653
6.864159,-2.478271484,2.148864746,26.487457275,-0.002661254,0.056925904,1.031518340
6.864784,-2.913146973,2.431152344,25.930511475,0.000634644,0.054728638,1.016625762
6.865410,-3.988891602,2.438781738,25.999176025,0.010156129,0.057658326,1.004174590
6.866036,-4.690795898,2.644775391,26.044952393,0.025903199,0.050212037,0.993188262
6.866663,-5.217224121,3.339050293,26.090728760,0.035424683,0.049357545,0.984399199
6.867289,-5.667358398,3.308532715,26.311981201,0.027368043,0.055338990,0.969994903
6.867914,-6.102233887,3.247497559,26.083099365,0.018212769,0.067057736,0.952172637
6.868540,-6.430297852,3.140686035,25.991546631,-0.001684692,0.084513791,0.936669707
6.869165,-6.941467285,3.087280273,26.136505127,-0.002783325,0.093791135,0.923608184
6.869792,-7.712036133,3.247497559,26.029693604,0.002099488,0.095378049,0.915795684
6.870418,-8.604675293,3.453491211,26.075469971,0.010156129,0.093058713,0.912499785
6.871043,-8.879333496,3.735778809,25.983917236,0.031762574,0.077555783,0.918725371
6.871669,-8.253723145,3.476379395,25.861846924,0.036035035,0.064616330,0.926171660
6.872295,-6.827026367,2.850769043,25.587188721,0.028954957,0.069132932,0.932519317
6.872922,-4.576354980,2.530334473,25.121795654,0.025781129,0.074137814,0.945702910
6.873549,-2.356201172,2.545593262,24.526702881,0.010644410,0.074992307,0.948144317
6.874175,-0.761657715,2.362487793,23.901092529,-0.002783325,0.095255978,0.948510528
6.874800,-0.403076172,1.630065918,24.046051025,-0.007666137,0.124064572,0.953637481
6.875426,-1.372009277,0.462768555,23.786651611,0.009179566,0.135783330,0.961327910
6.876051,-2.218872070,0.066040039,23.862945557,0.024804566,0.139567509,0.964867949
6.876676,-3.119140625,0.317810059,23.580657959,0.035424683,0.143962041,0.981225371
6.877302,-3.378540039,0.935791016,23.260223389,0.053613160,0.145671025,0.992333770
6.877927,-3.622680664,1.813171387,22.840606689,0.057885621,0.161784306,0.999535918
6.878552,-4.210144043,1.729248047,22.543060303,0.049096558,0.172282353,1.006005645
6.879178,-5.438476562,1.691101074,22.222625732,0.039330933,0.178996220,1.006493926
6.879803,-7.040649414,1.958129883,22.169219971,0.032128785,0.171061650,1.007226348
6.880428,-9.222656250,2.598999023,21.894561768,0.026757691,0.159831181,1.011376739
6.881055,-11.274963379,3.010986328,21.795379639,0.038476441,0.148722783,1.014062285
6.881682,-12.991577148,3.278015137,21.574127197,0.050317261,0.137370244,1.020043731
6.882308,-14.403015137,3.659484863,21.528350830,0.052880738,0.121134885,1.024316192
6.882934,-15.303283691,4.216430664,21.406280518,0.051537964,0.097941525,1.031640410
6.883559,-15.967041016,5.315063477,21.642791748,0.049828980,0.074015744,1.034936309
6.884184,-16.607910156,5.940673828,21.597015381,0.036889527,0.053996217,1.035302520
6.896835,-21.734863281,3.369567871,33.720123291,-0.055029418,-0.251423717,0.917504668
6.897592,-21.315246582,3.194091797,34.292327881,-0.032202270,-0.251423717,0.920068145
6.898219,-20.575195312,3.155944824,35.177337646,-0.039648559,-0.259358287,0.918603301
6.898844,-19.415527344,3.064392090,35.841094971,-0.046118286,-0.271077037,0.919213653
6.899469,-17.393737793,2.789733887,36.115753174,-0.056860473,-0.285847545,0.917016387
6.900096,-15.516906738,2.461669922,36.481964111,-0.064428836,-0.298298717,0.909814239
6.900722,-12.922912598,1.561401367,36.840545654,-0.088476688,-0.295979381,0.904076934
6.901348,-10.595947266,-0.162841797,37.397491455,-0.117407352,-0.296711802,0.891259551
6.901973,-7.864624023,-2.588989258,38.015472412,-0.137915164,-0.304768443,0.885522246
6.902598,-4.522949219,-4.702331543,38.297760010,-0.134741336,-0.306843638,0.882348418
6.903225,-0.692993164,-5.930664062,37.939178467,-0.114721805,-0.299275279,0.878320098
6.903852,3.220886230,-7.212402344,37.801849365,-0.095922977,-0.269612193,0.877953887
6.904477,6.829589844,-8.845092773,38.221466064,-0.080786258,-0.227253780,0.876000762
6.905102,9.850830078,-10.630371094,38.343536377,-0.072729617,-0.201252803,0.868310332
6.905727,11.788696289,-11.614562988,38.137542725,-0.047583129,-0.192219600,0.861596465
6.906352,13.558715820,-11.637451172,37.725555420,-0.032812621,-0.163655147,0.853295684
6.906978,14.764160156,-11.736633301,37.824737549,-0.018286254,-0.135578975,0.856469512
6.907603,15.565246582,-11.347534180,38.183319092,-0.016577270,-0.124348514,0.854516387
6.908228,17.472595215,-11.721374512,38.236724854,-0.015478637,-0.124226443,0.856225371
6.908854,19.273132324,-12.247802734,38.244354248,-0.037207153,-0.109211795,0.862084746
6.909479,21.516174316,-13.033630371,37.832366943,-0.044409301,-0.107380740,0.865136504
6.910105,23.759216309,-13.460876465,37.710296631,-0.056005981,-0.107136600,0.871362090
6.910730,25.788635254,-14.826538086,37.748443604,-0.064550906,-0.088337772,0.876855254
6.911356,27.963012695,-15.894653320,37.389862061,-0.045752075,-0.081257693,0.885766387
6.911981,29.717773438,-17.313720703,37.206756592,-0.042578246,-0.049397338,0.894311309
6.912608,33.028930664,-19.793273926,36.527740479,-0.038549926,0.016398560,0.897729278
6.913233,33.028930664,-19.793273926,36.527740479,-0.038549926,0.016398560,0.897729278
6.913858,33.440917969,-20.510437012,36.069976807,-0.029882934,0.048625123,0.897485137
6.914485,33.356994629,-20.533325195,35.719024658,-0.004126098,0.066813596,0.899072051
6.915111,33.151000977,-20.731689453,35.528289795,-0.013281371,0.087077267,0.898095489
6.915738,32.731384277,-20.190002441,35.925018311,-0.011206176,0.073039182,0.896142364
6.916363,31.228393555,-18.679382324,35.482513428,0.015038941,0.007121216,0.889794707
6.916988,29.977172852,-19.152404785,35.192596436,0.034936402,-0.027668823,0.888207793
6.917615,29.633850098,-19.739868164,35.940277100,0.030908082,-0.052204955,0.898461699
6.918241,30.503601074,-20.014526367,36.367523193,0.012231324,-0.045369018,0.910912871
6.918867,32.433837891,-20.167114258,36.695587158,-0.019506957,-0.006916870,0.927392364
6.919493,33.997863770,-20.777465820,36.031829834,-0.027441528,0.033488404,0.943383574
6.920119,35.790771484,-21.235229492,35.703765869,0.004418824,0.050578248,0.960595489
6.920744,37.072509766,-21.677734375,35.421478271,0.051171754,0.057902467,0.986962676
6.921369,37.621826172,-21.418334961,35.795318604,0.088891476,0.064250119,1.017724395
6.921995,37.812561035,-20.914794922,35.894500732,0.114770383,0.069499142,1.055688262
6.922622,37.507385254,-19.640686035,36.039459229,0.139062375,0.082804807,1.094018340
6.923247,36.767333984,-17.924072266,36.100494385,0.143701047,0.111125119,1.126977324
6.923873,35.905212402,-16.337158203,35.841094971,0.125634640,0.160685673,1.161401153
6.924500,35.073608398,-15.436889648,36.237823486,0.102197140,0.203776494,1.192040801
6.931674,6.821960449,-9.257080078,32.056915283,0.105615109,0.191325322,1.181786895
6.932300,4.983276367,-8.082153320,31.759368896,0.112695187,0.175212041,1.151391387
6.932926,4.121154785,-7.288696289,31.530487061,0.116479367,0.162638798,1.126611114
6.945485,8.065551758,-4.046203613,26.891815186,0.031640504,0.111979611,0.965844512
6.946198,8.210510254,-4.259826660,26.449310303,0.034203980,0.122233517,0.988305449
6.946825,8.401245117,-4.091979980,25.739776611,0.046533082,0.134562626,1.012109160
6.947452,8.027404785,-3.596069336,25.289642334,0.055444214,0.150675908,1.030297637
6.948078,6.814331055,-2.695800781,25.060760498,0.061669800,0.166300908,1.051904082
6.948703,5.448669434,-2.199890137,25.198089600,0.077783078,0.168376103,1.072533965
6.949329,3.915161133,-1.871826172,24.839508057,0.082177609,0.150675908,1.091088653
6.950034,2.999633789,-1.696350098,24.061309814,0.079980344,0.135905400,1.113305449
6.950660,3.197998047,-1.414062500,24.023162842,0.079858273,0.123942502,1.129052520
6.951285,3.510803223,-1.330139160,23.542510986,0.058373902,0.127360478,1.139672637
6.951911,3.403991699,-1.543762207,23.183929443,0.035302613,0.144816533,1.151269317
6.953636,0.863403320,-1.147033691,22.070037842,0.055810425,0.153239384,1.142968535
6.954263,0.336975098,-1.490356445,21.978485107,0.081445187,0.177409306,1.145409942
6.954890,-0.883728027,-1.391174316,21.131622314,0.104272336,0.186686650,1.141381621
6.955515,-1.700073242,-0.643493652,20.628082275,0.105493039,0.201335087,1.135644317
6.956142,-2.768188477,0.005004883,20.506011963,0.104394406,0.212077275,1.128930449
6.956767,-4.034667969,1.431701660,20.353424072,0.109521359,0.206584111,1.127221465
6.957393,-5.484252930,2.408264160,20.078765869,0.124536008,0.203898564,1.124169707
6.958018,-6.857543945,3.827331543,19.247161865,0.142236203,0.202555791,1.123315215
6.958643,-7.467895508,4.979370117,18.941986084,0.150292844,0.207316533,1.132226348
6.959268,-7.918029785,5.925415039,18.522369385,0.140405148,0.202922001,1.132592559
6.959895,-7.795959473,6.932495117,18.148529053,0.131005734,0.181437626,1.133569121
6.960520,-8.024841309,8.130310059,17.606842041,0.107934445,0.177043095,1.133813262
6.961145,-8.696228027,9.022949219,16.859161377,0.089501828,0.187785283,1.131371856
6.961771,-10.061889648,9.473083496,16.683685303,0.080346555,0.197917119,1.131127715
6.962397,-11.747985840,9.701965332,16.256439209,0.078271359,0.193888798,1.134057403
6.963030,-12.648254395,10.701416016,15.913116455,0.093041867,0.168864384,1.141747832
6.963655,-13.395935059,11.609313965,15.272247314,0.099511594,0.151774541,1.141137481
6.964281,-13.716369629,12.486694336,14.486419678,0.089623898,0.145793095,1.141381621
6.964907,-13.975769043,12.448547363,13.959991455,0.077050656,0.161540166,1.135278106
6.965533,-14.303833008,12.425659180,13.532745361,0.072289914,0.167155400,1.120263457
6.966158,-14.593750000,11.937377930,12.693511963,0.060082886,0.170573369,1.103783965
6.966785,-15.196472168,12.051818848,12.258636475,0.049706910,0.175822392,1.092187285
6.967412,-15.211730957,12.227294922,11.648284912,0.047509644,0.173380986,1.081445098
6.968039,-15.364318848,12.997863770,10.915863037,0.060571168,0.151530400,1.060937285
6.968665,-15.371948242,13.142822266,10.191070557,0.080956906,0.115275510,1.051171660
6.969291,-14.670043945,13.386962891,9.939300537,0.074853390,0.099894650,1.039086699
6.969918,-13.624816895,13.486145020,9.779083252,0.076562375,0.113444455,1.032739043
6.970543,-12.282043457,13.127563477,9.046661377,0.076684445,0.129313603,1.020654082
6.971169,-10.931640625,12.974975586,8.062469482,0.050927613,0.158122197,1.005273223
6.971794,-10.222106934,12.807128906,7.688629150,0.036645386,0.181437626,0.993188262
6.972419,-9.756713867,12.883422852,7.413970947,0.030663941,0.178141728,0.982324004
6.973145,-9.428649902,12.662170410,6.170379639,0.042993043,0.162150517,0.977319121
6.973845,-9.161621094,12.837646484,5.605804443,0.060327027,0.160075322,0.978783965
6.974590,-9.153991699,12.768981934,5.140411377,0.073632687,0.154826298,0.975610137
6.975339,-8.787780762,12.578247070,4.484283447,0.072167844,0.162882939,0.974755645
6.976078,-8.368164062,12.448547363,4.270660400,0.058129761,0.178507939,0.974023223
6.976924,-8.192687988,12.265441895,3.225433350,0.028588746,0.206339970,0.969018340
6.977550,-8.307128906,12.654541016,2.287017822,0.039330933,0.205485478,0.969872832
6.990323,-9.245544434,11.502502441,-6.189239502,0.046288941,0.027384888,0.989404082
6.991092,-8.795410156,11.876342773,-6.448638916,0.038598511,0.021891724,0.997826934
6.991717,-8.513122559,11.952636719,-6.654632568,0.021386597,0.012858520,1.007226348
6.992344,-7.719665527,11.685607910,-6.807220459,0.001611207,0.005900512,1.015160918
6.992970,-7.315307617,11.441467285,-6.822479248,-0.015844848,-0.005574097,1.020532012
6.993596,-7.414489746,11.159179688,-6.837738037,-0.024511840,-0.023762573,1.025658965
6.994265,-7.826477051,10.953186035,-6.563079834,-0.027197387,-0.042561401,1.026513457
6.994890,-8.574157715,10.625122070,-6.685150146,-0.015112426,-0.060749877,1.031396270
6.995515,-8.787780762,10.358093262,-6.288421631,-0.000219848,-0.073567264,1.035912871
6.996140,-8.558898926,10.449645996,-5.922210693,0.001244996,-0.084431522,1.034570098
6.996765,-8.330017090,9.854553223,-5.441558838,-0.015356567,-0.085652225,1.027734160
6.997391,-8.131652832,9.808776855,-5.281341553,-0.028662231,-0.096638553,1.018212676
6.998016,-8.322387695,9.747741699,-5.044830322,-0.025976684,-0.123005740,1.006371856
6.998641,-8.864074707,9.633300781,-4.800689697,-0.026831176,-0.138020381,0.993432403
6.999266,-8.894592285,9.633300781,-4.083526611,-0.022924926,-0.158650264,0.983788848
6.999893,-8.513122559,9.694335938,-3.091705322,-0.021582153,-0.180867061,0.979638457
7.000519,-8.139282227,9.854553223,-2.336395264,-0.032324340,-0.190876827,0.971215606
7.001144,-7.330566406,9.633300781,-1.954925537,-0.047583129,-0.191975459,0.957787871
7.001771,-6.842285156,8.931396484,-1.352203369,-0.063452274,-0.187458858,0.945092559
7.002398,-6.170898438,7.931945801,-0.558746338,-0.071875125,-0.189900264,0.930932403
7.003032,-6.148010254,7.405517578,0.105010986,-0.070288211,-0.191243038,0.925195098
7.003658,-5.316406250,6.818054199,0.761138916,-0.064917117,-0.202107295,0.920678496
7.004284,-4.332214355,6.314514160,1.554595947,-0.055151489,-0.212361202,0.913354278
7.004911,-3.172546387,6.467102051,2.462493896,-0.056738403,-0.199787959,0.905419707
7.005537,-2.821594238,6.085632324,3.217803955,-0.060034301,-0.185749874,0.898095489
7.006164,-3.096252441,5.414245605,4.026519775,-0.054785278,-0.184895381,0.892480254
7.006790,-3.866821289,5.070922852,5.155670166,-0.053564575,-0.198445186,0.895654082
7.007415,-4.583984375,5.521057129,6.239044189,-0.044775512,-0.225178584,0.904565215
7.008040,-4.889160156,6.520507812,7.680999756,-0.020727661,-0.248860225,0.920068145
7.008665,-4.789978027,7.664916992,9.924041748,-0.009497192,-0.258015513,0.952905059
7.009292,-4.789978027,7.664916992,9.924041748,-0.009497192,-0.258015513,0.952905059
7.009919,-3.721862793,6.856201172,12.525665283,-0.078344852,-0.247639522,0.983300567
7.010544,-3.874450684,6.505249023,13.616668701,-0.099096805,-0.249348506,0.997460723
7.011170,-5.118041992,6.619689941,14.417755127,-0.093237430,-0.252644420,1.007104278
7.011795,-6.880432129,6.665466309,15.813934326,-0.067114383,-0.267170787,1.019555449
7.012421,-8.871704102,6.726501465,17.507659912,-0.032934692,-0.280354381,1.038476348
7.013048,-10.153442383,7.252929688,19.071685791,-0.021826293,-0.286946177,1.055688262
7.013674,-11.099487305,7.390258789,20.635711670,-0.030981567,-0.282063365,1.067895293
7.014301,-11.725097656,7.443664551,21.482574463,-0.036718871,-0.282551646,1.071435332
7.014928,-12.365966797,7.878540039,23.046600342,-0.037329223,-0.297688365,1.074120879
7.015554,-12.961059570,8.313415527,24.328338623,-0.040747192,-0.316975474,1.083032012
7.016179,-14.036804199,8.954284668,25.762664795,-0.044653442,-0.327839732,1.086083770
7.016805,-14.921813965,9.373901367,27.151214600,-0.043188598,-0.332112193,1.088158965
7.017431,-15.783935547,9.351013184,28.402435303,-0.041235473,-0.323445201,1.088647246
7.018058,-15.974670410,9.259460449,29.638397217,-0.032080200,-0.303181529,1.095239043
7.018685,-15.005737305,9.122131348,30.439483643,-0.030127075,-0.282673717,1.096337676
7.019310,-13.357788086,8.763549805,31.004058838,-0.031469848,-0.264973521,1.099145293
7.019937,-11.030822754,8.885620117,31.492340088,-0.023535278,-0.250813365,1.101586699
7.032500,-5.758911133,8.908508301,29.859649658,0.052758668,0.338786244,0.984155059
7.033208,-7.063537598,8.679626465,29.142486572,0.070214719,0.390177846,0.977929473
7.033833,-8.360534668,8.511779785,28.448211670,0.090478390,0.441447377,0.971459746
7.034460,-9.001403809,8.351562500,27.433502197,0.099633664,0.490031362,0.970239043
7.035087,-9.848266602,9.068725586,26.151763916,0.095971555,0.530802846,0.962548614
7.035713,-11.183410645,9.991882324,24.961578369,0.083642453,0.559245229,0.952294707
7.036338,-14.296203613,10.846374512,23.931610107,0.072045773,0.569377065,0.935571074
7.036964,-18.400817871,11.342285156,23.023712158,0.069604367,0.541178823,0.912743926
7.037591,-23.672729492,12.349365234,21.909820557,0.069116086,0.494059682,0.898217559
7.038217,-29.127746582,13.112304688,21.909820557,0.061669800,0.441203237,0.883080840
7.038844,-34.201293945,13.966796875,21.856414795,0.039086793,0.396647573,0.870263457
7.039470,-38.839965820,14.905212402,21.787750244,0.016992066,0.355631948,0.853661895
7.040096,-42.669921875,15.401123047,21.253692627,-0.001318481,0.311442494,0.833764434
7.040721,-45.797973633,15.568969727,20.818817139,-0.025244262,0.268229604,0.808617949
7.041348,-48.369079590,15.080688477,20.902740479,-0.035131957,0.208048955,0.789819121
7.041974,-49.795776367,14.760253906,21.139251709,-0.043798950,0.135783330,0.773339629
7.042599,-50.718933105,14.180419922,21.047698975,-0.044653442,0.066447385,0.762475371
7.043224,-51.367431641,13.875244141,20.841705322,-0.045141723,0.001261841,0.755883574
7.043849,-50.596862793,13.531921387,21.162139893,-0.043798950,-0.038777221,0.749047637
7.044474,-49.612670898,12.509582520,21.535980225,-0.048925903,-0.071492068,0.748681426
7.045101,-48.155456543,11.967895508,21.459686279,-0.054907348,-0.106160037,0.756249785
7.045726,-46.042114258,10.907409668,21.963226318,-0.056005981,-0.128743038,0.768334746
7.046352,-43.226867676,10.213134766,21.833526611,-0.062109496,-0.141438350,0.788476348
7.046977,-40.060668945,9.030578613,21.787750244,-0.072729617,-0.156330928,0.808984160
7.047604,-36.871582031,8.267639160,22.207366943,-0.081396610,-0.175862178,0.833764434
7.048229,-33.850341797,7.252929688,22.153961182,-0.087133914,-0.199421749,0.860253692
7.048856,-31.241088867,5.704162598,22.039520264,-0.078344852,-0.224812374,0.885644317
7.049482,-28.113037109,4.628417969,22.375213623,-0.069189578,-0.242878780,0.918481231
7.050109,-25.313049316,3.819702148,22.695648193,-0.059912231,-0.255818248,0.953027129
7.050735,-22.413879395,3.064392090,22.863494873,-0.047949340,-0.258015513,0.988427520
7.051360,-20.071655273,2.034423828,22.771942139,-0.044043090,-0.241047725,1.013451934
7.051987,-17.523437500,1.271484375,22.779571533,-0.048315551,-0.216999874,1.036767364
7.053892,-12.709289551,-1.009704590,23.206817627,-0.041113403,-0.165364131,1.079003692
7.054537,-11.458068848,-1.200439453,23.077117920,-0.025366332,-0.157063350,1.090356231
7.055162,-10.504394531,-1.452209473,23.122894287,-0.013403442,-0.147175655,1.098779082
7.055788,-10.061889648,-1.314880371,23.115264893,0.001244996,-0.143391475,1.103539824
7.056414,-9.382873535,-1.208068848,23.191558838,0.022241089,-0.144856319,1.111718535
7.057041,-8.787780762,-0.887634277,23.351776123,0.037866089,-0.146931514,1.120263457
7.057667,-8.398681641,-0.010253906,23.328887939,0.048364136,-0.142903194,1.124047637
7.058292,-7.651000977,0.905273438,23.733245850,0.055810425,-0.132771358,1.127221465
7.058919,-6.971984863,1.263854980,23.679840088,0.050073121,-0.113118045,1.129662871
7.059545,-6.247192383,1.660583496,23.893463135,0.041650269,-0.096394412,1.139184356
7.060170,-5.438476562,2.255676270,23.870574951,0.029199097,-0.084309451,1.140771270
7.060795,-4.164367676,3.079650879,23.969757080,0.021630738,-0.083943240,1.139428496
7.061421,-3.866821289,3.621337891,23.527252197,0.032128785,-0.083577029,1.147973418
7.062048,-3.485351562,4.285095215,23.656951904,0.044335816,-0.077351443,1.150292754
7.062673,-3.485351562,4.788635254,23.992645264,0.038232300,-0.058430541,1.154565215
7.063308,-3.409057617,4.666564941,24.030792236,0.032128785,-0.039753783,1.156640410
7.075990,15.832275391,2.049682617,27.052032471,-0.050390746,0.014445434,0.959130645
7.076769,16.282409668,1.866577148,27.006256104,-0.054419067,0.034587037,0.949853301
7.077396,16.404479980,2.011535645,26.785003662,-0.052588012,0.059977662,0.940453887
7.078030,16.389221191,1.263854980,26.151763916,-0.046240356,0.088908322,0.924828887
7.078655,15.862792969,0.180480957,26.319610596,-0.046362426,0.106242307,0.911523223
7.079281,15.244812012,-0.735046387,26.090728760,-0.036230590,0.102946408,0.897973418
7.079907,14.474243164,-1.665832520,25.938140869,-0.018774536,0.113444455,0.887475371
7.080532,12.948364258,-1.894714355,25.533782959,0.003076050,0.127116337,0.875024199
7.081158,12.055725098,-1.803161621,25.625335693,0.023461793,0.143962041,0.867211699
7.081785,11.193603516,-1.635314941,25.571929932,0.019433472,0.168742314,0.858422637
7.082410,10.796875000,-1.528503418,25.343048096,0.008080933,0.185343876,0.850121856
7.083036,10.972351074,-1.101257324,25.198089600,-0.008398559,0.192301884,0.846703887
7.083662,11.430114746,-0.727416992,24.557220459,-0.002905395,0.192790166,0.841943145
7.084288,11.781066895,-0.536682129,23.595916748,-0.003149536,0.211955205,0.834740996
7.084913,11.575073242,-1.398803711,23.176300049,0.002587769,0.219401494,0.829980254
7.085538,10.674804688,-3.145935059,22.909271240,0.015405152,0.201335087,0.825463653
7.086163,9.492248535,-4.732849121,22.565948486,0.026513550,0.186198369,0.830834746
7.086789,8.271545410,-5.366088867,22.466766357,0.042382691,0.182658330,0.833398223
7.087415,6.539672852,-5.099060059,22.520172119,0.050683472,0.185832158,0.843896270
7.088041,4.975646973,-4.015686035,22.413360596,0.055810425,0.197550908,0.849999785
7.088667,3.243774414,-2.550842285,22.543060303,0.037866089,0.208537236,0.855981231
7.089293,1.588195801,-1.711608887,22.543060303,0.009911988,0.213053837,0.864770293
7.089919,0.047058105,-1.009704590,22.626983643,-0.018652465,0.202677861,0.872704864
7.090546,-1.555114746,-0.330688477,22.497283936,-0.048559692,0.188151494,0.879784942
7.091171,-2.478271484,-0.002624512,22.382843018,-0.060156371,0.162516728,0.896386504
7.091797,-3.370910645,0.264404297,22.146331787,-0.062109496,0.147502080,0.922753692
7.092422,-3.904968262,-0.483276367,22.398101807,-0.065771610,0.145671025,0.943383574
7.093048,-3.912597656,-0.834228516,22.565948486,-0.065527469,0.137126103,0.964745879
7.093675,-3.935485840,-1.589538574,22.451507568,-0.065039188,0.118205197,0.989770293
7.094300,-3.828674316,-2.161743164,22.031890869,-0.077856570,0.107585080,1.003075957
7.094925,-3.935485840,-2.764465332,21.978485107,-0.093725711,0.108317502,1.008324981
7.095551,-4.561096191,-3.062011719,22.123443604,-0.109716922,0.103800900,1.017846465
7.096176,-4.469543457,-3.527404785,22.497283936,-0.135839969,0.104289182,1.028222442
7.096802,-3.958374023,-3.031494141,22.359954834,-0.145605594,0.114665158,1.040063262
7.097429,-2.318054199,-3.145935059,22.321807861,-0.136572391,0.127726689,1.052514434
7.098055,0.520080566,-2.810241699,21.413909912,-0.120581180,0.144084111,1.064233184
7.098682,3.182739258,-4.206420898,21.001922607,-0.120703250,0.154704228,1.065453887
7.099308,5.463928223,-5.732299805,20.399200439,-0.140356570,0.152995244,1.057031035
7.099933,7.394165039,-7.181884766,19.903289795,-0.154638797,0.151774541,1.047631621
7.100559,8.164733887,-8.486511230,19.193756104,-0.149267703,0.169840947,1.040307403
7.101186,8.469909668,-9.882690430,18.865692139,-0.129980594,0.190104619,1.035546660
7.101811,8.981079102,-10.485412598,18.529998779,-0.078955203,0.206706181,1.036645293
7.102437,9.789794922,-10.416748047,18.346893311,-0.025244262,0.221598759,1.035302520
7.103064,10.674804688,-9.600402832,18.148529053,0.025903199,0.231486455,1.031152129
7.103690,10.545104980,-9.546997070,17.156707764,0.040917847,0.255534291,1.017846465
7.104316,9.415954590,-10.294677734,16.645538330,0.018334839,0.283854604,0.988427520
7.104942,6.692260742,-10.622741699,16.882049561,-0.004858520,0.273966908,0.969018340
7.105567,4.800170898,-9.226562500,17.110931396,-0.024023559,0.252482533,0.954125762
7.106193,2.503723145,-6.579162598,16.683685303,-0.035131957,0.262004018,0.937035918
7.118731,-9.581237793,0.813720703,13.181793213,-0.001684692,0.081706174,1.086572051
7.119454,-10.801940918,0.424621582,13.464080811,-0.030859496,0.057536256,1.085717559
7.120079,-11.923461914,0.218627930,13.990509033,-0.037695434,0.010783325,1.094262481
7.120706,-12.182861328,0.203369141,14.181243896,-0.039770629,-0.024494994,1.101342559
7.121332,-11.656433105,0.066040039,14.532196045,-0.038183715,-0.046345580,1.104394317
7.121959,-10.718017578,0.447509766,14.814483643,-0.038794067,-0.054524291,1.110253692
7.122586,-8.719116211,0.043151855,14.608489990,-0.048803832,-0.032673705,1.106225371
7.123211,-7.086425781,-0.727416992,14.875518799,-0.048193481,-0.027302612,1.101708770
7.123836,-5.102783203,-0.895263672,15.310394287,-0.047827270,-0.060627807,1.099999785
7.124462,-1.829772949,-0.139953613,15.806304932,-0.067602664,-0.096272342,1.099755645
7.125088,1.473754883,0.890014648,15.501129150,-0.082006961,-0.083454959,1.097680449
7.125713,3.777832031,-0.109436035,15.302764893,-0.084692508,-0.063801639,1.088036895
7.126339,6.028503418,-1.330139160,15.623199463,-0.084936649,-0.076130740,1.075341582
7.126966,8.393615723,-2.474548340,15.806304932,-0.124487430,-0.071614139,1.060937285
7.127592,10.484069824,-3.611328125,15.791046143,-0.148291141,-0.038044799,1.040185332
7.128217,12.452453613,-4.305603027,15.745269775,-0.139502078,-0.047810424,1.023461699
7.128844,15.595764160,-4.839660645,15.897857666,-0.140722781,-0.059895385,1.006249785
7.129469,18.555969238,-5.297424316,15.981781006,-0.120581180,-0.077473514,0.988305449
7.130095,21.439880371,-6.762268066,16.065704346,-0.107763797,-0.080769412,0.962548614
7.130722,24.422973633,-8.440734863,15.951263428,-0.095556766,-0.055622924,0.941430449
7.131348,27.711242676,-9.463073730,16.218292236,-0.100927860,-0.042927612,0.910302520
7.131974,31.426757812,-10.248901367,16.393768311,-0.148535281,-0.022786010,0.883935332
7.132600,34.440368652,-10.935546875,16.309844971,-0.199194461,0.029826295,0.851830840
7.133226,36.347717285,-13.109924316,15.730010986,-0.224340945,0.080119260,0.816552520
7.133853,37.644714355,-15.650512695,15.302764893,-0.189428836,0.088297971,0.789819121
7.134478,39.124816895,-17.115356445,15.897857666,-0.173803836,0.064982541,0.780907989
7.135103,41.222900391,-17.985107422,16.180145264,-0.173559695,0.039103638,0.783837676
7.135730,43.923706055,-19.114257812,16.294586182,-0.159521610,0.021647584,0.796532989
7.136357,46.288818359,-20.571472168,16.004669189,-0.156347781,0.019328248,0.815331817
7.136982,49.126953125,-22.768737793,16.035186768,-0.138647586,0.025065552,0.837426543
7.137607,51.598876953,-25.034667969,15.997039795,-0.139013797,0.044108521,0.856835723
7.138232,53.552001953,-27.331115723,16.035186768,-0.150122195,0.076090939,0.876366973
7.138858,54.307312012,-29.330017090,15.890228271,-0.168798953,0.100505002,0.892114043
7.139485,54.414123535,-31.412841797,15.951263428,-0.151464969,0.116007932,0.916039824
7.140111,54.391235352,-32.763244629,16.080963135,-0.115454227,0.133097783,0.943261504
7.140736,53.704589844,-33.953430176,15.737640381,-0.076880008,0.134684697,0.962182403
7.141363,52.651733398,-34.891845703,16.203033447,-0.070654422,0.117594846,0.984521270
7.141988,51.774353027,-35.021545410,16.599761963,-0.072241336,0.074504025,1.008691192
7.142613,50.958007812,-33.526184082,17.652618408,-0.077734500,0.014323364,1.034570098
7.143252,50.439208984,-32.084228516,17.866241455,-0.070532352,0.019450318,1.063622832
7.143878,50.462097168,-32.160522461,17.362701416,-0.062963992,0.100138791,1.074609160
7.144504,50.752014160,-35.029174805,16.843902588,-0.059179809,0.195597783,1.092675567
7.145129,52.361816406,-37.745239258,16.462432861,-0.012915161,0.191935673,1.120751739
7.145754,56.176513672,-38.203002930,15.905487061,0.000634644,0.139933720,1.147607207
7.146379,60.647338867,-36.806823730,15.821563721,-0.013403442,0.083415158,1.173241973
7.147004,63.599914551,-35.990478516,15.066253662,-0.006811645,0.044108521,1.193749785
7.147630,64.957946777,-36.226989746,14.600860596,-0.002661254,0.067057736,1.209618926
7.148256,64.874023438,-37.714721680,14.692413330,-0.008032348,0.143839970,1.223290801
7.162158,40.978759766,-23.913146973,9.412872314,0.110253781,0.425578237,1.209985137
7.162880,39.803833008,-22.074462891,9.397613525,0.129296750,0.448771596,1.186425567
7.163506,36.408752441,-20.746948242,9.115325928,0.179467648,0.415446401,1.163354278
7.164132,31.884521484,-19.236328125,8.474456787,0.249902219,0.335734487,1.141869903
7.164758,27.276367188,-16.665222168,8.588897705,0.286889523,0.274577260,1.122338653
7.165384,22.836059570,-13.613464355,9.588348389,0.233666867,0.346354604,1.086816192
7.166009,18.174499512,-13.659240723,9.870635986,0.167748898,0.418742299,1.063256621
7.166634,15.733093262,-13.788940430,9.153472900,0.147241086,0.419963002,1.057641387
7.167260,17.129272461,-11.606933594,8.382904053,0.139916867,0.395548940,1.067529082
7.167886,20.211547852,-9.211303711,6.994354248,0.124169797,0.394938588,1.065698028
7.168512,21.966308594,-8.852722168,5.766021729,0.124169797,0.390544057,1.060937285
7.169138,22.073120117,-10.073425293,5.491363525,0.131005734,0.349772573,1.060937285
7.169764,20.913452148,-11.210205078,5.300628662,0.139794797,0.293986440,1.075097442
7.170389,19.669860840,-11.217834473,6.193267822,0.134667844,0.258586049,1.102685332
7.171015,18.807739258,-10.721923828,6.734954834,0.147119015,0.266276479,1.132592559
7.171642,17.861694336,-9.669067383,6.780731201,0.163476437,0.306437612,1.163354278
7.172267,17.266601562,-9.173156738,7.032501221,0.188378781,0.364054799,1.192895293
7.172892,16.389221191,-9.897949219,7.261383057,0.217431515,0.417155385,1.222558379
7.173517,15.435546875,-10.973693848,6.826507568,0.217797726,0.462321401,1.243188262
7.174143,13.642639160,-11.591674805,5.712615967,0.195580930,0.469645619,1.258202910
7.174769,10.758728027,-11.019470215,5.323516846,0.188744992,0.449137807,1.244897246
7.181947,-30.378967285,0.706909180,3.812896729,0.283227414,0.464274526,1.241967559
7.182573,-32.057434082,4.040954590,3.606903076,0.293481320,0.458415151,1.245385528
7.183199,-33.964782715,6.306884766,2.805816650,0.245507687,0.516398549,1.240014434
7.183825,-37.619262695,6.879089355,1.989471436,0.183373898,0.569132924,1.230004668
7.184450,-41.678100586,7.664916992,2.416717529,0.153222531,0.571086049,1.234521270
7.185076,-45.317321777,8.610961914,2.500640869,0.124780148,0.570231557,1.246728301
7.185701,-49.063354492,9.999511719,2.172576904,0.120385617,0.589762807,1.260766387
7.186326,-52.481323242,10.297058105,1.707183838,0.129418820,0.639689565,1.269799590
7.186952,-55.861145020,9.648559570,2.172576904,0.113183469,0.711222768,1.280053496
7.187578,-58.951049805,8.458374023,1.577484131,0.108422726,0.765421987,1.286157012
7.188204,-61.224609375,7.260559082,0.135528564,0.110009640,0.778971791,1.276391387
7.188831,-63.055664062,7.878540039,-1.932037354,0.116113156,0.776408315,1.269921660
7.189457,-65.336853027,9.564636230,-3.373992920,0.132226437,0.763468862,1.249047637
7.190083,-69.616943359,11.693237305,-3.946197510,0.161035031,0.721964955,1.229394317
7.190710,-75.407653809,13.676879883,-4.327667236,0.181664914,0.663371205,1.201196074
7.191336,-81.885009766,15.546081543,-4.434478760,0.194116086,0.617106557,1.179955840
7.191961,-87.408691406,17.796752930,-4.480255127,0.177392453,0.590617299,1.166283965
7.192587,-90.620666504,19.574401855,-4.251373291,0.131616086,0.572428823,1.150170684
7.193213,-91.429382324,21.085021973,-4.571807861,0.081811398,0.553507924,1.131982207
7.193838,-90.681701660,21.275756836,-5.739105225,0.053857300,0.509806752,1.108910918
7.194465,-88.408142090,20.619628906,-6.807220459,0.036523316,0.461833119,1.092797637
7.195090,-85.180908203,19.269226074,-7.493865967,0.025170777,0.409098744,1.079369903
7.195716,-81.808715820,17.476318359,-7.608306885,0.016992066,0.359171987,1.065698028
7.196341,-78.749328613,15.691040039,-8.165252686,0.012109254,0.330119252,1.062402129
7.196967,-75.857788086,14.188049316,-8.561981201,0.001367066,0.329020619,1.060082793
7.197594,-73.034912109,13.074157715,-8.783233643,0.004418824,0.333048940,1.056908965
7.198219,-70.044189453,11.769531250,-8.920562744,0.012353394,0.350993276,1.066064239
7.210822,-20.140319824,-2.062561035,-18.632781982,0.028832886,0.287272573,1.241479278
7.211563,-16.745239258,-2.566101074,-19.082916260,0.027368043,0.285807729,1.258202910
7.212189,-13.151794434,-3.138305664,-19.494903564,0.035546754,0.278849721,1.277367949
7.212814,-9.756713867,-3.321411133,-20.028961182,0.062646359,0.282145619,1.292138457
7.213440,-6.781250000,-3.832580566,-20.776641846,0.079980344,0.275065541,1.307763457
7.214065,-3.760009766,-3.992797852,-21.043670654,0.086816281,0.264079213,1.325829864
7.214863,-0.715881348,-3.763916016,-21.402252197,0.090966672,0.274455190,1.339990020
7.215610,1.878112793,-2.985717773,-21.905792236,0.095971555,0.300700307,1.356835723
7.216417,6.463378906,-1.513244629,-22.584808350,0.082055539,0.309001088,1.385522246
7.217182,8.721679688,-0.231506348,-23.019683838,0.096215695,0.315959096,1.401635528
7.218017,10.468811035,0.729797363,-23.652923584,0.096093625,0.320719838,1.417626739
7.218849,13.490051270,3.125427246,-24.217498779,0.100488156,0.331706166,1.448266387
7.219489,14.840454102,4.185913086,-24.843109131,0.099877805,0.322672963,1.458032012
