time,gyro x,gyro y,gyro z,accel x,accel y,accel z
89.678176,-1.208007812,3.260791779,-0.166435242,0.041819826,0.015747193,1.006725073
89.717025,1.935302734,-8.465587616,-3.889579773,-0.035694823,0.025146607,0.972301245
89.731200,1.775085449,-4.116832733,-3.523368835,-0.064503416,0.020507935,0.971690893
89.731560,1.775085449,-4.116832733,-3.523368835,-0.064503416,0.020507935,0.971690893
89.731821,1.775085449,-4.116832733,-3.523368835,-0.064503416,0.020507935,0.971690893
89.732072,1.775085449,-4.116832733,-3.523368835,-0.064503416,0.020507935,0.971690893
89.732323,1.775085449,-4.116832733,-3.523368835,-0.064503416,0.020507935,0.971690893
89.732574,1.775085449,-4.116832733,-3.523368835,-0.064503416,0.020507935,0.971690893
89.732827,1.775085449,-4.116832733,-3.523368835,-0.064503416,0.020507935,0.971690893
89.733078,1.775085449,-4.116832733,-3.523368835,-0.064503416,0.020507935,0.971690893
89.733330,1.775085449,-4.116832733,-3.523368835,-0.064503416,0.020507935,0.971690893
89.733587,1.775085449,-4.116832733,-3.523368835,-0.064503416,0.020507935,0.971690893
89.735042,1.775085449,-4.116832733,-3.523368835,-0.064503416,0.020507935,0.971690893
89.749183,0.310241699,6.411731720,-2.150077820,-0.026905762,0.017944459,1.001476049
89.749541,0.310241699,6.411731720,-2.150077820,-0.026905762,0.017944459,1.001476049
89.749791,0.310241699,6.411731720,-2.150077820,-0.026905762,0.017944459,1.001476049
89.750045,0.310241699,6.411731720,-2.150077820,-0.026905762,0.017944459,1.001476049
89.750297,0.310241699,6.411731720,-2.150077820,-0.026905762,0.017944459,1.001476049
89.750579,0.310241699,6.411731720,-2.150077820,-0.026905762,0.017944459,1.001476049
89.750830,0.310241699,6.411731720,-2.150077820,-0.026905762,0.017944459,1.001476049
89.751083,0.310241699,6.411731720,-2.150077820,-0.026905762,0.017944459,1.001476049
89.751335,0.310241699,6.411731720,-2.150077820,-0.026905762,0.017944459,1.001476049
89.751587,0.310241699,6.411731720,-2.150077820,-0.026905762,0.017944459,1.001476049
89.751840,0.310241699,6.411731720,-2.150077820,-0.026905762,0.017944459,1.001476049
89.753299,0.310241699,6.411731720,-2.150077820,-0.026905762,0.017944459,1.001476049
89.791485,0.356018066,-1.683055878,-3.424186707,0.014476074,0.010376099,1.067516088
89.829903,-4.564941406,-1.164257050,-5.560417175,-0.024464356,0.021728639,1.029552221
89.844194,-4.244506836,-1.797496796,-5.468864441,0.009837402,0.039062623,1.020885229
89.844510,-3.237426758,-4.551708221,-5.613822937,0.043772951,0.051147584,1.011729956
89.844762,-3.237426758,-4.551708221,-5.613822937,0.043772951,0.051147584,1.011729956
89.845012,-3.237426758,-4.551708221,-5.613822937,0.043772951,0.051147584,1.011729956
89.845264,-3.237426758,-4.551708221,-5.613822937,0.043772951,0.051147584,1.011729956
89.845514,-3.237426758,-4.551708221,-5.613822937,0.043772951,0.051147584,1.011729956
89.845765,-3.237426758,-4.551708221,-5.613822937,0.043772951,0.051147584,1.011729956
89.846015,-3.237426758,-4.551708221,-5.613822937,0.043772951,0.051147584,1.011729956
89.846265,-3.237426758,-4.551708221,-5.613822937,0.043772951,0.051147584,1.011729956
89.846515,-3.237426758,-4.551708221,-5.613822937,0.043772951,0.051147584,1.011729956
89.847975,-3.237426758,-4.551708221,-5.613822937,0.043772951,0.051147584,1.011729956
89.862106,-1.520812988,-8.427440643,-5.880851746,0.057566896,0.026977662,1.012950659
89.862471,-1.520812988,-8.427440643,-5.880851746,0.057566896,0.026977662,1.012950659
89.862721,-1.520812988,-8.427440643,-5.880851746,0.057566896,0.026977662,1.012950659
89.862971,-1.520812988,-8.427440643,-5.880851746,0.057566896,0.026977662,1.012950659
89.863224,-1.520812988,-8.427440643,-5.880851746,0.057566896,0.026977662,1.012950659
89.863476,-1.520812988,-8.427440643,-5.880851746,0.057566896,0.026977662,1.012950659
89.863728,-1.520812988,-8.427440643,-5.880851746,0.057566896,0.026977662,1.012950659
89.863978,-1.520812988,-8.427440643,-5.880851746,0.057566896,0.026977662,1.012950659
89.864231,-1.520812988,-8.427440643,-5.880851746,0.057566896,0.026977662,1.012950659
89.864483,-0.528991699,-12.921154022,-7.109184265,0.048411623,0.010742310,0.972423315
89.864733,-0.528991699,-12.921154022,-7.109184265,0.048411623,0.010742310,0.972423315
89.913434,-0.811279297,-6.672679901,-4.889030457,0.094310060,0.017944459,0.997203588
89.951889,-2.115905762,-2.926647186,-1.974601746,0.076243654,0.020996217,1.026134253
89.966190,-1.772583008,7.594287872,-1.257438660,0.005809082,0.005249146,1.034679174
89.966492,-1.772583008,7.594287872,-1.257438660,0.005809082,0.005249146,1.034679174
89.966742,-1.772583008,7.594287872,-1.257438660,0.005809082,0.005249146,1.034679174
89.966993,-1.772583008,7.594287872,-1.257438660,0.005809082,0.005249146,1.034679174
89.967246,-1.772583008,7.594287872,-1.257438660,0.005809082,0.005249146,1.034679174
89.967496,-1.772583008,7.594287872,-1.257438660,0.005809082,0.005249146,1.034679174
89.967746,-1.772583008,7.594287872,-1.257438660,0.005809082,0.005249146,1.034679174
89.967996,-1.772583008,7.594287872,-1.257438660,0.005809082,0.005249146,1.034679174
89.968246,-1.772583008,7.594287872,-1.257438660,0.005809082,0.005249146,1.034679174
89.968496,-1.772583008,7.594287872,-1.257438660,0.005809082,0.005249146,1.034679174
89.969953,-1.772583008,7.594287872,-1.257438660,0.005809082,0.005249146,1.034679174
89.984081,-2.947509766,20.472705841,0.779609680,0.002635254,0.004028443,1.019542456
89.984436,-2.947509766,20.472705841,0.779609680,0.002635254,0.004028443,1.019542456
89.984698,-2.947509766,20.472705841,0.779609680,0.002635254,0.004028443,1.019542456
89.984949,-2.947509766,20.472705841,0.779609680,0.002635254,0.004028443,1.019542456
89.985199,-2.947509766,20.472705841,0.779609680,0.002635254,0.004028443,1.019542456
89.985449,-2.947509766,20.472705841,0.779609680,0.002635254,0.004028443,1.019542456
89.985699,-2.947509766,20.472705841,0.779609680,0.002635254,0.004028443,1.019542456
89.985952,-2.947509766,20.472705841,0.779609680,0.002635254,0.004028443,1.019542456
89.986205,-2.947509766,20.472705841,0.779609680,0.002635254,0.004028443,1.019542456
89.986455,-2.947509766,20.472705841,0.779609680,0.002635254,0.004028443,1.019542456
89.986708,-2.947509766,20.472705841,0.779609680,0.002635254,0.004028443,1.019542456
89.988155,-2.947509766,20.472705841,0.779609680,0.002635254,0.004028443,1.019542456
90.026468,-3.336608887,14.224231720,0.771980286,0.061717287,-0.040161010,1.025645971
90.064864,-4.351318359,1.956165314,0.009040833,0.022288574,-0.029907104,0.987926245
90.079018,-5.846679688,0.247180939,1.046638489,0.035105959,-0.036010619,0.984019995
90.079452,-5.846679688,0.247180939,1.046638489,0.035105959,-0.036010619,0.984019995
90.079728,-5.846679688,0.247180939,1.046638489,0.035105959,-0.036010619,0.984019995
90.079978,-5.846679688,0.247180939,1.046638489,0.035105959,-0.036010619,0.984019995
90.080228,-5.846679688,0.247180939,1.046638489,0.035105959,-0.036010619,0.984019995
90.080481,-5.846679688,0.247180939,1.046638489,0.035105959,-0.036010619,0.984019995
90.080731,-5.846679688,0.247180939,1.046638489,0.035105959,-0.036010619,0.984019995
90.080982,-5.846679688,0.247180939,1.046638489,0.035105959,-0.036010619,0.984019995
90.081234,-5.846679688,0.247180939,1.046638489,0.035105959,-0.036010619,0.984019995
90.081490,-5.846679688,0.247180939,1.046638489,0.035105959,-0.036010619,0.984019995
90.082970,-6.167114258,-2.232372284,1.153450012,0.047679201,-0.009887572,0.971690893
90.097249,-4.549682617,-5.337535858,1.382331848,0.054759279,-0.012451049,0.971690893
90.097578,-4.549682617,-5.337535858,1.382331848,0.054759279,-0.012451049,0.971690893
90.097829,-4.549682617,-5.337535858,1.382331848,0.054759279,-0.012451049,0.971690893
90.098079,-4.549682617,-5.337535858,1.382331848,0.054759279,-0.012451049,0.971690893
90.098330,-4.549682617,-5.337535858,1.382331848,0.054759279,-0.012451049,0.971690893
90.098587,-4.549682617,-5.337535858,1.382331848,0.054759279,-0.012451049,0.971690893
90.098837,-4.549682617,-5.337535858,1.382331848,0.054759279,-0.012451049,0.971690893
90.099087,-4.549682617,-5.337535858,1.382331848,0.054759279,-0.012451049,0.971690893
90.099337,-4.549682617,-5.337535858,1.382331848,0.054759279,-0.012451049,0.971690893
90.099588,-4.549682617,-5.337535858,1.382331848,0.054759279,-0.012451049,0.971690893
90.148445,-4.290283203,-5.268871307,1.000862122,-0.022267090,-0.024047729,0.946788549
90.186889,-2.665222168,-1.095592499,0.115852356,-0.018727051,-0.037231322,0.943004370
90.201073,-2.474487305,-0.798046112,0.337104797,-0.020558106,-0.032226440,0.945079565
90.201410,-2.474487305,-0.798046112,0.337104797,-0.020558106,-0.032226440,0.945079565
90.201688,-2.474487305,-0.798046112,0.337104797,-0.020558106,-0.032226440,0.945079565
90.201938,-2.474487305,-0.798046112,0.337104797,-0.020558106,-0.032226440,0.945079565
90.202188,-2.474487305,-0.798046112,0.337104797,-0.020558106,-0.032226440,0.945079565
90.202438,-1.589477539,-0.492870331,-0.280876160,-0.026539551,-0.007202026,0.947276831
90.202689,-1.589477539,-0.492870331,-0.280876160,-0.026539551,-0.007202026,0.947276831
90.202940,-1.589477539,-0.492870331,-0.280876160,-0.026539551,-0.007202026,0.947276831
90.203191,-1.589477539,-0.492870331,-0.280876160,-0.026539551,-0.007202026,0.947276831
90.203442,-1.589477539,-0.492870331,-0.280876160,-0.026539551,-0.007202026,0.947276831
90.204900,-1.589477539,-0.492870331,-0.280876160,-0.026539551,-0.007202026,0.947276831
90.219165,-0.498474121,0.895679474,-1.081962585,-0.039234862,-0.013427611,0.950572729
90.219474,-0.498474121,0.895679474,-1.081962585,-0.039234862,-0.013427611,0.950572729
90.219726,-0.498474121,0.895679474,-1.081962585,-0.039234862,-0.013427611,0.950572729
90.219976,-0.498474121,0.895679474,-1.081962585,-0.039234862,-0.013427611,0.950572729
90.220227,-0.498474121,0.895679474,-1.081962585,-0.039234862,-0.013427611,0.950572729
90.220480,-0.498474121,0.895679474,-1.081962585,-0.039234862,-0.013427611,0.950572729
90.220730,-0.498474121,0.895679474,-1.081962585,-0.039234862,-0.013427611,0.950572729
90.220980,-0.498474121,0.895679474,-1.081962585,-0.039234862,-0.013427611,0.950572729
90.221230,-0.498474121,0.895679474,-1.081962585,-0.039234862,-0.013427611,0.950572729
90.221480,-0.498474121,0.895679474,-1.081962585,-0.039234862,-0.013427611,0.950572729
90.221730,-0.498474121,0.895679474,-1.081962585,-0.039234862,-0.013427611,0.950572729
90.223182,0.081359863,3.665149689,-1.257438660,-0.046559080,-0.034179565,0.956676245
90.261523,-1.574218750,9.234607697,-1.898307800,-0.023365723,-0.064819217,0.979869604
90.299778,-2.138793945,4.359424591,-1.112480164,-0.001515137,-0.024047729,0.977916479
90.314070,-1.108825684,0.323474884,-1.768608093,-0.008839356,-0.029662963,0.974132299
90.314387,-1.108825684,0.323474884,-1.768608093,-0.008839356,-0.029662963,0.974132299
90.314638,-1.108825684,0.323474884,-1.768608093,-0.008839356,-0.029662963,0.974132299
90.314890,-1.108825684,0.323474884,-1.768608093,-0.008839356,-0.029662963,0.974132299
90.315140,-1.108825684,0.323474884,-1.768608093,-0.008839356,-0.029662963,0.974132299
90.315392,-1.108825684,0.323474884,-1.768608093,-0.008839356,-0.029662963,0.974132299
90.315645,-1.108825684,0.323474884,-1.768608093,-0.008839356,-0.029662963,0.974132299
90.315897,-1.108825684,0.323474884,-1.768608093,-0.008839356,-0.029662963,0.974132299
90.316149,-1.108825684,0.323474884,-1.768608093,-0.008839356,-0.029662963,0.974132299
90.316401,-1.108825684,0.323474884,-1.768608093,-0.008839356,-0.029662963,0.974132299
90.316651,-1.108825684,0.323474884,-1.768608093,-0.008839356,-0.029662963,0.974132299
90.318095,-1.108825684,0.323474884,-1.768608093,-0.008839356,-0.029662963,0.974132299
90.332227,-1.574218750,-3.186046600,-0.807304382,-0.006520020,-0.030639526,0.978526831
90.332572,-1.574218750,-3.186046600,-0.807304382,-0.006520020,-0.030639526,0.978526831
90.332830,-1.574218750,-3.186046600,-0.807304382,-0.006520020,-0.030639526,0.978526831
90.333081,-1.574218750,-3.186046600,-0.807304382,-0.006520020,-0.030639526,0.978526831
90.333331,-1.574218750,-3.186046600,-0.807304382,-0.006520020,-0.030639526,0.978526831
90.333589,-1.574218750,-3.186046600,-0.807304382,-0.006520020,-0.030639526,0.978526831
90.333839,-1.574218750,-3.186046600,-0.807304382,-0.006520020,-0.030639526,0.978526831
90.334091,-1.574218750,-3.186046600,-0.807304382,-0.006520020,-0.030639526,0.978526831
90.334341,-1.574218750,-3.186046600,-0.807304382,-0.006520020,-0.030639526,0.978526831
90.383054,1.126586914,5.419910431,-2.119560242,-0.071095213,0.033203248,0.979015112
90.431963,-1.619995117,10.142505646,-3.843803406,-0.015064942,-0.018920776,0.998790503
90.446160,-1.246154785,6.602466583,-4.210014343,-0.003834473,-0.004150268,0.994640112
90.446517,-1.246154785,6.602466583,-4.210014343,-0.003834473,-0.004150268,0.994640112
90.446787,-1.246154785,6.602466583,-4.210014343,-0.003834473,-0.004150268,0.994640112
90.447038,-1.246154785,6.602466583,-4.210014343,-0.003834473,-0.004150268,0.994640112
90.447288,-1.246154785,6.602466583,-4.210014343,-0.003834473,-0.004150268,0.994640112
90.447539,-1.246154785,6.602466583,-4.210014343,-0.003834473,-0.004150268,0.994640112
90.447790,-1.246154785,6.602466583,-4.210014343,-0.003834473,-0.004150268,0.994640112
90.448041,-1.246154785,6.602466583,-4.210014343,-0.003834473,-0.004150268,0.994640112
90.448292,-1.246154785,6.602466583,-4.210014343,-0.003834473,-0.004150268,0.994640112
90.448543,-1.246154785,6.602466583,-4.210014343,-0.003834473,-0.004150268,0.994640112
90.450001,-1.246154785,6.602466583,-4.210014343,-0.003834473,-0.004150268,0.994640112
90.464145,-1.482666016,-1.271068573,-4.164237976,-0.004322754,0.009033326,0.988414526
90.464495,-1.482666016,-1.271068573,-4.164237976,-0.004322754,0.009033326,0.988414526
90.464760,-1.482666016,-1.271068573,-4.164237976,-0.004322754,0.009033326,0.988414526
90.465013,-1.482666016,-1.271068573,-4.164237976,-0.004322754,0.009033326,0.988414526
90.465265,-1.482666016,-1.271068573,-4.164237976,-0.004322754,0.009033326,0.988414526
90.465517,-1.482666016,-1.271068573,-4.164237976,-0.004322754,0.009033326,0.988414526
90.465767,-1.482666016,-1.271068573,-4.164237976,-0.004322754,0.009033326,0.988414526
90.466018,-1.482666016,-1.271068573,-4.164237976,-0.004322754,0.009033326,0.988414526
90.466269,-1.482666016,-1.271068573,-4.164237976,-0.004322754,0.009033326,0.988414526
90.466520,-1.482666016,-1.271068573,-4.164237976,-0.004322754,0.009033326,0.988414526
90.466770,-1.482666016,-1.271068573,-4.164237976,-0.004322754,0.009033326,0.988414526
90.468308,-1.482666016,-1.271068573,-4.164237976,-0.004322754,0.009033326,0.988414526
90.506503,0.645935059,-11.570751190,-5.041618347,-0.044850096,0.023681764,0.980602026
90.544928,2.034484863,1.765430450,-7.177848816,-0.104908690,0.045044068,0.961314917
90.559221,2.042114258,8.921802521,-5.896110535,-0.106373534,0.040161256,0.962901831
90.559530,2.042114258,8.921802521,-5.896110535,-0.106373534,0.040161256,0.962901831
90.559780,2.042114258,8.921802521,-5.896110535,-0.106373534,0.040161256,0.962901831
90.560031,2.042114258,8.921802521,-5.896110535,-0.106373534,0.040161256,0.962901831
90.560281,1.981079102,15.345752716,-5.239982605,-0.097218260,0.024536256,0.965953588
90.560534,1.981079102,15.345752716,-5.239982605,-0.097218260,0.024536256,0.965953588
90.560786,1.981079102,15.345752716,-5.239982605,-0.097218260,0.024536256,0.965953588
90.561039,1.981079102,15.345752716,-5.239982605,-0.097218260,0.024536256,0.965953588
90.561291,1.981079102,15.345752716,-5.239982605,-0.097218260,0.024536256,0.965953588
90.561544,1.981079102,15.345752716,-5.239982605,-0.097218260,0.024536256,0.965953588
90.563003,1.981079102,15.345752716,-5.239982605,-0.097218260,0.024536256,0.965953588
90.577159,2.049743652,19.526660919,-6.453056335,-0.080250487,0.009277467,0.970226049
90.577510,2.049743652,19.526660919,-6.453056335,-0.080250487,0.009277467,0.970226049
90.577775,2.049743652,19.526660919,-6.453056335,-0.080250487,0.009277467,0.970226049
90.578027,2.049743652,19.526660919,-6.453056335,-0.080250487,0.009277467,0.970226049
90.578278,2.049743652,19.526660919,-6.453056335,-0.080250487,0.009277467,0.970226049
90.578531,2.049743652,19.526660919,-6.453056335,-0.080250487,0.009277467,0.970226049
90.578782,2.049743652,19.526660919,-6.453056335,-0.080250487,0.009277467,0.970226049
90.579034,2.049743652,19.526660919,-6.453056335,-0.080250487,0.009277467,0.970226049
90.579286,2.049743652,19.526660919,-6.453056335,-0.080250487,0.009277467,0.970226049
90.579538,2.049743652,19.526660919,-6.453056335,-0.080250487,0.009277467,0.970226049
90.630051,3.178894043,5.122364044,-9.794731140,-0.023609864,0.027832154,0.987682104
90.668531,3.102600098,-1.545726776,-11.511344910,-0.052052245,-0.013183471,0.980846167
90.682852,2.957641602,-2.758800507,-12.526054382,-0.056935057,0.022583131,0.974864721
90.683152,2.957641602,-2.758800507,-12.526054382,-0.056935057,0.022583131,0.974864721
90.683402,2.957641602,-2.758800507,-12.526054382,-0.056935057,0.022583131,0.974864721
90.683654,2.957641602,-2.758800507,-12.526054382,-0.056935057,0.022583131,0.974864721
90.683906,2.957641602,-2.758800507,-12.526054382,-0.056935057,0.022583131,0.974864721
90.684158,2.957641602,-2.758800507,-12.526054382,-0.056935057,0.022583131,0.974864721
90.684410,2.957641602,-2.758800507,-12.526054382,-0.056935057,0.022583131,0.974864721
90.684662,2.957641602,-2.758800507,-12.526054382,-0.056935057,0.022583131,0.974864721
90.684914,2.957641602,-2.758800507,-12.526054382,-0.056935057,0.022583131,0.974864721
90.685166,2.957641602,-2.758800507,-12.526054382,-0.056935057,0.022583131,0.974864721
90.686626,2.957641602,-2.758800507,-12.526054382,-0.056935057,0.022583131,0.974864721
90.700769,4.430114746,-1.736461639,-13.487358093,-0.065113768,0.043579224,0.977428198
90.701123,4.430114746,-1.736461639,-13.487358093,-0.065113768,0.043579224,0.977428198
90.701380,4.430114746,-1.736461639,-13.487358093,-0.065113768,0.043579224,0.977428198
90.701631,4.430114746,-1.736461639,-13.487358093,-0.065113768,0.043579224,0.977428198
90.701884,4.430114746,-1.736461639,-13.487358093,-0.065113768,0.043579224,0.977428198
90.702134,4.430114746,-1.736461639,-13.487358093,-0.065113768,0.043579224,0.977428198
90.702385,4.430114746,-1.736461639,-13.487358093,-0.065113768,0.043579224,0.977428198
90.702638,4.430114746,-1.736461639,-13.487358093,-0.065113768,0.043579224,0.977428198
90.702888,4.430114746,-1.736461639,-13.487358093,-0.065113768,0.043579224,0.977428198
90.703141,4.430114746,-1.736461639,-13.487358093,-0.065113768,0.043579224,0.977428198
90.703394,4.430114746,-1.736461639,-13.487358093,-0.065113768,0.043579224,0.977428198
90.704862,4.430114746,-1.736461639,-13.487358093,-0.065113768,0.043579224,0.977428198
90.743194,5.986511230,11.630237579,-13.868827820,-0.095997557,0.057861451,0.986217260
90.781629,6.665527344,15.635669708,-15.181083679,-0.048023924,0.073852658,1.023082495
90.795794,6.650268555,12.431324005,-16.027946472,-0.051686034,0.075073361,1.031749487
90.796145,6.650268555,12.431324005,-16.027946472,-0.051686034,0.075073361,1.031749487
90.796411,6.650268555,12.431324005,-16.027946472,-0.051686034,0.075073361,1.031749487
90.796663,6.650268555,12.431324005,-16.027946472,-0.051686034,0.075073361,1.031749487
90.796916,6.650268555,12.431324005,-16.027946472,-0.051686034,0.075073361,1.031749487
90.797166,6.650268555,12.431324005,-16.027946472,-0.051686034,0.075073361,1.031749487
90.797416,6.650268555,12.431324005,-16.027946472,-0.051686034,0.075073361,1.031749487
90.797668,6.650268555,12.431324005,-16.027946472,-0.051686034,0.075073361,1.031749487
90.797921,6.650268555,12.431324005,-16.027946472,-0.051686034,0.075073361,1.031749487
90.798173,6.650268555,12.431324005,-16.027946472,-0.051686034,0.075073361,1.031749487
90.799648,6.375610352,10.012805939,-17.263908386,-0.067188963,0.076660275,1.038463354
90.813913,5.856811523,9.211719513,-18.255729675,-0.080372557,0.079101682,1.042491674
90.814227,5.856811523,9.211719513,-18.255729675,-0.080372557,0.079101682,1.042491674
90.814479,5.856811523,9.211719513,-18.255729675,-0.080372557,0.079101682,1.042491674
90.814729,5.856811523,9.211719513,-18.255729675,-0.080372557,0.079101682,1.042491674
90.814979,5.856811523,9.211719513,-18.255729675,-0.080372557,0.079101682,1.042491674
90.815229,5.856811523,9.211719513,-18.255729675,-0.080372557,0.079101682,1.042491674
90.815479,5.856811523,9.211719513,-18.255729675,-0.080372557,0.079101682,1.042491674
90.815729,5.856811523,9.211719513,-18.255729675,-0.080372557,0.079101682,1.042491674
90.815979,5.856811523,9.211719513,-18.255729675,-0.080372557,0.079101682,1.042491674
90.816229,5.856811523,9.211719513,-18.255729675,-0.080372557,0.079101682,1.042491674
90.865151,2.972900391,10.447681427,-20.918388367,-0.060719237,0.039672974,1.051891088
90.903648,2.797424316,4.359424591,-23.123283386,-0.080128416,0.094116330,1.020152807
90.917823,3.072082520,7.876575470,-23.031730652,-0.090626463,0.095459104,1.014659643
90.918162,3.239929199,13.148487091,-21.627922058,-0.083302245,0.109741330,1.014903784
90.918436,3.239929199,13.148487091,-21.627922058,-0.083302245,0.109741330,1.014903784
90.918688,3.239929199,13.148487091,-21.627922058,-0.083302245,0.109741330,1.014903784
90.918938,3.239929199,13.148487091,-21.627922058,-0.083302245,0.109741330,1.014903784
90.919189,3.239929199,13.148487091,-21.627922058,-0.083302245,0.109741330,1.014903784
90.919439,3.239929199,13.148487091,-21.627922058,-0.083302245,0.109741330,1.014903784
90.919689,3.239929199,13.148487091,-21.627922058,-0.083302245,0.109741330,1.014903784
90.919939,3.239929199,13.148487091,-21.627922058,-0.083302245,0.109741330,1.014903784
90.920189,3.239929199,13.148487091,-21.627922058,-0.083302245,0.109741330,1.014903784
90.921652,3.239929199,13.148487091,-21.627922058,-0.083302245,0.109741330,1.014903784
90.935916,3.590881348,18.115222931,-19.789237976,-0.067799315,0.100952268,1.015880346
90.936225,3.590881348,18.115222931,-19.789237976,-0.067799315,0.100952268,1.015880346
90.936477,3.590881348,18.115222931,-19.789237976,-0.067799315,0.100952268,1.015880346
90.936727,3.590881348,18.115222931,-19.789237976,-0.067799315,0.100952268,1.015880346
90.936977,3.590881348,18.115222931,-19.789237976,-0.067799315,0.100952268,1.015880346
90.937230,3.590881348,18.115222931,-19.789237976,-0.067799315,0.100952268,1.015880346
90.937480,3.590881348,18.115222931,-19.789237976,-0.067799315,0.100952268,1.015880346
90.937732,3.590881348,18.115222931,-19.789237976,-0.067799315,0.100952268,1.015880346
90.937982,4.346191406,20.991504669,-19.262809753,-0.054615721,0.089233518,1.020519018
90.938233,4.346191406,20.991504669,-19.262809753,-0.054615721,0.089233518,1.020519018
90.938486,4.346191406,20.991504669,-19.262809753,-0.054615721,0.089233518,1.020519018
90.939954,4.346191406,20.991504669,-19.262809753,-0.054615721,0.089233518,1.020519018
90.978308,4.147827148,16.535938263,-18.476982117,-0.017262207,0.055664185,1.036144018
91.016566,2.469360352,8.181751251,-16.752738953,-0.017628418,0.021972779,1.044811010
91.030890,2.835571289,1.879871368,-16.241569519,-0.012989746,0.035522584,1.041759253
91.031207,2.835571289,1.879871368,-16.241569519,-0.012989746,0.035522584,1.041759253
91.031458,2.835571289,1.879871368,-16.241569519,-0.012989746,0.035522584,1.041759253
91.031709,2.835571289,1.879871368,-16.241569519,-0.012989746,0.035522584,1.041759253
91.031959,2.835571289,1.879871368,-16.241569519,-0.012989746,0.035522584,1.041759253
91.032209,2.835571289,1.879871368,-16.241569519,-0.012989746,0.035522584,1.041759253
91.032459,2.835571289,1.879871368,-16.241569519,-0.012989746,0.035522584,1.041759253
91.032709,2.835571289,1.879871368,-16.241569519,-0.012989746,0.035522584,1.041759253
91.032960,2.835571289,1.879871368,-16.241569519,-0.012989746,0.035522584,1.041759253
91.033210,2.835571289,1.879871368,-16.241569519,-0.012989746,0.035522584,1.041759253
91.033460,2.835571289,1.879871368,-16.241569519,-0.012989746,0.035522584,1.041759253
91.034922,2.835571289,1.879871368,-16.241569519,-0.012989746,0.035522584,1.041759253
91.049070,1.752197266,-5.162059784,-17.439384460,-0.025685059,0.003296021,1.044444799
91.049430,1.752197266,-5.162059784,-17.439384460,-0.025685059,0.003296021,1.044444799
91.049691,1.752197266,-5.162059784,-17.439384460,-0.025685059,0.003296021,1.044444799
91.049943,1.752197266,-5.162059784,-17.439384460,-0.025685059,0.003296021,1.044444799
91.050196,1.752197266,-5.162059784,-17.439384460,-0.025685059,0.003296021,1.044444799
91.050447,1.752197266,-5.162059784,-17.439384460,-0.025685059,0.003296021,1.044444799
91.050699,1.752197266,-5.162059784,-17.439384460,-0.025685059,0.003296021,1.044444799
91.050951,1.752197266,-5.162059784,-17.439384460,-0.025685059,0.003296021,1.044444799
91.110081,-0.216186523,1.399219513,-14.120597839,-0.014576660,0.017822389,1.024669409
91.148556,0.020324707,-8.015453339,-14.090080261,-0.029957520,0.003784303,1.015636206
91.162721,-0.239074707,-6.779491425,-13.235588074,-0.047657713,0.007324342,1.009044409
91.163063,-0.239074707,-6.779491425,-13.235588074,-0.047657713,0.007324342,1.009044409
91.163329,-0.239074707,-6.779491425,-13.235588074,-0.047657713,0.007324342,1.009044409
91.163579,-0.239074707,-6.779491425,-13.235588074,-0.047657713,0.007324342,1.009044409
91.163830,-0.239074707,-6.779491425,-13.235588074,-0.047657713,0.007324342,1.009044409
91.164081,-0.239074707,-6.779491425,-13.235588074,-0.047657713,0.007324342,1.009044409
91.164333,-0.239074707,-6.779491425,-13.235588074,-0.047657713,0.007324342,1.009044409
91.164588,-0.239074707,-6.779491425,-13.235588074,-0.047657713,0.007324342,1.009044409
91.164839,-0.239074707,-6.779491425,-13.235588074,-0.047657713,0.007324342,1.009044409
91.165090,-0.239074707,-6.779491425,-13.235588074,-0.047657713,0.007324342,1.009044409
91.166536,-0.109375000,-4.620372772,-13.060112000,-0.056324705,0.010498170,1.003673315
91.180680,0.409423828,-2.529918671,-12.739677429,-0.042896971,0.012695435,1.005626440
91.181025,0.409423828,-2.529918671,-12.739677429,-0.042896971,0.012695435,1.005626440
91.181291,0.409423828,-2.529918671,-12.739677429,-0.042896971,0.012695435,1.005626440
91.181543,0.409423828,-2.529918671,-12.739677429,-0.042896971,0.012695435,1.005626440
91.181796,0.409423828,-2.529918671,-12.739677429,-0.042896971,0.012695435,1.005626440
91.182046,0.409423828,-2.529918671,-12.739677429,-0.042896971,0.012695435,1.005626440
91.182297,0.409423828,-2.529918671,-12.739677429,-0.042896971,0.012695435,1.005626440
91.182547,0.409423828,-2.529918671,-12.739677429,-0.042896971,0.012695435,1.005626440
91.182799,0.409423828,-2.529918671,-12.739677429,-0.042896971,0.012695435,1.005626440
91.183049,0.409423828,-2.529918671,-12.739677429,-0.042896971,0.012695435,1.005626440
91.183299,0.409423828,-2.529918671,-12.739677429,-0.042896971,0.012695435,1.005626440
91.184754,0.409423828,-2.529918671,-12.739677429,-0.042896971,0.012695435,1.005626440
91.223106,0.058471680,-4.536449432,-11.320610046,-0.025440918,-0.009155151,1.019542456
91.261517,-0.406921387,7.106006622,-8.429069519,-0.023365723,0.001464967,1.031749487
91.275804,-2.001464844,3.413379669,-4.202384949,0.033030763,-0.023925658,1.063243628
91.276115,-2.001464844,3.413379669,-4.202384949,0.033030763,-0.023925658,1.063243628
91.276365,-2.001464844,3.413379669,-4.202384949,0.033030763,-0.023925658,1.063243628
91.276616,-2.001464844,3.413379669,-4.202384949,0.033030763,-0.023925658,1.063243628
91.276868,-2.001464844,3.413379669,-4.202384949,0.033030763,-0.023925658,1.063243628
91.277119,-2.001464844,3.413379669,-4.202384949,0.033030763,-0.023925658,1.063243628
91.277371,-2.001464844,3.413379669,-4.202384949,0.033030763,-0.023925658,1.063243628
91.277622,-2.001464844,3.413379669,-4.202384949,0.033030763,-0.023925658,1.063243628
91.277874,-2.001464844,3.413379669,-4.202384949,0.033030763,-0.023925658,1.063243628
91.278125,-2.001464844,3.413379669,-4.202384949,0.033030763,-0.023925658,1.063243628
91.279588,-2.001464844,3.413379669,-4.202384949,0.033030763,-0.023925658,1.063243628
91.293718,-2.596557617,-2.049266815,-5.453605652,0.027415527,-0.005615111,1.063853979
91.294068,-2.596557617,-2.049266815,-5.453605652,0.027415527,-0.005615111,1.063853979
91.294332,-2.596557617,-2.049266815,-5.453605652,0.027415527,-0.005615111,1.063853979
91.294590,-2.596557617,-2.049266815,-5.453605652,0.027415527,-0.005615111,1.063853979
91.294840,-2.596557617,-2.049266815,-5.453605652,0.027415527,-0.005615111,1.063853979
91.295091,-2.596557617,-2.049266815,-5.453605652,0.027415527,-0.005615111,1.063853979
91.295341,-2.596557617,-2.049266815,-5.453605652,0.027415527,-0.005615111,1.063853979
91.295591,-2.360046387,-6.649791718,-6.056327820,0.011302246,0.000976685,1.062633276
91.295843,-2.360046387,-6.649791718,-6.056327820,0.011302246,0.000976685,1.062633276
91.296094,-2.360046387,-6.649791718,-6.056327820,0.011302246,0.000976685,1.062633276
91.344836,-5.411804199,-1.644908905,-3.599662781,-0.045948729,-0.034301635,1.041881323
91.383290,-8.402526855,-4.109203339,0.482063293,0.003123535,-0.016967651,1.035045385
91.397607,-6.800354004,-7.344066620,0.009040833,-0.034107909,-0.054809447,1.017223120
91.397904,-6.800354004,-7.344066620,0.009040833,-0.034107909,-0.054809447,1.017223120
91.398156,-6.800354004,-7.344066620,0.009040833,-0.034107909,-0.054809447,1.017223120
91.398406,-6.800354004,-7.344066620,0.009040833,-0.034107909,-0.054809447,1.017223120
91.398656,-6.800354004,-7.344066620,0.009040833,-0.034107909,-0.054809447,1.017223120
91.398909,-6.800354004,-7.344066620,0.009040833,-0.034107909,-0.054809447,1.017223120
91.399159,-6.800354004,-7.344066620,0.009040833,-0.034107909,-0.054809447,1.017223120
91.399412,-6.800354004,-7.344066620,0.009040833,-0.034107909,-0.054809447,1.017223120
91.399662,-6.800354004,-7.344066620,0.009040833,-0.034107909,-0.054809447,1.017223120
91.399915,-6.800354004,-7.344066620,0.009040833,-0.034107909,-0.054809447,1.017223120
91.401365,-6.800354004,-7.344066620,0.009040833,-0.034107909,-0.054809447,1.017223120
91.415498,-8.265197754,-4.414379120,0.863533020,-0.049488768,-0.113525271,1.009654760
91.415852,-8.265197754,-4.414379120,0.863533020,-0.049488768,-0.113525271,1.009654760
91.416115,-8.265197754,-4.414379120,0.863533020,-0.049488768,-0.113525271,1.009654760
91.416366,-8.265197754,-4.414379120,0.863533020,-0.049488768,-0.113525271,1.009654760
91.416617,-8.265197754,-4.414379120,0.863533020,-0.049488768,-0.113525271,1.009654760
91.416868,-8.265197754,-4.414379120,0.863533020,-0.049488768,-0.113525271,1.009654760
91.417118,-8.265197754,-4.414379120,0.863533020,-0.049488768,-0.113525271,1.009654760
91.417369,-8.265197754,-4.414379120,0.863533020,-0.049488768,-0.113525271,1.009654760
91.417619,-8.265197754,-4.414379120,0.863533020,-0.049488768,-0.113525271,1.009654760
91.417869,-8.265197754,-4.414379120,0.863533020,-0.049488768,-0.113525271,1.009654760
91.418120,-8.265197754,-4.414379120,0.863533020,-0.049488768,-0.113525271,1.009654760
91.419575,-8.265197754,-4.414379120,0.863533020,-0.049488768,-0.113525271,1.009654760
91.457896,-9.356201172,-3.865062714,2.160530090,-0.000904785,-0.113159060,1.011729956
91.496314,-6.312072754,-8.412181854,2.717475891,-0.031178223,-0.083495975,0.980113745
91.510484,-6.869018555,-8.000194550,3.304939270,-0.029835450,-0.065551639,0.977916479
91.510824,-6.869018555,-8.000194550,3.304939270,-0.029835450,-0.065551639,0.977916479
91.511085,-6.869018555,-8.000194550,3.304939270,-0.029835450,-0.065551639,0.977916479
91.511335,-6.869018555,-8.000194550,3.304939270,-0.029835450,-0.065551639,0.977916479
91.511589,-6.869018555,-8.000194550,3.304939270,-0.029835450,-0.065551639,0.977916479
91.511841,-6.869018555,-8.000194550,3.304939270,-0.029835450,-0.065551639,0.977916479
91.512091,-6.869018555,-8.000194550,3.304939270,-0.029835450,-0.065551639,0.977916479
91.512344,-6.869018555,-8.000194550,3.304939270,-0.029835450,-0.065551639,0.977916479
91.512597,-6.869018555,-8.000194550,3.304939270,-0.029835450,-0.065551639,0.977916479
91.512850,-6.869018555,-8.000194550,3.304939270,-0.029835450,-0.065551639,0.977916479
91.514308,-6.159484863,-7.382213593,4.342536926,-0.032276854,-0.039428588,0.969249487
91.528557,-4.252136230,-6.420909882,4.037361145,-0.039234862,-0.044311401,0.968028784
91.528876,-4.252136230,-6.420909882,4.037361145,-0.039234862,-0.044311401,0.968028784
91.529126,-4.252136230,-6.420909882,4.037361145,-0.039234862,-0.044311401,0.968028784
91.529378,-4.252136230,-6.420909882,4.037361145,-0.039234862,-0.044311401,0.968028784
91.529631,-4.252136230,-6.420909882,4.037361145,-0.039234862,-0.044311401,0.968028784
91.529883,-4.252136230,-6.420909882,4.037361145,-0.039234862,-0.044311401,0.968028784
91.530133,-4.252136230,-6.420909882,4.037361145,-0.039234862,-0.044311401,0.968028784
91.530385,-4.252136230,-6.420909882,4.037361145,-0.039234862,-0.044311401,0.968028784
91.530638,-4.252136230,-6.420909882,4.037361145,-0.039234862,-0.044311401,0.968028784
91.530890,-4.252136230,-6.420909882,4.037361145,-0.039234862,-0.044311401,0.968028784
91.579835,-4.458129883,12.767017365,5.784492493,-0.042408690,-0.072875857,0.956065893
91.618325,-4.458129883,7.731616974,8.813362122,0.129588380,-0.116454959,1.009898901
91.632507,-6.296813965,-1.385509491,8.965950012,0.145457521,-0.105712771,1.012340307
91.632843,-6.296813965,-1.385509491,8.965950012,0.145457521,-0.105712771,1.012340307
91.633115,-6.296813965,-1.385509491,8.965950012,0.145457521,-0.105712771,1.012340307
91.633367,-6.296813965,-1.385509491,8.965950012,0.145457521,-0.105712771,1.012340307
91.633618,-6.945312500,-11.318981171,11.239509583,0.148265138,-0.070312381,1.005382299
91.633870,-6.945312500,-11.318981171,11.239509583,0.148265138,-0.070312381,1.005382299
91.634121,-6.945312500,-11.318981171,11.239509583,0.148265138,-0.070312381,1.005382299
91.634374,-6.945312500,-11.318981171,11.239509583,0.148265138,-0.070312381,1.005382299
91.634627,-6.945312500,-11.318981171,11.239509583,0.148265138,-0.070312381,1.005382299
91.634879,-6.945312500,-11.318981171,11.239509583,0.148265138,-0.070312381,1.005382299
91.636341,-6.945312500,-11.318981171,11.239509583,0.148265138,-0.070312381,1.005382299
91.650608,-6.579101562,-21.199047089,13.490180969,0.141673341,-0.078246951,0.999034643
91.650984,-6.579101562,-21.199047089,13.490180969,0.141673341,-0.078246951,0.999034643
91.651248,-6.579101562,-21.199047089,13.490180969,0.141673341,-0.078246951,0.999034643
91.651500,-6.579101562,-21.199047089,13.490180969,0.141673341,-0.078246951,0.999034643
91.651759,-6.579101562,-21.199047089,13.490180969,0.141673341,-0.078246951,0.999034643
91.652009,-6.579101562,-21.199047089,13.490180969,0.141673341,-0.078246951,0.999034643
91.652261,-6.579101562,-21.199047089,13.490180969,0.141673341,-0.078246951,0.999034643
91.652513,-6.579101562,-21.199047089,13.490180969,0.141673341,-0.078246951,0.999034643
91.652770,-6.579101562,-21.199047089,13.490180969,0.141673341,-0.078246951,0.999034643
91.653020,-6.579101562,-21.199047089,13.490180969,0.141673341,-0.078246951,0.999034643
91.653272,-6.579101562,-21.199047089,13.490180969,0.141673341,-0.078246951,0.999034643
91.654752,-6.510437012,-31.239330292,12.826423645,0.128978029,-0.086059451,0.995982885
91.692990,-5.289733887,-49.557506561,15.008430481,0.081858888,-0.068237185,0.979137182
91.731397,-3.924072266,-44.232189178,17.686347961,-0.017750489,-0.052612182,0.988292456
91.745717,-1.146972656,-29.385387421,20.242195129,-0.034229979,-0.085204959,0.989757299
91.746033,-1.146972656,-29.385387421,20.242195129,-0.034229979,-0.085204959,0.989757299
91.746283,-1.146972656,-29.385387421,20.242195129,-0.034229979,-0.085204959,0.989757299
91.746533,-1.146972656,-29.385387421,20.242195129,-0.034229979,-0.085204959,0.989757299
91.746783,-1.146972656,-29.385387421,20.242195129,-0.034229979,-0.085204959,0.989757299
91.747033,-1.146972656,-29.385387421,20.242195129,-0.034229979,-0.085204959,0.989757299
91.747284,-1.146972656,-29.385387421,20.242195129,-0.034229979,-0.085204959,0.989757299
91.747534,-1.146972656,-29.385387421,20.242195129,-0.034229979,-0.085204959,0.989757299
91.747784,-1.146972656,-29.385387421,20.242195129,-0.034229979,-0.085204959,0.989757299
91.748034,-1.146972656,-29.385387421,20.242195129,-0.034229979,-0.085204959,0.989757299
91.749499,-1.146972656,-29.385387421,20.242195129,-0.034229979,-0.085204959,0.989757299
91.763640,-3.145874023,-14.859020233,20.158271790,-0.032032713,-0.099243045,0.999644995
91.764009,-3.145874023,-14.859020233,20.158271790,-0.032032713,-0.099243045,0.999644995
91.764274,-3.145874023,-14.859020233,20.158271790,-0.032032713,-0.099243045,0.999644995
91.764524,-3.145874023,-14.859020233,20.158271790,-0.032032713,-0.099243045,0.999644995
91.764774,-3.145874023,-14.859020233,20.158271790,-0.032032713,-0.099243045,0.999644995
91.765027,-3.145874023,-14.859020233,20.158271790,-0.032032713,-0.099243045,0.999644995
91.765277,-3.145874023,-14.859020233,20.158271790,-0.032032713,-0.099243045,0.999644995
91.765530,-3.145874023,-14.859020233,20.158271790,-0.032032713,-0.099243045,0.999644995
91.765782,-3.145874023,-14.859020233,20.158271790,-0.032032713,-0.099243045,0.999644995
91.814506,-4.099548340,5.709827423,21.996955872,-0.000660645,-0.101440310,1.066661596
91.863475,-7.387817383,5.892932892,21.005134583,0.028758300,-0.054565307,1.064464331
91.877671,-6.914794922,2.009571075,20.303230286,0.041331545,-0.036865111,1.059093237
91.878032,-6.914794922,2.009571075,20.303230286,0.041331545,-0.036865111,1.059093237
91.878314,-6.914794922,2.009571075,20.303230286,0.041331545,-0.036865111,1.059093237
91.878565,-6.914794922,2.009571075,20.303230286,0.041331545,-0.036865111,1.059093237
91.878815,-6.914794922,2.009571075,20.303230286,0.041331545,-0.036865111,1.059093237
91.879067,-6.914794922,2.009571075,20.303230286,0.041331545,-0.036865111,1.059093237
91.879319,-6.914794922,2.009571075,20.303230286,0.041331545,-0.036865111,1.059093237
91.879570,-6.914794922,2.009571075,20.303230286,0.041331545,-0.036865111,1.059093237
91.879821,-6.914794922,2.009571075,20.303230286,0.041331545,-0.036865111,1.059093237
91.880073,-6.914794922,2.009571075,20.303230286,0.041331545,-0.036865111,1.059093237
91.881529,-6.914794922,2.009571075,20.303230286,0.041331545,-0.036865111,1.059093237
91.895658,-5.434692383,-5.795299530,17.144660950,0.051097170,-0.012328979,1.031383276
91.896007,-5.434692383,-5.795299530,17.144660950,0.051097170,-0.012328979,1.031383276
91.896283,-5.434692383,-5.795299530,17.144660950,0.051097170,-0.012328979,1.031383276
91.896533,-5.434692383,-5.795299530,17.144660950,0.051097170,-0.012328979,1.031383276
91.896785,-5.434692383,-5.795299530,17.144660950,0.051097170,-0.012328979,1.031383276
91.897038,-5.434692383,-5.795299530,17.144660950,0.051097170,-0.012328979,1.031383276
91.897290,-5.434692383,-5.795299530,17.144660950,0.051097170,-0.012328979,1.031383276
91.897540,-5.434692383,-5.795299530,17.144660950,0.051097170,-0.012328979,1.031383276
91.897793,-5.434692383,-5.795299530,17.144660950,0.051097170,-0.012328979,1.031383276
91.898045,-5.434692383,-5.795299530,17.144660950,0.051097170,-0.012328979,1.031383276
91.898295,-5.434692383,-5.795299530,17.144660950,0.051097170,-0.012328979,1.031383276
91.899747,-5.434692383,-5.795299530,17.144660950,0.051097170,-0.012328979,1.031383276
91.938100,-0.300109863,-5.772411346,19.273262024,0.044261232,0.040893678,0.972911596
91.976501,2.011596680,-6.474315643,19.219856262,0.012156738,-0.042602416,0.970714331
91.990779,1.607238770,-3.826915741,19.387702942,0.002757324,-0.098510623,0.967052221
91.991102,1.607238770,-3.826915741,19.387702942,0.002757324,-0.098510623,0.967052221
91.991354,0.203430176,0.254810333,19.998054504,-0.001026856,-0.116454959,0.963512182
91.991606,0.203430176,0.254810333,19.998054504,-0.001026856,-0.116454959,0.963512182
91.991857,0.203430176,0.254810333,19.998054504,-0.001026856,-0.116454959,0.963512182
91.992108,0.203430176,0.254810333,19.998054504,-0.001026856,-0.116454959,0.963512182
91.992359,0.203430176,0.254810333,19.998054504,-0.001026856,-0.116454959,0.963512182
91.992611,0.203430176,0.254810333,19.998054504,-0.001026856,-0.116454959,0.963512182
91.992862,0.203430176,0.254810333,19.998054504,-0.001026856,-0.116454959,0.963512182
91.993112,0.203430176,0.254810333,19.998054504,-0.001026856,-0.116454959,0.963512182
91.994574,0.203430176,0.254810333,19.998054504,-0.001026856,-0.116454959,0.963512182
92.008706,-0.414550781,4.710376740,20.646553040,-0.001637207,-0.114135623,0.951183081
92.009070,-0.414550781,4.710376740,20.646553040,-0.001637207,-0.114135623,0.951183081
92.009327,-0.414550781,4.710376740,20.646553040,-0.001637207,-0.114135623,0.951183081
92.009579,-0.414550781,4.710376740,20.646553040,-0.001637207,-0.114135623,0.951183081
92.009830,-0.414550781,4.710376740,20.646553040,-0.001637207,-0.114135623,0.951183081
92.010081,-0.414550781,4.710376740,20.646553040,-0.001637207,-0.114135623,0.951183081
92.010333,-0.414550781,4.710376740,20.646553040,-0.001637207,-0.114135623,0.951183081
92.010588,-0.414550781,4.710376740,20.646553040,-0.001637207,-0.114135623,0.951183081
92.010839,-0.414550781,4.710376740,20.646553040,-0.001637207,-0.114135623,0.951183081
92.011090,-0.414550781,4.710376740,20.646553040,-0.001637207,-0.114135623,0.951183081
92.059851,1.324951172,5.404651642,20.158271790,0.035716310,-0.111328006,0.936290503
92.098305,3.033935547,0.270069122,18.846015930,0.037547365,-0.101562381,0.935680151
92.112473,1.828491211,-8.000194550,19.387702942,0.055125490,-0.139404178,0.938609838
92.112820,1.828491211,-8.000194550,19.387702942,0.055125490,-0.139404178,0.938609838
92.113099,1.828491211,-8.000194550,19.387702942,0.055125490,-0.139404178,0.938609838
92.113350,1.828491211,-8.000194550,19.387702942,0.055125490,-0.139404178,0.938609838
92.113600,1.828491211,-8.000194550,19.387702942,0.055125490,-0.139404178,0.938609838
92.113852,1.828491211,-8.000194550,19.387702942,0.055125490,-0.139404178,0.938609838
92.114104,1.828491211,-8.000194550,19.387702942,0.055125490,-0.139404178,0.938609838
92.114356,1.828491211,-8.000194550,19.387702942,0.055125490,-0.139404178,0.938609838
92.114637,1.828491211,-8.000194550,19.387702942,0.055125490,-0.139404178,0.938609838
92.114889,1.828491211,-8.000194550,19.387702942,0.055125490,-0.139404178,0.938609838
92.116347,1.828491211,-8.000194550,19.387702942,0.055125490,-0.139404178,0.938609838
92.130479,2.446472168,-17.147838593,17.022590637,0.006175293,-0.116821170,0.927013159
92.130831,2.446472168,-17.147838593,17.022590637,0.006175293,-0.116821170,0.927013159
92.131099,2.446472168,-17.147838593,17.022590637,0.006175293,-0.116821170,0.927013159
92.131349,2.446472168,-17.147838593,17.022590637,0.006175293,-0.116821170,0.927013159
92.131600,2.446472168,-17.147838593,17.022590637,0.006175293,-0.116821170,0.927013159
92.131852,2.446472168,-17.147838593,17.022590637,0.006175293,-0.116821170,0.927013159
92.132105,2.446472168,-17.147838593,17.022590637,0.006175293,-0.116821170,0.927013159
92.132357,2.446472168,-17.147838593,17.022590637,0.006175293,-0.116821170,0.927013159
92.132609,2.446472168,-17.147838593,17.022590637,0.006175293,-0.116821170,0.927013159
92.132861,2.446472168,-17.147838593,17.022590637,0.006175293,-0.116821170,0.927013159
92.133113,2.446472168,-17.147838593,17.022590637,0.006175293,-0.116821170,0.927013159
92.134577,2.446472168,-17.147838593,17.022590637,0.006175293,-0.116821170,0.927013159
92.172910,3.506958008,-8.267223358,11.865119934,-0.070484862,-0.049194213,0.916881323
92.211315,3.598510742,-0.721752167,12.193183899,0.005320800,-0.109863162,0.949962378
92.225479,3.995239258,-3.674327850,10.377388000,0.007395996,-0.125366092,0.953624487
92.225821,3.995239258,-3.674327850,10.377388000,0.007395996,-0.125366092,0.953624487
92.226085,3.995239258,-3.674327850,10.377388000,0.007395996,-0.125366092,0.953624487
92.226338,3.995239258,-3.674327850,10.377388000,0.007395996,-0.125366092,0.953624487
92.226590,3.995239258,-3.674327850,10.377388000,0.007395996,-0.125366092,0.953624487
92.226842,3.995239258,-3.674327850,10.377388000,0.007395996,-0.125366092,0.953624487
92.227094,3.995239258,-3.674327850,10.377388000,0.007395996,-0.125366092,0.953624487
92.227346,3.995239258,-3.674327850,10.377388000,0.007395996,-0.125366092,0.953624487
92.227597,3.995239258,-3.674327850,10.377388000,0.007395996,-0.125366092,0.953624487
92.227849,3.995239258,-3.674327850,10.377388000,0.007395996,-0.125366092,0.953624487
92.229316,3.995239258,-3.674327850,10.377388000,0.007395996,-0.125366092,0.953624487
92.243573,3.728210449,-9.136974335,8.119087219,-0.010182129,-0.106201053,0.945445776
92.243892,3.728210449,-9.136974335,8.119087219,-0.010182129,-0.106201053,0.945445776
92.244142,3.728210449,-9.136974335,8.119087219,-0.010182129,-0.106201053,0.945445776
92.244393,3.728210449,-9.136974335,8.119087219,-0.010182129,-0.106201053,0.945445776
92.244643,3.728210449,-9.136974335,8.119087219,-0.010182129,-0.106201053,0.945445776
92.244893,3.728210449,-9.136974335,8.119087219,-0.010182129,-0.106201053,0.945445776
92.245144,3.728210449,-9.136974335,8.119087219,-0.010182129,-0.106201053,0.945445776
92.245394,3.728210449,-9.136974335,8.119087219,-0.010182129,-0.106201053,0.945445776
92.245644,3.728210449,-9.136974335,8.119087219,-0.010182129,-0.106201053,0.945445776
92.245894,3.728210449,-9.136974335,8.119087219,-0.010182129,-0.106201053,0.945445776
92.294769,6.963073730,-14.302074432,3.602485657,0.002391113,-0.046386596,0.959483862
92.333224,6.589233398,1.269519806,2.488594055,-0.036915526,-0.104247928,1.009898901
92.347394,6.734191895,5.358875275,1.374702454,-0.024952637,-0.099487185,1.030162573
92.347735,6.734191895,5.358875275,1.374702454,-0.024952637,-0.099487185,1.030162573
92.347997,6.734191895,5.358875275,1.374702454,-0.024952637,-0.099487185,1.030162573
92.348247,6.734191895,5.358875275,1.374702454,-0.024952637,-0.099487185,1.030162573
92.348497,6.734191895,5.358875275,1.374702454,-0.024952637,-0.099487185,1.030162573
92.348749,6.734191895,5.358875275,1.374702454,-0.024952637,-0.099487185,1.030162573
92.349001,6.734191895,5.358875275,1.374702454,-0.024952637,-0.099487185,1.030162573
92.349252,5.826293945,8.601367950,0.207405090,-0.005909668,-0.094726443,1.052501440
92.349504,5.826293945,8.601367950,0.207405090,-0.005909668,-0.094726443,1.052501440
92.349756,5.826293945,8.601367950,0.207405090,-0.005909668,-0.094726443,1.052501440
92.351224,5.826293945,8.601367950,0.207405090,-0.005909668,-0.094726443,1.052501440
92.365377,4.842102051,11.058032990,0.070075989,0.009959472,-0.065917850,1.065318823
92.365735,4.842102051,11.058032990,0.070075989,0.009959472,-0.065917850,1.065318823
92.365988,4.842102051,11.058032990,0.070075989,0.009959472,-0.065917850,1.065318823
92.366239,4.842102051,11.058032990,0.070075989,0.009959472,-0.065917850,1.065318823
92.366490,4.842102051,11.058032990,0.070075989,0.009959472,-0.065917850,1.065318823
92.366740,4.842102051,11.058032990,0.070075989,0.009959472,-0.065917850,1.065318823
92.366990,4.842102051,11.058032990,0.070075989,0.009959472,-0.065917850,1.065318823
92.367240,4.842102051,11.058032990,0.070075989,0.009959472,-0.065917850,1.065318823
92.367490,4.842102051,11.058032990,0.070075989,0.009959472,-0.065917850,1.065318823
92.367740,4.842102051,11.058032990,0.070075989,0.009959472,-0.065917850,1.065318823
92.367990,4.842102051,11.058032990,0.070075989,0.009959472,-0.065917850,1.065318823
92.369515,4.765808105,12.866199493,0.649909973,0.019969238,-0.055419799,1.077037573
92.407729,4.079162598,14.109790802,-0.029106140,0.022044433,0.017212037,1.101939917
92.446181,-0.727355957,10.394275665,1.382331848,0.052928224,-0.154296756,1.192271948
92.472345,-4.412353516,0.437915802,1.367073059,0.011058105,-0.057983276,1.154308081
92.486565,-4.145324707,-1.362621307,0.001411438,-0.014332520,0.016845826,1.137828588
92.486926,-4.145324707,-1.362621307,0.001411438,-0.014332520,0.016845826,1.137828588
92.487199,-4.145324707,-1.362621307,0.001411438,-0.014332520,0.016845826,1.137828588
92.487449,-4.145324707,-1.362621307,0.001411438,-0.014332520,0.016845826,1.137828588
92.487701,-4.145324707,-1.362621307,0.001411438,-0.014332520,0.016845826,1.137828588
92.487953,-4.145324707,-1.362621307,0.001411438,-0.014332520,0.016845826,1.137828588
92.488205,-4.145324707,-1.362621307,0.001411438,-0.014332520,0.016845826,1.137828588
92.488457,-2.665222168,-1.614391327,-1.097221375,-0.026661621,0.057251099,1.125621557
92.488710,-2.665222168,-1.614391327,-1.097221375,-0.026661621,0.057251099,1.125621557
92.488960,-2.665222168,-1.614391327,-1.097221375,-0.026661621,0.057251099,1.125621557
92.490431,-2.665222168,-1.614391327,-1.097221375,-0.026661621,0.057251099,1.125621557
92.528787,-3.611267090,3.199756622,-1.051445007,-0.047901854,0.036987428,1.077892065
92.567222,-3.138244629,5.717456818,-3.477592468,-0.069752440,-0.054687377,1.058360815
92.581514,-4.824340820,9.509265900,-5.339164734,-0.072315916,-0.013549682,1.028575659
92.581827,-4.824340820,9.509265900,-5.339164734,-0.072315916,-0.013549682,1.028575659
92.582079,-4.824340820,9.509265900,-5.339164734,-0.072315916,-0.013549682,1.028575659
92.582329,-4.824340820,9.509265900,-5.339164734,-0.072315916,-0.013549682,1.028575659
92.582587,-4.824340820,9.509265900,-5.339164734,-0.072315916,-0.013549682,1.028575659
92.582837,-4.824340820,9.509265900,-5.339164734,-0.072315916,-0.013549682,1.028575659
92.583087,-4.824340820,9.509265900,-5.339164734,-0.072315916,-0.013549682,1.028575659
92.608907,-3.962219238,12.515247345,-2.836723328,-0.022999512,-0.020385619,1.002452612
92.609378,-3.962219238,12.515247345,-2.836723328,-0.022999512,-0.020385619,1.002452612
92.609628,-3.962219238,12.515247345,-2.836723328,-0.022999512,-0.020385619,1.002452612
92.609878,-3.962219238,12.515247345,-2.836723328,-0.022999512,-0.020385619,1.002452612
92.610129,-3.962219238,12.515247345,-2.836723328,-0.022999512,-0.020385619,1.002452612
92.610380,-3.962219238,12.515247345,-2.836723328,-0.022999512,-0.020385619,1.002452612
92.610631,-3.962219238,12.515247345,-2.836723328,-0.022999512,-0.020385619,1.002452612
92.610881,-3.962219238,12.515247345,-2.836723328,-0.022999512,-0.020385619,1.002452612
92.611132,-3.962219238,12.515247345,-2.836723328,-0.022999512,-0.020385619,1.002452612
92.649441,0.302612305,0.880420685,-4.980583191,-0.042286620,-0.002075072,0.972301245
92.687875,-1.169860840,7.929981232,-5.896110535,-0.019703614,-0.096313357,0.961803198
92.702071,-3.008544922,9.967029572,-4.789848328,-0.016163575,-0.033325072,0.959239721
92.702405,-3.008544922,9.967029572,-4.789848328,-0.016163575,-0.033325072,0.959239721
92.702675,-3.008544922,9.967029572,-4.789848328,-0.016163575,-0.033325072,0.959239721
92.702925,-3.008544922,9.967029572,-4.789848328,-0.016163575,-0.033325072,0.959239721
92.703176,-3.008544922,9.967029572,-4.789848328,-0.016163575,-0.033325072,0.959239721
92.703426,-3.008544922,9.967029572,-4.789848328,-0.016163575,-0.033325072,0.959239721
92.703676,-3.008544922,9.967029572,-4.789848328,-0.016163575,-0.033325072,0.959239721
92.703926,-3.008544922,9.967029572,-4.789848328,-0.016163575,-0.033325072,0.959239721
92.704176,-3.008544922,9.967029572,-4.789848328,-0.016163575,-0.033325072,0.959239721
92.704426,-3.008544922,9.967029572,-4.789848328,-0.016163575,-0.033325072,0.959239721
92.705890,-3.008544922,9.967029572,-4.789848328,-0.016163575,-0.033325072,0.959239721
92.720142,-3.199279785,13.903797150,-4.759330750,0.015208496,-0.079589725,0.964488745
92.720468,-3.199279785,13.903797150,-4.759330750,0.015208496,-0.079589725,0.964488745
92.720720,-3.199279785,13.903797150,-4.759330750,0.015208496,-0.079589725,0.964488745
92.720970,-3.199279785,13.903797150,-4.759330750,0.015208496,-0.079589725,0.964488745
92.721220,-3.199279785,13.903797150,-4.759330750,0.015208496,-0.079589725,0.964488745
92.721470,-3.199279785,13.903797150,-4.759330750,0.015208496,-0.079589725,0.964488745
92.721720,-3.199279785,13.903797150,-4.759330750,0.015208496,-0.079589725,0.964488745
92.721973,-3.199279785,13.903797150,-4.759330750,0.015208496,-0.079589725,0.964488745
92.722223,-3.199279785,13.903797150,-4.759330750,0.015208496,-0.079589725,0.964488745
92.722476,-3.199279785,13.903797150,-4.759330750,0.015208496,-0.079589725,0.964488745
92.722728,-3.199279785,13.903797150,-4.759330750,0.015208496,-0.079589725,0.964488745
92.724179,-3.199279785,13.903797150,-4.759330750,0.015208496,-0.079589725,0.964488745
92.762544,-5.556762695,-1.179515839,-0.479240417,0.104808107,-0.013549682,0.929576635
92.801014,-6.777465820,-20.481884003,0.085334778,0.017649902,-0.078491092,0.930797338
92.815195,-6.594360352,-21.054088593,-0.830192566,-0.003224121,-0.055297729,0.924083471
92.815536,-6.594360352,-21.054088593,-0.830192566,-0.003224121,-0.055297729,0.924083471
92.815799,-6.594360352,-21.054088593,-0.830192566,-0.003224121,-0.055297729,0.924083471
92.816051,-6.594360352,-21.054088593,-0.830192566,-0.003224121,-0.055297729,0.924083471
92.816302,-5.449951172,-19.535839081,0.039558411,-0.018727051,-0.042846557,0.923473120
92.816552,-5.449951172,-19.535839081,0.039558411,-0.018727051,-0.042846557,0.923473120
92.816805,-5.449951172,-19.535839081,0.039558411,-0.018727051,-0.042846557,0.923473120
92.817057,-5.449951172,-19.535839081,0.039558411,-0.018727051,-0.042846557,0.923473120
92.817309,-5.449951172,-19.535839081,0.039558411,-0.018727051,-0.042846557,0.923473120
92.817561,-5.449951172,-19.535839081,0.039558411,-0.018727051,-0.042846557,0.923473120
92.819027,-5.449951172,-19.535839081,0.039558411,-0.018727051,-0.042846557,0.923473120
92.845088,-6.075561523,-13.638317108,1.077156067,-0.038014159,-0.080688357,0.922374487
92.845459,-6.075561523,-13.638317108,1.077156067,-0.038014159,-0.080688357,0.922374487
92.845712,-6.075561523,-13.638317108,1.077156067,-0.038014159,-0.080688357,0.922374487
92.845964,-6.075561523,-13.638317108,1.077156067,-0.038014159,-0.080688357,0.922374487
92.846217,-5.755126953,-10.113536835,0.573616028,-0.045094237,-0.050536986,0.915050268
92.846467,-5.755126953,-10.113536835,0.573616028,-0.045094237,-0.050536986,0.915050268
92.846720,-5.755126953,-10.113536835,0.573616028,-0.045094237,-0.050536986,0.915050268
92.846972,-5.755126953,-10.113536835,0.573616028,-0.045094237,-0.050536986,0.915050268
92.847222,-5.755126953,-10.113536835,0.573616028,-0.045094237,-0.050536986,0.915050268
92.885541,-2.825439453,1.887500763,0.604133606,-0.038746580,-0.089965701,0.916637182
92.923960,-0.422180176,11.248767853,1.992683411,-0.018971192,-0.131347537,0.949352026
92.938134,-0.216186523,8.113086700,1.130561829,0.004222168,-0.161254764,0.978770971
92.938468,-0.216186523,8.113086700,1.130561829,0.004222168,-0.161254764,0.978770971
92.938739,-0.216186523,8.113086700,1.130561829,0.004222168,-0.161254764,0.978770971
92.938989,-0.216186523,8.113086700,1.130561829,0.004222168,-0.161254764,0.978770971
92.939239,-0.216186523,8.113086700,1.130561829,0.004222168,-0.161254764,0.978770971
92.939491,-0.216186523,8.113086700,1.130561829,0.004222168,-0.161254764,0.978770971
92.939742,-0.216186523,8.113086700,1.130561829,0.004222168,-0.161254764,0.978770971
92.939994,-0.216186523,8.113086700,1.130561829,0.004222168,-0.161254764,0.978770971
92.940245,-0.216186523,8.113086700,1.130561829,0.004222168,-0.161254764,0.978770971
92.940497,-0.216186523,8.113086700,1.130561829,0.004222168,-0.161254764,0.978770971
92.941955,-0.216186523,8.113086700,1.130561829,0.004222168,-0.161254764,0.978770971
92.956094,-0.261962891,-0.683605194,1.435737610,0.017161621,-0.122680545,0.984142065
92.956440,-0.261962891,-0.683605194,1.435737610,0.017161621,-0.122680545,0.984142065
92.956701,-0.261962891,-0.683605194,1.435737610,0.017161621,-0.122680545,0.984142065
92.956952,-0.261962891,-0.683605194,1.435737610,0.017161621,-0.122680545,0.984142065
92.957202,-0.261962891,-0.683605194,1.435737610,0.017161621,-0.122680545,0.984142065
92.957454,-0.261962891,-0.683605194,1.435737610,0.017161621,-0.122680545,0.984142065
92.957707,-0.261962891,-0.683605194,1.435737610,0.017161621,-0.122680545,0.984142065
92.957958,-0.261962891,-0.683605194,1.435737610,0.017161621,-0.122680545,0.984142065
92.958210,-0.261962891,-0.683605194,1.435737610,0.017161621,-0.122680545,0.984142065
92.958462,-0.261962891,-0.683605194,1.435737610,0.017161621,-0.122680545,0.984142065
92.958714,-0.261962891,-0.683605194,1.435737610,0.017161621,-0.122680545,0.984142065
92.960167,-0.261962891,-0.683605194,1.435737610,0.017161621,-0.122680545,0.984142065
92.998546,0.554382324,-13.775646210,-2.012748718,-0.040211424,-0.078979373,1.022838354
93.037041,2.461730957,-2.148448944,-2.020378113,-0.061451659,-0.041503783,1.059093237
93.051325,3.369628906,1.208484650,-2.157707214,-0.055104002,-0.045898315,1.072520971
93.051638,3.369628906,1.208484650,-2.157707214,-0.055104002,-0.045898315,1.072520971
93.051891,3.369628906,1.208484650,-2.157707214,-0.055104002,-0.045898315,1.072520971
93.052141,3.369628906,1.208484650,-2.157707214,-0.055104002,-0.045898315,1.072520971
93.052393,3.369628906,1.208484650,-2.157707214,-0.055104002,-0.045898315,1.072520971
93.052643,3.369628906,1.208484650,-2.157707214,-0.055104002,-0.045898315,1.072520971
93.052896,3.369628906,1.208484650,-2.157707214,-0.055104002,-0.045898315,1.072520971
93.053148,3.369628906,1.208484650,-2.157707214,-0.055104002,-0.045898315,1.072520971
93.053398,3.369628906,1.208484650,-2.157707214,-0.055104002,-0.045898315,1.072520971
93.053651,3.369628906,1.208484650,-2.157707214,-0.055104002,-0.045898315,1.072520971
93.055104,3.468811035,4.176319122,-2.806205750,-0.046681151,-0.092773318,1.087657690
93.082450,1.752197266,7.960498810,-1.768608093,-0.010304200,-0.120971560,1.108897924
93.131434,1.912414551,-5.657970428,-3.424186707,-0.013355957,0.029419068,1.074107885
93.169735,3.186523438,4.367053986,-3.004570007,-0.032887205,0.006469849,1.054576635
93.184169,0.417053223,11.065662384,-1.127738953,-0.020680176,-0.073364139,1.061046362
93.184516,0.417053223,11.065662384,-1.127738953,-0.020680176,-0.073364139,1.061046362
93.184767,0.417053223,11.065662384,-1.127738953,-0.020680176,-0.073364139,1.061046362
93.185019,0.417053223,11.065662384,-1.127738953,-0.020680176,-0.073364139,1.061046362
93.185271,0.417053223,11.065662384,-1.127738953,-0.020680176,-0.073364139,1.061046362
93.185524,0.417053223,11.065662384,-1.127738953,-0.020680176,-0.073364139,1.061046362
93.185776,0.417053223,11.065662384,-1.127738953,-0.020680176,-0.073364139,1.061046362
93.186028,0.417053223,11.065662384,-1.127738953,-0.020680176,-0.073364139,1.061046362
93.186280,0.417053223,11.065662384,-1.127738953,-0.020680176,-0.073364139,1.061046362
93.186532,0.417053223,11.065662384,-1.127738953,-0.020680176,-0.073364139,1.061046362
93.187995,0.417053223,11.065662384,-1.127738953,-0.020680176,-0.073364139,1.061046362
93.202167,-0.902832031,12.042224884,-0.998039246,-0.017262207,-0.072265506,1.053722143
93.202534,-0.902832031,12.042224884,-0.998039246,-0.017262207,-0.072265506,1.053722143
93.202790,-0.902832031,12.042224884,-0.998039246,-0.017262207,-0.072265506,1.053722143
93.203043,-0.902832031,12.042224884,-0.998039246,-0.017262207,-0.072265506,1.053722143
93.203293,-0.902832031,12.042224884,-0.998039246,-0.017262207,-0.072265506,1.053722143
93.203546,-0.902832031,12.042224884,-0.998039246,-0.017262207,-0.072265506,1.053722143
93.203799,-0.902832031,12.042224884,-0.998039246,-0.017262207,-0.072265506,1.053722143
93.204052,-1.383483887,11.363208771,-1.791496277,-0.012989746,-0.055053588,1.042491674
93.204302,-1.383483887,11.363208771,-1.791496277,-0.012989746,-0.055053588,1.042491674
93.204552,-1.383483887,11.363208771,-1.791496277,-0.012989746,-0.055053588,1.042491674
93.204805,-1.383483887,11.363208771,-1.791496277,-0.012989746,-0.055053588,1.042491674
93.206260,-1.383483887,11.363208771,-1.791496277,-0.012989746,-0.055053588,1.042491674
93.244616,0.356018066,0.918567657,-5.957145691,0.006541504,0.013549928,1.015269995
93.283025,-1.131713867,0.727832794,-6.216545105,0.006907715,-0.020263549,0.989269018
93.297215,-2.306640625,3.001392365,-6.399650574,0.011058105,-0.043456908,0.958995581
93.297564,-2.306640625,3.001392365,-6.399650574,0.011058105,-0.043456908,0.958995581
93.297819,-2.306640625,3.001392365,-6.399650574,0.011058105,-0.043456908,0.958995581
93.298071,-2.306640625,3.001392365,-6.399650574,0.011058105,-0.043456908,0.958995581
93.298321,-2.306640625,3.001392365,-6.399650574,0.011058105,-0.043456908,0.958995581
93.298573,-2.306640625,3.001392365,-6.399650574,0.011058105,-0.043456908,0.958995581
93.298866,-2.306640625,3.001392365,-6.399650574,0.011058105,-0.043456908,0.958995581
93.299116,-2.306640625,3.001392365,-6.399650574,0.011058105,-0.043456908,0.958995581
93.299368,-2.306640625,3.001392365,-6.399650574,0.011058105,-0.043456908,0.958995581
93.299621,-2.306640625,3.001392365,-6.399650574,0.011058105,-0.043456908,0.958995581
93.301083,-2.306640625,3.001392365,-6.399650574,0.011058105,-0.043456908,0.958995581
93.315203,-2.627075195,4.527271271,-6.124992371,0.032908693,-0.061645385,0.928355932
93.315560,-2.627075195,4.527271271,-6.124992371,0.032908693,-0.061645385,0.928355932
93.315818,-2.627075195,4.527271271,-6.124992371,0.032908693,-0.061645385,0.928355932
93.316071,-2.627075195,4.527271271,-6.124992371,0.032908693,-0.061645385,0.928355932
93.316321,-2.627075195,4.527271271,-6.124992371,0.032908693,-0.061645385,0.928355932
93.316573,-2.627075195,4.527271271,-6.124992371,0.032908693,-0.061645385,0.928355932
93.316823,-2.627075195,4.527271271,-6.124992371,0.032908693,-0.061645385,0.928355932
93.317075,-2.627075195,4.527271271,-6.124992371,0.032908693,-0.061645385,0.928355932
93.317325,-2.627075195,4.527271271,-6.124992371,0.032908693,-0.061645385,0.928355932
93.317578,-2.627075195,4.527271271,-6.124992371,0.032908693,-0.061645385,0.928355932
93.366338,-1.887023926,2.215564728,-2.813835144,0.062693849,-0.064086795,0.894054174
93.404848,-3.115356445,-2.156078339,-2.493400574,0.081736818,-0.135986209,0.898448706
93.419014,-2.031982422,-2.919017792,-0.113029480,0.081980959,-0.053588744,0.892467260
93.419354,-2.031982422,-2.919017792,-0.113029480,0.081980959,-0.053588744,0.892467260
93.419624,-2.031982422,-2.919017792,-0.113029480,0.081980959,-0.053588744,0.892467260
93.419875,-2.031982422,-2.919017792,-0.113029480,0.081980959,-0.053588744,0.892467260
93.420128,-2.031982422,-2.919017792,-0.113029480,0.081980959,-0.053588744,0.892467260
93.420380,-2.031982422,-2.919017792,-0.113029480,0.081980959,-0.053588744,0.892467260
93.420630,-2.031982422,-2.919017792,-0.113029480,0.081980959,-0.053588744,0.892467260
93.420883,-2.031982422,-2.919017792,-0.113029480,0.081980959,-0.053588744,0.892467260
93.421133,-2.031982422,-2.919017792,-0.113029480,0.081980959,-0.053588744,0.892467260
93.421385,-2.031982422,-2.919017792,-0.113029480,0.081980959,-0.053588744,0.892467260
93.422842,-1.352966309,-2.880870819,0.527839661,0.070628420,-0.077270389,0.891978979
93.437083,-1.543701172,-3.659069061,0.314216614,0.063670412,-0.082275271,0.896129370
93.437396,-1.543701172,-3.659069061,0.314216614,0.063670412,-0.082275271,0.896129370
93.437647,-1.543701172,-3.659069061,0.314216614,0.063670412,-0.082275271,0.896129370
93.437898,-1.543701172,-3.659069061,0.314216614,0.063670412,-0.082275271,0.896129370
93.438150,-1.543701172,-3.659069061,0.314216614,0.063670412,-0.082275271,0.896129370
93.438402,-1.543701172,-3.659069061,0.314216614,0.063670412,-0.082275271,0.896129370
93.438655,-1.543701172,-3.659069061,0.314216614,0.063670412,-0.082275271,0.896129370
93.438907,-1.543701172,-3.659069061,0.314216614,0.063670412,-0.082275271,0.896129370
93.439159,-1.543701172,-3.659069061,0.314216614,0.063670412,-0.082275271,0.896129370
93.439411,-1.543701172,-3.659069061,0.314216614,0.063670412,-0.082275271,0.896129370
93.439663,-1.543701172,-3.659069061,0.314216614,0.063670412,-0.082275271,0.896129370
93.441110,-1.543701172,-3.659069061,0.314216614,0.063670412,-0.082275271,0.896129370
93.479447,-0.147521973,1.315296173,1.573066711,0.047801271,-0.074096560,0.891978979
93.517870,1.660644531,9.303272247,4.228096008,0.052684084,-0.102416873,0.930064917
93.532040,2.080261230,7.693470001,4.296760559,0.054026857,-0.105590701,0.946666479
93.532378,2.080261230,7.693470001,4.296760559,0.054026857,-0.105590701,0.946666479
93.532645,2.080261230,7.693470001,4.296760559,0.054026857,-0.105590701,0.946666479
93.532895,2.080261230,7.693470001,4.296760559,0.054026857,-0.105590701,0.946666479
93.533145,2.080261230,7.693470001,4.296760559,0.054026857,-0.105590701,0.946666479
93.533395,2.080261230,7.693470001,4.296760559,0.054026857,-0.105590701,0.946666479
93.533648,2.080261230,7.693470001,4.296760559,0.054026857,-0.105590701,0.946666479
93.533900,2.080261230,7.693470001,4.296760559,0.054026857,-0.105590701,0.946666479
93.534150,2.080261230,7.693470001,4.296760559,0.054026857,-0.105590701,0.946666479
93.534400,2.080261230,7.693470001,4.296760559,0.054026857,-0.105590701,0.946666479
93.535873,2.080261230,7.693470001,4.296760559,0.054026857,-0.105590701,0.946666479
93.549980,2.591430664,5.732715607,3.892402649,0.051341310,-0.120605350,0.956432104
93.550329,2.591430664,5.732715607,3.892402649,0.051341310,-0.120605350,0.956432104
93.550588,2.591430664,5.732715607,3.892402649,0.051341310,-0.120605350,0.956432104
93.550841,2.591430664,5.732715607,3.892402649,0.051341310,-0.120605350,0.956432104
93.551094,2.591430664,5.732715607,3.892402649,0.051341310,-0.120605350,0.956432104
93.551347,2.591430664,5.732715607,3.892402649,0.051341310,-0.120605350,0.956432104
93.551599,2.591430664,5.732715607,3.892402649,0.051341310,-0.120605350,0.956432104
93.551852,2.614318848,3.604114532,3.663520813,0.048777834,-0.125121951,0.968639135
93.552102,2.614318848,3.604114532,3.663520813,0.048777834,-0.125121951,0.968639135
93.552386,2.614318848,3.604114532,3.663520813,0.048777834,-0.125121951,0.968639135
93.552636,2.614318848,3.604114532,3.663520813,0.048777834,-0.125121951,0.968639135
93.601414,3.514587402,-1.728832245,3.907661438,-0.016041504,-0.026855346,1.053600073
93.639891,3.949462891,-3.460704803,0.695686340,-0.040577635,0.003784303,1.098766088
93.666065,4.842102051,-4.116832733,1.420478821,-0.010060059,0.013916139,1.114391088
93.680475,4.063903809,-3.086864471,0.703315735,-0.023487793,-0.042968627,1.133800268
93.680816,4.063903809,-3.086864471,0.703315735,-0.023487793,-0.042968627,1.133800268
93.681068,2.309143066,-3.620922089,-2.111930847,-0.029103028,-0.031860229,1.138561010
93.681319,2.309143066,-3.620922089,-2.111930847,-0.029103028,-0.031860229,1.138561010
93.681572,2.309143066,-3.620922089,-2.111930847,-0.029103028,-0.031860229,1.138561010
93.681822,2.309143066,-3.620922089,-2.111930847,-0.029103028,-0.031860229,1.138561010
93.682072,2.309143066,-3.620922089,-2.111930847,-0.029103028,-0.031860229,1.138561010
93.682324,2.309143066,-3.620922089,-2.111930847,-0.029103028,-0.031860229,1.138561010
93.682574,2.309143066,-3.620922089,-2.111930847,-0.029103028,-0.031860229,1.138561010
93.682827,2.309143066,-3.620922089,-2.111930847,-0.029103028,-0.031860229,1.138561010
93.684281,2.309143066,-3.620922089,-2.111930847,-0.029103028,-0.031860229,1.138561010
93.722636,3.072082520,2.970874786,-1.036186218,-0.044239745,0.037109498,1.113048315
93.760941,3.987609863,1.841724396,-0.708122253,-0.036793455,-0.006835815,1.109996557
93.775269,4.010498047,0.674427032,-0.647087097,-0.043995604,-0.025268432,1.110118628
93.775592,4.010498047,0.674427032,-0.647087097,-0.043995604,-0.025268432,1.110118628
93.775844,4.010498047,0.674427032,-0.647087097,-0.043995604,-0.025268432,1.110118628
93.776097,4.010498047,0.674427032,-0.647087097,-0.043995604,-0.025268432,1.110118628
93.776348,4.010498047,0.674427032,-0.647087097,-0.043995604,-0.025268432,1.110118628
93.776600,4.010498047,0.674427032,-0.647087097,-0.043995604,-0.025268432,1.110118628
93.776852,4.010498047,0.674427032,-0.647087097,-0.043995604,-0.025268432,1.110118628
93.777103,4.010498047,0.674427032,-0.647087097,-0.043995604,-0.025268432,1.110118628
93.777355,4.010498047,0.674427032,-0.647087097,-0.043995604,-0.025268432,1.110118628
93.777607,4.010498047,0.674427032,-0.647087097,-0.043995604,-0.025268432,1.110118628
93.777858,4.010498047,0.674427032,-0.647087097,-0.043995604,-0.025268432,1.110118628
93.779308,4.010498047,0.674427032,-0.647087097,-0.043995604,-0.025268432,1.110118628
93.793441,1.851379395,0.605762482,-1.211662292,-0.062306151,-0.062377807,1.108653784
93.793812,1.851379395,0.605762482,-1.211662292,-0.062306151,-0.062377807,1.108653784
93.794064,1.851379395,0.605762482,-1.211662292,-0.062306151,-0.062377807,1.108653784
93.794316,1.851379395,0.605762482,-1.211662292,-0.062306151,-0.062377807,1.108653784
93.794567,1.851379395,0.605762482,-1.211662292,-0.062306151,-0.062377807,1.108653784
93.794817,1.851379395,0.605762482,-1.211662292,-0.062306151,-0.062377807,1.108653784
93.795069,1.851379395,0.605762482,-1.211662292,-0.062306151,-0.062377807,1.108653784
93.795320,1.851379395,0.605762482,-1.211662292,-0.062306151,-0.062377807,1.108653784
93.795572,1.851379395,0.605762482,-1.211662292,-0.062306151,-0.062377807,1.108653784
93.795824,1.851379395,0.605762482,-1.211662292,-0.062306151,-0.062377807,1.108653784
93.796076,1.851379395,0.605762482,-1.211662292,-0.062306151,-0.062377807,1.108653784
93.797524,1.851379395,0.605762482,-1.211662292,-0.062306151,-0.062377807,1.108653784
93.835875,-0.536621094,-1.034557343,0.131111145,-0.086476073,0.053100709,1.058360815
93.874298,1.157104492,-10.289012909,-7.429618835,-0.095753416,-0.044677611,1.018565893
93.888475,1.424133301,-8.450328827,-7.040519714,-0.090626463,-0.044921752,1.009532690
93.888879,1.424133301,-8.450328827,-7.040519714,-0.090626463,-0.044921752,1.009532690
93.889133,1.424133301,-8.450328827,-7.040519714,-0.090626463,-0.044921752,1.009532690
93.889383,1.424133301,-8.450328827,-7.040519714,-0.090626463,-0.044921752,1.009532690
93.889633,1.424133301,-8.450328827,-7.040519714,-0.090626463,-0.044921752,1.009532690
93.889886,0.279724121,-3.735363007,-5.491752625,-0.092701659,-0.080810428,1.002086401
93.915651,-2.764404297,6.434619904,-5.522270203,-0.083912596,-0.092407107,0.993297338
93.916110,-2.764404297,6.434619904,-5.522270203,-0.083912596,-0.092407107,0.993297338
93.916360,-2.764404297,6.434619904,-5.522270203,-0.083912596,-0.092407107,0.993297338
93.916612,-2.764404297,6.434619904,-5.522270203,-0.083912596,-0.092407107,0.993297338
93.916862,-2.764404297,6.434619904,-5.522270203,-0.083912596,-0.092407107,0.993297338
93.917115,-2.764404297,6.434619904,-5.522270203,-0.083912596,-0.092407107,0.993297338
93.917367,-2.764404297,6.434619904,-5.522270203,-0.083912596,-0.092407107,0.993297338
93.917617,-2.764404297,6.434619904,-5.522270203,-0.083912596,-0.092407107,0.993297338
93.917869,-2.764404297,6.434619904,-5.522270203,-0.083912596,-0.092407107,0.993297338
93.956162,-5.373657227,8.860767365,-6.063957214,-0.007374512,-0.082031131,0.969127417
93.994626,-6.968200684,-6.680309296,-7.215995789,-0.000050293,-0.096801639,0.937144995
94.008818,-7.364929199,-7.611095428,-6.468315125,-0.007984864,-0.091308475,0.934337378
94.009156,-8.104980469,-7.313549042,-5.713005066,-0.017506348,-0.121826053,0.930797338
94.009417,-8.104980469,-7.313549042,-5.713005066,-0.017506348,-0.121826053,0.930797338
94.009667,-8.104980469,-7.313549042,-5.713005066,-0.017506348,-0.121826053,0.930797338
94.009917,-8.104980469,-7.313549042,-5.713005066,-0.017506348,-0.121826053,0.930797338
94.010167,-8.104980469,-7.313549042,-5.713005066,-0.017506348,-0.121826053,0.930797338
94.010417,-8.104980469,-7.313549042,-5.713005066,-0.017506348,-0.121826053,0.930797338
94.010670,-8.104980469,-7.313549042,-5.713005066,-0.017506348,-0.121826053,0.930797338
94.010922,-8.104980469,-7.313549042,-5.713005066,-0.017506348,-0.121826053,0.930797338
94.011172,-8.104980469,-7.313549042,-5.713005066,-0.017506348,-0.121826053,0.930797338
94.012636,-8.104980469,-7.313549042,-5.713005066,-0.017506348,-0.121826053,0.930797338
94.026881,-9.524047852,-6.703197479,-5.102653503,-0.019093262,-0.126464725,0.920299292
94.027201,-9.524047852,-6.703197479,-5.102653503,-0.019093262,-0.126464725,0.920299292
94.027451,-9.524047852,-6.703197479,-5.102653503,-0.019093262,-0.126464725,0.920299292
94.027703,-9.524047852,-6.703197479,-5.102653503,-0.019093262,-0.126464725,0.920299292
94.027954,-9.524047852,-6.703197479,-5.102653503,-0.019093262,-0.126464725,0.920299292
94.028205,-9.524047852,-6.703197479,-5.102653503,-0.019093262,-0.126464725,0.920299292
94.028456,-9.524047852,-6.703197479,-5.102653503,-0.019093262,-0.126464725,0.920299292
94.028706,-9.524047852,-6.703197479,-5.102653503,-0.019093262,-0.126464725,0.920299292
94.028957,-10.393798828,-6.390392303,-5.766410828,-0.019825684,-0.017944213,0.907481909
94.029208,-10.393798828,-6.390392303,-5.766410828,-0.019825684,-0.017944213,0.907481909
94.029459,-10.393798828,-6.390392303,-5.766410828,-0.019825684,-0.017944213,0.907481909
94.030921,-10.393798828,-6.390392303,-5.766410828,-0.019825684,-0.017944213,0.907481909
94.069274,-6.960571289,-2.621471405,-4.049797058,0.006053222,-0.061279174,0.905162573
94.107694,-4.366577148,3.688037872,-2.089042664,0.014842285,-0.096801639,0.935924292
94.121883,-3.794372559,7.632434845,-0.051994324,0.020091308,-0.088989139,0.955577612
94.122225,-3.794372559,7.632434845,-0.051994324,0.020091308,-0.088989139,0.955577612
94.122484,-3.794372559,7.632434845,-0.051994324,0.020091308,-0.088989139,0.955577612
94.122734,-3.794372559,7.632434845,-0.051994324,0.020091308,-0.088989139,0.955577612
94.122986,-3.794372559,7.632434845,-0.051994324,0.020091308,-0.088989139,0.955577612
94.123237,-3.794372559,7.632434845,-0.051994324,0.020091308,-0.088989139,0.955577612
94.123488,-3.794372559,7.632434845,-0.051994324,0.020091308,-0.088989139,0.955577612
94.123739,-3.794372559,7.632434845,-0.051994324,0.020091308,-0.088989139,0.955577612
94.123991,-3.794372559,7.632434845,-0.051994324,0.020091308,-0.088989139,0.955577612
94.124242,-3.794372559,7.632434845,-0.051994324,0.020091308,-0.088989139,0.955577612
94.125702,-3.794372559,7.632434845,-0.051994324,0.020091308,-0.088989139,0.955577612
94.151706,-3.794372559,10.638416290,3.449897766,0.048411623,-0.150512576,1.017345190
94.152071,-3.794372559,10.638416290,3.449897766,0.048411623,-0.150512576,1.017345190
94.152321,-3.794372559,10.638416290,3.449897766,0.048411623,-0.150512576,1.017345190
94.152571,-3.794372559,10.638416290,3.449897766,0.048411623,-0.150512576,1.017345190
94.152823,-3.794372559,10.638416290,3.449897766,0.048411623,-0.150512576,1.017345190
94.153073,-3.794372559,10.638416290,3.449897766,0.048411623,-0.150512576,1.017345190
94.153324,-3.794372559,10.638416290,3.449897766,0.048411623,-0.150512576,1.017345190
94.153574,-3.794372559,10.638416290,3.449897766,0.048411623,-0.150512576,1.017345190
94.153824,-3.794372559,10.638416290,3.449897766,0.048411623,-0.150512576,1.017345190
94.192145,-6.525695801,-3.849803925,6.761054993,0.033885255,-0.113281131,1.057750463
94.230590,-2.581298828,-17.208873749,5.509834290,-0.068409666,-0.027099486,1.083263159
94.256775,-3.718078613,-14.431774139,4.060249329,-0.106129393,-0.049926635,1.104625463
94.271184,-4.336059570,-7.893383026,3.724555969,-0.120655760,-0.050048705,1.102061987
94.271522,-4.336059570,-7.893383026,3.724555969,-0.120655760,-0.050048705,1.102061987
94.271780,-4.336059570,-7.893383026,3.724555969,-0.120655760,-0.050048705,1.102061987
94.272030,-4.336059570,-7.893383026,3.724555969,-0.120655760,-0.050048705,1.102061987
94.272280,-4.336059570,-7.893383026,3.724555969,-0.120655760,-0.050048705,1.102061987
94.272531,-4.336059570,-7.893383026,3.724555969,-0.120655760,-0.050048705,1.102061987
94.272781,-4.336059570,-7.893383026,3.724555969,-0.120655760,-0.050048705,1.102061987
94.273032,-4.336059570,-7.893383026,3.724555969,-0.120655760,-0.050048705,1.102061987
94.273283,-4.336059570,-7.893383026,3.724555969,-0.120655760,-0.050048705,1.102061987
94.273533,-4.336059570,-7.893383026,3.724555969,-0.120655760,-0.050048705,1.102061987
94.274995,-4.336059570,-7.893383026,3.724555969,-0.120655760,-0.050048705,1.102061987
94.313345,-3.138244629,5.816638947,-2.989311218,-0.132984862,-0.014037963,1.092662573
94.351683,-0.200927734,25.248706818,-6.414909363,-0.080250487,0.049316529,1.051524878
94.366012,0.920593262,27.751148224,-6.910820007,-0.049977049,0.029052857,1.052989721
94.366337,0.920593262,27.751148224,-6.910820007,-0.049977049,0.029052857,1.052989721
94.366587,0.920593262,27.751148224,-6.910820007,-0.049977049,0.029052857,1.052989721
94.366837,1.508056641,28.781116486,-6.727714539,-0.020313965,0.000244264,1.061168432
94.367087,1.508056641,28.781116486,-6.727714539,-0.020313965,0.000244264,1.061168432
94.367338,1.508056641,28.781116486,-6.727714539,-0.020313965,0.000244264,1.061168432
94.367591,1.508056641,28.781116486,-6.727714539,-0.020313965,0.000244264,1.061168432
94.367842,1.508056641,28.781116486,-6.727714539,-0.020313965,0.000244264,1.061168432
94.368092,1.508056641,28.781116486,-6.727714539,-0.020313965,0.000244264,1.061168432
94.368343,1.508056641,28.781116486,-6.727714539,-0.020313965,0.000244264,1.061168432
94.368593,1.508056641,28.781116486,-6.727714539,-0.020313965,0.000244264,1.061168432
94.370041,1.508056641,28.781116486,-6.727714539,-0.020313965,0.000244264,1.061168432
94.384188,0.623046875,26.744068146,-5.774040222,0.023875488,-0.107055545,1.055797338
94.384553,0.623046875,26.744068146,-5.774040222,0.023875488,-0.107055545,1.055797338
94.384803,0.623046875,26.744068146,-5.774040222,0.023875488,-0.107055545,1.055797338
94.385055,0.623046875,26.744068146,-5.774040222,0.023875488,-0.107055545,1.055797338
94.385305,0.623046875,26.744068146,-5.774040222,0.023875488,-0.107055545,1.055797338
94.385557,0.623046875,26.744068146,-5.774040222,0.023875488,-0.107055545,1.055797338
94.385807,0.623046875,26.744068146,-5.774040222,0.023875488,-0.107055545,1.055797338
94.386059,0.623046875,26.744068146,-5.774040222,0.023875488,-0.107055545,1.055797338
94.386312,0.623046875,26.744068146,-5.774040222,0.023875488,-0.107055545,1.055797338
94.386564,0.623046875,26.744068146,-5.774040222,0.023875488,-0.107055545,1.055797338
94.386816,-2.726257324,22.540271759,-7.711906433,0.063060060,-0.022094604,1.034068823
94.435753,-1.276672363,5.274951935,-6.025810242,0.090525880,-0.134765506,0.948863745
94.474243,1.111328125,-9.404003143,2.885322571,0.094310060,-0.014282104,0.881725073
94.488528,6.474792480,-12.509166718,-0.326652527,0.052317873,0.009033326,0.869151831
94.488831,6.474792480,-12.509166718,-0.326652527,0.052317873,0.009033326,0.869151831
94.489084,6.474792480,-12.509166718,-0.326652527,0.052317873,0.009033326,0.869151831
94.489336,6.474792480,-12.509166718,-0.326652527,0.052317873,0.009033326,0.869151831
94.489588,6.474792480,-12.509166718,-0.326652527,0.052317873,0.009033326,0.869151831
94.489839,6.474792480,-12.509166718,-0.326652527,0.052317873,0.009033326,0.869151831
94.490091,6.474792480,-12.509166718,-0.326652527,0.052317873,0.009033326,0.869151831
94.490342,6.474792480,-12.509166718,-0.326652527,0.052317873,0.009033326,0.869151831
94.490593,6.474792480,-12.509166718,-0.326652527,0.052317873,0.009033326,0.869151831
94.490844,6.474792480,-12.509166718,-0.326652527,0.052317873,0.009033326,0.869151831
94.492297,6.474792480,-12.509166718,-0.326652527,0.052317873,0.009033326,0.869151831
94.506442,4.689514160,-8.175670624,3.976325989,0.037913576,0.013916139,0.858653784
94.506784,4.689514160,-8.175670624,3.976325989,0.037913576,0.013916139,0.858653784
94.507046,4.689514160,-8.175670624,3.976325989,0.037913576,0.013916139,0.858653784
94.507296,4.689514160,-8.175670624,3.976325989,0.037913576,0.013916139,0.858653784
94.507548,4.689514160,-8.175670624,3.976325989,0.037913576,0.013916139,0.858653784
94.507798,4.689514160,-8.175670624,3.976325989,0.037913576,0.013916139,0.858653784
94.508050,4.689514160,-8.175670624,3.976325989,0.037913576,0.013916139,0.858653784
94.508302,4.689514160,-8.175670624,3.976325989,0.037913576,0.013916139,0.858653784
94.508554,4.689514160,-8.175670624,3.976325989,0.037913576,0.013916139,0.858653784
94.508806,4.689514160,-8.175670624,3.976325989,0.037913576,0.013916139,0.858653784
94.509058,4.689514160,-8.175670624,3.976325989,0.037913576,0.013916139,0.858653784
94.510504,4.689514160,-8.175670624,3.976325989,0.037913576,0.013916139,0.858653784
94.548852,0.249206543,3.627002716,2.763252258,0.006663574,-0.017822143,0.876598120
94.587272,-1.932800293,20.922840118,5.944709778,0.052317873,-0.102294803,0.875743628
94.601429,-2.962768555,20.182788849,5.853157043,0.071482912,-0.055297729,0.874767065
94.601786,-2.962768555,20.182788849,5.853157043,0.071482912,-0.055297729,0.874767065
94.602048,-2.962768555,20.182788849,5.853157043,0.071482912,-0.055297729,0.874767065
94.602299,-2.962768555,20.182788849,5.853157043,0.071482912,-0.055297729,0.874767065
94.602552,-2.962768555,20.182788849,5.853157043,0.071482912,-0.055297729,0.874767065
94.602805,-2.962768555,20.182788849,5.853157043,0.071482912,-0.055297729,0.874767065
94.603057,-2.962768555,20.182788849,5.853157043,0.071482912,-0.055297729,0.874767065
94.603310,-2.962768555,20.182788849,5.853157043,0.071482912,-0.055297729,0.874767065
94.603562,-2.962768555,20.182788849,5.853157043,0.071482912,-0.055297729,0.874767065
94.603812,-2.962768555,20.182788849,5.853157043,0.071482912,-0.055297729,0.874767065
94.605276,-1.848876953,16.375720978,5.624275208,0.089183107,-0.043212768,0.866100073
94.619524,-0.399291992,11.027515411,5.891304016,0.095774904,-0.033569213,0.875743628
94.619842,-0.399291992,11.027515411,5.891304016,0.095774904,-0.033569213,0.875743628
94.620093,-0.399291992,11.027515411,5.891304016,0.095774904,-0.033569213,0.875743628
94.620343,-0.399291992,11.027515411,5.891304016,0.095774904,-0.033569213,0.875743628
94.620593,-0.399291992,11.027515411,5.891304016,0.095774904,-0.033569213,0.875743628
94.620845,-0.399291992,11.027515411,5.891304016,0.095774904,-0.033569213,0.875743628
94.621095,-0.399291992,11.027515411,5.891304016,0.095774904,-0.033569213,0.875743628
94.621348,-0.399291992,11.027515411,5.891304016,0.095774904,-0.033569213,0.875743628
94.621600,-0.399291992,11.027515411,5.891304016,0.095774904,-0.033569213,0.875743628
94.621850,-0.399291992,11.027515411,5.891304016,0.095774904,-0.033569213,0.875743628
94.622103,-0.399291992,11.027515411,5.891304016,0.095774904,-0.033569213,0.875743628
94.670914,2.217590332,-14.019786835,7.768135071,0.070384279,-0.117919803,0.885265112
94.709392,6.116210938,-25.280773163,6.898384094,0.006785644,-0.031982299,0.903087378
94.723643,8.343994141,-25.326549530,5.334358215,-0.007618653,-0.088744998,0.919688940
94.724012,8.343994141,-25.326549530,5.334358215,-0.007618653,-0.088744998,0.919688940
94.724286,8.343994141,-25.326549530,5.334358215,-0.007618653,-0.088744998,0.919688940
94.724539,8.343994141,-25.326549530,5.334358215,-0.007618653,-0.088744998,0.919688940
94.724791,7.954895020,-23.442089081,5.059700012,-0.007130371,-0.133911014,0.933971167
94.725044,7.954895020,-23.442089081,5.059700012,-0.007130371,-0.133911014,0.933971167
94.725297,7.954895020,-23.442089081,5.059700012,-0.007130371,-0.133911014,0.933971167
94.725548,7.954895020,-23.442089081,5.059700012,-0.007130371,-0.133911014,0.933971167
94.725801,7.954895020,-23.442089081,5.059700012,-0.007130371,-0.133911014,0.933971167
94.726052,7.954895020,-23.442089081,5.059700012,-0.007130371,-0.133911014,0.933971167
94.727511,7.954895020,-23.442089081,5.059700012,-0.007130371,-0.133911014,0.933971167
94.741793,7.428466797,-20.870983124,6.280403137,-0.002857910,-0.133544803,0.936412573
94.742105,7.428466797,-20.870983124,6.280403137,-0.002857910,-0.133544803,0.936412573
94.742356,7.428466797,-20.870983124,6.280403137,-0.002857910,-0.133544803,0.936412573
94.742606,7.428466797,-20.870983124,6.280403137,-0.002857910,-0.133544803,0.936412573
94.742858,7.428466797,-20.870983124,6.280403137,-0.002857910,-0.133544803,0.936412573
94.743110,7.428466797,-20.870983124,6.280403137,-0.002857910,-0.133544803,0.936412573
94.743362,7.428466797,-20.870983124,6.280403137,-0.002857910,-0.133544803,0.936412573
94.743614,7.428466797,-20.870983124,6.280403137,-0.002857910,-0.133544803,0.936412573
94.743866,7.428466797,-20.870983124,6.280403137,-0.002857910,-0.133544803,0.936412573
94.744118,7.428466797,-20.870983124,6.280403137,-0.002857910,-0.133544803,0.936412573
94.744371,7.428466797,-20.870983124,6.280403137,-0.002857910,-0.133544803,0.936412573
94.745831,8.076965332,-17.269908905,6.417732239,-0.008473145,-0.097289920,0.942760229
94.784200,12.692749023,-13.745128632,4.762153625,-0.025929200,0.018798951,1.026378393
94.822620,9.778320312,-15.782176971,-0.769157410,-0.017506348,-0.095947146,1.085826635
94.836862,10.930358887,-12.387096405,0.802497864,-0.015309082,-0.000244018,1.068370581
94.837244,10.930358887,-12.387096405,0.802497864,-0.015309082,-0.000244018,1.068370581
94.837507,10.930358887,-12.387096405,0.802497864,-0.015309082,-0.000244018,1.068370581
94.837758,10.930358887,-12.387096405,0.802497864,-0.015309082,-0.000244018,1.068370581
94.838008,10.930358887,-12.387096405,0.802497864,-0.015309082,-0.000244018,1.068370581
94.838261,10.930358887,-12.387096405,0.802497864,-0.015309082,-0.000244018,1.068370581
94.838511,10.930358887,-12.387096405,0.802497864,-0.015309082,-0.000244018,1.068370581
94.838764,10.930358887,-12.387096405,0.802497864,-0.015309082,-0.000244018,1.068370581
94.839014,10.930358887,-12.387096405,0.802497864,-0.015309082,-0.000244018,1.068370581
94.839264,10.930358887,-12.387096405,0.802497864,-0.015309082,-0.000244018,1.068370581
94.840721,10.930358887,-12.387096405,0.802497864,-0.015309082,-0.000244018,1.068370581
94.867255,10.640441895,-4.193126678,-1.509208679,-0.050343260,0.009399537,1.119395971
94.905754,8.084594727,6.701648712,-2.691764832,0.003001465,0.033081178,1.072765112
94.944011,12.845336914,0.048816681,-2.501029968,-0.006520020,0.046142701,1.145396948
94.958307,11.113464355,-4.032909393,-3.241081238,0.013865722,0.019897584,1.139415503
94.958642,11.113464355,-4.032909393,-3.241081238,0.013865722,0.019897584,1.139415503
94.958894,11.113464355,-4.032909393,-3.241081238,0.013865722,0.019897584,1.139415503
94.959145,11.113464355,-4.032909393,-3.241081238,0.013865722,0.019897584,1.139415503
94.959398,11.113464355,-4.032909393,-3.241081238,0.013865722,0.019897584,1.139415503
94.959648,11.113464355,-4.032909393,-3.241081238,0.013865722,0.019897584,1.139415503
94.985447,10.609924316,-11.868297577,2.503852844,0.036937013,0.115844846,1.054576635
94.985926,10.609924316,-11.868297577,2.503852844,0.036937013,0.115844846,1.054576635
94.986176,10.609924316,-11.868297577,2.503852844,0.036937013,0.115844846,1.054576635
94.986426,10.609924316,-11.868297577,2.503852844,0.036937013,0.115844846,1.054576635
94.986676,10.609924316,-11.868297577,2.503852844,0.036937013,0.115844846,1.054576635
94.986926,10.609924316,-11.868297577,2.503852844,0.036937013,0.115844846,1.054576635
94.987176,10.609924316,-11.868297577,2.503852844,0.036937013,0.115844846,1.054576635
94.987427,10.609924316,-11.868297577,2.503852844,0.036937013,0.115844846,1.054576635
94.987677,10.609924316,-11.868297577,2.503852844,0.036937013,0.115844846,1.054576635
95.026019,10.930358887,-20.886241913,3.205757141,-0.038380370,-0.049316283,1.034068823
95.064440,9.496032715,6.922901154,3.533821106,-0.115040526,-0.002319213,1.000133276
95.078755,10.266601562,11.470020294,0.512580872,-0.117970213,0.108154416,1.015025854
95.079146,10.266601562,11.470020294,0.512580872,-0.117970213,0.108154416,1.015025854
95.079419,10.266601562,11.470020294,0.512580872,-0.117970213,0.108154416,1.015025854
95.079681,10.266601562,11.470020294,0.512580872,-0.117970213,0.108154416,1.015025854
95.079933,10.266601562,11.470020294,0.512580872,-0.117970213,0.108154416,1.015025854
95.080184,10.266601562,11.470020294,0.512580872,-0.117970213,0.108154416,1.015025854
95.080435,10.266601562,11.470020294,0.512580872,-0.117970213,0.108154416,1.015025854
95.080695,10.266601562,11.470020294,0.512580872,-0.117970213,0.108154416,1.015025854
95.080946,10.266601562,11.470020294,0.512580872,-0.117970213,0.108154416,1.015025854
95.081197,10.266601562,11.470020294,0.512580872,-0.117970213,0.108154416,1.015025854
95.082686,10.594665527,18.000782013,0.222663879,-0.100147948,0.021728639,1.038829565
95.096870,6.230651855,22.410572052,0.245552063,-0.075611815,-0.083495975,1.068614721
95.097255,6.230651855,22.410572052,0.245552063,-0.075611815,-0.083495975,1.068614721
95.097512,6.230651855,22.410572052,0.245552063,-0.075611815,-0.083495975,1.068614721
95.097763,6.230651855,22.410572052,0.245552063,-0.075611815,-0.083495975,1.068614721
95.098016,6.230651855,22.410572052,0.245552063,-0.075611815,-0.083495975,1.068614721
95.098267,6.230651855,22.410572052,0.245552063,-0.075611815,-0.083495975,1.068614721
95.098520,6.230651855,22.410572052,0.245552063,-0.075611815,-0.083495975,1.068614721
95.098772,6.230651855,22.410572052,0.245552063,-0.075611815,-0.083495975,1.068614721
95.099024,6.230651855,22.410572052,0.245552063,-0.075611815,-0.083495975,1.068614721
95.099277,6.230651855,22.410572052,0.245552063,-0.075611815,-0.083495975,1.068614721
95.099529,6.230651855,22.410572052,0.245552063,-0.075611815,-0.083495975,1.068614721
95.100987,6.230651855,22.410572052,0.245552063,-0.075611815,-0.083495975,1.068614721
95.139319,-0.727355957,31.413257599,-1.348991394,-0.034352049,-0.054687377,1.061290503
95.177755,-7.624328613,16.246021271,-0.677604675,0.026194824,-0.045043822,1.057628393
95.191957,-8.585632324,-2.537548065,-3.309745789,0.002513183,-0.032104369,1.059093237
95.192307,-8.585632324,-2.537548065,-3.309745789,0.002513183,-0.032104369,1.059093237
95.192573,-8.585632324,-2.537548065,-3.309745789,0.002513183,-0.032104369,1.059093237
95.192825,-8.585632324,-2.537548065,-3.309745789,0.002513183,-0.032104369,1.059093237
95.193076,-8.585632324,-2.537548065,-3.309745789,0.002513183,-0.032104369,1.059093237
95.193326,-8.585632324,-2.537548065,-3.309745789,0.002513183,-0.032104369,1.059093237
95.193579,-8.585632324,-2.537548065,-3.309745789,0.002513183,-0.032104369,1.059093237
95.193831,-8.585632324,-2.537548065,-3.309745789,0.002513183,-0.032104369,1.059093237
95.194081,-8.585632324,-2.537548065,-3.309745789,0.002513183,-0.032104369,1.059093237
95.194331,-8.585632324,-2.537548065,-3.309745789,0.002513183,-0.032104369,1.059093237
95.195788,-8.585632324,-2.537548065,-3.309745789,0.002513183,-0.032104369,1.059093237
95.210063,-9.264648438,-7.481395721,-3.729362488,-0.033619627,-0.024780151,1.064220190
95.259003,-13.041198730,-4.658519745,-2.470512390,-0.028248535,-0.068969607,1.055797338
95.297466,-15.391052246,-15.148937225,-6.468315125,-0.024952637,-0.098998904,1.027965307
95.311636,-15.833557129,-10.464488983,-5.346794128,0.002635254,-0.074218631,1.013072729
95.311972,-15.833557129,-10.464488983,-5.346794128,0.002635254,-0.074218631,1.013072729
95.312252,-15.833557129,-10.464488983,-5.346794128,0.002635254,-0.074218631,1.013072729
95.312503,-15.833557129,-10.464488983,-5.346794128,0.002635254,-0.074218631,1.013072729
95.312754,-15.833557129,-10.464488983,-5.346794128,0.002635254,-0.074218631,1.013072729
95.313004,-15.833557129,-10.464488983,-5.346794128,0.002635254,-0.074218631,1.013072729
95.313254,-15.833557129,-10.464488983,-5.346794128,0.002635254,-0.074218631,1.013072729
95.313504,-15.833557129,-10.464488983,-5.346794128,0.002635254,-0.074218631,1.013072729
95.313754,-15.833557129,-10.464488983,-5.346794128,0.002635254,-0.074218631,1.013072729
95.314004,-15.833557129,-10.464488983,-5.346794128,0.002635254,-0.074218631,1.013072729
95.315468,-15.833557129,-10.464488983,-5.346794128,0.002635254,-0.074218631,1.013072729
95.329730,-14.559448242,-7.733165741,-2.317924500,0.027049316,-0.073608279,1.017101049
95.330046,-14.559448242,-7.733165741,-2.317924500,0.027049316,-0.073608279,1.017101049
95.330296,-14.559448242,-7.733165741,-2.317924500,0.027049316,-0.073608279,1.017101049
95.330546,-14.559448242,-7.733165741,-2.317924500,0.027049316,-0.073608279,1.017101049
95.330797,-14.559448242,-7.733165741,-2.317924500,0.027049316,-0.073608279,1.017101049
95.331048,-14.017761230,-6.916820526,-0.967521667,0.045115724,-0.077636600,1.033092260
95.331299,-14.017761230,-6.916820526,-0.967521667,0.045115724,-0.077636600,1.033092260
95.331549,-14.017761230,-6.916820526,-0.967521667,0.045115724,-0.077636600,1.033092260
95.331801,-14.017761230,-6.916820526,-0.967521667,0.045115724,-0.077636600,1.033092260
95.332051,-14.017761230,-6.916820526,-0.967521667,0.045115724,-0.077636600,1.033092260
95.332303,-14.017761230,-6.916820526,-0.967521667,0.045115724,-0.077636600,1.033092260
95.333756,-14.017761230,-6.916820526,-0.967521667,0.045115724,-0.077636600,1.033092260
95.372109,-17.466247559,-8.709728241,1.687507629,0.013011230,-0.014892455,1.040904760
95.410525,-10.790527344,-1.622020721,1.786689758,0.009471191,0.023559693,1.031871557
95.424701,-9.516418457,0.910938263,1.428108215,0.019725097,-0.000366088,1.038585424
95.425037,-9.516418457,0.910938263,1.428108215,0.019725097,-0.000366088,1.038585424
95.425295,-9.516418457,0.910938263,1.428108215,0.019725097,-0.000366088,1.038585424
95.425547,-9.516418457,0.910938263,1.428108215,0.019725097,-0.000366088,1.038585424
95.425797,-9.516418457,0.910938263,1.428108215,0.019725097,-0.000366088,1.038585424
95.426048,-9.516418457,0.910938263,1.428108215,0.019725097,-0.000366088,1.038585424
95.426299,-9.516418457,0.910938263,1.428108215,0.019725097,-0.000366088,1.038585424
95.426551,-9.516418457,0.910938263,1.428108215,0.019725097,-0.000366088,1.038585424
95.426803,-9.516418457,0.910938263,1.428108215,0.019725097,-0.000366088,1.038585424
95.427054,-9.516418457,0.910938263,1.428108215,0.019725097,-0.000366088,1.038585424
95.428531,-9.516418457,0.910938263,1.428108215,0.019725097,-0.000366088,1.038585424
95.454697,-9.455383301,11.981189728,4.327278137,0.051707521,-0.068969607,1.058116674
95.493014,-5.289733887,17.558277130,7.752876282,0.067576662,0.056884889,1.035167456
95.531444,-2.505004883,8.219898224,5.357246399,0.075755373,-0.000854369,1.057994604
95.545731,-3.641784668,5.290210724,4.975776672,0.084910646,-0.039794799,1.057506323
95.546036,-3.641784668,5.290210724,4.975776672,0.084910646,-0.039794799,1.057506323
95.546288,-3.641784668,5.290210724,4.975776672,0.084910646,-0.039794799,1.057506323
95.546539,-3.641784668,5.290210724,4.975776672,0.084910646,-0.039794799,1.057506323
95.546789,-3.641784668,5.290210724,4.975776672,0.084910646,-0.039794799,1.057506323
95.547041,-3.641784668,5.290210724,4.975776672,0.084910646,-0.039794799,1.057506323
95.547292,-3.641784668,5.290210724,4.975776672,0.084910646,-0.039794799,1.057506323
95.573353,-7.090270996,0.788867950,7.516365051,0.078562990,-0.063354373,1.005504370
95.573816,-7.090270996,0.788867950,7.516365051,0.078562990,-0.063354373,1.005504370
95.574067,-7.090270996,0.788867950,7.516365051,0.078562990,-0.063354373,1.005504370
95.574318,-7.090270996,0.788867950,7.516365051,0.078562990,-0.063354373,1.005504370
95.574569,-7.090270996,0.788867950,7.516365051,0.078562990,-0.063354373,1.005504370
95.574820,-7.090270996,0.788867950,7.516365051,0.078562990,-0.063354373,1.005504370
95.575071,-7.090270996,0.788867950,7.516365051,0.078562990,-0.063354373,1.005504370
95.575322,-7.090270996,0.788867950,7.516365051,0.078562990,-0.063354373,1.005504370
95.575573,-7.090270996,0.788867950,7.516365051,0.078562990,-0.063354373,1.005504370
95.613866,-4.374206543,-0.897228241,11.208992004,0.023265136,0.085205197,0.929576635
95.652305,1.294433594,-7.054149628,1.962165833,-0.034962401,0.027588014,0.894908667
95.666618,1.324951172,-2.735912323,2.198677063,-0.032887205,-0.017455932,0.886852026
95.666925,1.324951172,-2.735912323,2.198677063,-0.032887205,-0.017455932,0.886852026
95.667177,1.324951172,-2.735912323,2.198677063,-0.032887205,-0.017455932,0.886852026
95.667430,1.324951172,-2.735912323,2.198677063,-0.032887205,-0.017455932,0.886852026
95.667682,1.324951172,-2.735912323,2.198677063,-0.032887205,-0.017455932,0.886852026
95.667934,1.324951172,-2.735912323,2.198677063,-0.032887205,-0.017455932,0.886852026
95.668187,1.324951172,-2.735912323,2.198677063,-0.032887205,-0.017455932,0.886852026
95.668439,1.324951172,-2.735912323,2.198677063,-0.032887205,-0.017455932,0.886852026
95.668692,1.324951172,-2.735912323,2.198677063,-0.032887205,-0.017455932,0.886852026
95.668944,1.675903320,3.649890900,4.373054504,-0.025929200,-0.046508666,0.883922338
95.670395,1.675903320,3.649890900,4.373054504,-0.025929200,-0.046508666,0.883922338
95.684551,1.370727539,9.936511993,6.127815247,-0.016163575,-0.099853396,0.890880346
95.684912,1.370727539,9.936511993,6.127815247,-0.016163575,-0.099853396,0.890880346
95.685165,1.370727539,9.936511993,6.127815247,-0.016163575,-0.099853396,0.890880346
95.685416,1.370727539,9.936511993,6.127815247,-0.016163575,-0.099853396,0.890880346
95.685666,1.370727539,9.936511993,6.127815247,-0.016163575,-0.099853396,0.890880346
95.685916,1.370727539,9.936511993,6.127815247,-0.016163575,-0.099853396,0.890880346
95.686166,1.370727539,9.936511993,6.127815247,-0.016163575,-0.099853396,0.890880346
95.686416,1.370727539,9.936511993,6.127815247,-0.016163575,-0.099853396,0.890880346
95.686666,1.370727539,9.936511993,6.127815247,-0.016163575,-0.099853396,0.890880346
95.686916,1.370727539,9.936511993,6.127815247,-0.016163575,-0.099853396,0.890880346
95.687166,1.370727539,9.936511993,6.127815247,-0.016163575,-0.099853396,0.890880346
95.688616,1.370727539,9.936511993,6.127815247,-0.016163575,-0.099853396,0.890880346
95.737429,-2.199829102,16.444385529,8.470039368,-0.022511231,-0.112670779,0.875011206
95.775950,-5.770385742,2.520740509,5.929450989,-0.030445801,-0.105956912,0.872203588
95.790257,-5.465209961,-2.949535370,5.891304016,-0.057789549,-0.107665896,0.850841284
95.790569,-5.465209961,-2.949535370,5.891304016,-0.057789549,-0.107665896,0.850841284
95.790821,-5.465209961,-2.949535370,5.891304016,-0.057789549,-0.107665896,0.850841284
95.791071,-5.465209961,-2.949535370,5.891304016,-0.057789549,-0.107665896,0.850841284
95.791323,-5.465209961,-2.949535370,5.891304016,-0.057789549,-0.107665896,0.850841284
95.791573,-5.465209961,-2.949535370,5.891304016,-0.057789549,-0.107665896,0.850841284
95.791824,-5.465209961,-2.949535370,5.891304016,-0.057789549,-0.107665896,0.850841284
95.792074,-5.465209961,-2.949535370,5.891304016,-0.057789549,-0.107665896,0.850841284
95.792325,-5.465209961,-2.949535370,5.891304016,-0.057789549,-0.107665896,0.850841284
95.792575,-5.465209961,-2.949535370,5.891304016,-0.057789549,-0.107665896,0.850841284
95.794037,-5.465209961,-2.949535370,5.891304016,-0.057789549,-0.107665896,0.850841284
95.808175,-3.199279785,-4.238903046,2.633552551,-0.094166502,-0.105834842,0.848766088
95.857531,-0.422180176,-1.568614960,-1.142997742,-0.094654784,-0.106689334,0.866466284
95.896048,2.324401855,9.478748322,-6.208915710,-0.111622557,-0.170532107,0.941539526
95.910214,0.798522949,15.155017853,-6.575126648,-0.075733885,-0.178100467,0.962535620
95.910574,0.798522949,15.155017853,-6.575126648,-0.075733885,-0.178100467,0.962535620
95.910852,0.798522949,15.155017853,-6.575126648,-0.075733885,-0.178100467,0.962535620
95.911105,0.798522949,15.155017853,-6.575126648,-0.075733885,-0.178100467,0.962535620
95.911356,0.798522949,15.155017853,-6.575126648,-0.075733885,-0.178100467,0.962535620
95.911606,0.798522949,15.155017853,-6.575126648,-0.075733885,-0.178100467,0.962535620
95.911856,0.798522949,15.155017853,-6.575126648,-0.075733885,-0.178100467,0.962535620
95.912106,0.798522949,15.155017853,-6.575126648,-0.075733885,-0.178100467,0.962535620
95.912356,0.798522949,15.155017853,-6.575126648,-0.075733885,-0.178100467,0.962535620
95.912607,0.798522949,15.155017853,-6.575126648,-0.075733885,-0.178100467,0.962535620
95.914059,0.798522949,15.155017853,-6.575126648,-0.075733885,-0.178100467,0.962535620
95.928316,2.126037598,14.025867462,-8.703727722,-0.048390135,-0.066772342,0.977306128
95.928627,2.126037598,14.025867462,-8.703727722,-0.048390135,-0.066772342,0.977306128
95.928877,2.126037598,14.025867462,-8.703727722,-0.048390135,-0.066772342,0.977306128
95.929128,2.126037598,14.025867462,-8.703727722,-0.048390135,-0.066772342,0.977306128
95.929378,2.126037598,14.025867462,-8.703727722,-0.048390135,-0.066772342,0.977306128
95.929629,2.126037598,14.025867462,-8.703727722,-0.048390135,-0.066772342,0.977306128
95.929881,2.126037598,14.025867462,-8.703727722,-0.048390135,-0.066772342,0.977306128
95.930132,2.126037598,14.025867462,-8.703727722,-0.048390135,-0.066772342,0.977306128
95.930385,2.126037598,14.025867462,-8.703727722,-0.048390135,-0.066772342,0.977306128
95.930636,2.126037598,14.025867462,-8.703727722,-0.048390135,-0.066772342,0.977306128
95.930888,2.126037598,14.025867462,-8.703727722,-0.048390135,-0.066772342,0.977306128
95.932338,2.126037598,14.025867462,-8.703727722,-0.048390135,-0.066772342,0.977306128
95.970691,4.361450195,7.327259064,-8.863945007,-0.014698731,-0.050170776,1.077403784
96.009127,3.026306152,-5.093395233,-7.391471863,0.009837402,-0.053100463,1.101939917
96.023298,3.094970703,-7.260143280,-7.895011902,-0.003590332,-0.020263549,1.092662573
96.023641,3.094970703,-7.260143280,-7.895011902,-0.003590332,-0.020263549,1.092662573
96.023898,3.094970703,-7.260143280,-7.895011902,-0.003590332,-0.020263549,1.092662573
96.024148,3.094970703,-7.260143280,-7.895011902,-0.003590332,-0.020263549,1.092662573
96.024400,3.094970703,-7.260143280,-7.895011902,-0.003590332,-0.020263549,1.092662573
96.024651,3.094970703,-7.260143280,-7.895011902,-0.003590332,-0.020263549,1.092662573
96.024903,3.094970703,-7.260143280,-7.895011902,-0.003590332,-0.020263549,1.092662573
96.025154,3.094970703,-7.260143280,-7.895011902,-0.003590332,-0.020263549,1.092662573
96.025406,3.094970703,-7.260143280,-7.895011902,-0.003590332,-0.020263549,1.092662573
96.025658,3.094970703,-7.260143280,-7.895011902,-0.003590332,-0.020263549,1.092662573
96.027131,4.117309570,-7.366954803,-7.841606140,-0.013844239,0.014770631,1.083019018
96.041245,5.872070312,-4.940807343,-6.956596375,-0.014698731,0.048217896,1.078624487
96.041675,5.872070312,-4.940807343,-6.956596375,-0.014698731,0.048217896,1.078624487
96.041942,5.872070312,-4.940807343,-6.956596375,-0.014698731,0.048217896,1.078624487
96.042194,5.872070312,-4.940807343,-6.956596375,-0.014698731,0.048217896,1.078624487
96.042446,5.872070312,-4.940807343,-6.956596375,-0.014698731,0.048217896,1.078624487
96.042698,5.872070312,-4.940807343,-6.956596375,-0.014698731,0.048217896,1.078624487
96.042969,5.872070312,-4.940807343,-6.956596375,-0.014698731,0.048217896,1.078624487
96.043220,5.872070312,-4.940807343,-6.956596375,-0.014698731,0.048217896,1.078624487
96.043470,5.872070312,-4.940807343,-6.956596375,-0.014698731,0.048217896,1.078624487
96.043720,5.872070312,-4.940807343,-6.956596375,-0.014698731,0.048217896,1.078624487
96.103000,11.838256836,-3.369152069,-0.875968933,0.009104980,-0.021118041,1.099132299
96.141457,9.946166992,-11.921703339,-0.319023132,-0.019459473,-0.012573119,1.080699682
96.155634,9.457885742,-11.212169647,1.023750305,-0.031178223,0.005859498,1.075938940
96.155965,8.878051758,-10.006725311,2.213935852,-0.042774901,0.023803834,1.072276831
96.156249,8.878051758,-10.006725311,2.213935852,-0.042774901,0.023803834,1.072276831
96.156500,8.878051758,-10.006725311,2.213935852,-0.042774901,0.023803834,1.072276831
96.156750,8.878051758,-10.006725311,2.213935852,-0.042774901,0.023803834,1.072276831
96.157001,8.878051758,-10.006725311,2.213935852,-0.042774901,0.023803834,1.072276831
96.157253,8.878051758,-10.006725311,2.213935852,-0.042774901,0.023803834,1.072276831
96.157505,8.878051758,-10.006725311,2.213935852,-0.042774901,0.023803834,1.072276831
96.157757,8.878051758,-10.006725311,2.213935852,-0.042774901,0.023803834,1.072276831
96.158009,8.878051758,-10.006725311,2.213935852,-0.042774901,0.023803834,1.072276831
96.159462,8.878051758,-10.006725311,2.213935852,-0.042774901,0.023803834,1.072276831
96.173718,8.374511719,-9.297191620,2.023200989,-0.054859862,0.028930787,1.066173315
96.174027,8.374511719,-9.297191620,2.023200989,-0.054859862,0.028930787,1.066173315
96.174277,8.374511719,-9.297191620,2.023200989,-0.054859862,0.028930787,1.066173315
96.174529,8.374511719,-9.297191620,2.023200989,-0.054859862,0.028930787,1.066173315
96.174779,8.374511719,-9.297191620,2.023200989,-0.054859862,0.028930787,1.066173315
96.175031,8.374511719,-9.297191620,2.023200989,-0.054859862,0.028930787,1.066173315
96.175283,8.374511719,-9.297191620,2.023200989,-0.054859862,0.028930787,1.066173315
96.175535,8.374511719,-9.297191620,2.023200989,-0.054859862,0.028930787,1.066173315
96.175787,8.099853516,-8.702098846,1.359443665,-0.066944823,0.020630006,1.058849096
96.176038,8.099853516,-8.702098846,1.359443665,-0.066944823,0.020630006,1.058849096
96.176290,8.099853516,-8.702098846,1.359443665,-0.066944823,0.020630006,1.058849096
96.177739,8.099853516,-8.702098846,1.359443665,-0.066944823,0.020630006,1.058849096
96.216090,4.605590820,-4.978954315,-0.662345886,-0.069996580,-0.058349486,1.030406713
96.254336,0.272094727,1.429737091,-0.204582214,-0.079395995,-0.050659057,1.008678198
96.268624,-2.001464844,2.635181427,-1.638908386,-0.072682127,-0.039306518,0.990001440
96.268926,-2.001464844,2.635181427,-1.638908386,-0.072682127,-0.039306518,0.990001440
96.269179,-2.001464844,2.635181427,-1.638908386,-0.072682127,-0.039306518,0.990001440
96.269431,-2.001464844,2.635181427,-1.638908386,-0.072682127,-0.039306518,0.990001440
96.269681,-2.001464844,2.635181427,-1.638908386,-0.072682127,-0.039306518,0.990001440
96.269932,-2.001464844,2.635181427,-1.638908386,-0.072682127,-0.039306518,0.990001440
96.270184,-2.001464844,2.635181427,-1.638908386,-0.072682127,-0.039306518,0.990001440
96.270435,-2.001464844,2.635181427,-1.638908386,-0.072682127,-0.039306518,0.990001440
96.270687,-2.001464844,2.635181427,-1.638908386,-0.072682127,-0.039306518,0.990001440
96.270938,-2.001464844,2.635181427,-1.638908386,-0.072682127,-0.039306518,0.990001440
96.271191,-2.001464844,2.635181427,-1.638908386,-0.072682127,-0.039306518,0.990001440
96.272639,-2.001464844,2.635181427,-1.638908386,-0.072682127,-0.039306518,0.990001440
96.286770,-2.108276367,-1.835643768,-3.851432800,-0.049610838,-0.033080932,0.963390112
96.287125,-2.108276367,-1.835643768,-3.851432800,-0.049610838,-0.033080932,0.963390112
96.287385,-2.108276367,-1.835643768,-3.851432800,-0.049610838,-0.033080932,0.963390112
96.287638,-2.108276367,-1.835643768,-3.851432800,-0.049610838,-0.033080932,0.963390112
96.287888,-2.108276367,-1.835643768,-3.851432800,-0.049610838,-0.033080932,0.963390112
96.288138,-2.108276367,-1.835643768,-3.851432800,-0.049610838,-0.033080932,0.963390112
96.288389,-2.108276367,-1.835643768,-3.851432800,-0.049610838,-0.033080932,0.963390112
96.288639,-2.108276367,-1.835643768,-3.851432800,-0.049610838,-0.033080932,0.963390112
96.288890,-2.108276367,-1.835643768,-3.851432800,-0.049610838,-0.033080932,0.963390112
96.337670,-6.762207031,-3.804027557,-3.553886414,-0.062672362,-0.100585818,0.921519995
96.376121,-6.395996094,3.550708771,-2.951164246,-0.046070799,-0.059326049,0.891612768
96.390412,-4.213989258,1.528919220,-4.713554382,-0.042774901,-0.035766479,0.892955542
96.390722,-4.213989258,1.528919220,-4.713554382,-0.042774901,-0.035766479,0.892955542
96.390974,-4.213989258,1.528919220,-4.713554382,-0.042774901,-0.035766479,0.892955542
96.391226,-4.213989258,1.528919220,-4.713554382,-0.042774901,-0.035766479,0.892955542
96.391477,-4.213989258,1.528919220,-4.713554382,-0.042774901,-0.035766479,0.892955542
96.391729,-4.213989258,1.528919220,-4.713554382,-0.042774901,-0.035766479,0.892955542
96.391979,-4.213989258,1.528919220,-4.713554382,-0.042774901,-0.035766479,0.892955542
96.392232,-4.213989258,1.528919220,-4.713554382,-0.042774901,-0.035766479,0.892955542
96.392485,-4.213989258,1.528919220,-4.713554382,-0.042774901,-0.035766479,0.892955542
96.392737,-4.213989258,1.528919220,-4.713554382,-0.042774901,-0.035766479,0.892955542
96.394189,-4.213989258,1.528919220,-4.713554382,-0.042774901,-0.035766479,0.892955542
96.408356,-1.963317871,0.346363068,-6.964225769,-0.037647948,-0.093627810,0.913585424
96.408702,-1.963317871,0.346363068,-6.964225769,-0.037647948,-0.093627810,0.913585424
96.408962,-1.963317871,0.346363068,-6.964225769,-0.037647948,-0.093627810,0.913585424
96.409213,-1.963317871,0.346363068,-6.964225769,-0.037647948,-0.093627810,0.913585424
96.409465,-1.963317871,0.346363068,-6.964225769,-0.037647948,-0.093627810,0.913585424
96.409715,-1.963317871,0.346363068,-6.964225769,-0.037647948,-0.093627810,0.913585424
96.409965,-1.963317871,0.346363068,-6.964225769,-0.037647948,-0.093627810,0.913585424
96.410216,-1.963317871,0.346363068,-6.964225769,-0.037647948,-0.093627810,0.913585424
96.410466,-1.963317871,0.346363068,-6.964225769,-0.037647948,-0.093627810,0.913585424
96.410717,-1.963317871,0.346363068,-6.964225769,-0.037647948,-0.093627810,0.913585424
96.410967,-1.963317871,0.346363068,-6.964225769,-0.037647948,-0.093627810,0.913585424
96.412416,-1.963317871,0.346363068,-6.964225769,-0.037647948,-0.093627810,0.913585424
96.450805,-0.437438965,5.580127716,-2.951164246,0.001902832,-0.076049685,0.963268042
96.489225,-0.872314453,-4.483043671,-4.354972839,0.005076660,-0.135131717,1.035289526
96.503392,-1.742065430,-6.169139862,-3.889579773,0.005320800,-0.132812381,1.044933081
96.503738,-3.473937988,-6.665050507,-2.638359070,0.002146972,-0.125244021,1.049205542
96.503998,-3.473937988,-6.665050507,-2.638359070,0.002146972,-0.125244021,1.049205542
96.504250,-3.473937988,-6.665050507,-2.638359070,0.002146972,-0.125244021,1.049205542
96.504501,-3.473937988,-6.665050507,-2.638359070,0.002146972,-0.125244021,1.049205542
96.504751,-3.473937988,-6.665050507,-2.638359070,0.002146972,-0.125244021,1.049205542
96.505003,-3.473937988,-6.665050507,-2.638359070,0.002146972,-0.125244021,1.049205542
96.505253,-3.473937988,-6.665050507,-2.638359070,0.002146972,-0.125244021,1.049205542
96.505506,-3.473937988,-6.665050507,-2.638359070,0.002146972,-0.125244021,1.049205542
96.505758,-3.473937988,-6.665050507,-2.638359070,0.002146972,-0.125244021,1.049205542
96.506011,-3.473937988,-6.665050507,-2.638359070,0.002146972,-0.125244021,1.049205542
96.507461,-3.473937988,-6.665050507,-2.638359070,0.002146972,-0.125244021,1.049205542
96.521727,-4.381835938,-6.604015350,-1.020927429,0.002391113,-0.058227416,1.047008276
96.522106,-4.381835938,-6.604015350,-1.020927429,0.002391113,-0.058227416,1.047008276
96.522365,-4.381835938,-6.604015350,-1.020927429,0.002391113,-0.058227416,1.047008276
96.522616,-4.381835938,-6.604015350,-1.020927429,0.002391113,-0.058227416,1.047008276
96.522868,-4.381835938,-6.604015350,-1.020927429,0.002391113,-0.058227416,1.047008276
96.523121,-4.381835938,-6.604015350,-1.020927429,0.002391113,-0.058227416,1.047008276
96.523373,-4.381835938,-6.604015350,-1.020927429,0.002391113,-0.058227416,1.047008276
96.523624,-4.366577148,-7.000743866,0.451545715,0.001658691,-0.012573119,1.040782690
96.523874,-4.366577148,-7.000743866,0.451545715,0.001658691,-0.012573119,1.040782690
96.572669,0.249206543,-10.662853241,-0.830192566,-0.022633301,-0.009155151,1.043468237
96.611144,-0.925720215,3.207386017,2.313117981,-0.020558106,-0.007812377,1.027110815
96.625301,3.308593750,12.652576447,4.685859680,-0.016529785,0.023315553,1.009898901
96.625636,3.308593750,12.652576447,4.685859680,-0.016529785,0.023315553,1.009898901
96.625910,3.308593750,12.652576447,4.685859680,-0.016529785,0.023315553,1.009898901
96.626161,3.308593750,12.652576447,4.685859680,-0.016529785,0.023315553,1.009898901
96.626413,3.308593750,12.652576447,4.685859680,-0.016529785,0.023315553,1.009898901
96.626666,3.308593750,12.652576447,4.685859680,-0.016529785,0.023315553,1.009898901
96.626918,3.308593750,12.652576447,4.685859680,-0.016529785,0.023315553,1.009898901
96.627170,3.308593750,12.652576447,4.685859680,-0.016529785,0.023315553,1.009898901
96.627422,3.308593750,12.652576447,4.685859680,-0.016529785,0.023315553,1.009898901
96.627674,3.308593750,12.652576447,4.685859680,-0.016529785,0.023315553,1.009898901
96.629136,3.308593750,12.652576447,4.685859680,-0.016529785,0.023315553,1.009898901
96.643389,6.696044922,15.277088165,3.739814758,-0.009327637,0.051025514,1.019664526
96.643701,6.696044922,15.277088165,3.739814758,-0.009327637,0.051025514,1.019664526
96.643952,6.696044922,15.277088165,3.739814758,-0.009327637,0.051025514,1.019664526
96.644204,6.696044922,15.277088165,3.739814758,-0.009327637,0.051025514,1.019664526
96.644456,6.696044922,15.277088165,3.739814758,-0.009327637,0.051025514,1.019664526
96.644708,6.696044922,15.277088165,3.739814758,-0.009327637,0.051025514,1.019664526
96.644960,6.696044922,15.277088165,3.739814758,-0.009327637,0.051025514,1.019664526
96.645212,6.696044922,15.277088165,3.739814758,-0.009327637,0.051025514,1.019664526
96.645464,6.696044922,15.277088165,3.739814758,-0.009327637,0.051025514,1.019664526
96.645715,6.696044922,15.277088165,3.739814758,-0.009327637,0.051025514,1.019664526
96.645967,6.696044922,15.277088165,3.739814758,-0.009327637,0.051025514,1.019664526
96.647418,6.696044922,15.277088165,3.739814758,-0.009327637,0.051025514,1.019664526
96.696438,10.220825195,2.673328400,-0.937004089,-0.001026856,0.004760865,1.043590307
96.734925,7.245361328,2.688587189,3.068428040,0.017283691,-0.062988162,1.045543432
96.749103,5.528747559,1.300037384,4.060249329,0.015330566,-0.039306518,1.038951635
96.749431,5.528747559,1.300037384,4.060249329,0.015330566,-0.039306518,1.038951635
96.749708,5.528747559,1.300037384,4.060249329,0.015330566,-0.039306518,1.038951635
96.749959,5.528747559,1.300037384,4.060249329,0.015330566,-0.039306518,1.038951635
96.750211,5.528747559,1.300037384,4.060249329,0.015330566,-0.039306518,1.038951635
96.750463,5.528747559,1.300037384,4.060249329,0.015330566,-0.039306518,1.038951635
96.750715,5.528747559,1.300037384,4.060249329,0.015330566,-0.039306518,1.038951635
96.750966,5.528747559,1.300037384,4.060249329,0.015330566,-0.039306518,1.038951635
96.751218,5.528747559,1.300037384,4.060249329,0.015330566,-0.039306518,1.038951635
96.751470,5.528747559,1.300037384,4.060249329,0.015330566,-0.039306518,1.038951635
96.752926,4.453002930,-1.652538300,4.197578430,0.005931152,0.024414185,1.026012182
96.767176,4.895507812,-5.978404999,2.442817688,-0.007008301,0.070922971,1.011485815
96.767553,4.895507812,-5.978404999,2.442817688,-0.007008301,0.070922971,1.011485815
96.767811,4.895507812,-5.978404999,2.442817688,-0.007008301,0.070922971,1.011485815
96.768061,4.895507812,-5.978404999,2.442817688,-0.007008301,0.070922971,1.011485815
96.768312,4.895507812,-5.978404999,2.442817688,-0.007008301,0.070922971,1.011485815
96.768563,4.895507812,-5.978404999,2.442817688,-0.007008301,0.070922971,1.011485815
96.768814,4.895507812,-5.978404999,2.442817688,-0.007008301,0.070922971,1.011485815
96.769066,4.895507812,-5.978404999,2.442817688,-0.007008301,0.070922971,1.011485815
96.769316,4.895507812,-5.978404999,2.442817688,-0.007008301,0.070922971,1.011485815
96.769566,4.895507812,-5.978404999,2.442817688,-0.007008301,0.070922971,1.011485815
96.769818,4.895507812,-5.978404999,2.442817688,-0.007008301,0.070922971,1.011485815
96.818681,4.231750488,-12.265026093,-3.668327332,-0.059498534,0.031616334,0.985851049
96.857138,0.790893555,10.424793243,-0.921745300,-0.039967284,0.001220826,0.961803198
96.871302,0.363647461,12.667835236,-1.356620789,-0.021290528,-0.014770385,0.960338354
96.871637,-0.368774414,12.507617950,-1.471061707,0.002879394,-0.032104369,0.959972143
96.871919,-0.368774414,12.507617950,-1.471061707,0.002879394,-0.032104369,0.959972143
96.872172,-0.368774414,12.507617950,-1.471061707,0.002879394,-0.032104369,0.959972143
96.872423,-0.368774414,12.507617950,-1.471061707,0.002879394,-0.032104369,0.959972143
96.872673,-0.368774414,12.507617950,-1.471061707,0.002879394,-0.032104369,0.959972143
96.872926,-0.368774414,12.507617950,-1.471061707,0.002879394,-0.032104369,0.959972143
96.873178,-0.368774414,12.507617950,-1.471061707,0.002879394,-0.032104369,0.959972143
96.873430,-0.368774414,12.507617950,-1.471061707,0.002879394,-0.032104369,0.959972143
96.873683,-0.368774414,12.507617950,-1.471061707,0.002879394,-0.032104369,0.959972143
96.875137,-0.368774414,12.507617950,-1.471061707,0.002879394,-0.032104369,0.959972143
96.889258,-0.971496582,10.371387482,-1.303215027,0.020457519,-0.034301635,0.961070776
96.889606,-0.971496582,10.371387482,-1.303215027,0.020457519,-0.034301635,0.961070776
96.889916,-0.971496582,10.371387482,-1.303215027,0.020457519,-0.034301635,0.961070776
96.890166,-0.971496582,10.371387482,-1.303215027,0.020457519,-0.034301635,0.961070776
96.890418,-0.971496582,10.371387482,-1.303215027,0.020457519,-0.034301635,0.961070776
96.890670,-0.971496582,10.371387482,-1.303215027,0.020457519,-0.034301635,0.961070776
96.890922,-0.971496582,10.371387482,-1.303215027,0.020457519,-0.034301635,0.961070776
96.891174,-0.971496582,10.371387482,-1.303215027,0.020457519,-0.034301635,0.961070776
96.891426,-1.703918457,7.067859650,-1.707572937,0.031321779,-0.062744021,0.961925268
96.891676,-1.703918457,7.067859650,-1.707572937,0.031321779,-0.062744021,0.961925268
96.891926,-1.703918457,7.067859650,-1.707572937,0.031321779,-0.062744021,0.961925268
96.893375,-1.703918457,7.067859650,-1.707572937,0.031321779,-0.062744021,0.961925268
96.931751,-5.182922363,-2.713024139,-0.853080750,0.018504394,-0.068481326,0.940929174
96.969991,-6.434143066,-4.071056366,-1.341362000,0.003611816,-0.080200076,0.932262182
96.984295,-5.350769043,-4.414379120,-0.853080750,0.004222168,-0.019286986,0.916393042
96.984612,-5.350769043,-4.414379120,-0.853080750,0.004222168,-0.019286986,0.916393042
96.984863,-5.350769043,-4.414379120,-0.853080750,0.004222168,-0.019286986,0.916393042
96.985116,-5.350769043,-4.414379120,-0.853080750,0.004222168,-0.019286986,0.916393042
96.985367,-5.350769043,-4.414379120,-0.853080750,0.004222168,-0.019286986,0.916393042
96.985619,-5.350769043,-4.414379120,-0.853080750,0.004222168,-0.019286986,0.916393042
96.985870,-5.350769043,-4.414379120,-0.853080750,0.004222168,-0.019286986,0.916393042
96.986122,-5.350769043,-4.414379120,-0.853080750,0.004222168,-0.019286986,0.916393042
96.986373,-5.350769043,-4.414379120,-0.853080750,0.004222168,-0.019286986,0.916393042
96.986624,-5.350769043,-4.414379120,-0.853080750,0.004222168,-0.019286986,0.916393042
96.986876,-5.350769043,-4.414379120,-0.853080750,0.004222168,-0.019286986,0.916393042
96.988316,-5.350769043,-4.414379120,-0.853080750,0.004222168,-0.019286986,0.916393042
97.002448,-3.237426758,-5.200206757,-2.119560242,-0.003102051,-0.064453006,0.928355932
97.002816,-3.237426758,-5.200206757,-2.119560242,-0.003102051,-0.064453006,0.928355932
97.003067,-3.237426758,-5.200206757,-2.119560242,-0.003102051,-0.064453006,0.928355932
97.003319,-3.237426758,-5.200206757,-2.119560242,-0.003102051,-0.064453006,0.928355932
97.003570,-3.237426758,-5.200206757,-2.119560242,-0.003102051,-0.064453006,0.928355932
