time,gyro x,gyro y,gyro z,accel x,accel y,accel z
48.005364,9.426742554,3.745502472,-2.886730194,-0.093234867,0.002838321,1.008335471
48.031311,8.968978882,0.251239777,-2.810436249,-0.093479007,-0.025726132,1.003208518
48.045494,9.899765015,-3.021770477,-3.794628143,-0.089816898,-0.064544491,1.017124534
48.083816,8.320480347,-8.377605438,-4.931407928,-0.082858890,-0.025237851,1.026890159
48.122229,9.869247437,-9.941631317,-4.389720917,-0.098117679,-0.019744687,1.014072776
48.136347,10.136276245,-8.354717255,-4.397350311,-0.100681156,-0.065398984,1.037754416
48.151753,9.045272827,-7.790142059,-5.259471893,-0.100314945,-0.078826718,1.049473166
48.190089,8.190780640,-4.540019989,-7.319408417,-0.107761234,-0.021575741,1.060093284
48.228383,4.215866089,8.033222198,-4.534679413,-0.096530765,-0.038665585,1.108799338
48.242527,2.720504761,8.796161652,-4.374462128,-0.094821781,-0.026824765,1.115635276
48.257943,0.546127319,7.293170929,-4.580455780,-0.091525882,-0.014129452,1.109653831
48.296270,-2.238601685,0.548786163,-5.038219452,-0.091281742,-0.048187070,1.097935081
48.334586,-5.061477661,-11.162334442,-4.527050018,-0.090305179,-0.040984921,1.086948752
48.348910,-4.908889771,-14.832073212,-4.122692108,-0.100681156,-0.038787656,1.075596213
48.364154,-4.382461548,-20.004802704,-5.465465546,-0.115939945,-0.040862851,1.064121604
48.402558,-6.343215942,-21.217876434,-7.441478729,-0.131442875,-0.060760312,1.052036643
48.440878,-6.968826294,-13.924175262,-8.532482147,-0.139499515,-0.031829648,1.012119651
48.455149,-8.365005493,-3.082805634,-8.898693085,-0.124729007,-0.041595273,0.983799338
48.470537,-7.869094849,2.150959015,-8.196788788,-0.107028812,-0.036102109,0.978428245
48.508868,-4.702896118,11.176532745,-5.557018280,-0.079562992,-0.020477109,0.991489768
48.509568,-4.702896118,11.176532745,-5.557018280,-0.079562992,-0.020477109,0.991489768
48.547781,-4.657119751,9.993976593,-4.092174530,-0.066501468,-0.062347226,1.003452659
48.561927,-4.100173950,5.805438995,-3.085094452,-0.070041507,-0.031097226,1.011509299
48.577347,-4.039138794,2.768939972,-3.405529022,-0.064304203,-0.043182187,1.024692893
48.578029,-4.039138794,2.768939972,-3.405529022,-0.064304203,-0.043182187,1.024692893
48.578639,-4.039138794,2.768939972,-3.405529022,-0.064304203,-0.043182187,1.024692893
48.579272,-4.039138794,2.768939972,-3.405529022,-0.064304203,-0.043182187,1.024692893
48.579866,-4.039138794,2.768939972,-3.405529022,-0.064304203,-0.043182187,1.024692893
48.580481,-4.039138794,2.768939972,-3.405529022,-0.064304203,-0.043182187,1.024692893
48.581088,-4.420608521,-0.626140594,-3.107982635,-0.066135257,-0.018646054,1.033604026
48.581712,-4.420608521,-0.626140594,-3.107982635,-0.066135257,-0.018646054,1.033604026
48.582317,-4.420608521,-0.626140594,-3.107982635,-0.066135257,-0.018646054,1.033604026
48.583062,-4.420608521,-0.626140594,-3.107982635,-0.066135257,-0.018646054,1.033604026
48.583665,-4.420608521,-0.626140594,-3.107982635,-0.066135257,-0.018646054,1.033604026
48.584281,-4.420608521,-0.626140594,-3.107982635,-0.066135257,-0.018646054,1.033604026
48.584898,-4.420608521,-0.626140594,-3.107982635,-0.066135257,-0.018646054,1.033604026
48.585505,-4.420608521,-0.626140594,-3.107982635,-0.066135257,-0.018646054,1.033604026
48.586120,-4.420608521,-0.626140594,-3.107982635,-0.066135257,-0.018646054,1.033604026
48.624379,-3.688186646,-10.872417450,-1.849132538,-0.078220218,0.005523868,1.041660666
48.662692,-7.212966919,-9.613567352,1.256031036,-0.088229984,0.005890079,1.055820823
48.676949,-7.769912720,-8.919292450,1.553577423,-0.091525882,0.020294376,1.050205588
48.692358,-7.357925415,-6.073528290,2.034229279,-0.100559086,0.037628360,1.048618674
48.741182,-8.776992798,2.013629913,4.597705841,-0.089084476,0.008453555,1.076084495
48.779653,-12.568801880,0.228351593,2.987903595,-0.082492679,-0.006072812,1.075718284
48.793804,-12.919754028,0.007099152,2.385181427,-0.076022953,0.020172305,1.062900901
48.809222,-12.507766724,-0.343852997,3.666919708,-0.049167480,0.032257266,1.038486838
48.847597,-9.829849243,-6.561809540,4.590076447,-0.023532715,0.016388126,1.026768088
48.885941,-5.580276489,-16.953044891,5.932849884,-0.040988769,-0.017425351,0.988438010
48.900218,-4.199356079,-16.350322723,6.314319611,-0.048679199,-0.036224179,0.976963401
48.926100,-3.062576294,-13.390117645,7.641834259,-0.051486816,-0.021575741,0.978184104
48.964577,-2.047866821,-4.913860321,8.366626740,-0.071628422,-0.033538632,0.981724143
49.002922,-2.978652954,12.443012238,7.191699982,-0.094577640,0.025177188,0.942417502
49.017199,-2.040237427,17.188495636,7.275623322,-0.079562992,0.022369571,0.958286643
49.032636,-4.199356079,21.041339874,7.512134552,-0.050266113,-0.007903866,0.996250510
49.071030,-4.817337036,14.586872101,6.192249298,-0.058200683,-0.054900937,0.978306174
49.109393,-4.428237915,-7.767253876,0.721973419,-0.038059082,-0.048919491,1.027866721
49.123725,-4.153579712,-16.258769989,-0.109630585,-0.042819824,-0.035125546,1.029209495
49.138987,-4.092544556,-28.160625458,-3.397899628,-0.061008301,-0.047698788,1.030918479
49.177442,-6.388992310,-26.375347137,-5.259471893,-0.079685062,-0.013152890,1.006016135
49.215796,-10.287612915,-17.143779755,-4.458385468,-0.062351074,-0.029876523,0.992466331
49.230079,-10.379165649,-10.727458954,-4.275279999,-0.056979980,-0.061736874,0.974644065
49.245463,-10.196060181,-6.981426239,-3.855663300,-0.056735840,-0.076385312,0.967563987
49.246167,-10.196060181,-6.981426239,-3.855663300,-0.056735840,-0.076385312,0.967563987
49.246757,-10.257095337,-2.640300751,-3.794628143,-0.057468262,-0.094451718,0.958896995
49.247385,-10.257095337,-2.640300751,-3.794628143,-0.057468262,-0.094451718,0.958896995
49.247969,-10.257095337,-2.640300751,-3.794628143,-0.057468262,-0.094451718,0.958896995
49.248589,-10.257095337,-2.640300751,-3.794628143,-0.057468262,-0.094451718,0.958896995
49.249181,-10.257095337,-2.640300751,-3.794628143,-0.057468262,-0.094451718,0.958896995
49.249805,-10.257095337,-2.640300751,-3.794628143,-0.057468262,-0.094451718,0.958896995
49.287990,-8.998245239,14.571613312,-1.971202850,-0.029392090,-0.066619687,0.993076682
49.326360,-7.052749634,16.990131378,0.767749786,-0.038059082,-0.052703671,0.979893088
49.340511,-5.824417114,17.882770538,1.111072540,-0.046115723,-0.059051327,0.975376487
49.355921,-4.474014282,19.088214874,2.812427521,-0.050998535,-0.090301327,0.990635276
49.394305,-3.131240845,9.131855011,2.675098419,-0.053562012,-0.094207577,1.008579612
49.432625,-1.284927368,-11.772686005,-4.404979706,-0.094333500,-0.047454648,1.002842307
49.446928,-0.750869751,-15.152507782,-5.343395233,-0.099582523,-0.013397031,0.998691916
49.462327,-1.689285278,-16.052776337,-5.198436737,-0.096896976,-0.009856991,0.997959495
49.511187,-1.132339478,-11.230998993,-8.738475800,-0.099338382,0.020050235,0.968784690
49.549603,-3.260940552,9.581989288,-6.113964081,-0.053562012,-0.052459531,0.949131370
49.563872,-6.091445923,9.383625031,-1.055675507,-0.045871582,-0.054168515,0.918980002
49.579280,0.927597046,4.638141632,-12.545543671,-0.014743652,-0.098968320,0.925327659
49.617628,6.878524780,1.258319855,-10.355907440,0.009792481,-0.068206601,0.891392112
49.655989,5.764633179,9.055561066,-5.412059784,0.018581543,0.007599063,0.946812034
49.670264,3.689437866,11.985248566,-3.634410858,0.022976074,-0.027313046,0.958042502
49.685685,1.400619507,15.845722198,-1.437145233,0.020290527,-0.003387265,0.953159690
49.724064,-0.354141235,11.718219757,-0.842052460,0.017238770,-0.076141171,0.982578635
49.762418,-3.123611450,4.897541046,0.401538849,-0.023288574,-0.030731015,0.942173362
49.776717,-3.115982056,4.340595245,3.621143341,-0.020603027,-0.041106991,0.910801291
49.792113,0.027328491,3.936237335,4.246753693,-0.032321777,0.002594180,0.908359885
49.830435,1.133590698,-0.710063934,2.331775665,-0.045261230,0.015899844,1.006992698
49.868839,-0.544876099,5.515522003,3.781360626,-0.058200683,0.017852969,1.024204612
49.882994,-1.223892212,8.964008331,3.186267853,-0.063937992,-0.027435116,1.023960471
49.898366,-1.841873169,10.901874542,2.873462677,-0.068698734,-0.027679257,1.016514182
49.936721,-0.300735474,16.158527374,0.439685822,-0.073337406,0.037994571,0.972690940
49.975108,3.254562378,20.949787140,3.048938751,-0.035251465,0.043976016,0.991123557
49.989386,3.330856323,22.452777863,3.964466095,-0.025852051,0.038360782,0.986606956
50.015305,6.260543823,18.203205109,8.679431915,-0.017917480,0.041412540,0.971592307
50.053748,11.074691772,-1.770549774,5.543750763,-0.038913574,0.059601016,0.981968284
50.092092,13.241439819,-4.532390594,6.260913849,-0.080417484,0.006134219,0.988560081
50.106360,12.928634644,-3.960186005,4.422229767,-0.087253422,-0.000945859,0.996006370
50.121763,11.547714233,-1.854473114,3.460926056,-0.090427250,-0.005950741,1.011387229
50.160122,6.977706909,2.196735382,2.408069611,-0.093845218,0.010894962,0.984409690
50.198458,8.389144897,9.688800812,2.453845978,-0.076999515,-0.004607968,0.974888206
50.212725,5.306869507,9.772724152,3.087085724,-0.068942875,-0.043548398,1.005649924
50.227979,4.406600952,7.773822784,2.667469025,-0.071506351,-0.026946835,1.009922385
50.278603,-0.110000610,-4.814678192,-2.322154999,-0.085056156,-0.056731991,1.037632346
50.317064,-2.833694458,-0.099712372,-1.360851288,-0.089816898,-0.006194882,0.991001487
50.331205,-3.138870239,1.983112335,0.233692169,-0.095310062,-0.033050351,0.991245627
50.346647,-2.314895630,0.823444366,0.317615509,-0.102512211,-0.020477109,0.998447776
50.384988,-1.056045532,-13.908916473,-6.632762909,-0.107272953,-0.001922421,1.047397971
50.423372,-3.794998169,-4.311138153,-7.227855682,-0.120090336,0.106353946,1.021030784
50.437634,-3.756851196,1.258319855,-5.198436737,-0.118747562,0.108795352,1.012241721
50.453011,-1.620620728,7.605976105,-3.809886932,-0.115085453,0.058746524,1.023472190
50.491349,-4.138320923,-0.305706024,-11.530834198,-0.098361820,-0.032073788,1.101108909
50.529669,-5.366653442,4.966205597,-9.402233124,-0.089938968,0.106109805,1.004185081
50.543944,-3.177017212,6.370014191,-9.592967987,-0.080051273,0.141021907,0.993320823
50.559397,-1.605361938,7.743305206,-10.065990448,-0.050021973,0.132965267,1.004063010
50.597781,0.553756714,-4.471355438,-3.474193573,-0.041599121,0.175201595,1.002109885
50.636135,4.460006714,-24.849468231,-4.893260956,-0.045261230,0.058502384,0.973545432
50.650416,5.367904663,-31.296306610,-6.136852264,-0.064792484,0.004913516,0.962681174
50.665653,4.490524292,-29.778057098,-6.136852264,-0.069675297,-0.007171445,0.955112815
50.714604,0.645309448,-3.365093231,-1.353221893,-0.067233890,-0.034271054,0.920688987
50.753094,-0.705093384,7.422870636,-4.031139374,-0.057834473,-0.013030820,0.900303245
50.767234,-0.560134888,12.900775909,-3.611522675,-0.045627441,0.030426212,0.895176291
50.782530,0.103622437,15.456623077,-3.191905975,-0.037448730,0.040435977,0.901890159
50.820989,-1.162857056,20.369953156,1.446765900,-0.000827637,0.021026798,0.954136252
50.859389,-0.453323364,5.454486847,2.942127228,-0.009982910,-0.004363827,0.964756370
50.873529,0.294357300,0.739521027,2.820056915,-0.015598144,-0.021819882,0.968662620
50.888969,0.874191284,-5.905681610,3.033679962,-0.037448730,-0.019500546,0.977451682
50.927300,-1.178115845,-3.822856903,4.704517365,-0.074191898,0.049713321,1.016636252
50.965652,-0.720352173,-1.770549774,1.774829865,-0.094089359,0.099395938,1.039707541
50.979797,-1.170486450,-0.252300262,1.469654083,-0.092624515,0.082184024,1.045811057
50.995301,-3.550857544,3.409809113,0.096363068,-0.085300297,0.071930118,1.046299338
51.044163,-1.986831665,12.748188019,0.050586700,-0.062351074,0.161529720,0.986118674
51.082586,2.804428101,13.099140167,3.949207306,-0.018771973,0.087921329,1.002231956
51.096902,5.962997437,2.677387238,3.651660919,-0.021091308,0.058258243,1.004795432
51.112146,7.519393921,-3.731304169,1.660388947,-0.026218262,0.063995548,1.001987815
51.150552,10.265975952,0.457233429,2.072376251,-0.042209473,0.147979915,0.997837424
51.188904,5.016952515,17.119831085,10.052722931,-0.026828613,0.057769962,1.020176291
51.203182,4.879623413,12.023395538,8.175891876,-0.026096191,0.048858829,1.012974143
51.218450,6.786972046,-2.083354950,4.284900665,-0.031711426,0.053131290,0.998447776
51.256846,6.024032593,-9.102397919,8.084339142,-0.068454593,0.067291446,1.005649924
51.295253,2.499252319,-13.443523407,6.924671173,-0.104465336,0.022735782,1.008579612
51.309416,2.415328979,-16.548686981,5.055469513,-0.112644047,0.027740665,1.007236838
51.335446,-0.483840942,-17.319255829,3.331226349,-0.119724125,-0.011199765,1.016880393
51.373814,-8.372634888,5.622333527,1.179737091,-0.126804203,0.014068790,0.970615745
51.412123,-7.678359985,13.076251984,-0.628429413,-0.108859867,0.009552188,0.948887229
51.426270,-6.480545044,10.596698761,-2.200084686,-0.096774906,-0.013274960,0.971104026
51.441784,-6.617874146,8.452838898,-3.710704803,-0.092624515,-0.016814999,0.983188987
51.479949,-6.747573853,3.150409698,-6.815868378,-0.093723148,0.064727969,0.993809104
51.518345,-5.435317993,2.852863312,-8.105236053,-0.094089359,0.101349063,1.006138206
51.532643,-3.962844849,1.334613800,-7.533031464,-0.089572757,0.075592227,1.020542502
51.548046,-3.321975708,-0.755840302,-8.006053925,-0.092380375,0.067779727,1.037632346
51.586417,-6.419509888,-12.733989716,-13.064342499,-0.097263187,0.029327579,1.062900901
51.624724,-3.596633911,-6.256633759,-13.415294647,-0.097263187,0.140167415,0.957432151
51.639040,-1.643508911,-2.235942841,-11.912303925,-0.093234867,0.126251400,0.961094260
51.654303,-0.415176392,2.532428741,-10.996776581,-0.084201664,0.107452579,0.990024924
51.692718,1.064926147,-5.997234344,-11.988597870,-0.071994632,0.166412532,0.961948752
51.731033,7.656723022,-14.511638641,-11.836009979,-0.068210453,0.163604915,0.973667502
51.745313,7.321029663,-14.496379852,-12.141185760,-0.064182132,0.137726009,0.984165549
51.760588,4.688888550,-12.398296356,-11.568981171,-0.062229004,0.123565860,0.976719260
51.809515,5.001693726,-4.593425751,-11.996227264,-0.061130371,0.061065860,0.942173362
51.847987,-0.460952759,6.957477570,-12.789684296,-0.040866699,0.061676212,0.927646995
51.862137,-1.010269165,14.197772980,-10.500865936,-0.037326660,0.119415469,0.896519065
51.877373,-0.529617310,17.226642609,-10.302501678,-0.035129394,0.124420352,0.889805198
51.915852,0.919967651,16.471332550,-10.165172577,-0.009128418,0.063507266,0.937412620
51.954255,-0.964492798,8.490985870,-7.166820526,-0.002780762,0.086700626,0.907505393
51.968398,0.622421265,5.446857452,-6.403881073,-0.005710449,0.077179141,0.903721213
51.983829,3.201156616,-1.762920380,-7.388072968,-0.012302246,0.025055118,0.922153831
51.984657,3.201156616,-1.762920380,-7.388072968,-0.012302246,0.025055118,0.922153831
51.985255,3.201156616,-1.762920380,-7.388072968,-0.012302246,0.025055118,0.922153831
52.023308,0.759750366,-9.003215790,-6.655651093,-0.035129394,0.064483829,0.952305198
52.061669,4.101425171,-6.958538055,-6.380992889,-0.068698734,0.150055110,0.939976096
52.075812,5.352645874,-6.844097137,-7.266002655,-0.074680179,0.160553157,0.952549338
52.091311,5.985885620,-8.019023895,-7.731395721,-0.070407718,0.087921329,1.007725120
52.129670,5.390792847,-14.465862274,-13.377147675,-0.095065922,0.207306087,1.035679221
52.130366,5.390792847,-14.465862274,-13.377147675,-0.095065922,0.207306087,1.035679221
52.130975,5.390792847,-14.465862274,-13.377147675,-0.095065922,0.207306087,1.035679221
52.131625,5.390792847,-14.465862274,-13.377147675,-0.095065922,0.207306087,1.035679221
52.132248,5.390792847,-14.465862274,-13.377147675,-0.095065922,0.207306087,1.035679221
52.133004,5.390792847,-14.465862274,-13.377147675,-0.095065922,0.207306087,1.035679221
52.133631,5.390792847,-14.465862274,-13.377147675,-0.095065922,0.207306087,1.035679221
52.134270,5.390792847,-14.465862274,-13.377147675,-0.095065922,0.207306087,1.035679221
52.134900,5.390792847,-14.465862274,-13.377147675,-0.095065922,0.207306087,1.035679221
52.172968,3.971725464,-14.030986786,-13.644176483,-0.093845218,0.195953548,1.068271995
52.187341,2.850204468,-16.678386688,-14.994579315,-0.100192875,0.153595150,1.064121604
52.202593,7.137924194,-23.506694794,-20.052867889,-0.131809086,0.239288509,1.037510276
52.241025,6.733566284,-17.899089813,-26.171642303,-0.189670414,0.177276790,1.000156760
52.279346,5.634933472,8.666461945,-32.641368866,-0.201145023,0.131134212,1.019443870
52.293611,4.017501831,11.992877960,-34.708934784,-0.177707523,0.142730892,1.029209495
52.308857,1.591354370,13.068622589,-36.860424042,-0.139621586,0.148712337,1.036533713
52.309599,1.591354370,13.068622589,-36.860424042,-0.139621586,0.148712337,1.036533713
52.358415,1.347213745,-0.641399384,-42.788463593,-0.117282718,0.104034610,1.035313010
52.396873,-0.560134888,-7.851177216,-44.970470428,-0.113254398,0.190826595,1.012363791
52.411017,0.843673706,-11.848979950,-47.755199432,-0.100803226,0.122223087,1.048496604
52.426444,-6.060928345,-20.393901825,-48.380809784,-0.109592289,0.140655696,1.064487815
52.464775,-9.318679810,-29.251628876,-54.423290253,-0.139133304,0.139923275,1.036533713
52.503121,-12.500137329,-29.961162567,-59.855419159,-0.124362797,0.152984798,0.989780784
52.517273,-12.584060669,-23.911052704,-62.136608124,-0.136447757,0.173126400,0.957676291
52.532769,-13.026565552,-17.715984344,-62.785106659,-0.132053226,0.154693782,0.943516135
52.571108,-11.317581177,7.544940948,-63.654857635,-0.079807132,0.122467227,0.953159690
52.619907,-5.854934692,20.057147980,-65.394363403,-0.057224121,0.112213321,0.974766135
52.634296,-3.833145142,21.407550812,-67.126235962,-0.056369629,0.127838314,0.990146995
52.649587,-4.817337036,22.490924835,-66.081008911,-0.034641113,0.044708438,1.046543479
52.688054,-3.184646606,-7.172161102,-65.943679810,-0.023044433,0.052643009,1.070835471
52.726412,-2.665847778,-43.671184540,-73.359451294,-0.044406738,0.185577571,1.081577659
52.740706,-4.275650024,-49.446636200,-74.099502563,-0.033786621,0.163238704,1.084873557
52.755966,-4.573196411,-56.099468231,-72.092971802,-0.041232910,0.225860775,1.051792502
52.794392,-5.809158325,-41.695171356,-69.003067017,-0.070041507,0.110748477,0.996372581
52.832767,-9.623855591,-17.929607391,-63.975292206,-0.053562012,0.083160587,0.964634299
52.846913,-10.249465942,-9.560161591,-62.022167206,-0.036228027,0.050079532,0.936680198
52.862169,-9.372085571,-7.034832001,-61.366039276,-0.035617676,0.042144962,0.919712424
52.900671,-1.239151001,0.007099152,-57.581859589,-0.022922363,0.111602969,0.908848166
52.939050,2.873092651,-18.326335907,-57.932811737,-0.033054199,0.086090274,0.959873557
52.953184,1.858383179,-28.389507294,-61.854320526,-0.053684082,0.001861759,0.990024924
52.968573,0.698715210,-29.045635223,-62.716442108,-0.073215336,0.029205509,0.988071799
52.969243,0.698715210,-29.045635223,-62.716442108,-0.073215336,0.029205509,0.988071799
52.969879,0.698715210,-29.045635223,-62.716442108,-0.073215336,0.029205509,0.988071799
52.970523,0.698715210,-29.045635223,-62.716442108,-0.073215336,0.029205509,0.988071799
52.971139,0.698715210,-29.045635223,-62.716442108,-0.073215336,0.029205509,0.988071799
52.971890,0.698715210,-29.045635223,-62.716442108,-0.073215336,0.029205509,0.988071799
52.972482,-0.048965454,-26.176982880,-62.670665741,-0.082492679,0.033477969,0.991489768
52.973106,-0.048965454,-26.176982880,-62.670665741,-0.082492679,0.033477969,0.991489768
52.973727,-0.048965454,-26.176982880,-62.670665741,-0.082492679,0.033477969,0.991489768
52.974362,-0.048965454,-26.176982880,-62.670665741,-0.082492679,0.033477969,0.991489768
52.974988,-0.048965454,-26.176982880,-62.670665741,-0.082492679,0.033477969,0.991489768
52.975604,-0.048965454,-26.176982880,-62.670665741,-0.082492679,0.033477969,0.991489768
52.976239,-0.048965454,-26.176982880,-62.670665741,-0.082492679,0.033477969,0.991489768
52.976970,-0.048965454,-26.176982880,-62.670665741,-0.082492679,0.033477969,0.991489768
52.977575,-0.048965454,-26.176982880,-62.670665741,-0.082492679,0.033477969,0.991489768
52.978205,-0.048965454,-26.176982880,-62.670665741,-0.082492679,0.033477969,0.991489768
52.978833,-0.048965454,-26.176982880,-62.670665741,-0.082492679,0.033477969,0.991489768
52.979453,-0.048965454,-26.176982880,-62.670665741,-0.082492679,0.033477969,0.991489768
52.980084,-0.048965454,-26.176982880,-62.670665741,-0.082492679,0.033477969,0.991489768
52.980701,-0.048965454,-26.176982880,-62.670665741,-0.082492679,0.033477969,0.991489768
53.018955,-8.715957642,-14.542156219,-64.791641235,-0.060520019,-0.002288632,1.025303245
53.057277,-17.558425903,-3.410869598,-68.972549438,-0.058933105,0.048736759,0.962437034
53.071583,-16.436904907,3.486103058,-68.675003052,-0.049777832,0.088897891,0.948765159
53.097473,-18.863052368,15.601581573,-62.121349335,0.049709473,0.026519962,0.958164573
53.135983,-13.652175903,7.895893097,-59.161144257,0.069118649,0.049591251,0.938999534
53.174376,-9.196609497,3.920978546,-51.386791229,0.074855953,0.009918399,0.960605979
53.188531,-8.593887329,0.602191925,-52.042919159,0.070949703,-0.003021054,0.962192893
53.203778,-5.565017700,-3.906780243,-50.814586639,0.039699707,-0.009734921,0.955845237
53.242274,-3.802627563,11.046833038,-46.427684784,0.014187012,0.011139102,0.970249534
53.280662,-3.772109985,2.799457550,-44.131237030,0.072170407,0.028961368,1.016025901
53.294804,-2.673477173,-3.906780243,-45.191722870,0.067165524,0.033600040,1.013218284
53.310192,-1.109451294,-12.230449677,-44.329601288,0.031154785,0.062042423,0.988438010
53.310878,-1.109451294,-12.230449677,-44.329601288,0.031154785,0.062042423,0.988438010
53.311494,-1.109451294,-12.230449677,-44.329601288,0.031154785,0.062042423,0.988438010
53.312117,-1.109451294,-12.230449677,-44.329601288,0.031154785,0.062042423,0.988438010
53.350388,-2.620071411,-4.890972137,-39.172130585,0.017238770,0.022125430,1.001133323
53.388755,-3.344863892,-8.705669403,-37.768321991,0.050808106,-0.006561093,0.988438010
53.414751,0.904708862,-10.193401337,-34.861522675,0.021022949,0.075592227,0.951450706
53.429170,1.156478882,-5.737834930,-32.694774628,0.015407715,0.079376407,0.946445823
53.467422,3.735214233,6.125873566,-26.011425018,0.055568848,-0.005584531,0.965000510
53.505815,3.552108765,13.534015656,-22.845226288,0.012966309,-0.028655820,0.962437034
53.520091,3.452926636,16.486591339,-21.052318573,0.015407715,-0.051849179,0.982456565
53.535512,3.117233276,14.708942413,-22.204357147,0.029201660,-0.084930234,1.010044456
53.573910,-0.644058228,-6.271892548,-23.982006073,0.008815918,-0.027557187,1.018833518
53.612215,-4.451126099,-7.164531708,-23.257213593,-0.014987793,-0.031585507,1.023594260
53.626521,-6.678909302,-5.318218231,-22.540050507,-0.012180176,-0.033904843,1.022983909
53.641928,-8.204788208,-5.150371552,-22.723155975,-0.002536621,0.010162540,1.011265159
53.642646,-8.204788208,-5.150371552,-22.723155975,-0.002536621,0.010162540,1.011265159
53.643244,-8.204788208,-5.150371552,-22.723155975,-0.002536621,0.010162540,1.011265159
53.643858,-8.204788208,-5.150371552,-22.723155975,-0.002536621,0.010162540,1.011265159
53.682086,-6.831497192,-2.090984344,-22.158580780,-0.030856933,0.034088321,0.979771018
53.720460,-11.348098755,17.463153839,-17.588573456,-0.017307129,0.023834415,1.037510276
53.734617,-11.531204224,18.195575714,-17.634349823,-0.010104980,0.062042423,1.044712424
53.750016,-12.561172485,13.556903839,-17.054515839,0.002468262,0.051178165,1.044102073
53.788424,-9.326309204,3.142780304,-16.566234589,-0.011203613,-0.009490781,1.057529807
53.826803,-11.866897583,-3.342205048,-18.267589569,-0.040256348,0.044464298,1.068149924
53.841083,-11.996597290,-4.478984833,-18.252330780,-0.050876465,0.087066837,1.058872581
53.856354,-11.386245728,-4.013591766,-17.703014374,-0.056003418,0.123932071,1.057896018
53.894776,-16.185134888,0.899738312,-16.070323944,-0.034519043,0.013946719,1.078037620
53.933180,-17.245620728,4.142230988,-9.638744354,-0.048312988,-0.055633359,0.971714377
53.947320,-10.287612915,0.823444366,-13.354259491,-0.055026855,-0.133270085,0.981480002
53.962570,-12.721389771,-0.343852997,-14.170604706,-0.055393066,-0.135833561,0.980625510
54.001058,-12.294143677,2.128070831,-9.341197968,-0.037570801,0.080963321,0.958774924
54.039449,-12.423843384,2.486652374,-9.356456757,-0.029758301,-0.018157773,0.944370627
54.053602,-13.118118286,4.966205597,-7.075267792,-0.022800293,-0.056976132,0.918980002
54.069077,-9.219497681,6.072467804,-4.687267303,-0.026462402,-0.085906796,0.889561057
54.107251,-7.487625122,-5.920940399,-8.242565155,-0.051975098,-0.108367734,0.916538596
54.107985,-7.487625122,-5.920940399,-8.242565155,-0.051975098,-0.108367734,0.916538596
54.108628,-7.487625122,-5.920940399,-8.242565155,-0.051975098,-0.108367734,0.916538596
54.109287,-7.487625122,-5.920940399,-8.242565155,-0.051975098,-0.108367734,0.916538596
54.109884,-7.487625122,-5.920940399,-8.242565155,-0.051975098,-0.108367734,0.916538596
54.158681,-1.483291626,-15.976482391,-10.523754120,-0.082614750,-0.081023984,0.920688987
54.184757,-0.697463989,-18.089824677,-15.971141815,-0.079929203,-0.077117734,0.917759299
54.198945,0.500350952,-11.627727509,-15.330272675,-0.077854007,-0.073455624,0.927891135
54.237279,-2.650588989,16.807025909,-9.104686737,-0.060153808,-0.111785702,0.979404807
54.275636,-3.550857544,13.740009308,-15.810924530,-0.045993652,-0.067596249,0.964268088
54.289927,1.454025269,16.654438019,-14.071422577,-0.048923340,0.014679141,0.978184104
54.305179,-1.841873169,25.062030792,-10.035472870,-0.020480957,-0.103484921,1.017734885
54.305946,-1.841873169,25.062030792,-10.035472870,-0.020480957,-0.103484921,1.017734885
54.306601,-1.841873169,25.062030792,-10.035472870,-0.020480957,-0.103484921,1.017734885
54.307257,-1.841873169,25.062030792,-10.035472870,-0.020480957,-0.103484921,1.017734885
54.356080,-1.323074341,19.767230988,-11.065441132,-0.001682129,0.013824649,1.026523948
54.394590,-1.605361938,24.199909210,-10.683971405,0.105007321,0.009063907,1.077671409
54.408744,-5.610794067,28.960651398,-3.985363007,0.130031735,-0.052459531,1.045688987
54.424223,-0.651687622,30.372089386,3.659290314,0.136745602,-0.103973202,1.061680198
54.462621,2.186447144,6.759113312,7.046741486,0.081203610,-0.091277890,1.023350120
54.500902,9.068161011,-12.070232391,8.557361603,0.026149902,0.032867618,1.041050315
54.515209,6.580978394,-8.186870575,17.674488068,0.004665527,0.065094180,1.069858909
54.530612,4.963546753,-11.925273895,19.551319122,-0.011691894,0.023468204,1.075962424
54.569016,9.060531616,-51.010662079,4.811328888,-0.087253422,-0.058440976,1.094150901
54.607306,-4.977554321,-30.754619598,10.945362091,-0.077609867,-0.098602109,1.048130393
54.621647,-6.106704712,-20.462566376,11.548084259,-0.099460453,-0.046722226,0.998447776
54.636902,-3.611892700,-1.228862762,7.931751251,-0.103732914,-0.066863827,0.958164573
54.637653,-3.611892700,-1.228862762,7.931751251,-0.103732914,-0.066863827,0.958164573
54.638281,-3.611892700,-1.228862762,7.931751251,-0.103732914,-0.066863827,0.958164573
54.638930,-3.611892700,-1.228862762,7.931751251,-0.103732914,-0.066863827,0.958164573
54.677240,-6.648391724,22.574848175,5.765003204,-0.060764160,-0.113860898,0.999424338
54.715604,-6.556838989,27.388996124,2.377552032,-0.045139160,-0.082977109,0.989048362
54.729889,-6.778091431,25.733417511,1.835865021,-0.035373535,-0.102142148,1.001377463
54.745137,-9.280532837,21.056598663,-0.498729706,-0.017551269,-0.113128476,1.014805198
54.783573,-8.677810669,8.162921906,-0.262218475,-0.015354004,-0.082488827,0.987339377
54.821967,-7.739395142,-2.808147430,2.316516876,-0.012424316,-0.033172421,1.020176291
54.836119,-6.549209595,-6.378704071,3.171009064,-0.022922363,-0.030120663,1.025303245
54.851355,-4.283279419,-16.914897919,0.386280060,-0.054904785,-0.073943906,1.053989768
54.900210,-8.555740356,-14.679485321,-1.460033417,-0.044772949,-0.092742734,1.077061057
54.938682,-12.347549438,-8.095317841,-5.305248260,-0.014499512,-0.243255436,1.112827659
54.952834,-10.730117798,-2.403789520,-6.571727753,-0.032565918,0.001251407,1.041416526
54.968308,-11.767715454,3.905719757,-5.167919159,-0.002536621,-0.092132382,1.039097190
55.006659,-5.420059204,30.700153351,0.073474884,0.008571777,-0.053558163,0.945103049
55.045000,-15.963882446,50.712055206,1.065296173,0.111843258,-0.095306210,1.004673362
55.059321,-18.229812622,49.689716339,7.123035431,0.136989743,-0.040618710,0.923618674
55.074752,-13.751358032,45.401996613,8.656543732,0.119899899,0.027252384,0.891025901
55.113154,-1.559585571,9.383625031,10.258716583,0.066799313,-0.064178281,0.910923362
55.151290,6.596237183,-32.341533661,16.507190704,-0.014865723,-0.084564023,0.833652854
55.165651,10.632186890,-38.689189911,14.409107208,-0.044772949,-0.108001523,0.866001487
55.180964,9.167343140,-49.088054657,14.355701447,-0.063571781,-0.196624577,0.934116721
55.219452,6.657272339,-53.597026825,4.994434357,-0.114963382,-0.083953671,0.827549338
55.257871,6.855636597,-28.107219696,2.011341095,-0.176853031,-0.113616757,0.909702659
55.283683,2.499252319,-9.140544891,1.996082306,-0.142429203,-0.146819890,0.905430198
55.298085,1.064926147,8.178180695,-0.834423065,-0.140720218,-0.116302304,0.880649924
55.336419,2.545028687,29.906696320,0.813526154,-0.092868656,-0.097381406,0.950596213
55.374821,-6.221145630,28.548664093,-7.578807831,-0.032687988,-0.167449772,0.928379416
55.389128,4.261642456,27.617877960,-2.856212616,-0.037570801,-0.055877499,0.944248557
55.404564,4.307418823,25.451129913,-3.680187225,-0.024753418,-0.165862858,0.993687034
55.442922,2.110153198,9.139484406,-1.482921600,-0.001560058,-0.095794491,0.993931174
55.481258,9.419113159,-13.229900360,0.241321564,-0.038547363,-0.001556210,1.061069846
55.495419,10.174423218,-19.875102997,-0.605541229,-0.047214355,0.010040469,1.068394065
55.510856,9.869247437,-33.440166473,-3.382640839,-0.037082519,-0.049529843,1.069614768
55.549205,17.071395874,-34.554058075,-5.763011932,-0.089816898,-0.060027890,1.076816916
55.587506,2.827316284,4.851764679,-9.531932831,-0.080051273,-0.042693906,1.041538596
55.601873,4.116683960,14.815753937,-9.852367401,-0.065524906,-0.006683163,1.017124534
55.617128,4.894882202,37.490314484,-6.480175018,-0.064304203,-0.011932187,1.053013206
55.666031,-6.327957153,59.180683136,-10.088878632,0.006374512,-0.028167538,1.032383323
55.704509,-0.125259399,47.446674347,-8.471446991,0.025051270,-0.050384335,1.029087424
55.718644,-4.481643677,39.100116730,-5.259471893,0.025051270,-0.043914609,1.024204612
55.733904,-5.259841919,34.179157257,-3.252941132,0.020046387,0.031891055,0.988315940
55.772373,8.305221558,2.837604523,-6.243663788,0.035427246,-0.082488827,0.975132346
55.810776,0.324874878,-5.600505829,-1.429515839,0.026760254,-0.082977109,0.985996604
55.824933,2.277999878,-13.214641571,-0.468212128,0.009060059,0.069854923,0.921909690
55.840175,10.632186890,-15.686565399,1.492542267,-0.024143066,0.183136165,0.943394065
55.878663,-1.208633423,-14.946514130,-3.657299042,-0.054050293,-0.010223202,1.011509299
55.917059,0.721603394,-1.541667938,-1.215892792,-0.055026855,-0.025115781,1.037388206
55.931202,0.027328491,2.959674835,-2.329784393,-0.053317871,-0.045135312,1.064365745
55.946587,-3.726333618,13.541645050,-2.963024139,-0.051486816,-0.053069882,1.108311057
55.984950,-9.997695923,14.151996613,0.737232208,-0.004367676,0.124664493,1.062046409
56.023347,-9.639114380,-7.393413544,-1.543956757,-0.041599121,-0.021331601,1.175815940
56.037491,-11.958450317,-10.826641083,-1.971202850,-0.053439941,0.064361759,1.145908713
56.052951,-10.737747192,-14.320903778,2.247852325,-0.034396973,0.089264102,1.079990745
56.091353,-1.262039185,-25.917583466,-3.855663300,-0.073459476,0.098053165,1.064487815
56.129691,-4.412979126,-9.293132782,-1.559215546,-0.049655762,-0.029144101,1.028110862
56.143985,-3.650039673,-1.427227020,2.873462677,-0.013645019,-0.013763241,0.990879416
56.159447,-1.239151001,-1.289897919,4.262012482,-0.020969238,0.091095157,0.974277854
56.197817,-1.330703735,-11.917644501,1.416248322,-0.050998535,0.023468204,1.027866721
56.236207,0.225692749,-13.741069794,4.559558868,-0.036594238,-0.050872616,0.959751487
56.250527,-0.377029419,-14.839702606,4.071277618,-0.049411621,-0.058440976,0.955967307
56.265935,-0.621170044,-13.275676727,1.919788361,-0.077243656,-0.078338437,0.952427268
56.314804,-1.323074341,-3.571086884,0.729602814,-0.070285648,-0.010833554,0.890659690
56.353273,-3.177017212,2.990192413,-3.657299042,-0.084812015,-0.096038632,0.985630393
56.367444,-5.442947388,7.041400909,-3.924327850,-0.073215336,-0.090545468,0.982090354
56.382690,-7.693618774,13.320392609,-0.910717010,-0.038669433,-0.135345280,0.961948752
56.421150,-4.893630981,8.765644073,-4.382091522,-0.049533691,-0.115447812,0.999180198
56.459547,-10.867446899,11.901325226,-0.666576385,-0.036594238,-0.146575749,1.011631370
56.473696,-11.630386353,11.565631866,-0.987010956,-0.006687012,-0.181854069,0.994053245
56.489098,-9.456008911,10.604328156,-0.437694550,-0.022678223,-0.099944882,0.995762229
56.527445,-17.085403442,12.221759796,-2.078014374,-0.064426273,-0.110320859,1.044224143
56.576288,-4.191726685,0.213092804,0.996631622,-0.047092285,-0.003631406,1.023228049
56.590480,-3.619522095,-10.849529266,-1.597362518,-0.037082519,-0.086150937,1.051792502
56.605932,-4.992813110,-13.924175262,-1.101451874,-0.039279785,-0.100555234,1.044590354
56.644314,2.148300171,-19.707256317,-1.109081268,-0.040012207,-0.024749570,0.960605979
56.682645,0.347763062,-12.787395477,-1.666027069,-0.048557129,-0.017303281,0.966221213
56.696936,0.958114624,-8.804851532,-0.918346405,-0.048190918,0.035186954,0.946934104
56.712363,2.209335327,-2.975994110,0.088733673,-0.049045410,0.052032657,0.930454612
56.750731,4.025131226,5.843585968,-4.710155487,-0.075534672,0.001861759,0.974399924
56.799553,1.660018921,23.597187042,-1.887279510,-0.031345215,-0.044158749,0.894810081
56.815202,2.483993530,23.002094269,-3.184276581,-0.034641113,-0.073577695,0.911533713
56.829314,-0.712722778,22.086566925,-5.534130096,-0.031101074,-0.093108945,0.914463401
56.867629,-1.117080688,21.850055695,2.202075958,0.015163574,-0.125091374,0.889683127
56.906053,3.254562378,7.407611847,1.225513458,-0.026828613,-0.075530820,0.899570823
56.920190,-0.163406372,3.692096710,4.536670685,-0.054904785,-0.139373600,0.919224143
56.935424,-1.796096802,1.433795929,2.759021759,-0.062229004,-0.138152897,0.904209495
56.973846,7.961898804,-8.484416962,0.187915802,-0.096652836,-0.037200741,0.917637229
57.012220,3.544479370,-4.738384247,-4.519420624,-0.086032718,-0.076629452,0.979648948
57.026343,2.804428101,-3.845745087,-3.352123260,-0.049411621,-0.086273007,0.985142112
57.041708,2.911239624,-5.363994598,-4.298168182,-0.052707519,-0.012542538,0.979282737
57.042402,2.911239624,-5.363994598,-4.298168182,-0.052707519,-0.012542538,0.979282737
57.091116,2.499252319,-7.347637177,-7.075267792,-0.075900882,0.071441837,1.028232932
57.129483,5.177169800,-7.271343231,-6.564098358,-0.054904785,0.084991641,1.025059104
57.143779,4.910140991,-6.409221649,-3.870922089,-0.070041507,0.107574649,1.035435081
57.159180,4.475265503,-8.232646942,-9.768444061,-0.076267093,0.079498477,1.016636252
57.197571,13.729721069,-5.119853973,-5.801158905,-0.027194824,0.009185977,0.983311057
57.235915,11.547714233,-0.053936005,-0.651317596,-0.043918457,-0.011321835,1.052891135
57.250207,11.562973022,0.739521027,0.271839142,-0.050876465,0.086456485,1.035679221
57.265456,14.103561401,-2.373271942,1.301807404,-0.032687988,0.089630313,1.019077659
57.303872,16.888290405,-17.075115204,-3.298717499,-0.063327640,0.050689884,1.048862815
57.342217,4.696517944,-3.487163544,-4.473644257,-0.101169437,-0.094817929,1.046299338
57.356489,1.820236206,10.268634796,-2.848583221,-0.081638187,-0.068572812,1.027500510
57.371725,-0.315994263,13.518756866,-3.550487518,-0.071872562,-0.074554257,1.015049338
57.372468,-0.315994263,13.518756866,-3.550487518,-0.071872562,-0.074554257,1.015049338
57.373226,-0.315994263,13.518756866,-3.550487518,-0.071872562,-0.074554257,1.015049338
57.373869,-0.315994263,13.518756866,-3.550487518,-0.071872562,-0.074554257,1.015049338
57.412088,-1.094192505,18.165058136,-7.571178436,-0.086521000,-0.021209531,1.000400901
57.450467,-4.031509399,22.086566925,-7.540660858,-0.046726074,-0.019988827,0.979038596
57.464618,-0.125259399,21.163410187,-8.585887909,-0.049777832,-0.005706601,0.996372581
57.480017,-1.551956177,21.773761749,-7.327037811,-0.043063965,-0.081268124,1.025181174
57.518369,-7.289260864,21.827167511,-4.809337616,-0.024753418,0.019561954,0.987949729
57.556753,-1.941055298,4.348224640,-4.183727264,-0.018283691,-0.075286679,1.053623557
57.571046,-5.023330688,2.097553253,-4.404979706,-0.032565918,-0.082977109,1.067173362
57.586446,-8.670181274,4.256671906,-1.612621307,-0.056369629,0.021637149,1.053501487
57.624832,-6.907791138,-0.526958466,-1.162487030,-0.045261230,0.092682071,1.026890159
57.663204,-4.451126099,-4.852825165,-3.298717499,-0.051608887,-0.055267148,1.075962424
57.677494,-6.930679321,-2.808147430,-2.566295624,-0.046970215,-0.057830624,1.060947776
57.692913,-4.779190063,0.640338898,-2.299266815,-0.025485840,-0.026214413,1.021274924
57.731312,2.865463257,1.349872589,-0.811534882,-0.018405762,0.085724063,1.011753440
57.780141,-3.695816040,12.954181671,2.400440216,-0.041721191,0.168121517,1.032871604
57.794483,-1.941055298,10.985797882,0.447315216,-0.021945801,0.147857845,1.004307151
57.809731,-1.170486450,8.765644073,0.027698517,-0.024631348,0.175323665,0.993076682
57.848130,-1.269668579,8.941120148,0.050586700,-0.036350098,0.004059024,0.982944846
57.886447,-0.056594849,8.071369171,4.147571564,0.021022949,-0.073699765,0.935215354
57.900778,3.819137573,0.716632843,5.604785919,-0.006198730,0.002594180,0.935825706
57.916006,3.452926636,-1.755290985,6.405872345,-0.018039551,-0.023284726,0.951206565
57.975193,0.889450073,-17.075115204,7.802051544,-0.033420410,-0.029388241,0.942417502
58.013715,1.362472534,-23.705059052,4.445117950,-0.090061039,-0.015228085,0.977817893
58.027987,0.515609741,-22.827678680,3.468555450,-0.088596195,-0.029632382,0.981113791
58.043394,-1.941055298,-18.555217743,4.292530060,-0.064670414,-0.066619687,0.981724143
58.081739,-2.940505981,-10.292583466,3.354114532,-0.099094242,-0.067718320,1.022495627
58.120093,-9.013504028,8.872455597,3.140491486,-0.079074711,0.094024844,0.990024924
58.134367,-8.578628540,10.192340851,2.965015411,-0.057224121,0.015533634,0.994053245
58.149763,-7.998794556,9.124225616,2.865833282,-0.058566894,0.005645938,0.993809104
58.188087,-7.579177856,9.948200226,-0.086742401,-0.071140140,-0.035491757,1.034336448
58.226443,-3.611892700,12.229389191,5.139392853,-0.066623539,0.100494571,0.988804221
58.240739,-0.369400024,0.533527374,3.346485138,-0.059787598,0.143829525,0.967563987
58.256115,3.414779663,-6.729656219,3.903430939,-0.071628422,0.184356868,0.962803245
58.294442,7.847457886,-26.955181122,1.919788361,-0.074436039,0.059112735,0.973301291
58.332808,15.637069702,-31.464153290,2.003711700,-0.134494632,0.124664493,0.957065940
58.347082,12.921005249,-28.305583954,4.239124298,-0.142062992,0.028228946,0.979160666
58.362468,5.970626831,-17.021709442,-3.222423553,-0.158176273,0.027862735,0.955845237
58.363173,5.970626831,-17.021709442,-3.222423553,-0.158176273,0.027862735,0.955845237
58.363768,5.970626831,-17.021709442,-3.222423553,-0.158176273,0.027862735,0.955845237
58.364398,5.970626831,-17.021709442,-3.222423553,-0.158176273,0.027862735,0.955845237
58.364993,5.970626831,-17.021709442,-3.222423553,-0.158176273,0.027862735,0.955845237
58.365606,5.970626831,-17.021709442,-3.222423553,-0.158176273,0.027862735,0.955845237
58.366197,5.970626831,-17.021709442,-3.222423553,-0.158176273,0.027862735,0.955845237
58.366830,5.970626831,-17.021709442,-3.222423553,-0.158176273,0.027862735,0.955845237
58.367410,5.970626831,-17.021709442,-3.222423553,-0.158176273,0.027862735,0.955845237
58.368021,5.856185913,-8.850627899,-2.680736542,-0.152927250,0.046661563,0.936436057
58.368623,5.856185913,-8.850627899,-2.680736542,-0.152927250,0.046661563,0.936436057
58.369238,5.856185913,-8.850627899,-2.680736542,-0.152927250,0.046661563,0.936436057
58.407442,1.530319214,14.541095734,-2.520519257,-0.095187992,0.001373477,0.911289573
58.445844,2.499252319,22.513813019,-1.749950409,-0.090671390,-0.064666562,0.955356956
58.459983,-0.987380981,20.980304718,-6.312328339,-0.068210453,-0.041351132,0.963535666
58.475356,-0.781387329,19.950336456,-5.259471893,-0.058811035,0.023834415,0.954746604
58.513720,-0.789016724,8.918231964,-7.464366913,-0.052585449,-0.052093320,1.003818870
58.552078,-5.923599243,4.790729523,-3.306346893,-0.036716308,-0.020355038,0.983433127
58.566199,-6.350845337,1.525348663,-5.083995819,-0.028781738,-0.032684140,0.969150901
58.581632,-1.269668579,-0.916057587,-2.932506561,-0.051242676,0.035064884,0.975742698
58.619980,-6.274551392,7.270282745,-1.460033417,-0.069064945,-0.018157773,1.030186057
58.658345,-6.076187134,9.124225616,0.477832794,-0.041599121,0.110138126,1.007847190
58.672600,-2.909988403,5.790180206,0.203174591,-0.053928223,0.148101985,1.014194846
58.687853,-0.468582153,-1.099163055,-0.964122772,-0.054050293,0.055694766,1.059116721
58.726283,-2.971023560,-12.886577606,1.317066193,-0.024631348,0.057403751,1.048374534
58.726982,-2.971023560,-12.886577606,1.317066193,-0.024631348,0.057403751,1.048374534
58.775728,1.202255249,-12.527996063,-1.391368866,-0.091159672,0.034210391,1.076694846
58.801773,-1.109451294,-1.015239716,1.912158966,-0.081638187,0.106476016,1.056309104
58.815952,-2.467483521,4.691547394,0.638050079,-0.056613769,0.079986759,1.035190940
58.854247,-0.048965454,7.781452179,-1.948314667,-0.093967289,0.128936946,1.071812034
58.892649,-7.533401489,19.530719757,-4.778820038,-0.071140140,0.132354915,0.961338401
58.906798,-6.038040161,22.307819366,-2.932506561,-0.021823730,0.009552188,0.936313987
58.922203,-4.329055786,20.736164093,-2.825695038,-0.027805176,0.068634219,0.924961448
58.960544,-1.612991333,11.573261261,-6.014781952,-0.028049316,-0.031585507,0.946689963
58.998931,0.248580933,6.263202667,1.149219513,0.028835449,-0.086273007,0.884556174
59.013076,3.330856323,2.822345734,1.706165314,0.009548340,-0.029022031,0.890049338
59.028477,3.460556030,-6.180339813,0.142139435,-0.006687012,-0.074920468,0.918613791
59.029178,3.460556030,-6.180339813,0.142139435,-0.006687012,-0.074920468,0.918613791
59.029798,3.460556030,-6.180339813,0.142139435,-0.006687012,-0.074920468,0.918613791
59.030431,3.460556030,-6.180339813,0.142139435,-0.006687012,-0.074920468,0.918613791
59.031042,3.460556030,-6.180339813,0.142139435,-0.006687012,-0.074920468,0.918613791
59.031657,3.460556030,-6.180339813,0.142139435,-0.006687012,-0.074920468,0.918613791
59.032264,3.460556030,-6.180339813,0.142139435,-0.006687012,-0.074920468,0.918613791
59.032890,3.460556030,-6.180339813,0.142139435,-0.006687012,-0.074920468,0.918613791
59.071117,2.575546265,-20.592266083,0.172657013,0.015773926,-0.119476132,0.877476096
59.109444,9.564071655,-28.351360321,0.851673126,-0.053195801,-0.005218320,0.884800315
59.123729,8.808761597,-27.695232391,-4.672008514,-0.062595218,-0.020721249,0.913242698
59.139167,7.092147827,-23.850017548,-2.901988983,-0.054050293,-0.027557187,0.918247581
59.177463,8.106857300,-15.793376923,-6.319957733,-0.064060062,0.153106868,0.893345237
59.215840,0.424057007,7.628864288,-7.662731171,-0.044772949,-0.065521054,1.019688010
59.229989,-0.476211548,14.808124542,-6.602245331,-0.026950683,-0.005340390,1.011265159
59.245419,-2.215713501,19.126361847,-3.848033905,0.029567871,0.014190860,1.002109885
59.283771,8.770614624,0.678485870,-6.838756561,-0.037937012,0.151764095,1.056431174
59.322141,9.861618042,-19.737773895,-5.434947968,-0.039890137,0.213287532,0.999668479
59.336430,15.026718140,-24.071269989,-7.990795135,-0.048801269,0.180816829,1.010654807
59.351818,11.913925171,-22.850566864,-7.647472382,-0.075412601,0.042877384,1.079380393
59.390194,4.666000366,-3.540569305,-9.188610077,-0.084567875,0.246856868,0.977573752
59.428482,8.000045776,14.342731476,-7.906871796,-0.066623539,0.271148860,0.942783713
59.442785,6.672531128,20.606464386,-7.914501190,-0.034763183,0.047149844,0.979526877
59.458030,3.788619995,24.749225616,-6.213146210,-0.031223144,0.028106876,0.986118674
59.496521,6.367355347,29.204792023,-2.016979218,-0.024997558,0.134430110,0.960728049
59.534881,6.626754761,14.197772980,-5.335765839,0.009304199,0.001007266,1.048740745
59.549165,5.596786499,11.832660675,-2.650218964,0.027980957,-0.034881406,1.041904807
59.564577,5.047470093,4.874652863,-3.107982635,0.050930176,-0.003143124,1.003696799
59.613433,7.435470581,25.199359894,-10.394054413,-0.020969238,0.116974063,1.141392112
59.651866,-12.637466431,62.941974640,10.022205353,0.082546383,0.079620548,1.215610862
59.666139,-13.537734985,49.659198761,9.549182892,0.092800289,0.044830509,1.196689963
59.681410,-12.400955200,8.651203156,8.732837677,0.083645016,-0.017059140,1.170933127
59.719850,-12.591690063,-56.755596161,1.393360138,-0.076755375,0.110992618,1.176792502
59.758211,-18.725723267,-47.607952118,5.307239532,-0.093845218,0.203766048,1.062656760
59.772486,-19.801467896,-27.916484833,11.570972443,-0.098117679,0.115265079,1.002231956
59.787968,-18.718093872,-20.828777313,10.579151154,-0.109348148,0.130645931,0.985508323
59.826318,-16.513198853,-1.267009735,3.521961212,-0.097751468,0.087066837,0.948154807
59.864662,-12.019485474,23.871845245,3.895801544,-0.072482914,0.110138126,0.927891135
59.890716,-9.921401978,26.816791534,2.614063263,-0.076999515,0.057403751,0.978062034
59.904912,-10.089248657,22.674030304,-0.033336639,-0.071628422,0.043853946,0.981235862
59.943185,-5.656570435,24.634784698,-8.311229706,-0.132663578,0.331695735,0.796177268
59.981531,-4.451126099,46.103900909,-5.846935272,-0.064792484,0.057037540,0.881870627
59.995806,-1.971572876,40.625995636,-8.173900604,-0.067722172,0.103058048,0.883579612
60.011210,-0.865310669,28.365558624,-10.256725311,-0.016086426,-0.003631406,0.862339377
60.049570,19.283920288,-22.903972626,-11.431652069,0.046169434,-0.037811093,0.846104026
60.087934,17.697006226,-50.957256317,-7.586437225,-0.042209473,0.104522891,0.888828635
60.102087,17.933517456,-47.546916962,-9.112316132,-0.052463379,0.081939884,0.890415549
60.117474,16.331344604,-32.585674286,-1.887279510,-0.063327640,0.095489688,0.893223166
60.155828,11.562973022,-0.931316376,2.720874786,-0.072849125,0.076080509,0.923984885
60.194221,7.160812378,35.041278839,5.131763458,-0.073337406,0.015899844,0.986240745
60.208478,2.072006226,45.272296906,6.108325958,-0.066013187,0.016388126,1.023960471
60.223884,0.034957886,46.317523956,5.833667755,-0.060275879,0.037872501,1.027012229
60.262213,2.453475952,28.243488312,3.171009064,-0.036105957,0.118072696,1.055210471
60.300588,-0.743240356,-0.984722137,2.873462677,-0.076633304,0.229644954,1.059360862
60.314857,-0.827163696,-9.125286102,1.950305939,-0.084812015,0.221588314,1.066807151
60.330266,-3.100723267,-22.820049286,-0.689464569,-0.111057132,0.268829525,1.040195823
60.368603,-0.315994263,-28.893047333,1.378101349,-0.110812992,0.221588314,1.019932151
60.369297,-0.315994263,-28.893047333,1.378101349,-0.110812992,0.221588314,1.019932151
60.369900,-0.315994263,-28.893047333,1.378101349,-0.110812992,0.221588314,1.019932151
60.370519,-0.315994263,-28.893047333,1.378101349,-0.110812992,0.221588314,1.019932151
60.371125,-0.315994263,-28.893047333,1.378101349,-0.110812992,0.221588314,1.019932151
60.371886,-0.315994263,-28.893047333,1.378101349,-0.110812992,0.221588314,1.019932151
60.372470,-0.315994263,-28.893047333,1.378101349,-0.110812992,0.221588314,1.019932151
60.373072,-0.315994263,-28.893047333,1.378101349,-0.110812992,0.221588314,1.019932151
60.373685,-0.315994263,-28.893047333,1.378101349,-0.110812992,0.221588314,1.019932151
60.374279,-0.315994263,-28.893047333,1.378101349,-0.110812992,0.221588314,1.019932151
60.374895,0.668197632,-29.602581024,2.202075958,-0.112155765,0.196197689,1.018345237
60.375487,0.668197632,-29.602581024,2.202075958,-0.112155765,0.196197689,1.018345237
60.413677,4.994064331,-29.472881317,2.743762970,-0.144138187,0.152374446,0.993931174
60.427940,3.735214233,-19.257122040,-1.658397675,-0.160495609,0.179962337,0.980381370
60.443313,4.452377319,-12.291484833,-2.146678925,-0.148410648,0.223785579,0.979404807
60.492122,1.690536499,9.864276886,2.636951447,-0.087985843,0.252594173,0.981724143
60.530587,4.879623413,8.269733429,1.660388947,-0.080783695,0.183380306,0.969517112
60.544711,7.397323608,7.506793976,2.476734161,-0.072971195,0.124298282,0.996372581
60.560108,6.809860229,6.438678741,2.636951447,-0.074924320,0.115509219,1.007725120
60.598444,5.764633179,2.753681183,0.783008575,-0.098972172,0.171173275,1.046665549
60.636836,1.103073120,12.534564972,1.179737091,-0.081027836,0.211090267,1.097813010
60.650954,-1.704544067,12.923664093,1.477283478,-0.062961429,0.181793392,1.110142112
60.666348,-5.030960083,10.283893585,1.111072540,-0.061374512,0.243438900,1.096714377
60.704719,-6.282180786,10.024494171,5.009693146,-0.054172363,0.207550228,1.077061057
60.743052,-10.478347778,3.295368195,7.519763947,-0.013889160,0.158233821,1.065464377
60.757363,-10.279983521,-0.008159637,8.511585236,-0.012912598,0.155548275,1.050327659
60.772596,-10.325759888,-5.318218231,9.945911407,-0.005222168,0.109161563,1.035068870
60.773330,-10.325759888,-5.318218231,9.945911407,-0.005222168,0.109161563,1.035068870
60.773943,-10.325759888,-5.318218231,9.945911407,-0.005222168,0.109161563,1.035068870
60.812251,-11.187881470,-17.448955536,14.134449005,-0.001560058,0.031524844,0.997227073
60.861079,-7.182449341,-27.916484833,16.041797638,-0.033664551,0.031158634,0.921299338
60.875285,-4.008621216,-29.083782196,16.018909454,-0.052585449,0.032135196,0.914341331
60.890704,-2.162307739,-28.160625458,15.996021271,-0.062961429,0.024444766,0.920444846
60.929100,-0.499099731,-14.351421356,13.653797150,-0.088107914,0.032623477,0.907627463
60.967419,-1.223892212,9.658283234,15.706104279,-0.075412601,0.064361759,0.967441916
60.981687,-4.100173950,14.419025421,15.591663361,-0.074436039,0.048614688,0.965855002
60.997096,-3.772109985,14.518207550,14.111560822,-0.078830570,0.067413516,0.956455588
