time,gyro x,gyro y,gyro z,accel x,accel y,accel z
52.363131,0.016288757,-0.900978088,1.267684937,-0.136509031,-0.059565552,1.019895315
52.372937,-2.798957825,0.937705994,1.572860718,-0.145420164,-0.015620239,0.996091604
52.373564,-3.088874817,0.869041443,1.298202515,-0.152622312,-0.014887817,0.993894339
52.374189,-3.500862122,0.823265076,1.549972534,-0.155185789,-0.016474731,0.986814260
52.374814,-3.745002747,1.013999939,1.572860718,-0.154453367,-0.011958130,0.988767385
52.375441,-3.928108215,1.029258728,1.702560425,-0.156040281,-0.010615356,0.988034964
52.376068,-4.042549133,0.777488708,1.488937378,-0.160678953,-0.010371216,0.979734182
52.376694,-4.248542786,0.838523865,1.351608276,-0.160678953,-0.008173950,0.982908010
52.377321,-4.424018860,0.731712341,1.481307983,-0.157871336,-0.004878052,0.976438284
52.377946,-4.614753723,0.609642029,1.252426147,-0.158603758,-0.006220825,0.979612112
52.378572,-4.523200989,0.548606873,1.282943726,-0.160434812,-0.005854614,0.978391409
52.379198,-4.790229797,0.602012634,1.237167358,-0.159580320,-0.002070435,0.977048635
52.379825,-4.828376770,0.403648376,1.092208862,-0.161655515,-0.005976684,0.970090628
52.380450,-5.034370422,0.457054138,1.107467651,-0.160801023,-0.006464966,0.967649221
52.381076,-5.171699524,0.228172302,0.825180054,-0.161777586,-0.006709106,0.964597464
52.381701,-5.118293762,-0.008338928,0.954879761,-0.163364500,-0.006953247,0.960935354
52.382328,-5.431098938,-0.252479553,1.298202515,-0.159092039,-0.002924927,0.965085745
52.382954,-5.331916809,-0.237220764,0.931991577,-0.160312742,-0.007563598,0.964109182
52.383579,-5.385322571,-0.588172913,1.084579468,-0.156406492,-0.005000122,0.962522268
52.384206,-5.293769836,-0.893348694,1.023544312,-0.158115476,-0.002314575,0.966794729
52.384831,-5.659980774,-0.527137756,0.787033081,-0.155429929,-0.001460083,0.966794729
52.385458,-5.484504700,-0.900978088,0.787033081,-0.156284422,-0.002924927,0.964231253
52.386085,-5.812568665,-1.183265686,0.962509155,-0.157505125,-0.000971802,0.964475393
52.386710,-5.446357727,-1.236671448,0.931991577,-0.154453367,-0.001826294,0.966550589
52.387337,-5.782051086,-1.328224182,0.756515503,-0.154575437,-0.003413208,0.963498831
52.387962,-5.812568665,-1.457923889,0.489486694,-0.151645750,-0.003535278,0.963742971
52.388589,-5.927009583,-1.648658752,0.626815796,-0.153232664,-0.005610473,0.960935354
52.389215,-6.026191711,-1.953834534,0.657333374,-0.154453367,-0.006831177,0.962644339
52.389841,-6.049079895,-1.793617249,0.443710327,-0.151523679,-0.007807739,0.962766409
52.390466,-6.102485657,-1.694435120,0.497116089,-0.151523679,-0.008173950,0.965451956
52.391091,-6.049079895,-2.205604553,0.405563354,-0.150425047,-0.008296020,0.964841604
52.392851,-6.201667786,-2.335304260,0.474227905,-0.148471922,-0.009028442,0.973752737
52.393477,-6.163520813,-2.220863342,0.321640015,-0.144443601,-0.010615356,0.976438284
52.394104,-6.079597473,-2.228492737,0.085128784,-0.144321531,-0.012812622,0.979123831
52.394731,-6.201667786,-2.411598206,0.260604858,-0.141758054,-0.009028442,0.982053518
52.395357,-6.354255676,-2.342933655,0.298751831,-0.144321531,-0.010249145,0.981199026
52.395983,-6.133003235,-2.373451233,-0.021682739,-0.140171140,-0.012812622,0.984616995
52.396609,-6.163520813,-2.182716370,0.100387573,-0.138218015,-0.011469848,0.982663870
52.397234,-6.041450500,-2.312416077,-0.082717896,-0.137241453,-0.014399536,0.985471487
52.397859,-6.155891418,-2.419227600,0.001205444,-0.135776609,-0.014155395,0.990354300
52.398484,-6.041450500,-2.259010315,-0.189529419,-0.136264890,-0.017207153,0.988645315
52.399109,-6.087226868,-2.320045471,-0.113235474,-0.132358640,-0.019404419,0.992795706
52.399734,-5.965156555,-2.350563049,-0.288711548,-0.132480711,-0.020136841,0.998533010
52.400359,-5.766792297,-2.266639709,-0.357376099,-0.130527586,-0.021845825,0.995359182
52.400985,-5.782051086,-2.007240295,-0.151382446,-0.129306883,-0.025507934,0.998655081
52.401610,-5.667610168,-2.114051819,-0.143753052,-0.129062742,-0.027705200,0.998777151
52.402235,-5.499763489,-2.152198792,-0.281082153,-0.129551023,-0.028071411,0.997190237
52.402860,-5.370063782,-1.961463928,-0.410781860,-0.128208250,-0.030512817,0.998410940
52.417226,-2.180976868,-1.061195374,0.100387573,-0.120517820,-0.065302856,0.986814260
52.417928,-2.028388977,-1.084083557,0.184310913,-0.122104734,-0.064814575,0.988157034
52.418555,-1.952095032,-0.931495667,0.436080933,-0.121128172,-0.062739380,0.989743948
52.419180,-1.959724426,-1.007789612,0.489486694,-0.122104734,-0.061762817,0.989255667
52.419806,-2.119941711,-1.137489319,0.649703979,-0.123569578,-0.065180786,0.990354300
52.420431,-2.020759583,-1.015419006,0.603927612,-0.122715086,-0.060297973,0.987058401
52.421057,-1.875801086,-0.931495667,0.741256714,-0.119175047,-0.061274536,0.990476370
52.421683,-1.898689270,-0.694984436,0.718368530,-0.119175047,-0.062739380,0.990598440
52.422309,-1.990242004,-0.908607483,0.855697632,-0.119297117,-0.063593872,0.996213675
52.422936,-1.883430481,-0.771278381,0.993026733,-0.121494383,-0.060053833,0.995237112
52.423561,-1.952095032,-0.672096252,0.855697632,-0.121494383,-0.059687622,0.999387503
52.424188,-2.036018372,-0.565284729,1.046432495,-0.122715086,-0.062006958,0.999021292
52.424814,-2.386970520,-0.458473206,1.038803101,-0.119663328,-0.057978638,1.001218557
52.425439,-2.333564758,-0.115150452,1.122726440,-0.122837156,-0.056147583,1.001950979
52.426064,-2.356452942,-0.244850159,0.954879761,-0.121982664,-0.058466919,1.001218557
52.426689,-2.539558411,-0.229591370,1.229537964,-0.126255125,-0.054926880,1.002317190
52.427314,-2.333564758,0.098472595,0.901473999,-0.128452390,-0.057856567,1.000119925
52.427940,-2.402229309,-0.077003479,1.023544312,-0.130893797,-0.055903442,0.998777151
52.428566,-2.653999329,0.067955017,1.298202515,-0.129551023,-0.060297973,0.999143362
52.429192,-2.745552063,0.388389587,1.244796753,-0.133213133,-0.060297973,0.998288870
52.429818,-2.676887512,0.327354431,1.176132202,-0.131137937,-0.062739380,0.994016409
52.430443,-2.760810852,0.220542908,1.298202515,-0.132114500,-0.063227661,0.993528128
52.431069,-2.684516907,0.510459900,1.183761597,-0.137607664,-0.067622192,0.990354300
52.431696,-2.898139954,0.388389587,1.374496460,-0.138095945,-0.064936645,0.989499807
52.432323,-2.760810852,0.518089294,1.405014038,-0.140049070,-0.065424927,0.987302542
52.432950,-2.943916321,0.571495056,1.054061890,-0.142856687,-0.063471802,0.989621878
52.433575,-2.577705383,0.571495056,1.389755249,-0.141880125,-0.063227661,0.985959768
52.434202,-2.615852356,0.640159607,1.382125854,-0.140049070,-0.058833130,0.986325979
52.434828,-2.470893860,0.670677185,1.137985229,-0.138584226,-0.059443481,0.989743948
52.435455,-2.669258118,0.777488708,1.015914917,-0.139560789,-0.057978638,0.989255667
52.437234,-2.570075989,1.090293884,1.221908569,-0.142490476,-0.051875122,0.994138479
52.437860,-2.463264465,0.876670837,1.343978882,-0.141758054,-0.052241333,0.995969534
52.438486,-2.516670227,1.197105408,1.183761597,-0.140171140,-0.050044067,0.995359182
52.439111,-2.776069641,1.158958435,1.199020386,-0.141758054,-0.049067505,0.996213675
52.439737,-2.867622375,1.372581482,1.191390991,-0.141880125,-0.045893677,0.996213675
52.440362,-2.646369934,1.494651794,1.122726440,-0.140415281,-0.047968872,0.996824026
52.440987,-2.882881165,1.433616638,1.229537964,-0.137119383,-0.044306763,0.996824026
52.441613,-3.065986633,1.578575134,1.061691284,-0.135898679,-0.042109497,0.995359182
52.442239,-3.073616028,1.647239685,0.985397339,-0.139927000,-0.038081177,0.997068167
52.442866,-3.241462708,1.685386658,0.977767944,-0.139316648,-0.032465942,0.998777151
52.443492,-3.394050598,1.586204529,0.725997925,-0.137851804,-0.033320434,0.999265432
52.444117,-3.447456360,1.693016052,0.771774292,-0.136997312,-0.030146606,0.996946096
52.444743,-3.683967590,1.952415466,0.817550659,-0.135288328,-0.024409302,0.996701956
52.445368,-3.806037903,1.998191833,0.779403687,-0.136997312,-0.026118286,0.994992971
52.445993,-4.095954895,2.005821228,0.596298218,-0.136631101,-0.024775513,0.993650198
52.446618,-4.317207336,2.074485779,0.634445190,-0.138462156,-0.022700317,0.990476370
52.447245,-4.530830383,2.105003357,0.809921265,-0.135410398,-0.019770630,0.993650198
52.447871,-4.622383118,2.364402771,0.436080933,-0.137363523,-0.020380981,0.989621878
52.463474,-7.025642395,1.471763611,-0.853286743,-0.142612547,-0.018549927,0.975583792
52.464188,-7.048530579,1.570945740,-1.196609497,-0.142856687,-0.018305786,0.974241018
52.464814,-7.368965149,1.471763611,-1.013504028,-0.138340086,-0.015376098,0.976682425
52.465439,-7.330818176,1.441246033,-1.173721313,-0.141513914,-0.017817505,0.979123831
52.466065,-7.437629700,1.364952087,-1.387344360,-0.141513914,-0.015009888,0.982785940
52.466691,-7.567329407,1.570945740,-1.288162231,-0.142978758,-0.018549927,0.984494925
52.467317,-7.552070618,1.265769958,-1.227127075,-0.142978758,-0.015864380,0.981565237
52.467943,-7.681770325,1.349693298,-1.448379517,-0.140049070,-0.016840942,0.986203909
52.468568,-7.788581848,1.464134216,-1.440750122,-0.140537351,-0.017573364,0.986203909
52.469195,-7.948799133,1.250511169,-1.448379517,-0.139560789,-0.015742309,0.988279104
52.469822,-8.063240051,1.448875427,-1.578079224,-0.138584226,-0.017573364,0.986448050
52.470447,-8.093757629,1.464134216,-1.585708618,-0.140171140,-0.019892700,0.988767385
52.471072,-8.223457336,1.242881775,-1.539932251,-0.140171140,-0.020503052,0.988645315
52.471698,-8.192939758,1.250511169,-1.768814087,-0.144565672,-0.025874145,0.993039846
52.472323,-8.376045227,1.273399353,-1.707778931,-0.142490476,-0.023676880,0.993894339
52.472949,-8.376045227,1.113182068,-1.822219849,-0.146030515,-0.026484497,0.999997854
52.473576,-8.406562805,1.189476013,-1.898513794,-0.149570554,-0.024775513,0.997312307
52.474202,-8.269233704,1.197105408,-1.852737427,-0.147861570,-0.031733520,1.000486135
52.474827,-8.528633118,1.227622986,-2.051101685,-0.152622312,-0.030390747,1.004270315
52.475453,-8.444709778,1.204734802,-1.883255005,-0.150425047,-0.031977661,1.003537893
52.476079,-8.421821594,1.174217224,-1.707778931,-0.152866453,-0.033442505,1.008420706
52.476704,-8.360786438,1.456504822,-1.890884399,-0.155185789,-0.035883911,1.009641409
52.477331,-8.307380676,1.540428162,-2.073989868,-0.155307859,-0.035029419,1.010129690
52.477957,-8.238716125,1.181846619,-2.028213501,-0.157016844,-0.039057739,1.012082815
52.478582,-8.238716125,1.227622986,-2.119766235,-0.157871336,-0.035273559,1.016355276
52.479207,-8.101387024,1.609092712,-2.279983521,-0.157260984,-0.034419067,1.013547659
52.479834,-8.040351868,1.708274841,-2.463088989,-0.154209226,-0.033320434,1.019895315
52.480461,-8.383674622,1.616722107,-2.333389282,-0.155918211,-0.029902466,1.025876760
52.481086,-8.078498840,1.609092712,-2.279983521,-0.155063719,-0.033076294,1.022458792
52.481711,-8.208198547,1.822715759,-2.234207153,-0.155307859,-0.025874145,1.026975393
52.483535,-8.322639465,2.166038513,-2.363906860,-0.152256101,-0.026728638,1.027463675
52.484160,-8.414192200,2.143150330,-2.524124146,-0.149082273,-0.024409302,1.030393362
52.484785,-8.505744934,2.082115173,-2.592788696,-0.147007078,-0.025263794,1.027951956
52.485410,-8.574409485,2.288108826,-2.508865356,-0.146762937,-0.028071411,1.026242971
52.486035,-8.650703430,2.494102478,-2.669082642,-0.146152586,-0.029414184,1.027829885
52.486660,-8.589668274,2.372032166,-2.638565063,-0.146885008,-0.032710083,1.025632620
52.487286,-8.437080383,2.547508240,-2.775894165,-0.141513914,-0.034541138,1.028562307
52.487913,-8.498115540,2.845054626,-2.699600220,-0.141269773,-0.038081177,1.027585745
52.488539,-8.536262512,2.784019470,-2.707229614,-0.138828367,-0.033564575,1.024900198
52.489166,-8.437080383,2.837425232,-2.951370239,-0.139927000,-0.040034302,1.021238089
52.489793,-8.459968567,3.028160095,-2.814041138,-0.133335203,-0.043086059,1.020261526
52.490419,-8.261604309,2.982383728,-2.798782349,-0.136509031,-0.045405395,1.023069143
52.491044,-8.040351868,3.043418884,-2.875076294,-0.135532469,-0.048457153,1.022702932
52.491671,-8.009834290,3.363853455,-2.882705688,-0.138095945,-0.050166138,1.022580862
52.492298,-7.773323059,3.432518005,-2.897964478,-0.134311765,-0.052607544,1.023923635
52.492924,-7.582588196,3.302818298,-2.852188110,-0.135532469,-0.053217895,1.022580862
52.493550,-7.178230286,3.409629822,-2.638565063,-0.133335203,-0.056391723,1.024900198
52.494176,-7.048530579,3.546958923,-2.768264771,-0.131626219,-0.060664184,1.025876760
52.508415,-2.280158997,5.187278748,-1.211868286,-0.134067625,-0.063105591,1.011716604
52.509154,-2.104682922,5.301719666,-0.838027954,-0.133091062,-0.062861450,1.012204885
52.509781,-1.814765930,5.110984802,-0.921951294,-0.138340086,-0.065058716,1.010129690
52.510407,-1.852912903,5.439048767,-0.982986450,-0.136875242,-0.063593872,1.005124807
52.511033,-1.624031067,5.492454529,-0.738845825,-0.137119383,-0.064814575,1.005246878
52.511659,-1.456184387,5.393272400,-0.784622192,-0.137973875,-0.064082153,1.004880667
52.512284,-1.288337708,5.461936951,-0.906692505,-0.139194578,-0.061030395,0.998533010
52.512909,-1.303596497,5.484825134,-0.677810669,-0.143711179,-0.063471802,0.998288870
52.513534,-1.021308899,5.355125427,-0.395523071,-0.142002195,-0.063349731,0.997678518
52.514159,-1.173896790,5.217796326,-0.731216431,-0.142368406,-0.063715942,0.992551565
52.514786,-0.807685852,5.484825134,-0.387893677,-0.142978758,-0.062006958,0.995237112
52.515413,-0.792427063,5.103355408,-0.334487915,-0.142612547,-0.064692505,0.991452932
52.516038,-0.983161926,5.278831482,-0.342117310,-0.144809812,-0.065302856,0.991575003
52.516663,-0.265998840,5.294090271,-0.250564575,-0.144565672,-0.062739380,0.989866018
52.517288,-0.441474915,5.149131775,-0.128494263,-0.145664304,-0.062251098,0.986325979
52.517914,-0.471992493,5.156761169,-0.174270630,-0.149692625,-0.064936645,0.986448050
52.518539,-0.372810364,5.156761169,-0.136123657,-0.146030515,-0.064692505,0.988034964
52.519165,-0.342292786,5.019432068,0.001205444,-0.146152586,-0.067988403,0.986325979
52.519790,-0.166816711,4.805809021,-0.265823364,-0.145542234,-0.067133911,0.982663870
52.520417,-0.143928528,4.821067810,0.199569702,-0.145420164,-0.065791138,0.986692190
52.521042,-0.098152161,4.866844177,0.268234253,-0.148960203,-0.064448364,0.984372854
52.521667,0.001029968,4.760032654,-0.029312134,-0.147495359,-0.063593872,0.984250784
52.522294,-0.067634583,4.584556580,0.352157593,-0.148593992,-0.067011841,0.983884573
52.522921,0.138359070,4.706626892,0.237716675,-0.145542234,-0.065669067,0.980100393
52.523547,0.084953308,4.500633240,0.397933960,-0.147373289,-0.065302856,0.980710745
52.524174,0.054435730,4.416709900,0.283493042,-0.147495359,-0.069209106,0.982663870
52.524800,0.062065125,4.470115662,0.527633667,-0.152744383,-0.075434692,0.978635550
52.525427,-0.197334290,4.340415955,0.558151245,-0.140415281,-0.037959106,0.988889456
52.526052,-0.319404602,4.042869568,0.474227905,-0.150669187,-0.146967903,0.982663870
52.526678,0.298576355,4.279380798,1.183761597,-0.170444578,0.004765503,0.975339651
52.528442,-0.143928528,4.454856873,0.916732788,-0.088169187,-0.122431763,0.995115042
52.529067,-0.327033997,4.111534119,0.725997925,-0.186557859,0.019413941,0.987790823
52.529693,-0.395698547,3.974205017,0.954879761,-0.143589109,-0.150630012,0.981199026
52.530319,-0.334663391,3.791099548,1.099838257,-0.142246336,-0.014765747,0.987424612
52.530945,-0.571174622,3.890281677,1.031173706,-0.166660398,-0.128779426,0.987180471
52.531571,-0.388069153,3.760581970,1.046432495,-0.108799070,-0.031611450,0.999143362
52.532198,-0.853462219,3.920799255,1.199020386,-0.172885984,-0.110957153,0.987302542
52.532823,-0.739021301,3.836875916,1.366867065,-0.122959226,-0.036250122,0.991941214
52.533450,-0.952644348,3.936058044,1.282943726,-0.163608640,-0.087519653,0.988645315
52.534076,-0.922126770,3.722434998,1.443161011,-0.150058836,-0.061152466,0.983396292
52.534703,-1.120491028,3.607994080,1.557601929,-0.146396726,-0.069209106,0.991086721
52.535328,-1.250190735,3.615623474,1.435531616,-0.159458250,-0.066401489,0.991819143
52.535954,-1.257820129,3.485923767,1.519454956,-0.135166258,-0.054316528,0.992307425
52.536579,-1.425666809,3.569847107,1.649154663,-0.163486570,-0.072016723,0.987790823
52.537205,-1.433296204,3.394371033,1.710189819,-0.138828367,-0.050654419,0.991330862
52.537831,-1.601142883,3.607994080,1.626266479,-0.158237547,-0.067133911,0.992307425
52.538456,-1.448554993,3.417259216,1.664413452,-0.148838133,-0.053095825,0.990598440
52.539081,-1.776618958,3.539329529,1.748336792,-0.152011961,-0.051875122,0.995481253
52.552944,-4.515571594,1.647239685,1.321090698,-0.159092039,-0.003657349,0.973142385
52.553688,-4.828376770,1.517539978,1.023544312,-0.165561765,-0.015742309,0.977170706
52.554314,-4.858894348,1.349693298,1.168502808,-0.163486570,0.001225464,0.972287893
52.554941,-4.805488586,1.479393005,1.160873413,-0.177280515,0.005009644,0.951780081
52.555568,-5.362434387,1.143699646,0.977767944,-0.180332273,0.007451050,0.955198050
52.556195,-5.530281067,0.724082947,0.779403687,-0.173130125,-0.008051880,0.973630667
52.556822,-5.881233215,0.464683533,0.779403687,-0.161777586,-0.009272583,0.996824026
52.557447,-5.736274719,0.792747498,0.718368530,-0.156772703,-0.002802856,0.998899221
52.558072,-5.988044739,0.739341736,0.710739136,-0.156162351,0.006108277,0.990598440
52.558698,-6.285591125,0.975852966,0.481857300,-0.161167234,0.007451050,0.987058401
52.559324,-6.720466614,0.930076599,0.443710327,-0.160556883,0.004887573,0.985227346
52.559950,-6.850166321,0.891929626,0.489486694,-0.165805906,-0.001948364,0.984861135
52.560576,-7.178230286,0.769859314,0.359786987,-0.168857664,-0.001704224,0.984250784
52.561202,-7.468147278,0.739341736,0.184310913,-0.168247312,0.002568237,0.979856253
52.561827,-7.437629700,0.693565369,0.115646362,-0.165317625,-0.000849731,0.982541800
52.562453,-8.139533997,0.281578064,0.123275757,-0.164463133,-0.005488403,0.979367971
52.563080,-8.192939758,0.373130798,0.123275757,-0.167514890,-0.012690552,0.975095510
52.563706,-8.223457336,0.067955017,-0.036941528,-0.168125242,-0.012324341,0.969236135
52.564333,-8.330268860,0.136619568,0.108016968,-0.171054929,-0.014887817,0.967893362
52.564959,-8.528633118,0.083213806,-0.105606079,-0.171421140,-0.016474731,0.967649221
52.565584,-8.574409485,-0.321144104,-0.128494263,-0.170932859,-0.018794067,0.973142385
52.566211,-8.620185852,-0.450843811,-0.242935181,-0.164585203,-0.025752075,0.973874807
52.566837,-8.597297668,-0.374549866,-0.166641235,-0.162876219,-0.025996216,0.971921682
52.567462,-8.475227356,-0.672096252,-0.143753052,-0.162265867,-0.026728638,0.968991995
52.568087,-8.650703430,-0.534767151,-0.319229126,-0.160678953,-0.022089966,0.969358206
52.568713,-8.566780090,-0.633949280,-0.632034302,-0.160923094,-0.023188598,0.965085745
52.569339,-8.337898254,-0.733131409,-0.395523071,-0.158847898,-0.025385864,0.966550589
52.569966,-8.231086731,-0.870460510,-0.410781860,-0.156650633,-0.024531372,0.967283010
52.570591,-8.215827942,-1.183265686,-0.639663696,-0.154941648,-0.029536255,0.970212698
52.571217,-8.063240051,-1.259559631,-0.769363403,-0.150425047,-0.027827270,0.973386526
52.572989,-7.666511536,-1.229042053,-0.532852173,-0.140903562,-0.029414184,0.974241018
52.573615,-7.826728821,-1.396888733,-0.479446411,-0.138950437,-0.034296997,0.974118948
52.574240,-7.635993958,-1.450294495,-0.693069458,-0.136386961,-0.035639770,0.975461721
52.574865,-7.765693665,-1.244300842,-0.601516724,-0.137607664,-0.037470825,0.976438284
52.575492,-7.704658508,-1.435035706,-0.570999146,-0.134555906,-0.041010864,0.973264456
52.576117,-7.758064270,-1.518959045,-0.578628540,-0.135898679,-0.039301880,0.972898245
52.576744,-7.895393372,-1.374000549,-0.586257935,-0.134677976,-0.040888794,0.972043753
52.577369,-7.735176086,-1.274818420,-0.555740356,-0.132724851,-0.046137817,0.975705862
52.577994,-7.880134583,-1.396888733,-0.502334595,-0.132602781,-0.045283325,0.974973440
52.578619,-7.635993958,-1.404518127,-0.426040649,-0.131137937,-0.049677856,0.976804495
52.579246,-7.834358215,-1.351112366,-0.456558228,-0.132358640,-0.054438598,0.975217581
52.579872,-7.872505188,-1.473182678,-0.387893677,-0.129673094,-0.056880005,0.977292776
52.580498,-8.086128235,-1.557106018,-0.288711548,-0.131626219,-0.060297973,0.975827932
52.581124,-7.536811829,-1.648658752,-0.159011841,-0.130527586,-0.062129028,0.977170706
52.581750,-7.864875793,-1.595252991,0.031723022,-0.131137937,-0.062129028,0.977781057
52.582375,-7.750434875,-1.602882385,-0.189529419,-0.133945554,-0.064692505,0.978513479
52.583000,-7.910652161,-1.663917542,0.161422729,-0.132114500,-0.066279419,0.975339651
52.596798,-7.933540344,-1.534217834,1.481307983,-0.144321531,-0.059077270,0.973874807
52.597513,-8.078498840,-1.694435120,1.481307983,-0.143589109,-0.059199341,0.970090628
52.598138,-7.857246399,-1.778358459,1.656784058,-0.142978758,-0.057368286,0.968503714
52.598763,-7.773323059,-1.785987854,1.549972534,-0.143711179,-0.055537231,0.964963675
52.599389,-7.597846985,-1.877540588,1.679672241,-0.144077390,-0.056269653,0.964719534
52.600014,-7.704658508,-1.969093323,1.611007690,-0.144809812,-0.050044067,0.963498831
52.600640,-7.620735168,-2.068275452,1.496566772,-0.144077390,-0.054804809,0.963742971
52.601267,-7.788581848,-1.961463928,1.740707397,-0.142856687,-0.053584106,0.964719534
52.601894,-7.346076965,-2.030128479,1.527084351,-0.140171140,-0.053584106,0.964963675
52.602520,-7.368965149,-2.159828186,1.786483765,-0.141269773,-0.051875122,0.963498831
52.603146,-7.170600891,-2.007240295,1.649154663,-0.139682859,-0.053462036,0.961057425
52.603771,-7.368965149,-2.236122131,1.572860718,-0.144443601,-0.050288208,0.959104300
52.604398,-7.101936340,-2.114051819,1.611007690,-0.141758054,-0.048945434,0.959470510
52.605029,-7.048530579,-2.144569397,1.794113159,-0.139682859,-0.049067505,0.961301565
52.605655,-7.018013000,-2.465003967,1.702560425,-0.142490476,-0.044917114,0.960691214
52.606282,-6.895942688,-2.388710022,1.633895874,-0.138462156,-0.045405395,0.956052542
52.606908,-6.606025696,-2.320045471,1.771224976,-0.137119383,-0.042475708,0.957029104
52.607533,-6.758613586,-2.327674866,1.755966187,-0.139072508,-0.037470825,0.955075979
52.608160,-6.659431458,-2.510780334,1.641525269,-0.135044187,-0.036128052,0.956174612
52.608786,-6.621284485,-2.144569397,1.641525269,-0.134555906,-0.034541138,0.955442190
52.609411,-6.453437805,-2.243751526,1.717819214,-0.133945554,-0.033686645,0.950559378
52.610036,-6.560249329,-2.617591858,1.748336792,-0.136142820,-0.032221802,0.953244925
52.610662,-6.644172668,-2.449745178,1.710189819,-0.132480711,-0.030146606,0.954953909
52.611287,-6.491584778,-2.518409729,1.382125854,-0.132480711,-0.028193481,0.957517385
52.611912,-6.567878723,-2.327674866,1.603378296,-0.132602781,-0.028681763,0.951658010
52.612537,-6.491584778,-2.655738831,1.649154663,-0.129673094,-0.028559692,0.948240042
52.613163,-6.308479309,-2.655738831,1.435531616,-0.130893797,-0.029780395,0.946897268
52.613788,-6.285591125,-2.564186096,1.580490112,-0.132114500,-0.025996216,0.948484182
52.614414,-6.560249329,-2.747291565,1.488937378,-0.131260008,-0.026728638,0.947995901
52.622964,-4.332466125,-4.181617737,1.206649780,-0.139316648,-0.023921020,0.935666800
52.623591,-4.210395813,-4.387611389,0.870956421,-0.144443601,-0.024043091,0.937741995
52.624216,-3.943367004,-4.585975647,0.939620972,-0.143711179,-0.027461059,0.938352346
52.624842,-3.828926086,-4.563087463,0.977767944,-0.144565672,-0.025874145,0.935544729
52.625469,-3.775520325,-4.715675354,0.825180054,-0.146030515,-0.025263794,0.936887503
52.626096,-3.355903625,-4.875892639,0.970138550,-0.148349851,-0.027461059,0.941037893
52.626721,-3.310127258,-5.005592346,0.947250366,-0.149204344,-0.025874145,0.940671682
52.627346,-3.050727844,-5.028480530,0.809921265,-0.149448484,-0.025507934,0.946286917
52.627972,-2.814216614,-5.165809631,0.863327026,-0.153476804,-0.024531372,0.946042776
52.628598,-2.989692688,-5.638832092,0.581039429,-0.151279539,-0.022089966,0.947507620
52.629224,-2.821846008,-5.425209045,0.748886108,-0.154941648,-0.024165161,0.952024221
52.629849,-2.554817200,-5.615943909,0.924362183,-0.149326414,-0.017329223,0.954587698
52.630476,-2.547187805,-5.684608459,0.764144897,-0.158603758,-0.020136841,0.960202932
52.631101,-2.699775696,-5.898231506,0.848068237,-0.152988523,-0.015864380,0.959226370
52.631726,-2.951545715,-6.058448792,0.855697632,-0.155185789,-0.023921020,0.960691214
52.632352,-2.806587219,-6.096595764,0.718368530,-0.150669187,-0.029658325,0.966062307
52.632977,-2.524299622,-6.104225159,0.649703979,-0.154819578,-0.025385864,0.967405081
52.633604,-2.409858704,-6.142372131,0.771774292,-0.160678953,-0.018671997,0.963254690
52.634229,-2.531929016,-6.249183655,0.573410034,-0.162143797,-0.019648559,0.958005667
52.648142,-2.257270813,-7.965797424,0.321640015,-0.150791258,-0.029414184,0.983884573
52.648871,-2.188606262,-7.889503479,0.390304565,-0.153598875,-0.029170044,0.982785940
52.649498,-2.135200500,-7.988685608,0.207199097,-0.154331297,-0.032465942,0.986203909
52.650123,-1.997871399,-8.118385315,0.382675171,-0.154087156,-0.034785278,0.991452932
52.650749,-2.089424133,-8.278602600,0.359786987,-0.153232664,-0.036250122,0.994382620
52.651375,-1.952095032,-8.286231995,0.436080933,-0.150180906,-0.036616333,0.991452932
52.652000,-2.051277161,-8.324378967,0.359786987,-0.153965086,-0.036860473,0.997678518
52.652626,-2.013130188,-8.301490784,0.390304565,-0.151889890,-0.040644653,0.999509573
52.653251,-2.173347473,-8.240455627,0.314010620,-0.150913328,-0.040888794,0.999021292
52.653878,-2.211494446,-8.431190491,0.397933960,-0.150791258,-0.040766723,1.000974417
52.654504,-2.310676575,-8.583778381,0.390304565,-0.153232664,-0.042353638,1.004758596
52.655130,-2.333564758,-8.568519592,0.367416382,-0.150302976,-0.044062622,1.006589651
52.655756,-2.516670227,-8.530372620,0.382675171,-0.148716062,-0.045405395,1.006467581
52.656383,-2.440376282,-8.621925354,0.558151245,-0.149448484,-0.047480591,1.008054495
52.657009,-2.791328430,-8.599037170,0.436080933,-0.149448484,-0.049311645,1.010862112
52.657635,-2.402229309,-8.591407776,0.245346069,-0.151035398,-0.050776489,1.013303518
52.658260,-2.692146301,-8.644813538,0.420822144,-0.147617429,-0.052607544,1.017209768
52.658885,-2.768440247,-8.454078674,0.428451538,-0.148105711,-0.053095825,1.014646292
52.659512,-2.890510559,-8.454078674,0.367416382,-0.146885008,-0.053584106,1.016843557
52.660138,-2.898139954,-8.591407776,0.558151245,-0.148716062,-0.051875122,1.015500784
52.660763,-2.859992981,-8.324378967,0.596298218,-0.143833250,-0.054316528,1.020261526
52.661388,-3.142280579,-8.484596252,0.565780640,-0.141880125,-0.054804809,1.021726370
52.662014,-3.043098450,-8.286231995,0.420822144,-0.143711179,-0.058344848,1.020261526
52.662641,-3.035469055,-8.332008362,0.405563354,-0.145420164,-0.055171020,1.021482229
52.663266,-3.455085754,-8.400672913,0.771774292,-0.140171140,-0.053462036,1.020505667
52.663891,-3.416938782,-8.187049866,0.581039429,-0.138340086,-0.056147583,1.016843557
52.664518,-3.516120911,-7.942909241,0.504745483,-0.142734617,-0.061518677,1.020505667
52.665143,-3.668708801,-8.072608948,0.809921265,-0.135776609,-0.061030395,1.022214651
52.665768,-3.767890930,-7.874244690,0.687850952,-0.140049070,-0.065180786,1.019529104
52.666393,-3.996772766,-7.958168030,0.542892456,-0.137485594,-0.067622192,1.015989065
52.668199,-3.882331848,-7.500404358,0.664962769,-0.123691648,-0.072505005,1.028196096
52.668826,-3.981513977,-7.302040100,0.611557007,-0.119297117,-0.077631958,1.037473440
52.669453,-3.714485168,-7.012123108,0.687850952,-0.122226804,-0.074580200,1.040891409
52.670080,-3.806037903,-7.149452209,0.909103394,-0.116123289,-0.072138794,1.044431448
52.670707,-3.912849426,-6.806129456,0.657333374,-0.121982664,-0.069453247,1.043699026
52.671332,-4.164619446,-6.691688538,0.611557007,-0.118808836,-0.067744263,1.041501760
52.671957,-4.164619446,-6.867164612,0.771774292,-0.127231687,-0.069575317,1.041745901
52.672582,-4.271430969,-6.752723694,0.520004272,-0.121738523,-0.070918091,1.042112112
52.673208,-4.462165833,-6.554359436,0.481857300,-0.125034422,-0.073969848,1.041623831
52.673833,-4.446907043,-6.333106995,0.649703979,-0.120884031,-0.074336059,1.038816214
52.674459,-4.652900696,-6.340736389,0.809921265,-0.120639890,-0.078852661,1.036130667
52.675086,-4.622383118,-6.310218811,1.084579468,-0.125766844,-0.082636841,1.036496878
52.675712,-4.866523743,-5.982154846,0.863327026,-0.122348875,-0.083369263,1.033811331
52.676337,-4.950447083,-5.783790588,1.000656128,-0.128696531,-0.080805786,1.034055471
52.676964,-5.217475891,-5.882972717,1.031173706,-0.129551023,-0.080439575,1.033811331
52.677591,-5.209846497,-5.951637268,1.145614624,-0.131504148,-0.086298950,1.030393362
52.678216,-5.255622864,-5.783790588,1.137985229,-0.132358640,-0.084467895,1.030515432
52.678843,-5.263252258,-5.524391174,1.107467651,-0.129551023,-0.081416138,1.035154104
52.692694,-8.971138000,-2.732032776,2.282394409,-0.128940672,-0.062006958,1.042112112
52.693435,-9.207649231,-2.945655823,2.038253784,-0.126987547,-0.060420044,1.044431448
52.694060,-9.169502258,-2.747291565,2.068771362,-0.123447508,-0.060297973,1.044065237
52.694687,-9.467048645,-2.503150940,2.175582886,-0.126621336,-0.061152466,1.041257620
52.695312,-9.612007141,-2.510780334,2.213729858,-0.121494383,-0.055903442,1.044065237
52.695939,-9.612007141,-2.594703674,2.221359253,-0.122715086,-0.055781372,1.044431448
52.696564,-9.795112610,-2.045387268,2.106918335,-0.125156492,-0.056757934,1.044675589
52.697190,-10.100288391,-2.274269104,2.213729858,-0.125278562,-0.054682739,1.044065237
52.697816,-10.115547180,-2.152198792,2.442611694,-0.125278562,-0.057246216,1.041501760
52.698441,-9.894294739,-1.946205139,2.114547729,-0.124790281,-0.053095825,1.043210745
52.699066,-9.894294739,-2.083534241,2.267135620,-0.127719969,-0.054804809,1.043454885
52.699693,-9.894294739,-1.587623596,2.373947144,-0.125888914,-0.058222778,1.042112112
52.700318,-10.001106262,-1.602882385,2.061141968,-0.124057859,-0.057246216,1.040036917
52.700943,-9.772224426,-1.618141174,2.297653198,-0.129062742,-0.058466919,1.043454885
52.701568,-9.909553528,-1.404518127,2.190841675,-0.129551023,-0.061274536,1.039914846
52.702195,-9.787483215,-1.236671448,2.244247437,-0.131260008,-0.061640747,1.036496878
52.702821,-9.428901672,-1.297706604,2.221359253,-0.133091062,-0.064814575,1.033323050
52.703448,-9.604377747,-1.023048401,2.259506226,-0.130527586,-0.063349731,1.028562307
52.704075,-9.398384094,-0.946754456,2.396835327,-0.128574461,-0.063960083,1.032224417
52.704702,-9.024543762,-0.992530823,2.366317749,-0.125766844,-0.063471802,1.029905081
52.705329,-9.177131653,-0.679725647,2.099288940,-0.125522703,-0.061396606,1.027707815
52.705955,-9.070320129,-0.420326233,2.312911987,-0.124179929,-0.060542114,1.024656057
52.706580,-8.734626770,-0.542396545,2.442611694,-0.123935789,-0.059687622,1.024656057
52.707207,-8.360786438,-0.122779846,2.320541382,-0.122715086,-0.063838013,1.018796682
52.707834,-8.223457336,-0.298255920,2.351058960,-0.121372312,-0.058100708,1.018186331
52.708459,-7.964057922,-0.046485901,2.587570190,-0.119907469,-0.056391723,1.015622854
52.709084,-7.788581848,-0.000709534,2.244247437,-0.119663328,-0.062373169,1.009397268
52.709709,-7.758064270,0.182395935,2.251876831,-0.116123289,-0.063227661,1.008176565
52.710334,-7.330818176,0.174766541,2.145065308,-0.110752195,-0.066035278,1.004636526
52.710959,-7.178230286,0.334983826,2.312911987,-0.107700437,-0.067500122,1.005246878
52.712773,-6.316108704,0.853782654,2.404464722,-0.099765867,-0.065546997,1.000730276
52.713399,-6.056709290,0.960594177,2.572311401,-0.099155515,-0.066767700,0.998166800
52.714031,-5.621833801,1.090293884,2.480758667,-0.099399656,-0.066279419,0.997678518
52.714658,-5.560798645,0.968223572,2.396835327,-0.098667234,-0.068476684,0.993161917
52.715284,-5.339546204,1.044517517,2.450241089,-0.097202390,-0.069453247,0.992551565
52.715910,-4.805488586,0.968223572,2.732528687,-0.096469969,-0.074213989,0.985227346
52.716536,-4.347724915,1.105552673,2.541793823,-0.094272703,-0.076167114,0.983762503
52.717161,-4.202766418,1.288658142,2.694381714,-0.093296140,-0.077876098,0.980466604
52.717787,-3.851814270,1.364952087,2.747787476,-0.094028562,-0.082270630,0.979123831
52.718413,-3.233833313,1.395469666,2.709640503,-0.094394773,-0.079707153,0.976926565
52.719039,-2.943916321,1.479393005,2.846969604,-0.095981687,-0.076411255,0.973142385
52.719664,-2.623481750,1.342063904,2.930892944,-0.100132078,-0.082148559,0.967405081
52.720289,-2.180976868,1.364952087,2.869857788,-0.103794187,-0.082514770,0.966550589
52.720914,-1.715583801,1.578575134,3.052963257,-0.102573484,-0.082880981,0.966062307
52.721540,-1.387519836,1.509910583,3.175033569,-0.105014890,-0.084956177,0.964109182
52.722191,-0.967903137,1.395469666,3.045333862,-0.107090086,-0.083735473,0.966184378
52.722816,-0.655097961,1.258140564,3.213180542,-0.104892820,-0.087153442,0.961667776
52.723442,-0.342292786,1.380210876,3.327621460,-0.106357664,-0.089228638,0.958127737
52.737362,7.348136902,0.029808044,4.960311890,-0.102695554,-0.089961059,0.925901175
52.738113,7.531242371,-0.077003479,5.219711304,-0.105869383,-0.091425903,0.926267385
52.738740,7.645683289,0.113731384,5.364669800,-0.101596922,-0.092036255,0.927610159
52.739365,7.821159363,-0.176185608,5.425704956,-0.101718992,-0.092402466,0.928586721
52.739990,7.828788757,-0.107521057,5.517257690,-0.101230711,-0.092524536,0.929441214
52.740617,8.339958191,-0.168556213,5.387557983,-0.101963133,-0.091792114,0.924436331
52.741244,8.385734558,-0.237220764,5.799545288,-0.105014890,-0.089472778,0.930906057
52.741869,8.423881531,-0.435585022,5.868209839,-0.105259031,-0.089716919,0.930783987
52.742495,8.736686707,-0.504249573,5.959762573,-0.105747312,-0.091303833,0.931394339
52.743122,9.049491882,-0.557655334,5.883468628,-0.105747312,-0.092402466,0.928098440
52.743748,9.156303406,-0.511878967,6.242050171,-0.107578367,-0.085566528,0.930783987
52.744373,9.369926453,-0.939125061,6.203903198,-0.114536375,-0.087275513,0.929563284
52.744999,9.553031921,-0.717872620,6.470932007,-0.113315672,-0.084345825,0.929319143
52.745625,9.835319519,-1.061195374,6.387008667,-0.116855711,-0.082880981,0.930783987
52.746252,10.033683777,-1.236671448,6.692184448,-0.112217039,-0.086176880,0.927732229
52.746879,10.422782898,-1.213783264,6.608261108,-0.113926023,-0.080927856,0.933225393
52.747506,10.407524109,-1.168006897,6.669296265,-0.113315672,-0.081171997,0.934568167
52.748133,10.644035339,-1.084083557,7.012619019,-0.122715086,-0.077143677,0.932370901
52.748759,10.544853210,-1.419776917,6.867660522,-0.122348875,-0.072993286,0.935422659
52.749384,10.834770203,-1.656288147,7.127059937,-0.125888914,-0.073969848,0.930783987
52.750011,11.216239929,-1.755470276,7.104171753,-0.128086179,-0.079951294,0.932370901
52.750637,11.368827820,-1.892799377,7.172836304,-0.127475828,-0.077876098,0.935666800
52.751262,11.864738464,-2.060646057,7.012619019,-0.120884031,-0.076533325,0.942380667
52.751888,11.963920593,-2.060646057,7.325424194,-0.122959226,-0.080805786,0.935666800
52.752513,12.398796082,-2.175086975,7.378829956,-0.120639890,-0.076899536,0.946897268
52.753139,12.726860046,-2.289527893,7.210983276,-0.116123289,-0.071162231,0.956418753
52.753765,12.765007019,-1.976722717,7.272018433,-0.111484617,-0.063715942,0.968625784
52.754391,13.215141296,-1.847023010,7.340682983,-0.111850828,-0.060175903,0.974973440
52.755018,13.382987976,-1.885169983,7.142318726,-0.112461179,-0.053706177,0.978879690
52.755644,13.573722839,-1.862281799,7.439865112,-0.112705320,-0.051630981,0.989988089
52.757434,13.840751648,-1.587623596,7.127059937,-0.109409422,-0.044672973,1.006467581
52.758060,13.779716492,-1.488441467,7.249130249,-0.108677000,-0.042841919,1.006955862
52.758685,13.802604675,-1.274818420,6.951583862,-0.108310789,-0.040888794,1.010251760
52.759311,13.947563171,-1.259559631,7.073654175,-0.111484617,-0.042963989,1.010984182
52.759937,13.886528015,-0.977272034,6.905807495,-0.110385984,-0.038325317,1.018552542
52.760563,14.062004089,-1.137489319,6.730331421,-0.112094969,-0.037348755,1.016111135
52.761189,13.962821960,-0.733131409,6.715072632,-0.114170164,-0.037592895,1.019773245
52.761815,14.176445007,-0.771278381,6.570114136,-0.111728758,-0.035639770,1.018552542
52.762441,14.184074402,-0.809425354,6.356491089,-0.115024656,-0.035395630,1.021604300
52.763067,14.351921082,-0.427955627,6.715072632,-0.109043211,-0.032588013,1.025022268
52.763694,14.542655945,-0.244850159,6.165756226,-0.108310789,-0.031611450,1.029660940
52.764319,14.412956238,0.136619568,6.257308960,-0.105625242,-0.028437622,1.029660940
52.764945,14.435844421,0.350242615,6.173385620,-0.106723875,-0.027583130,1.032102346
52.765571,14.626579285,0.731712341,6.127609253,-0.111728758,-0.020136841,1.031858206
52.766197,14.596061707,0.724082947,5.860580444,-0.112827390,-0.021357544,1.032468557
52.766822,14.634208679,0.975852966,5.593551636,-0.110874265,-0.016840942,1.032224417
52.767447,14.573173523,1.189476013,5.532516479,-0.116123289,-0.020625122,1.033689260
52.782650,14.657096863,4.424339294,2.869857788,-0.123935789,-0.030879028,1.029416800
52.783407,14.412956238,4.477745056,2.831710815,-0.123325437,-0.030756958,1.028806448
52.784034,14.107780457,4.691368103,2.557052612,-0.123203367,-0.031367309,1.027341604
52.784659,13.878898621,4.843955994,2.602828979,-0.129184812,-0.033930786,1.026609182
52.785286,13.695793152,4.958396912,2.854598999,-0.125522703,-0.033442505,1.023679495
52.785913,13.382987976,4.996543884,2.572311401,-0.124179929,-0.034785278,1.024167776
52.786540,13.276176453,5.156761169,2.633346558,-0.122837156,-0.038447388,1.024900198
52.787165,12.978630066,5.332237244,2.717269897,-0.122593015,-0.044062622,1.025144339
52.787791,12.719230652,5.461936951,2.480758667,-0.122593015,-0.044672973,1.023435354
52.788416,12.597160339,5.812889099,2.274765015,-0.125766844,-0.047358520,1.025266409
52.789042,12.543754578,5.728965759,2.343429565,-0.125400633,-0.047114380,1.021116018
52.789667,12.284355164,5.805259705,2.305282593,-0.124424070,-0.048945434,1.021360159
52.790294,11.643486023,5.805259705,2.122177124,-0.125034422,-0.051020630,1.017942190
52.790920,11.597709656,6.049400330,2.328170776,-0.124057859,-0.055048950,1.019773245
52.791546,11.590080261,6.186729431,2.152694702,-0.123203367,-0.052607544,1.018918753
52.792171,11.231498718,6.339317322,2.145065308,-0.123081297,-0.053950317,1.021116018
52.792797,11.193351746,6.423240662,2.236618042,-0.123691648,-0.058955200,1.019040823
52.793422,11.071281433,6.652122498,2.030624390,-0.127353758,-0.056880005,1.020017385
52.794048,10.514335632,6.835227966,2.145065308,-0.130161375,-0.056391723,1.016843557
52.794674,10.499076843,6.819969177,2.022994995,-0.131015867,-0.054804809,1.019040823
52.795301,10.079460144,6.743675232,2.106918335,-0.131748289,-0.058588989,1.016233206
52.795928,9.873466492,6.903892517,1.946701050,-0.133701414,-0.058955200,1.016965628
52.796555,9.667472839,7.239585876,2.045883179,-0.132480711,-0.062861450,1.020139456
52.797180,9.240226746,7.453208923,1.801742554,-0.133091062,-0.063471802,1.016965628
52.797807,8.980827332,7.224327087,1.801742554,-0.134433836,-0.065669067,1.017820120
52.798432,8.767204285,7.514244080,1.984848022,-0.140049070,-0.064936645,1.018064260
52.799059,8.507804871,7.560020447,2.053512573,-0.139927000,-0.064814575,1.015866995
52.799685,8.317070007,7.796531677,2.022994995,-0.140537351,-0.066523559,1.011594534
52.800311,7.981376648,7.643943787,1.977218628,-0.145053953,-0.068110473,1.011594534
52.800937,7.500724792,7.727867126,2.267135620,-0.142490476,-0.068476684,1.012571096
52.802772,6.760673523,7.880455017,2.022994995,-0.142490476,-0.066767700,1.006101370
52.803399,6.531791687,8.239036560,2.015365601,-0.147739500,-0.066523559,1.005002737
52.804030,6.218986511,7.949119568,2.076400757,-0.148593992,-0.066523559,1.002927542
52.804656,6.081657410,7.972007751,2.030624390,-0.152256101,-0.066523559,1.002927542
52.805283,5.601005554,7.941490173,1.885665894,-0.146762937,-0.064936645,1.002439260
52.805910,5.333976746,7.811790466,1.900924683,-0.147129148,-0.064448364,1.000730276
52.806537,5.082206726,8.109336853,2.099288940,-0.149326414,-0.067255981,0.999631643
52.807164,4.891471863,8.086448669,2.137435913,-0.144809812,-0.066889770,0.999387503
52.807791,4.532890320,7.880455017,2.015365601,-0.146518797,-0.065302856,0.999021292
52.808418,4.242973328,8.010154724,2.045883179,-0.149326414,-0.067866333,1.000241995
52.809044,4.174308777,7.956748962,2.129806519,-0.148838133,-0.066157348,1.000119925
52.809670,3.769950867,8.086448669,1.977218628,-0.149448484,-0.070796020,0.997434378
52.810296,3.769950867,7.949119568,1.878036499,-0.157871336,-0.089350708,0.998655081
52.810922,3.136711121,7.735496521,2.228988647,-0.145664304,-0.102168091,0.994870901
52.811547,3.144340515,7.575279236,2.587570190,-0.142002195,-0.065669067,0.991452932
52.812173,2.785758972,7.941490173,2.679122925,-0.146274656,-0.056391723,0.996335745
52.812799,2.396659851,7.994895935,2.427352905,-0.142002195,-0.051630981,0.995603323
52.813426,2.083854675,7.811790466,2.290023804,-0.148227781,-0.051630981,0.990110159
52.814052,1.908378601,7.720237732,2.496017456,-0.150913328,-0.039912231,0.983640432
52.827922,-6.476325989,5.950218201,2.702011108,-0.134555906,-0.045039184,0.927610159
52.828664,-6.789131165,5.805259705,2.724899292,-0.129673094,-0.049067505,0.924314260
52.829290,-6.949348450,5.339866638,2.694381714,-0.132602781,-0.053217895,0.919675589
52.829916,-7.468147278,5.324607849,2.862228394,-0.132480711,-0.052851684,0.921018362
52.830542,-7.536811829,4.996543884,2.885116577,-0.132602781,-0.052729614,0.920041800
52.831169,-7.758064270,5.019432068,2.915634155,-0.133335203,-0.052119263,0.921140432
52.831795,-8.208198547,4.470115662,2.763046265,-0.130649656,-0.053339966,0.918699026
52.832422,-8.284492493,4.172569275,3.022445679,-0.131137937,-0.055293091,0.921506643
52.833048,-8.398933411,4.126792908,3.007186890,-0.128086179,-0.053828247,0.920530081
52.833675,-8.704109192,3.951316833,2.816452026,-0.129917234,-0.051508911,0.921750784
52.834301,-8.765144348,3.607994080,2.915634155,-0.129428953,-0.049067505,0.924314260
52.834927,-8.879585266,3.257041931,3.121627808,-0.128574461,-0.048213013,0.922605276
52.835553,-9.100837708,3.081565857,3.182662964,-0.130039304,-0.046992309,0.925657034
52.836179,-9.230537415,3.073936462,3.068222046,-0.128086179,-0.046870239,0.923581839
52.836805,-9.329719543,2.463584900,3.068222046,-0.131748289,-0.043574341,0.924314260
52.837430,-9.634895325,2.364402771,3.220809937,-0.134922117,-0.041255005,0.922971487
52.838055,-9.451789856,2.097373962,3.052963257,-0.136142820,-0.039668091,0.924314260
52.838680,-9.680671692,2.089744568,3.106369019,-0.136020750,-0.040400513,0.923215628
52.839305,-9.695930481,1.830345154,2.938522339,-0.134555906,-0.039179809,0.924192190
52.839930,-9.749336243,1.448875427,3.098739624,-0.139560789,-0.036860473,0.924070120
52.840556,-10.130805969,1.113182068,3.159774780,-0.140537351,-0.032954223,0.925412893
52.841181,-10.107917786,0.777488708,3.236068726,-0.140537351,-0.032954223,0.926389456
52.841808,-10.100288391,0.640159607,2.984298706,-0.140293211,-0.027094848,0.926633596
52.842435,-9.993476868,0.495201111,2.999557495,-0.141513914,-0.026118286,0.924314260
52.843061,-10.153694153,0.380760193,3.106369019,-0.139560789,-0.022822388,0.927366018
52.843686,-10.023994446,-0.023597717,2.839340210,-0.143589109,-0.023432739,0.926389456
52.844311,-10.115547180,-0.176185608,2.854598999,-0.144199461,-0.019282348,0.927366018
52.844938,-10.138435364,-0.534767151,2.969039917,-0.143589109,-0.018549927,0.926877737
52.845563,-10.214729309,-0.855201721,2.648605347,-0.143955320,-0.016474731,0.929075003
52.846188,-10.016365051,-0.778907776,2.671493530,-0.145908445,-0.017451294,0.929197073
52.847970,-10.115547180,-1.381629944,2.549423218,-0.145786375,-0.014277466,0.926877737
52.848595,-9.879035950,-1.526588440,2.427352905,-0.146885008,-0.010127075,0.923948050
52.849220,-9.909553528,-1.801246643,2.373947144,-0.144931883,-0.008296020,0.925657034
52.849845,-9.566230774,-2.022499084,2.427352905,-0.143344969,-0.005244263,0.926633596
52.850471,-9.619636536,-2.274269104,2.175582886,-0.140171140,-0.003535278,0.925412893
52.851098,-9.589118958,-2.167457581,2.366317749,-0.137607664,0.000248901,0.928586721
52.851725,-9.283943176,-2.526039124,1.977218628,-0.141513914,0.002079956,0.928098440
52.852350,-9.436531067,-2.846473694,2.099288940,-0.137363523,0.007084839,0.931760550
52.852975,-9.291572571,-3.144020081,1.809371948,-0.134067625,0.007939331,0.933957815
52.853601,-8.986396790,-3.166908264,1.664413452,-0.136264890,0.007573120,0.934934378
52.854227,-9.093208313,-3.388160706,1.694931030,-0.132602781,0.010869019,0.935666800
52.854854,-8.994026184,-3.624671936,1.611007690,-0.131137937,0.010502808,0.936643362
52.855480,-8.849067688,-3.807777405,1.389755249,-0.127475828,0.014653198,0.939084768
52.856105,-8.887214661,-4.097694397,1.336349487,-0.129795164,0.011723511,0.936765432
52.856731,-8.856697083,-4.173988342,1.275314331,-0.139316648,0.017460816,0.927366018
52.857356,-9.299201965,-4.891151428,1.137985229,-0.158359617,0.021611206,0.896848440
52.857981,-9.093208313,-5.608314514,0.977767944,-0.149936765,0.016118042,0.877317190
52.858607,-9.451789856,-5.852455139,0.863327026,-0.127842039,0.011113159,0.894773245
52.879151,-8.337898254,-6.905311584,-2.257095337,-0.128940672,0.001713745,0.996824026
52.879880,-8.360786438,-7.019752502,-2.371536255,-0.128696531,0.001225464,0.995237112
52.880505,-8.322639465,-6.844276428,-2.371536255,-0.130771726,0.000126831,0.994260550
52.881130,-8.154792786,-6.722206116,-2.402053833,-0.128208250,-0.003413208,0.995725393
52.881756,-8.231086731,-6.584877014,-2.539382935,-0.130039304,-0.003657349,0.995603323
52.882381,-8.276863098,-6.661170959,-2.577529907,-0.131748289,-0.006342895,0.997434378
52.883008,-8.490486145,-6.752723694,-2.722488403,-0.130893797,-0.006831177,0.996579885
52.883633,-8.353157043,-6.928199768,-2.783523560,-0.129917234,-0.006709106,0.999509573
52.884260,-8.589668274,-6.699317932,-2.951370239,-0.129184812,-0.007929809,0.998899221
52.884886,-8.551521301,-6.439918518,-2.768264771,-0.124668211,-0.011469848,0.999997854
52.885512,-8.688850403,-6.592506409,-2.913223267,-0.121982664,-0.010127075,1.004026175
52.886137,-8.803291321,-6.691688538,-3.020034790,-0.128208250,-0.015009888,1.003415823
52.886763,-8.604927063,-6.531471252,-2.829299927,-0.131137937,-0.017085083,1.001340628
52.887388,-8.490486145,-6.584877014,-2.890335083,-0.135776609,-0.022700317,1.000730276
52.888014,-8.658332825,-7.157081604,-3.111587524,-0.140415281,-0.021723755,1.005124807
52.888641,-8.650703430,-7.134193420,-2.859817505,-0.137729734,-0.023188598,1.005124807
52.889267,-8.765144348,-6.996864319,-3.157363892,-0.137485594,-0.025752075,1.011594534
52.889894,-8.742256165,-7.241004944,-3.004776001,-0.138950437,-0.029902466,1.007077932
52.890519,-8.688850403,-7.164710999,-3.195510864,-0.139560789,-0.030512817,1.009031057
52.891145,-8.536262512,-7.126564026,-3.088699341,-0.142368406,-0.032465942,1.005613089
52.891770,-8.597297668,-7.088417053,-3.119216919,-0.147495359,-0.031367309,1.004758596
52.892396,-8.871955872,-7.134193420,-3.004776001,-0.152256101,-0.037714966,0.999631643
52.893031,-8.864326477,-7.179969788,-3.149734497,-0.152500242,-0.036005981,0.999509573
52.893657,-8.650703430,-7.256263733,-3.157363892,-0.153476804,-0.042841919,0.996091604
52.894282,-8.726997375,-7.424110413,-3.119216919,-0.153476804,-0.045649536,0.994504690
52.894908,-8.734626770,-7.561439514,-3.142105103,-0.150302976,-0.051875122,0.993772268
52.895533,-8.711738586,-7.477516174,-3.149734497,-0.144687742,-0.052485473,0.998288870
52.896158,-8.772773743,-7.424110413,-2.936111450,-0.149692625,-0.055537231,0.994992971
52.896784,-8.551521301,-7.393592834,-2.951370239,-0.152988523,-0.053828247,0.995725393
52.897409,-8.650703430,-7.607215881,-2.844558716,-0.155307859,-0.058222778,0.991941214
52.899188,-8.795661926,-7.904762268,-2.753005981,-0.148471922,-0.064692505,0.984250784
52.899813,-8.887214661,-8.347267151,-2.630935669,-0.150913328,-0.069697388,0.982663870
52.900440,-8.871955872,-8.255714417,-2.653823853,-0.145664304,-0.073237427,0.982053518
52.901067,-8.994026184,-8.225196838,-2.508865356,-0.147373289,-0.074946411,0.979978323
52.901692,-8.734626770,-8.339637756,-2.455459595,-0.148471922,-0.077876098,0.971677542
52.902317,-8.772773743,-8.599037170,-2.379165649,-0.146030515,-0.076289184,0.972287893
52.902942,-8.818550110,-8.721107483,-2.432571411,-0.150547117,-0.083613403,0.971433401
52.903568,-8.879585266,-8.850807190,-2.089248657,-0.148105711,-0.086421020,0.972409964
52.904195,-9.100837708,-8.965248108,-2.264724731,-0.147617429,-0.089472778,0.972532034
52.904821,-8.932991028,-9.163612366,-1.997695923,-0.144077390,-0.089106567,0.972043753
52.905448,-9.001655579,-9.194129944,-1.921401978,-0.143467039,-0.095210083,0.970090628
52.906074,-9.077949524,-9.079689026,-1.967178345,-0.145298094,-0.098139770,0.975827932
52.906699,-9.077949524,-9.255165100,-1.608596802,-0.142124265,-0.099360473,0.980588675
52.907324,-9.047431946,-9.392494202,-1.486526489,-0.142978758,-0.104487427,0.976438284
52.907949,-8.986396790,-9.407752991,-1.463638306,-0.144809812,-0.104487427,0.979123831
52.908574,-9.245796204,-9.529823303,-1.280532837,-0.150302976,-0.109004028,0.978513479
52.909199,-9.154243469,-9.629005432,-1.059280396,-0.146396726,-0.110957153,0.983884573
52.923093,-13.014717102,-9.407752991,1.435531616,-0.132480711,-0.112177856,0.989133596
52.923831,-13.007087708,-9.270423889,1.626266479,-0.140049070,-0.110346802,0.984372854
52.924456,-13.464851379,-9.392494202,1.878036499,-0.137485594,-0.104243286,0.986203909
52.925082,-13.846321106,-9.461158752,1.649154663,-0.137485594,-0.103022583,0.987058401
52.925707,-14.082832336,-9.361976624,1.847518921,-0.133457273,-0.103877075,0.991575003
52.926333,-14.166755676,-9.453529358,2.030624390,-0.131992429,-0.099238403,0.994748831
52.926959,-14.510078430,-9.491676331,1.908554077,-0.138584226,-0.097529419,0.989133596
52.927585,-14.883918762,-9.285682678,2.091659546,-0.139804929,-0.097163208,0.982785940
52.928211,-14.944953918,-9.346717834,2.099288940,-0.138706297,-0.093134888,0.986081839
52.928836,-15.265388489,-9.438270569,2.297653198,-0.138218015,-0.093012817,0.987180471
52.929461,-15.303535461,-9.629005432,2.167953491,-0.138095945,-0.089472778,0.985471487
52.930087,-15.791816711,-9.331459045,2.358688354,-0.139682859,-0.085322388,0.981443167
52.930713,-16.234321594,-9.400123596,2.343429565,-0.135654539,-0.083735473,0.987302542
52.931338,-16.333503723,-9.377235413,2.290023804,-0.134922117,-0.078120239,0.999265432
52.931963,-16.531867981,-9.392494202,2.473129272,-0.130649656,-0.073847778,1.002683401
52.932588,-16.867561340,-9.690040588,2.541793823,-0.136997312,-0.068354614,0.996946096
52.933214,-17.317695618,-9.316200256,2.320541382,-0.137119383,-0.067378052,1.001340628
52.933839,-17.432136536,-9.392494202,2.434982300,-0.129551023,-0.064814575,1.006467581
52.934466,-17.905158997,-9.262794495,2.534164429,-0.127842039,-0.063471802,1.006101370
52.935092,-18.027229309,-9.262794495,2.534164429,-0.127719969,-0.062251098,1.006955862
52.935718,-18.507881165,-9.110206604,2.473129272,-0.129428953,-0.065058716,0.996824026
52.936344,-18.652839661,-9.194129944,2.473129272,-0.134433836,-0.067500122,0.987790823
52.936971,-18.935127258,-9.140724182,2.488388062,-0.129551023,-0.067255981,0.987180471
52.937596,-18.896980286,-9.110206604,2.389205933,-0.128696531,-0.070918091,0.985105276
52.938221,-18.980903625,-9.331459045,2.503646851,-0.132236570,-0.069575317,0.971921682
52.938846,-19.019050598,-9.476417542,2.473129272,-0.134067625,-0.076411255,0.957883596
52.939472,-19.141120911,-9.888404846,2.366317749,-0.140049070,-0.072749145,0.962156057
52.940099,-19.110603333,-9.720558167,2.473129272,-0.124546140,-0.076289184,0.960691214
52.940725,-18.881721497,-9.819740295,2.496017456,-0.121982664,-0.079951294,0.960447073
52.941351,-18.820686340,-9.766334534,2.572311401,-0.127353758,-0.081538208,0.957761526
52.943148,-18.431587219,-10.346168518,2.450241089,-0.137363523,-0.078486450,0.948606253
52.943773,-18.507881165,-10.521644592,2.557052612,-0.129795164,-0.075678833,0.948606253
52.944398,-18.362922668,-10.559791565,2.549423218,-0.132114500,-0.077021606,0.947019339
52.945029,-18.141670227,-10.521644592,2.373947144,-0.129551023,-0.083613403,0.952756643
52.945654,-18.271369934,-10.819190979,2.663864136,-0.132602781,-0.082880981,0.945432425
52.946280,-18.347663879,-10.788673401,2.541793823,-0.138095945,-0.079951294,0.945066214
52.946907,-18.134040833,-10.926002502,2.534164429,-0.135898679,-0.077876098,0.949216604
52.947533,-18.248481750,-11.154884338,2.648605347,-0.132968992,-0.075190552,0.947263479
52.948158,-18.073005676,-11.345619202,2.526535034,-0.134067625,-0.079340942,0.945310354
52.948783,-18.149299622,-11.307472229,2.465499878,-0.126621336,-0.074580200,0.946286917
52.949408,-18.141670227,-11.063331604,2.488388062,-0.125766844,-0.075068481,0.953366995
52.950034,-17.783088684,-11.444801331,2.625717163,-0.124424070,-0.077265747,0.952024221
52.950661,-17.683906555,-11.482948303,2.755416870,-0.126743406,-0.074946411,0.953244925
52.951287,-17.729682922,-11.543983459,2.702011108,-0.124057859,-0.073359497,0.954953909
52.951912,-17.424507141,-11.551612854,2.648605347,-0.113681883,-0.072016723,0.963376760
52.952538,-17.424507141,-11.666053772,2.686752319,-0.117466062,-0.073847778,0.964597464
52.953164,-17.180366516,-11.620277405,2.953781128,-0.121006101,-0.075800903,0.968015432
52.966990,-14.136238098,-9.979957581,2.358688354,-0.096103758,-0.060908325,1.012571096
52.967720,-14.059944153,-10.132545471,2.557052612,-0.105503172,-0.061152466,1.013791800
52.968345,-13.899726868,-9.934181213,2.434982300,-0.102817625,-0.059077270,1.010984182
52.968970,-13.693733215,-9.781593323,2.480758667,-0.099765867,-0.057124145,1.016111135
52.969596,-13.686103821,-9.766334534,2.602828979,-0.094394773,-0.062006958,1.018186331
52.970223,-13.449592590,-9.438270569,2.335800171,-0.089267820,-0.060786255,1.021116018
52.970848,-13.098640442,-9.155982971,2.305282593,-0.092319578,-0.062739380,1.021360159
52.971474,-12.511177063,-9.232276917,2.389205933,-0.098545164,-0.063593872,1.012326956
52.972101,-12.549324036,-8.980506897,2.259506226,-0.103061765,-0.060542114,1.014280081
52.972726,-12.465400696,-8.942359924,2.137435913,-0.102451414,-0.060664184,1.017331839
52.973352,-11.938972473,-8.881324768,2.206100464,-0.099399656,-0.062251098,1.014280081
52.973978,-11.435432434,-8.934730530,2.167953491,-0.097568601,-0.063838013,1.014890432
52.974604,-11.588020325,-8.606666565,1.824630737,-0.098911375,-0.065302856,1.011716604
52.975229,-11.305732727,-8.721107483,2.053512573,-0.099643797,-0.063593872,1.011106253
52.975854,-10.840339661,-8.370155334,2.106918335,-0.099399656,-0.059443481,1.009275198
52.976480,-10.573310852,-8.339637756,1.755966187,-0.103550047,-0.056513794,1.006955862
52.977106,-10.344429016,-8.133644104,1.916183472,-0.104404539,-0.055659302,1.005124807
52.977732,-10.168952942,-8.240455627,2.061141968,-0.106845945,-0.055659302,1.002439260
52.978357,-9.741706848,-8.232826233,1.786483765,-0.104282469,-0.054804809,0.999265432
52.978983,-9.543342590,-8.202308655,1.939071655,-0.107090086,-0.053339966,0.994016409
52.979608,-9.413642883,-8.049720764,1.908554077,-0.105014890,-0.049677856,0.997312307
52.980235,-9.100837708,-8.110755920,1.679672241,-0.106479734,-0.051630981,0.991330862
52.980862,-8.749885559,-8.225196838,1.786483765,-0.108554929,-0.051753052,0.988401175
52.981488,-8.597297668,-8.225196838,1.778854370,-0.113071531,-0.052973755,0.984250784
52.982114,-8.406562805,-8.454078674,1.618637085,-0.113926023,-0.049921997,0.982053518
52.982740,-8.101387024,-8.171791077,1.694931030,-0.112705320,-0.054926880,0.979123831
52.983367,-7.887763977,-8.408302307,1.710189819,-0.117588133,-0.056757934,0.975461721
52.983993,-7.681770325,-8.400672913,1.549972534,-0.112339109,-0.053584106,0.975339651
52.984618,-7.567329407,-8.423561096,1.672042847,-0.111850828,-0.054926880,0.974607229
52.985243,-6.995124817,-8.667701721,1.603378296,-0.114780515,-0.056757934,0.969846487
52.987031,-6.529731750,-8.499855042,1.435531616,-0.119907469,-0.060053833,0.966672659
52.987657,-6.438179016,-8.827919006,1.405014038,-0.120029539,-0.058222778,0.965574026
52.988282,-6.209297180,-9.148353577,1.328720093,-0.122348875,-0.057612427,0.963010550
52.988909,-6.079597473,-9.262794495,1.427902222,-0.120639890,-0.058222778,0.963987112
52.989535,-5.789680481,-9.148353577,1.405014038,-0.116001219,-0.060297973,0.964109182
52.990160,-5.835456848,-9.194129944,1.328720093,-0.116489500,-0.064936645,0.970090628
52.990787,-5.515022278,-9.148353577,1.443161011,-0.118808836,-0.065913208,0.969114065
52.991414,-5.270881653,-9.331459045,1.481307983,-0.121738523,-0.068964966,0.966306448
52.992040,-5.171699524,-9.476417542,1.290573120,-0.122104734,-0.068964966,0.969480276
52.992666,-4.889411926,-9.651893616,1.221908569,-0.118930906,-0.070063598,0.969846487
52.993293,-4.858894348,-9.247535706,1.260055542,-0.122348875,-0.072382934,0.970700979
52.993918,-4.607124329,-9.415382385,1.160873413,-0.120151609,-0.074458130,0.973752737
52.994545,-4.347724915,-9.392494202,1.214279175,-0.114292234,-0.077265747,0.979123831
52.995170,-4.286689758,-9.392494202,1.313461304,-0.113803953,-0.077143677,0.980710745
52.995796,-4.019660950,-9.438270569,1.221908569,-0.112583250,-0.077509888,0.979001760
52.996422,-3.928108215,-9.606117249,1.092208862,-0.112705320,-0.079951294,0.979490042
52.997049,-3.867073059,-9.514564514,1.305831909,-0.111362547,-0.078852661,0.979978323
53.010909,-0.212593079,-8.385414124,2.061141968,-0.094883054,-0.119746216,0.959836721
53.011647,-0.311775208,-8.530372620,2.198471069,-0.104282469,-0.126582161,0.961057425
53.012272,-0.189704895,-8.530372620,2.213729858,-0.100864500,-0.124384888,0.962278128
53.012898,0.115470886,-8.705848694,2.419723511,-0.101474851,-0.126215950,0.966672659
53.013525,-0.113410950,-8.766883850,2.526535034,-0.106845945,-0.125605598,0.974973440
53.014150,-0.037117004,-8.843177795,2.434982300,-0.105259031,-0.128657356,0.968625784
53.014777,-0.128669739,-8.682960510,2.854598999,-0.103794187,-0.129267707,0.971799612
53.015403,-0.121040344,-8.713478088,2.923263550,-0.105259031,-0.133784309,0.962033987
53.016030,-0.029487610,-8.652442932,2.961410522,-0.112094969,-0.132807747,0.961789846
53.016656,0.138359070,-8.782142639,2.953781128,-0.106113523,-0.134882942,0.970823050
53.017281,-0.060005188,-8.682960510,3.213180542,-0.112461179,-0.129267707,0.971067190
53.017906,-0.082893372,-8.591407776,3.510726929,-0.109165281,-0.131342903,0.978269339
53.018532,-0.449104309,-8.599037170,3.434432983,-0.107456297,-0.134150520,0.979245901
53.019157,-0.502510071,-8.660072327,3.571762085,-0.111728758,-0.134394661,0.982663870
53.019782,-0.494880676,-8.660072327,3.678573608,-0.108799070,-0.142695442,0.992429495
53.020407,-0.235481262,-8.873695374,3.815902710,-0.109043211,-0.133662239,1.005246878
53.021034,-0.555915833,-8.812660217,3.838790894,-0.104648679,-0.130122200,1.006955862
53.021659,-0.647468567,-8.370155334,4.037155151,-0.113193601,-0.134394661,0.998899221
53.022284,-0.883979797,-8.446449280,4.044784546,-0.105625242,-0.138911262,0.995481253
53.022910,-0.853462219,-8.743995667,4.418624878,-0.111240476,-0.136103645,1.004758596
53.023536,-0.891609192,-8.293861389,4.349960327,-0.111728758,-0.127680793,1.041379690
53.024162,-0.990791321,-8.911842346,4.586471558,-0.121738523,-0.123530395,1.084958792
53.024788,-1.051826477,-8.286231995,4.426254272,-0.091709226,-0.109858520,1.126584768
53.025414,-1.326484680,-7.851356506,4.433883667,-0.092319578,-0.111689575,1.130979300
53.026039,-1.158638000,-7.218116760,4.464401245,-0.081699461,-0.129878059,1.152341604
53.026664,-1.128120422,-6.294960022,4.906906128,-0.064243406,-0.125971809,1.114621878
53.027290,-1.151008606,-5.486244202,4.693283081,-0.091343015,-0.110957153,1.067136526
53.027915,-1.814765930,-5.348915100,4.822982788,-0.096103758,-0.127192512,0.991819143
53.028542,-2.013130188,-5.409950256,5.074752808,-0.105625242,-0.124751098,0.968259573
53.029168,-2.577705383,-5.600685120,5.242599487,-0.121128172,-0.129267707,0.942380667
53.030968,-3.767890930,-7.347816467,5.555404663,-0.122593015,-0.113032348,0.923093557
53.031593,-4.279060364,-7.500404358,5.494369507,-0.110630125,-0.109248169,0.936765432
53.032219,-4.439277649,-7.836097717,5.608810425,-0.101352781,-0.107905395,0.944577932
53.032845,-4.851264954,-7.752174377,5.486740112,-0.096958250,-0.104609497,0.943479300
53.033472,-4.881782532,-7.195228577,5.601181030,-0.103427976,-0.108271606,0.927366018
53.034099,-5.156440735,-7.378334045,5.654586792,-0.102695554,-0.113154419,0.924924612
53.034726,-5.392951965,-7.439369202,5.715621948,-0.108677000,-0.117671020,0.912351370
53.035351,-5.217475891,-7.729286194,5.944503784,-0.121006101,-0.113520630,0.906491995
53.035976,-5.804939270,-7.828468323,5.868209839,-0.121616453,-0.114375122,0.904172659
53.036601,-6.094856262,-8.156532288,6.051315308,-0.125156492,-0.116572388,0.907712698
53.037228,-6.155891418,-8.415931702,6.089462280,-0.119785398,-0.115595825,0.918699026
53.037854,-6.453437805,-8.705848694,6.104721069,-0.118686765,-0.121211059,0.919431448
53.038479,-6.628913879,-8.919471741,6.356491089,-0.114048094,-0.114741333,0.924680471
53.039104,-6.895942688,-8.934730530,6.181015015,-0.113193601,-0.115229614,0.932737112
53.039731,-7.117195129,-8.888954163,6.280197144,-0.109897703,-0.109736450,0.934934378
53.040357,-7.246894836,-8.934730530,6.356491089,-0.112705320,-0.122309692,0.939450979
53.040982,-7.414741516,-8.820289612,6.493820190,-0.112217039,-0.118403442,0.936399221
53.041608,-7.330818176,-8.957618713,6.425155640,-0.110385984,-0.125361457,0.936277151
53.055412,-10.672492981,-8.873695374,6.661666870,-0.102939695,-0.079585083,1.025144339
53.056127,-10.321540833,-8.591407776,6.417526245,-0.092075437,-0.088618286,1.028928518
53.056752,-9.909553528,-8.354896545,6.409896851,-0.106968015,-0.087885864,1.026120901
53.057378,-9.619636536,-8.148902893,6.379379272,-0.105014890,-0.077265747,1.035154104
53.058003,-9.406013489,-8.179420471,6.287826538,-0.109043211,-0.076411255,1.042600393
53.058630,-9.329719543,-7.973426819,6.181015015,-0.103305906,-0.074702270,1.051145315
53.059257,-9.215278625,-7.920021057,5.944503784,-0.105869383,-0.066889770,1.064206839
53.059882,-8.643074036,-7.797950745,5.852951050,-0.099887937,-0.067011841,1.066037893
53.060509,-8.498115540,-7.324928284,5.769027710,-0.101230711,-0.058466919,1.069700003
53.061136,-8.620185852,-7.179969788,5.570663452,-0.101841062,-0.054682739,1.073606253
53.061761,-8.322639465,-6.737464905,5.479110718,-0.098667234,-0.044184692,1.083493948
53.062388,-8.078498840,-6.638282776,5.501998901,-0.094760984,-0.047602661,1.087644339
53.063014,-8.131904602,-6.348365784,5.349411011,-0.099399656,-0.040766723,1.083982229
53.063640,-7.826728821,-5.890602112,5.303634644,-0.103305906,-0.045039184,1.086545706
53.064265,-7.880134583,-5.532020569,4.945053101,-0.099399656,-0.037959106,1.088865042
53.064892,-7.498664856,-5.532020569,5.044235229,-0.098789304,-0.042109497,1.089231253
53.065517,-7.590217590,-5.074256897,5.044235229,-0.100620359,-0.038569458,1.094236135
53.066144,-7.681770325,-4.563087463,4.594100952,-0.099521726,-0.038325317,1.097654104
53.066771,-7.368965149,-4.708045959,4.739059448,-0.102817625,-0.036860473,1.099485159
53.067396,-7.491035461,-4.090065002,4.609359741,-0.100132078,-0.036005981,1.100461721
53.068031,-7.307929993,-3.830665588,4.166854858,-0.100986570,-0.037714966,1.101560354
53.068657,-7.239265442,-3.845924377,4.258407593,-0.096225828,-0.032832153,1.105588675
53.069282,-7.239265442,-3.388160706,4.166854858,-0.101718992,-0.033930786,1.103635550
53.069908,-7.315559387,-3.266090393,3.640426636,-0.099155515,-0.040766723,1.103391409
53.070534,-7.010383606,-3.159278870,3.854049683,-0.101963133,-0.040888794,1.097165823
53.071161,-6.979866028,-2.762550354,3.731979370,-0.102329344,-0.042841919,1.100217581
53.071788,-6.819648743,-2.770179749,3.564132690,-0.101352781,-0.043818481,1.098508596
53.072415,-6.804389954,-2.465003967,3.442062378,-0.104038328,-0.048945434,1.098020315
53.073042,-6.819648743,-2.121681213,3.342880249,-0.107700437,-0.048701294,1.094480276
53.073668,-6.606025696,-1.961463928,3.167404175,-0.107944578,-0.048213013,1.092160940
53.075497,-6.369514465,-1.518959045,2.869857788,-0.107944578,-0.051264770,1.092160940
53.076124,-6.384773254,-1.099342346,2.686752319,-0.110752195,-0.050654419,1.084836721
53.076750,-6.270332336,-1.198524475,2.793563843,-0.113559812,-0.051142700,1.075315237
53.077377,-6.171150208,-1.229042053,2.373947144,-0.114780515,-0.057490356,1.071531057
53.078004,-6.346626282,-0.870460510,2.305282593,-0.112705320,-0.058344848,1.069577932
53.078629,-6.277961731,-0.946754456,2.198471069,-0.114414304,-0.063838013,1.065671682
53.079254,-6.232185364,-0.962013245,2.183212280,-0.116001219,-0.067744263,1.059079885
53.079881,-6.338996887,-0.748390198,2.167953491,-0.116245359,-0.069697388,1.051023245
53.080507,-6.232185364,-0.900978088,1.946701050,-0.115268797,-0.071406372,1.049802542
53.081132,-6.071968079,-0.710243225,2.000106812,-0.117466062,-0.074213989,1.048948050
53.081759,-5.911750793,-0.649208069,1.977218628,-0.114902586,-0.075434692,1.050168753
53.082385,-5.995674133,-0.687355042,2.022994995,-0.116367429,-0.079829223,1.047727346
53.083011,-6.018562317,-0.481361389,1.847518921,-0.115268797,-0.081660278,1.043821096
53.083637,-6.110115051,-0.450843811,1.717819214,-0.121982664,-0.084467895,1.038938284
53.084262,-5.827827454,-0.313514709,1.954330444,-0.119297117,-0.083979614,1.043088675
53.084887,-6.018562317,-0.328773499,2.007736206,-0.119541258,-0.086909302,1.036008596
53.085512,-6.064338684,-0.572914124,1.755966187,-0.122593015,-0.086054809,1.032102346
53.086137,-6.148262024,-0.412696838,1.832260132,-0.122470945,-0.086421020,1.029172659
53.100033,-6.789131165,0.334983826,3.045333862,-0.099521726,-0.113642700,1.044919729
53.100786,-6.796760559,0.617271423,2.824081421,-0.099887937,-0.108149536,1.041990042
53.101411,-6.956977844,0.830894470,3.236068726,-0.104282469,-0.102900513,1.040281057
53.102037,-6.949348450,0.952964783,3.113998413,-0.097446531,-0.098750122,1.048215628
53.102663,-7.010383606,0.884300232,3.197921753,-0.096958250,-0.095942505,1.054075003
53.103288,-7.056159973,1.311546326,3.045333862,-0.095615476,-0.096308716,1.060422659
53.103913,-7.101936340,1.479393005,3.205551147,-0.099155515,-0.092646606,1.061277151
53.104538,-7.208747864,1.654869080,3.129257202,-0.091953367,-0.090571411,1.074949026
53.105163,-7.437629700,1.631980896,3.258956909,-0.096592039,-0.081171997,1.093869925
53.105788,-7.437629700,1.860862732,3.144515991,-0.085849851,-0.081294067,1.140256643
53.106413,-6.918830872,2.089744568,3.106369019,-0.089267820,-0.079585083,1.226682425
53.107039,-6.346626282,2.265220642,3.075851440,-0.045078371,-0.077876098,1.386472464
53.107664,-5.385322571,3.173118591,3.014816284,-0.049106691,-0.051753052,1.522825003
53.108289,-4.721565247,5.706077576,2.579940796,0.012905028,-0.035273559,1.524289846
53.108914,-4.202766418,7.376914978,2.175582886,-0.017124269,-0.043818481,1.525998831
53.109541,-3.149909973,9.322410583,2.267135620,0.036708739,-0.072382934,1.579709768
53.110167,-2.180976868,12.046104431,2.053512573,0.004482176,-0.050654419,1.516843557
53.110793,-1.288337708,13.571983337,1.954330444,-0.031528566,-0.062617309,1.499143362
53.111419,-1.173896790,15.609031677,1.817001343,-0.017978761,-0.053217895,1.315549612
53.112045,-1.593513489,15.258079529,1.954330444,-0.121372312,-0.053950317,1.254636526
53.112672,-1.105232239,15.296226501,2.022994995,-0.061435793,-0.101313598,1.318113089
53.113298,0.336723328,14.975791931,1.832260132,-0.049839113,-0.063593872,1.397092581
53.113925,-0.014228821,16.272789001,1.237167358,-0.081333250,-0.052973755,1.250974417
53.114550,0.016288757,16.478782654,1.137985229,-0.078037351,-0.023798950,1.137571096
53.115177,-0.868721008,16.890769958,1.641525269,-0.082065672,-0.045527466,1.012082815
53.115803,-0.990791321,17.028099060,1.824630737,-0.077549070,-0.020380981,0.991575003
53.116428,-1.768989563,17.035728455,1.435531616,-0.140049070,-0.021601684,0.865110159
53.117055,-2.478523254,16.509300232,1.488937378,-0.175815672,-0.008296020,0.730466604
53.117681,-3.302497864,14.540916443,1.649154663,-0.212558836,-0.009272583,0.727048635
53.118308,-3.905220032,12.961631775,1.588119507,-0.173862547,-0.004023559,0.756955862
53.120095,-5.255622864,10.329490662,1.282943726,-0.164463133,-0.004389770,0.714109182
53.120721,-5.324287415,9.841209412,1.351608276,-0.168247312,-0.007197388,0.743894339
53.127901,-3.714485168,1.631980896,1.099838257,-0.144687742,-0.094477661,0.774656057
53.128528,-3.279609680,0.907188416,1.130355835,-0.134067625,-0.092890747,0.795285940
53.129155,-2.898139954,0.617271423,0.741256714,-0.121982664,-0.090449341,0.819089651
53.129780,-2.448005676,0.083213806,1.054061890,-0.112705320,-0.099238403,0.853635550
53.130405,-1.921577454,-0.130409241,1.328720093,-0.100132078,-0.100092895,0.867795706
53.131032,-1.395149231,-0.336402893,0.901473999,-0.095859617,-0.093012817,0.890012503
53.131659,-0.967903137,-0.656837463,1.031173706,-0.090610594,-0.090205200,0.907468557
53.132285,-0.708503723,-0.832313538,0.954879761,-0.081455320,-0.090937622,0.936033010
53.132912,-0.327033997,-0.817054749,0.924362183,-0.077427000,-0.092402466,0.959836721
53.133537,0.001029968,-1.038307190,1.069320679,-0.058139894,-0.086787231,1.031614065
53.134164,0.153617859,-0.611061096,1.008285522,-0.042881105,-0.075922973,1.118528128
53.134789,0.603752136,-0.046485901,0.886215210,-0.034092043,-0.068842895,1.178708792
53.135414,0.626640320,0.876670837,0.619186401,-0.010166261,-0.052119263,1.205808401
53.136039,0.145988464,1.883750916,0.756515503,-0.011753175,-0.046504028,1.191770315
53.136664,-0.426216125,3.157859802,1.176132202,-0.027988527,-0.044550903,1.148069143
53.137291,-0.700874329,3.630882263,0.962509155,-0.012851808,-0.045649536,1.168576956
53.151183,-13.297004700,0.396018982,0.169052124,-0.168613523,-0.037348755,0.991819143
53.151916,-12.946052551,0.396018982,-0.242935181,-0.101596922,-0.024409302,1.028074026
53.152543,-12.396736145,0.426536560,-0.601516724,-0.163852781,-0.032710083,1.100095510
53.153169,-13.914985657,3.661399841,-0.761734009,-0.031772707,0.099736206,0.801633596
53.153796,-16.417427063,2.143150330,-1.051651001,-0.180820554,0.066044800,0.657224417
53.154422,-17.615242004,2.433067322,-0.334487915,-0.067539304,-0.057490356,0.614377737
53.155048,-16.974372864,1.387840271,0.008834839,-0.183017820,-0.057490356,0.573850393
53.155674,-17.813606262,-0.710243225,-0.387893677,-0.233432859,-0.081782348,0.548825979
53.156299,-18.286628723,-3.395790100,-0.410781860,-0.214511961,-0.051875122,0.518918753
53.156926,-19.301338196,-5.806678772,0.100387573,-0.202060789,-0.074336059,0.597776175
53.157551,-19.690437317,-7.515663147,-0.120864868,-0.145664304,-0.080073364,0.677976370
53.158176,-19.698066711,-8.339637756,-0.174270630,-0.121006101,-0.103877075,0.707761526
53.158802,-19.301338196,-8.179420471,-0.029312134,-0.100742429,-0.093134888,0.727536917
53.159429,-18.752021790,-8.255714417,-0.014053345,-0.101596922,-0.094355591,0.762449026
53.160055,-18.858833313,-8.171791077,-0.082717896,-0.091709226,-0.082148559,0.793821096
53.160681,-18.729133606,-8.240455627,-0.166641235,-0.104892820,-0.079585083,0.800657034
53.161307,-19.308967590,-8.476966858,-0.426040649,-0.115146726,-0.088618286,0.796628714
53.161934,-18.858833313,-8.972877502,-0.380264282,-0.118686765,-0.105219848,0.809079885
53.162560,-18.782539368,-9.590858459,-0.303970337,-0.116733640,-0.110713013,0.829465628
53.163187,-19.232673645,-10.208839417,-0.113235474,-0.109653562,-0.114619263,0.848996878
53.163813,-19.759101868,-10.636085510,0.054611206,-0.102573484,-0.118403442,0.869016409
53.164439,-19.690437317,-10.872596741,0.184310913,-0.088535398,-0.123286255,0.884641409
53.165065,-20.003242493,-10.926002502,0.382675171,-0.083774656,-0.114497192,0.901242971
53.165692,-20.399971008,-11.002296448,0.603927612,-0.082676023,-0.113886841,0.909299612
53.166317,-20.468635559,-10.933631897,0.756515503,-0.089756101,-0.113520630,0.908567190
53.166944,-20.483894348,-11.368507385,0.725997925,-0.093784422,-0.118525513,0.902341604
53.167571,-20.476264954,-11.460060120,0.771774292,-0.089145750,-0.112299927,0.910398245
53.168196,-20.453376770,-11.872047424,0.985397339,-0.081943601,-0.109004028,0.922727346
53.168822,-20.338935852,-11.749977112,0.794662476,-0.084751219,-0.112299927,0.936277151
53.169447,-20.049018860,-11.513465881,0.954879761,-0.073886961,-0.111445434,0.944089651
53.171230,-20.430488586,-11.284584045,1.099838257,-0.086826414,-0.101923950,0.978757620
53.171857,-20.461006165,-11.246437073,1.275314331,-0.087802976,-0.094477661,0.988645315
53.172482,-20.956916809,-11.498207092,1.473678589,-0.093784422,-0.087275513,0.991086721
53.173107,-21.239204407,-11.238807678,1.488937378,-0.098301023,-0.090815552,0.989743948
53.173734,-21.056098938,-11.421913147,1.488937378,-0.102573484,-0.097651489,0.982785940
53.174359,-20.728034973,-11.681312561,1.580490112,-0.105747312,-0.099238403,0.976804495
53.174986,-20.445747375,-11.635536194,1.458419800,-0.101230711,-0.097041138,0.981809378
53.175612,-20.010871887,-11.650794983,1.633895874,-0.102451414,-0.096186645,0.987058401
53.176237,-19.843025208,-11.582130432,1.511825562,-0.104648679,-0.089961059,0.991941214
53.176862,-19.812507629,-11.475318909,1.656784058,-0.108188719,-0.089106567,0.998166800
53.177489,-19.446296692,-11.437171936,1.641525269,-0.112827390,-0.083735473,1.004026175
53.178115,-19.164009094,-11.391395569,1.809371948,-0.118076414,-0.086543091,1.012449026
53.178741,-19.217414856,-11.330360413,1.794113159,-0.121982664,-0.083857544,1.016965628
53.179366,-18.790168762,-11.154884338,1.572860718,-0.120151609,-0.077387817,1.018674612
53.179992,-18.706245422,-11.383766174,1.900924683,-0.125156492,-0.081294067,1.021848440
53.180617,-18.431587219,-11.009925842,1.870407104,-0.129795164,-0.083491333,1.014646292
53.194544,-7.544441223,-10.842079163,1.710189819,-0.115635008,-0.066157348,1.075681448
53.195317,-7.246894836,-10.872596741,1.710189819,-0.127231687,-0.064448364,1.074094534
53.195943,-6.812019348,-10.933631897,1.565231323,-0.121372312,-0.066401489,1.078611135
53.196568,-6.567878723,-10.620826721,1.466049194,-0.115146726,-0.066767700,1.077634573
53.197195,-6.224555969,-10.430091858,1.496566772,-0.116123289,-0.058466919,1.064817190
53.197822,-6.155891418,-10.330909729,1.336349487,-0.107944578,-0.059687622,1.064939260
53.198447,-5.721015930,-10.178321838,1.412643433,-0.119175047,-0.066889770,1.066282034
53.199072,-5.362434387,-9.903663635,1.092208862,-0.116123289,-0.053095825,1.063962698
53.199697,-5.125923157,-9.758705139,1.237167358,-0.118076414,-0.061030395,1.062619925
53.200323,-4.774971008,-9.712928772,1.389755249,-0.123081297,-0.053339966,1.061765432
53.200948,-4.492683411,-9.529823303,1.206649780,-0.118930906,-0.055903442,1.065427542
53.201573,-4.134101868,-9.705299377,1.267684937,-0.122470945,-0.049799927,1.069700003
53.202199,-4.240913391,-9.369606018,1.099838257,-0.119175047,-0.051142700,1.067991018
53.202825,-4.050178528,-9.148353577,0.970138550,-0.122593015,-0.048701294,1.068357229
53.203451,-3.653450012,-9.186500549,0.931991577,-0.122104734,-0.046137817,1.063962698
53.204076,-3.699226379,-9.194129944,0.931991577,-0.131137937,-0.038325317,1.057859182
53.204703,-3.676338196,-9.255165100,0.703109741,-0.128574461,-0.032954223,1.049558401
53.205328,-3.462715149,-9.094947815,0.512374878,-0.131992429,-0.028925903,1.045408010
53.205953,-3.416938782,-9.079689026,0.588668823,-0.134067625,-0.024653442,1.045163870
53.206578,-3.508491516,-9.262794495,0.550521851,-0.131504148,-0.029292114,1.046628714
53.207204,-3.607673645,-9.026283264,0.405563354,-0.121738523,-0.030512817,1.050412893
53.207829,-3.645820618,-8.965248108,0.298751831,-0.138218015,-0.027705200,1.053220510
53.208455,-3.714485168,-8.927101135,0.390304565,-0.131137937,-0.030879028,1.049070120
53.209081,-3.897590637,-8.805030823,0.123275757,-0.142124265,-0.019160278,1.053342581
53.209707,-4.317207336,-8.866065979,0.046981812,-0.142246336,-0.020625122,1.052854300
53.210334,-4.607124329,-8.827919006,-0.105606079,-0.141269773,-0.020136841,1.047361135
53.210960,-4.637641907,-9.110206604,-0.265823364,-0.145420164,-0.020991333,1.040403128
53.211585,-4.958076477,-8.820289612,-0.380264282,-0.140659422,-0.022456177,1.036985159
53.212212,-5.003852844,-9.148353577,-0.532852173,-0.141269773,-0.022456177,1.032956839
53.212837,-5.278511047,-9.079689026,-0.487075806,-0.141025633,-0.018305786,1.030393362
53.214647,-6.194038391,-9.133094788,-0.845657349,-0.147251219,-0.016718872,1.018186331
53.215274,-6.644172668,-9.110206604,-0.929580688,-0.147129148,-0.016352661,1.022580862
53.215901,-7.018013000,-9.308570862,-1.028762817,-0.140049070,-0.019526489,1.024289846
53.216527,-7.567329407,-9.262794495,-1.097427368,-0.143955320,-0.013422973,1.026365042
53.217152,-8.223457336,-9.133094788,-1.280532837,-0.146762937,-0.006220825,1.015012503
53.217777,-8.635444641,-9.430641174,-1.288162231,-0.144809812,-0.002802856,1.010862112
53.218403,-9.421272278,-9.354347229,-1.524673462,-0.143711179,-0.007075317,1.009763479
53.219030,-9.810371399,-9.606117249,-1.761184692,-0.137241453,-0.008296020,1.017820120
53.219656,-10.565681458,-9.461158752,-1.845108032,-0.135166258,-0.002436646,1.016599417
53.220283,-11.221809387,-9.545082092,-1.799331665,-0.130161375,-0.001215942,1.012204885
53.220908,-12.015266418,-9.323829651,-1.982437134,-0.128208250,-0.002314575,1.013303518
53.221535,-12.724800110,-9.278053284,-2.081619263,-0.125888914,-0.003169067,1.016477346
53.222160,-13.670845032,-9.239906311,-2.440200806,-0.124912351,-0.002802856,1.018552542
53.222786,-14.471931458,-9.171241760,-2.135025024,-0.126377195,-0.007319458,1.015256643
53.223413,-14.967842102,-9.171241760,-2.440200806,-0.124302000,-0.004145630,1.015866995
53.224039,-15.944404602,-9.293312073,-2.623306274,-0.124424070,-0.007563598,1.017820120
53.224665,-16.859931946,-9.247535706,-2.768264771,-0.125644773,-0.015986450,1.014768362
53.225290,-17.432136536,-9.430641174,-2.958999634,-0.129551023,-0.022456177,1.007444143
53.239472,-28.830451965,-10.964149475,-4.004226685,-0.117588133,-0.034541138,0.963376760
53.240208,-29.478950500,-11.307472229,-4.065261841,-0.128818601,-0.040522583,0.965085745
53.240835,-29.692573547,-11.276954651,-4.080520630,-0.124790281,-0.050288208,0.948728323
53.241461,-29.906196594,-11.627906799,-4.217849731,-0.124546140,-0.058588989,0.947385550
53.242087,-30.112190247,-12.116188049,-4.011856079,-0.113559812,-0.057856567,0.949216604
53.242714,-30.104560852,-11.978858948,-4.332290649,-0.105869383,-0.058833130,0.958493948
53.243340,-30.142707825,-11.963600159,-4.164443970,-0.105259031,-0.063715942,0.953733206
53.243966,-30.394477844,-11.818641663,-4.385696411,-0.108310789,-0.062739380,0.957273245
53.244591,-30.272407532,-11.910194397,-4.538284302,-0.113193601,-0.068964966,0.962278128
53.245216,-30.363960266,-12.345069885,-4.393325806,-0.109897703,-0.063838013,0.966184378
53.245842,-30.302925110,-12.337440491,-4.523025513,-0.110996336,-0.059443481,0.968991995
53.246467,-30.272407532,-12.406105042,-4.675613403,-0.103550047,-0.064448364,0.974118948
53.247093,-30.173225403,-12.657875061,-4.957901001,-0.105991453,-0.079340942,0.978025198
53.247718,-29.852790833,-12.779945374,-4.767166138,-0.100254148,-0.097895630,0.975827932
53.248345,-29.112739563,-12.451881409,-4.965530396,-0.099155515,-0.113886841,0.975583792
53.248970,-28.365058899,-12.276405334,-4.675613403,-0.090488523,-0.138300911,0.970700979
53.249596,-27.213020325,-12.024635315,-4.820571899,-0.082676023,-0.168696418,0.975339651
53.250222,-25.984687805,-12.039894104,-4.729019165,-0.076450437,-0.215815559,0.978025198
53.250849,-24.001045227,-11.467689514,-4.515396118,-0.080478758,-0.264033318,0.973630667
53.251476,-21.651191711,-11.521095276,-4.263626099,-0.086582273,-0.322504997,0.972165823
53.252101,-19.164009094,-11.719459534,-3.729568481,-0.108677000,-0.346430779,0.968137503
53.252727,-16.776008606,-12.207740784,-3.943191528,-0.121494383,-0.341547966,0.971189260
53.253354,-15.105171204,-12.451881409,-3.477798462,-0.130039304,-0.328852654,0.969358206
53.253981,-13.754768372,-12.955421448,-3.287063599,-0.135410398,-0.327265739,0.970334768
53.254606,-12.457771301,-13.527626038,-2.867446899,-0.137363523,-0.339228630,0.967160940
53.255233,-10.962409973,-13.794654846,-2.936111450,-0.136264890,-0.347773552,0.954709768
53.255859,-9.642524719,-13.657325745,-2.333389282,-0.134677976,-0.354853630,0.948972464
53.256485,-8.223457336,-13.748878479,-1.967178345,-0.130283445,-0.362544060,0.950437307
53.257110,-7.155342102,-13.466590881,-1.227127075,-0.136020750,-0.354975700,0.950803518
53.257735,-6.323738098,-13.214820862,-0.761734009,-0.147007078,-0.351313591,0.935544729
53.259493,-5.141181946,-13.924354553,0.985397339,-0.148593992,-0.329463005,0.925901175
53.260118,-4.820747375,-14.321083069,1.374496460,-0.139316648,-0.321772575,0.927610159
53.260744,-4.912300110,-14.275306702,2.030624390,-0.131015867,-0.315546989,0.920530081
53.261370,-4.919929504,-14.137977600,2.587570190,-0.129673094,-0.319697380,0.920774221
53.261995,-5.202217102,-14.176124573,3.289474487,-0.122104734,-0.328364372,0.916135550
53.262622,-4.980964661,-14.130348206,3.808273315,-0.121616453,-0.329340935,0.915158987
53.263247,-5.011482239,-14.183753967,4.212631226,-0.112827390,-0.326045036,0.911985159
53.263872,-5.011482239,-14.435523987,4.945053101,-0.110263914,-0.322016716,0.912961721
53.264497,-4.919929504,-14.679664612,5.479110718,-0.104282469,-0.321894646,0.915891409
53.265122,-5.240364075,-14.847511292,5.860580444,-0.098423094,-0.316767693,0.924680471
53.265749,-5.270881653,-14.908546448,6.623519897,-0.091709226,-0.314326286,0.932615042
53.266374,-4.935188293,-15.038246155,6.676925659,-0.088901609,-0.309077263,0.931150198
53.266999,-5.164070129,-14.916175842,7.272018433,-0.083896726,-0.312373161,0.942380667
53.267625,-5.110664368,-14.862770081,7.767929077,-0.077671140,-0.312129021,0.948850393
53.268252,-4.782600403,-15.084022522,8.004440308,-0.078281492,-0.309321404,0.956052542
53.268877,-4.538459778,-14.900917053,8.561386108,-0.076206297,-0.301997185,0.958005667
53.282741,11.818962097,-8.835548401,12.086166382,-0.057529543,-0.172846809,1.047849417
53.283501,12.093620300,-8.583778381,11.925949097,-0.059482668,-0.171259895,1.050534964
53.284126,12.635307312,-8.393043518,12.017501831,-0.057773683,-0.167231575,1.045041800
53.284752,13.093070984,-8.164161682,11.887802124,-0.058017824,-0.168208137,1.044431448
53.285377,13.566093445,-7.820838928,11.971725464,-0.061802004,-0.167841926,1.039182425
53.286002,14.191703796,-7.378334045,12.093795776,-0.055942629,-0.161494270,1.033567190
53.286627,14.512138367,-7.332557678,12.200607300,-0.066074461,-0.154170051,1.029294729
53.287252,15.046195984,-6.996864319,12.002243042,-0.064731687,-0.150507942,1.028196096
53.287878,15.320854187,-6.813758850,12.139572144,-0.072544187,-0.146479622,1.024778128
53.288505,15.679435730,-6.523841858,12.093795776,-0.073154539,-0.146845832,1.019284964
53.289132,15.976982117,-6.470436096,12.048019409,-0.078159422,-0.137934700,1.017942190
53.289757,15.984611511,-6.462806702,12.086166382,-0.077060789,-0.132563606,1.016477346
53.290382,16.549186707,-6.310218811,12.116683960,-0.079380125,-0.127314582,1.011716604
53.291008,16.564445496,-6.073707581,12.131942749,-0.077427000,-0.126948372,1.009031057
53.291634,16.884880066,-6.027931213,12.055648804,-0.083408445,-0.124873169,1.003293753
53.292260,17.212944031,-5.989784241,11.971725464,-0.086338133,-0.118891723,0.998655081
53.292887,17.266349792,-5.799049377,12.101425171,-0.091587156,-0.111323364,0.993283987
53.293512,17.632560730,-5.821937561,11.880172729,-0.093052000,-0.111811645,0.992185354
53.294139,17.594413757,-5.882972717,12.017501831,-0.092319578,-0.112055786,0.993161917
53.294764,17.846183777,-5.837196350,11.948837280,-0.094883054,-0.109370239,0.994382620
53.295391,17.960624695,-5.753273010,12.093795776,-0.097446531,-0.102656372,0.989011526
53.296016,17.899589539,-5.699867249,11.750473022,-0.093784422,-0.094721802,0.990720510
53.296643,18.120841980,-5.821937561,11.986984253,-0.093906492,-0.092402466,0.992795706
53.297268,17.945365906,-6.005043030,12.116683960,-0.091953367,-0.087519653,0.996335745
53.297893,18.075065613,-5.959266663,11.857284546,-0.096103758,-0.083247192,0.994748831
53.298518,18.227653503,-5.913490295,11.986984253,-0.092075437,-0.078974731,0.994016409
53.299143,17.968254089,-6.020301819,11.864913940,-0.091465086,-0.076533325,0.995847464
53.299770,17.907218933,-6.249183655,11.758102417,-0.091098875,-0.071040161,1.000608206
53.300395,18.090324402,-6.203407288,11.803878784,-0.085361570,-0.070185669,1.002683401
53.301030,18.174247742,-6.157630920,11.544479370,-0.086338133,-0.068354614,1.004392385
53.302853,18.059806824,-6.371253967,11.361373901,-0.077182859,-0.060297973,1.011838675
53.303478,18.151359558,-6.317848206,11.353744507,-0.076084226,-0.065791138,1.018796682
53.304104,18.044548035,-6.363624573,11.338485718,-0.077182859,-0.058344848,1.024289846
53.304729,18.197135925,-6.317848206,11.018051147,-0.075107664,-0.059809692,1.029783010
53.305355,18.220024109,-6.104225159,10.979904175,-0.071445554,-0.054926880,1.035886526
53.305981,18.197135925,-6.081336975,10.834945679,-0.070102781,-0.053095825,1.039670706
53.306607,18.303947449,-6.302589417,10.827316284,-0.070835203,-0.051875122,1.042356253
53.307234,18.174247742,-5.921119690,10.499252319,-0.072422117,-0.047602661,1.045530081
53.307859,18.204765320,-5.867713928,10.552658081,-0.068271726,-0.044795044,1.047483206
53.308484,18.242912292,-5.997413635,10.422958374,-0.067539304,-0.042841919,1.048337698
53.309110,18.082695007,-5.791419983,10.186447144,-0.068515867,-0.039790161,1.049314260
53.309735,18.113212585,-5.684608459,9.782089233,-0.066562742,-0.041621216,1.056394339
53.310360,17.968254089,-5.585426331,9.957565308,-0.063755125,-0.041743286,1.059812307
53.310986,17.853813171,-5.448097229,9.721054077,-0.061069582,-0.036982544,1.062497854
53.311611,18.044548035,-5.005592346,9.484542847,-0.064487547,-0.040034302,1.065061331
53.312236,18.242912292,-4.830116272,9.408248901,-0.063266844,-0.039179809,1.068357229
53.312861,17.876701355,-4.540199280,9.209884644,-0.063877195,-0.039179809,1.067624807
53.326741,16.938285828,-0.366920471,5.402816772,-0.054355714,-0.067500122,1.043576956
53.327480,16.846733093,-0.260108948,5.440963745,-0.056552980,-0.068842895,1.038327932
53.328105,16.839103699,0.029808044,5.112899780,-0.056919191,-0.070918091,1.038816214
53.328731,16.717033386,0.190025330,5.326522827,-0.061435793,-0.072260864,1.037595510
53.329358,16.511039734,0.365501404,5.036605835,-0.056675050,-0.073969848,1.036741018
53.329985,16.419487000,0.388389587,5.036605835,-0.059848879,-0.076289184,1.033689260
53.330610,16.198234558,0.731712341,4.914535522,-0.057773683,-0.079951294,1.031369925
53.331236,16.045646667,0.624900818,4.899276733,-0.060337160,-0.080073364,1.034543753
53.331863,15.984611511,0.785118103,4.784835815,-0.059848879,-0.080805786,1.036252737
53.332489,15.900688171,0.838523865,4.754318237,-0.060703371,-0.079829223,1.030271292
53.333114,15.595512390,0.754600525,4.693283081,-0.058994386,-0.083735473,1.032712698
53.333740,15.374259949,1.128440857,4.487289429,-0.056919191,-0.086543091,1.031003714
53.334366,15.214042664,1.181846619,4.517807007,-0.061069582,-0.089472778,1.032834768
53.334992,14.969902039,1.281028748,4.616989136,-0.061435793,-0.087397583,1.032346487
53.335618,14.649467468,1.296287537,4.342330933,-0.058261964,-0.090449341,1.032712698
53.336314,14.390068054,1.487022400,4.403366089,-0.059360597,-0.089350708,1.032224417
53.336941,14.275627136,1.670127869,4.273666382,-0.060581300,-0.090815552,1.029905081
53.337567,13.955192566,1.387840271,4.380477905,-0.059726808,-0.092646606,1.029172659
53.338198,13.787345886,1.624351501,4.197372437,-0.061191652,-0.089716919,1.032590628
53.338825,13.375358582,1.792198181,4.357589722,-0.062900633,-0.092890747,1.031003714
53.339450,13.184623718,1.578575134,4.304183960,-0.061069582,-0.091059692,1.031003714
53.340077,13.001518250,1.723533630,4.197372437,-0.065219969,-0.094843872,1.034543753
53.340704,12.703971863,1.799827576,4.311813354,-0.065464109,-0.091914184,1.032468557
53.341331,12.345390320,1.883750916,4.296554565,-0.066074461,-0.093256958,1.031614065
53.341957,11.971549988,2.028709412,4.151596069,-0.065219969,-0.093623169,1.030881643
53.342584,11.986808777,1.952415466,3.930343628,-0.063999265,-0.092402466,1.034055471
53.343209,11.620597839,2.028709412,4.105819702,-0.067539304,-0.095576294,1.032224417
53.343835,11.681632996,2.074485779,4.082931519,-0.063877195,-0.098139770,1.034909964
53.344460,11.307792664,2.219444275,4.037155151,-0.067051023,-0.102534302,1.032468557
53.345086,11.376457214,2.372032166,3.991378784,-0.069980711,-0.101557739,1.025754690
53.346921,11.139945984,2.417808533,4.052413940,-0.070957273,-0.100703247,1.029294729
53.347548,11.101799011,2.295738220,3.785385132,-0.069980711,-0.096430786,1.029172659
53.348173,10.689811707,2.425437927,3.915084839,-0.071323484,-0.101069458,1.027585745
53.348800,11.002616882,2.433067322,3.556503296,-0.069736570,-0.101191528,1.026242971
53.349426,10.941581726,2.509361267,3.846420288,-0.074863523,-0.098505981,1.025754690
53.350051,10.964469910,2.455955505,3.609909058,-0.069980711,-0.100825317,1.020993948
53.350676,11.277275085,2.440696716,3.571762085,-0.075840086,-0.100337036,1.026487112
53.351302,10.880546570,2.539878845,3.739608765,-0.073276609,-0.102900513,1.021726370
53.351928,11.147575378,2.608543396,3.655685425,-0.077671140,-0.098261841,1.018796682
53.352553,11.101799011,2.585655212,3.899826050,-0.079380125,-0.100947388,1.014402151
53.353179,11.094169617,2.516990662,3.541244507,-0.080478758,-0.098872192,1.014402151
53.353805,10.979728699,2.455955505,3.632797241,-0.079135984,-0.102412231,1.015134573
53.354430,10.979728699,2.364402771,3.655685425,-0.078769773,-0.104121216,1.014280081
53.355057,11.231498718,2.463584900,3.625167847,-0.080722898,-0.104243286,1.009397268
53.355684,10.933952332,2.280479431,3.518356323,-0.080478758,-0.100825317,1.008542776
53.356309,11.208610535,2.310997009,3.419174194,-0.081821531,-0.103022583,1.004636526
53.356935,11.338310242,2.463584900,3.358139038,-0.078891844,-0.102290161,1.007200003
53.357561,11.078910828,1.998191833,3.480209351,-0.082553953,-0.104365356,1.001828909
53.371493,12.154655457,0.006919861,2.366317749,-0.084873289,-0.099360473,0.966550589
53.378898,11.704521179,-1.274818420,2.396835327,-0.084385008,-0.097773559,0.961423635
53.379523,11.651115417,-1.526588440,2.099288940,-0.087192625,-0.094843872,0.965207815
53.380148,11.582450867,-1.435035706,1.923812866,-0.088047117,-0.093256958,0.965574026
53.380774,11.216239929,-1.534217834,1.969589233,-0.090000242,-0.095210083,0.963132620
53.381399,11.262016296,-1.579994202,1.961959839,-0.099155515,-0.088618286,0.960691214
53.382031,10.941581726,-1.816505432,1.763595581,-0.080234617,-0.096064575,0.957639456
53.382656,11.048393250,-1.709693909,1.916183472,-0.081577390,-0.085200317,0.961301565
53.383281,10.735588074,-1.793617249,1.961959839,-0.093662351,-0.084834106,0.968259573
53.383906,10.300712585,-2.152198792,1.771224976,-0.082187742,-0.095088013,0.946653128
53.384532,10.216789246,-2.083534241,1.710189819,-0.098545164,-0.080195434,0.954709768
53.385158,9.827690125,-2.106422424,1.588119507,-0.079258054,-0.091792114,0.956907034
53.385783,9.919242859,-2.251380920,1.435531616,-0.087925047,-0.078242309,0.958127737
53.386409,9.415702820,-2.190345764,1.427902222,-0.090366453,-0.086176880,0.963742971
53.387034,9.270744324,-2.327674866,1.588119507,-0.087070554,-0.082270630,0.955686331
53.387660,9.232597351,-2.312416077,1.420272827,-0.086338133,-0.076045044,0.959958792
53.388287,8.912162781,-2.350563049,1.382125854,-0.084140867,-0.077998169,0.953855276
53.388914,8.767204285,-2.609962463,1.427902222,-0.085117429,-0.078364380,0.955442190
53.389539,8.500175476,-2.754920959,1.183761597,-0.082431883,-0.081538208,0.955442190
53.390164,8.088188171,-2.693885803,1.427902222,-0.077427000,-0.082636841,0.953244925
53.391974,8.050041199,-2.930397034,0.848068237,-0.087192625,-0.074213989,0.952512503
53.392601,7.653312683,-3.128761292,0.870956421,-0.084507078,-0.077387817,0.959714651
53.393226,7.653312683,-3.235572815,0.817550659,-0.084385008,-0.078486450,0.956907034
53.393852,7.363395691,-3.227943420,0.809921265,-0.087070554,-0.074824341,0.956174612
53.394479,7.111625671,-3.380531311,0.687850952,-0.082431883,-0.077509888,0.953611135
53.395104,6.836967468,-3.365272522,0.695480347,-0.080844969,-0.080073364,0.956907034
53.395731,6.714897156,-3.723854065,0.619186401,-0.087070554,-0.083735473,0.955686331
53.396356,6.630973816,-3.479713440,0.497116089,-0.083896726,-0.081294067,0.959714651
53.396982,6.295280457,-3.700965881,0.512374878,-0.083896726,-0.074458130,0.959226370
53.397608,6.463127136,-3.769630432,0.527633667,-0.082065672,-0.077998169,0.963254690
53.398235,6.417350769,-3.632301331,0.214828491,-0.088901609,-0.071528442,0.963010550
53.398862,6.020622253,-3.884071350,0.275863647,-0.086216062,-0.069941528,0.964841604
53.399488,5.791740417,-3.670448303,0.207199097,-0.086093992,-0.069453247,0.968137503
53.400114,5.692558289,-3.830665588,-0.036941528,-0.090000242,-0.072993286,0.972287893
53.400739,5.333976746,-3.914588928,0.016464233,-0.090244383,-0.079218872,0.967038870
53.401366,5.211906433,-4.036659241,0.054611206,-0.089878172,-0.081416138,0.968869925
53.401992,5.333976746,-4.128211975,0.024093628,-0.086093992,-0.084956177,0.969480276
53.402619,5.013542175,-4.067176819,-0.250564575,-0.086704344,-0.083003052,0.970334768
53.403244,5.196647644,-3.960365295,-0.204788208,-0.087192625,-0.080561645,0.968991995
53.403869,5.112724304,-4.151100159,-0.258193970,-0.088413328,-0.081171997,0.972165823
53.404494,4.784660339,-3.868812561,-0.303970337,-0.087192625,-0.078242309,0.973996878
53.405119,4.883842468,-4.296058655,-0.456558228,-0.089023679,-0.075434692,0.971433401
53.405746,4.708366394,-4.280799866,-0.265823364,-0.092319578,-0.081294067,0.974851370
53.406373,4.647331238,-4.387611389,-0.471817017,-0.091465086,-0.083735473,0.972165823
53.406998,4.593925476,-4.105323792,-0.960098267,-0.088047117,-0.084101684,0.968503714
53.407624,4.616813660,-4.463905334,-0.647293091,-0.090122312,-0.082880981,0.971067190
53.408249,4.838066101,-4.288429260,-0.776992798,-0.089023679,-0.085200317,0.968015432
53.408875,4.670219421,-4.463905334,-1.066909790,-0.092197508,-0.083247192,0.969968557
53.422722,4.921989441,-5.806678772,-1.700149536,-0.091587156,-0.115595825,0.965451956
53.423444,5.196647644,-5.882972717,-1.723037720,-0.094516844,-0.120844848,0.965329885
53.424070,5.341606140,-5.814308167,-1.738296509,-0.093296140,-0.124018677,0.962522268
53.424695,5.425529480,-5.776161194,-1.799331665,-0.094394773,-0.130732551,0.965696096
53.425320,5.227165222,-5.936378479,-1.692520142,-0.088779539,-0.135249153,0.965451956
53.425945,5.227165222,-5.959266663,-1.715408325,-0.090610594,-0.132441536,0.967038870
53.426571,5.173759460,-5.776161194,-1.471267700,-0.091220945,-0.132685676,0.967160940
53.427198,5.074577332,-6.050819397,-1.707778931,-0.092075437,-0.133296028,0.967038870
53.427823,4.914360046,-6.157630920,-1.425491333,-0.090854734,-0.136103645,0.967771292
53.428449,5.021171570,-6.043190002,-1.440750122,-0.094028562,-0.134882942,0.970700979
53.429075,4.685478210,-5.898231506,-1.349197388,-0.092197508,-0.140009895,0.969968557
53.429700,4.654960632,-6.165260315,-1.318679810,-0.090854734,-0.142695442,0.968381643
53.430327,4.487113953,-6.188148499,-1.188980103,-0.092563719,-0.145747200,0.971799612
53.430953,4.357414246,-6.027931213,-1.219497681,-0.088779539,-0.150996223,0.969846487
53.431578,4.334526062,-6.088966370,-1.089797974,-0.083896726,-0.150874153,0.971311331
53.432203,4.235343933,-6.203407288,-1.028762817,-0.082553953,-0.153071418,0.972409964
53.432829,4.075126648,-6.012672424,-0.906692505,-0.084018797,-0.156611457,0.975095510
53.433455,4.052238464,-5.997413635,-0.715957642,-0.081455320,-0.156611457,0.971921682
53.434081,4.143791199,-6.104225159,-0.746475220,-0.081943601,-0.161372200,0.973508596
53.434706,4.159049988,-6.218666077,-0.647293091,-0.082553953,-0.158198372,0.974241018
53.435332,4.029350281,-6.165260315,-0.670181274,-0.079502195,-0.158686653,0.973752737
53.435959,3.678398132,-6.119483948,-0.532852173,-0.075351804,-0.156367317,0.973996878
53.436585,3.472404480,-6.043190002,-0.395523071,-0.078891844,-0.158808723,0.972043753
53.437210,3.808097839,-6.264442444,-0.204788208,-0.074497312,-0.158930793,0.974363089
53.437836,3.747062683,-6.088966370,-0.105606079,-0.075107664,-0.160883918,0.975461721
53.438462,3.708915710,-6.241554260,-0.075088501,-0.070957273,-0.153925911,0.972287893
53.439088,3.624992371,-6.302589417,0.252975464,-0.069858640,-0.155879036,0.973752737
53.439713,3.495292664,-6.012672424,0.161422729,-0.071323484,-0.156489387,0.973508596
53.440339,3.464775085,-6.241554260,0.390304565,-0.071567625,-0.155879036,0.972043753
53.440966,3.586845398,-6.073707581,0.428451538,-0.067661375,-0.153071418,0.974363089
53.442770,3.624992371,-6.172889709,0.870956421,-0.072910398,-0.153437629,0.973508596
53.443397,3.510551453,-6.363624573,0.962509155,-0.068760008,-0.151728645,0.972654104
53.444030,3.502922058,-6.310218811,1.015914917,-0.073154539,-0.151484504,0.971067190
53.444655,3.686027527,-6.455177307,1.359237671,-0.070835203,-0.147822395,0.978147268
53.445280,3.754692078,-6.340736389,1.153244019,-0.070957273,-0.149409309,0.979367971
53.445905,3.953056335,-6.447547913,1.359237671,-0.071445554,-0.147334114,0.980832815
53.446530,3.830986023,-6.493324280,1.427902222,-0.072910398,-0.142939582,0.980466604
53.447155,3.968315125,-6.287330627,1.649154663,-0.071445554,-0.141963020,0.988034964
53.447782,4.387931824,-6.485694885,1.565231323,-0.074375242,-0.143549934,0.988645315
53.448408,4.242973328,-6.218666077,1.893295288,-0.075840086,-0.136958137,0.988523245
53.449034,4.441337585,-6.623023987,1.771224976,-0.075229734,-0.143061653,0.992551565
53.449659,4.792289734,-6.531471252,1.931442261,-0.078525633,-0.141718879,0.995847464
53.450284,4.853324890,-6.455177307,1.961959839,-0.078769773,-0.141963020,0.996457815
53.450910,5.005912781,-6.561988831,1.946701050,-0.079258054,-0.140620247,0.997190237
53.451536,5.410270691,-6.493324280,2.007736206,-0.081455320,-0.136836067,0.999265432
53.452161,5.593376160,-6.386512756,2.175582886,-0.083164304,-0.138056770,1.002683401
53.452786,6.119804382,-6.584877014,2.343429565,-0.085483640,-0.134516731,1.003171682
53.453411,6.447868347,-6.424659729,2.267135620,-0.085361570,-0.134760872,1.006345510
53.467312,12.070732117,-4.425758362,1.969589233,-0.062778562,-0.057734497,1.074826956
53.468080,12.322502136,-4.273170471,1.809371948,-0.068637937,-0.058711059,1.079099417
53.468705,12.772636414,-4.097694397,1.839889526,-0.069126219,-0.056391723,1.078489065
53.469332,13.230400085,-3.716224670,1.580490112,-0.073398679,-0.054072388,1.083249807
53.469957,13.787345886,-3.830665588,1.557601929,-0.074131101,-0.052485473,1.087278128
53.470583,14.123039246,-3.716224670,1.290573120,-0.072300047,-0.051875122,1.090207815
53.471210,14.679985046,-3.449195862,1.397384644,-0.072910398,-0.052851684,1.093869925
53.471836,15.114860535,-3.273719788,1.000656128,-0.074131101,-0.058100708,1.096311331
53.472461,16.007499695,-2.884620667,0.970138550,-0.074863523,-0.060786255,1.093991995
53.473087,16.526298523,-2.876991272,0.771774292,-0.076816648,-0.068232544,1.098142385
53.473713,17.533378601,-2.617591858,0.809921265,-0.078891844,-0.067011841,1.098874807
53.474340,18.235282898,-2.297157288,0.787033081,-0.080112547,-0.069209106,1.097654104
53.474965,19.249992371,-2.381080627,0.565780640,-0.085971922,-0.080561645,1.096189260
53.475591,20.203666687,-2.213233948,0.336898804,-0.085971922,-0.074091919,1.100827932
53.476216,20.897941589,-1.900428772,0.191940308,-0.084385008,-0.074091919,1.101438284
53.476841,21.859245300,-1.801246643,0.199569702,-0.084751219,-0.071650513,1.104612112
53.477467,22.904472351,-1.641029358,0.291122437,-0.087192625,-0.078608520,1.102170706
53.478093,23.774223328,-1.518959045,0.138534546,-0.089023679,-0.073237427,1.104856253
53.478718,24.575309753,-1.229042053,-0.021682739,-0.087192625,-0.073603638,1.103147268
53.479345,25.239067078,-1.084083557,-0.052200317,-0.088901609,-0.073603638,1.100339651
53.479972,26.101188660,-0.839942932,-0.166641235,-0.088047117,-0.073725708,1.102781057
53.480598,26.879386902,-0.656837463,-0.227676392,-0.089511961,-0.073481567,1.104245901
53.481224,27.726249695,-0.603431702,-0.166641235,-0.091220945,-0.076411255,1.104001760
53.481851,28.504447937,-0.282997131,-0.334487915,-0.091343015,-0.076655395,1.101438284
53.482476,29.259757996,-0.336402893,-0.349746704,-0.086338133,-0.080561645,1.105344534
53.483101,30.343132019,-0.199073792,-0.265823364,-0.085361570,-0.084956177,1.102170706
53.483728,30.922966003,0.090843201,-0.418411255,-0.087436765,-0.081782348,1.105954885
53.484353,31.434135437,0.098472595,-0.311599731,-0.086582273,-0.073603638,1.105466604
53.484978,31.899528503,0.235801697,-0.372634888,-0.089389890,-0.061152466,1.102658987
53.485603,32.296257019,0.838523865,-0.281082153,-0.089756101,-0.051753052,1.105100393
53.487407,33.059196472,1.181846619,-0.586257935,-0.087802976,-0.051630981,1.098996878
53.488034,33.219413757,1.113182068,-0.761734009,-0.089023679,-0.054194458,1.095823050
53.488660,33.494071960,1.166587830,-0.662551880,-0.084140867,-0.062739380,1.094724417
53.489285,33.867912292,1.395469666,-0.517593384,-0.087436765,-0.072871216,1.094846487
53.489910,34.066276550,1.441246033,-0.685440063,-0.089389890,-0.085810669,1.089719534
53.490537,34.424858093,1.502281189,-0.509963989,-0.091953367,-0.092890747,1.090818167
53.491162,34.989433289,1.754051208,-0.456558228,-0.090244383,-0.104121216,1.090940237
53.491788,35.233573914,1.944786072,-0.372634888,-0.090488523,-0.109004028,1.091306448
53.492415,35.508232117,1.982933044,-0.502334595,-0.097080320,-0.120844848,1.092405081
53.493040,36.171989441,1.998191833,-0.151382446,-0.095127195,-0.125483528,1.099729300
53.493666,36.316947937,2.005821228,-0.128494263,-0.093784422,-0.116084106,1.104856253
53.494291,36.469535828,2.265220642,-0.181900024,-0.092441648,-0.107050903,1.107297659
53.494916,36.133842468,2.227073669,0.024093628,-0.095737547,-0.103755005,1.108274221
53.495541,35.927848816,2.440696716,-0.311599731,-0.095859617,-0.101801880,1.112912893
53.496166,35.744743347,2.349143982,-0.090347290,-0.098545164,-0.098628052,1.114621878
53.496791,35.439567566,2.257591248,0.100387573,-0.095127195,-0.099116333,1.120603323
53.497417,35.080986023,2.516990662,0.115646362,-0.093662351,-0.102046020,1.120481253
53.498042,34.600334167,2.722984314,0.314010620,-0.091343015,-0.106440552,1.123288870
53.511881,29.175834656,8.033042908,4.723800659,-0.064487547,-0.176264778,1.290525198
53.512640,28.786735535,9.200340271,5.227340698,-0.062534422,-0.187617317,1.272702932
53.513265,29.038505554,10.001426697,5.532516479,-0.079013914,-0.202754036,1.263913870
53.513890,29.435234070,10.871177673,5.669845581,-0.095005125,-0.204951301,1.232785940
53.514515,29.458122253,10.878807068,5.952133179,-0.105381101,-0.196406379,1.226072073
53.515142,28.809623718,10.771995544,6.318344116,-0.110385984,-0.210200325,1.228757620
53.515767,28.893547058,10.688072205,6.478561401,-0.106601804,-0.212275520,1.248044729
53.516393,28.931694031,10.779624939,6.921066284,-0.097934812,-0.189936653,1.271116018
53.517019,28.557853699,11.176353455,7.165206909,-0.070468992,-0.201045051,1.263913870
53.517644,28.664665222,12.252098083,7.249130249,-0.054233644,-0.222895637,1.281858206
53.518270,29.198722839,12.885337830,7.867111206,-0.054477785,-0.230341926,1.285886526
53.518897,29.709892273,13.991600037,8.340133667,-0.065464109,-0.217158332,1.266233206
53.519523,29.625968933,14.136558533,8.607162476,-0.066928953,-0.200312629,1.266965628
53.520149,29.282646179,14.922386169,8.744491577,-0.082065672,-0.194819465,1.269162893
53.520775,29.229240417,15.113121033,9.133590698,-0.077915281,-0.210200325,1.265622854
53.521400,29.564933777,15.242820740,9.515060425,-0.093784422,-0.212641731,1.241697073
53.522028,29.320793152,15.403038025,9.614242554,-0.098301023,-0.214472786,1.235959768
53.522654,29.534416199,15.525108337,9.797348022,-0.090732664,-0.230463997,1.228635550
53.523280,29.885368347,15.563255310,10.506881714,-0.092441648,-0.223872200,1.231565237
53.523906,29.679374695,16.082054138,10.789169312,-0.088291258,-0.209345832,1.229978323
53.524533,29.290275574,16.600852966,11.056198120,-0.097568601,-0.198237434,1.234739065
53.525159,29.191093445,16.967063904,11.445297241,-0.102085203,-0.205439582,1.222898245
53.525784,29.030876160,17.188316345,11.979354858,-0.114902586,-0.204585090,1.210202932
53.526410,28.756217957,17.287498474,12.315048218,-0.126865476,-0.192988411,1.201169729
53.527036,28.542594910,17.241722107,12.635482788,-0.126133054,-0.189326301,1.191526175
53.527662,28.290824890,17.325645447,12.963546753,-0.128208250,-0.186518684,1.189206839
53.528288,28.313713074,17.646080017,13.200057983,-0.123569578,-0.176020637,1.180539846
53.528913,28.031425476,17.920738220,13.543380737,-0.123203367,-0.175776497,1.179319143
53.529540,27.657585144,18.111473083,13.810409546,-0.130527586,-0.175898567,1.171750784
53.530166,27.520256042,18.546348572,14.252914429,-0.134067625,-0.179926887,1.163694143
53.531989,26.711540222,18.935447693,14.970077515,-0.154331297,-0.162592903,1.142331839
53.532616,26.597099304,18.866783142,15.069259644,-0.156894773,-0.165156379,1.132322073
53.533241,26.261405945,19.171958923,15.343917847,-0.159458250,-0.167719856,1.125608206
53.533868,26.040153503,18.912559509,15.527023315,-0.157383054,-0.164546028,1.120847464
53.534493,25.925712585,19.057518005,16.007675171,-0.157505125,-0.168208137,1.115842581
53.535119,26.101188660,18.897300720,15.893234253,-0.157993406,-0.172480598,1.108884573
53.535746,26.352958679,19.149070740,16.228927612,-0.159580320,-0.170649543,1.099973440
53.536372,26.093559265,19.240623474,16.450180054,-0.163608640,-0.166621223,1.098020315
53.536999,26.368217468,18.943077087,16.869796753,-0.162876219,-0.163935676,1.092160940
53.537626,26.459770203,19.271141052,16.892684937,-0.163242429,-0.161005989,1.091184378
53.538253,26.497917175,19.194847107,17.182601929,-0.164585203,-0.151972786,1.089109182
53.538879,26.246147156,18.851524353,17.159713745,-0.159214109,-0.145136848,1.089231253
53.539505,26.177482605,19.072776794,17.335189819,-0.158725828,-0.140742317,1.083249807
53.540131,26.406364441,19.339805603,17.495407104,-0.160190672,-0.139155403,1.078977346
53.540757,26.253776550,18.981224060,17.487777710,-0.162265867,-0.135127082,1.071653128
53.541413,26.467399597,19.141441345,17.747177124,-0.161899656,-0.128169075,1.066037893
53.542038,26.375846863,19.080406189,17.930282593,-0.159336179,-0.124018677,1.062741995
53.555944,26.017265320,19.805198669,18.952621460,-0.126621336,-0.072993286,1.013181448
53.556732,26.078300476,19.751792908,19.067062378,-0.121128172,-0.072505005,1.011472464
53.557357,26.101188660,19.667869568,19.150985718,-0.126621336,-0.073725708,1.005857229
53.557984,26.337699890,19.744163513,18.891586304,-0.127109617,-0.075068481,1.003171682
53.558610,26.345329285,19.850975037,18.868698120,-0.127964109,-0.072627075,0.995115042
53.559235,26.482658386,19.614463806,18.990768433,-0.130283445,-0.072505005,0.992429495
53.559860,26.558952332,19.652610779,19.059432983,-0.124424070,-0.069209106,0.992429495
53.560486,26.810722351,19.553428650,19.227279663,-0.129551023,-0.068598755,0.990354300
53.561111,26.841239929,19.591575623,19.204391479,-0.130283445,-0.066645630,0.984372854
53.561738,27.199821472,19.530540466,19.089950562,-0.139438719,-0.065913208,0.986081839
53.562364,27.512626648,19.583946228,18.891586304,-0.141758054,-0.082880981,0.986081839
53.562990,28.351860046,19.591575623,18.754257202,-0.139804929,-0.094843872,0.983640432
53.563617,28.847770691,19.576316833,18.754257202,-0.137485594,-0.084956177,0.970945120
53.564243,29.252128601,19.759422302,19.036544800,-0.136875242,-0.069087036,0.956907034
53.564869,29.381828308,19.667869568,19.097579956,-0.142002195,-0.063227661,0.952512503
53.565495,29.481010437,19.644981384,19.158615112,-0.146274656,-0.060542114,0.947019339
53.566121,29.412345886,19.255882263,19.311203003,-0.148716062,-0.057368286,0.938108206
53.566747,29.526786804,18.836265564,19.265426636,-0.150547117,-0.051508911,0.930783987
53.567374,29.625968933,18.759971619,19.311203003,-0.148593992,-0.049799927,0.927610159
53.567999,29.336051941,18.309837341,19.265426636,-0.145053953,-0.045283325,0.931882620
53.568624,29.496269226,18.180137634,19.479049683,-0.142612547,-0.049189575,0.929563284
53.569251,29.450492859,17.920738220,19.364608765,-0.141269773,-0.046137817,0.924802542
53.569878,29.465751648,17.745262146,19.471420288,-0.144687742,-0.045161255,0.920896292
53.570503,29.267387390,17.379051208,19.631637573,-0.143467039,-0.049067505,0.916013479
53.571130,29.023246765,17.073875427,19.616378784,-0.144931883,-0.045649536,0.915036917
53.571756,28.901176453,16.967063904,19.631637573,-0.146030515,-0.043452270,0.911863089
53.572382,28.702812195,16.532188416,19.791854858,-0.147983640,-0.046504028,0.904783010
53.573008,28.565483093,16.005760193,20.028366089,-0.148471922,-0.045649536,0.898191214
53.573633,28.458671570,15.830284119,19.875778198,-0.146152586,-0.040888794,0.892575979
53.574260,28.229789734,15.540367126,19.944442749,-0.148227781,-0.041255005,0.886350393
53.576058,27.634696960,14.365440369,20.409835815,-0.150913328,-0.045771606,0.882566214
53.576685,27.688102722,13.938194275,20.600570679,-0.152011961,-0.050898559,0.879636526
53.577310,27.588920593,13.404136658,20.310653687,-0.152011961,-0.051630981,0.874753714
53.577935,27.527885437,13.121849060,20.547164917,-0.150913328,-0.056025513,0.875486135
53.578561,27.344779968,12.656455994,20.478500366,-0.154697508,-0.057612427,0.870969534
53.579186,27.604179382,12.358909607,20.463241577,-0.152988523,-0.061274536,0.873533010
53.579811,27.436332703,11.916404724,20.859970093,-0.156162351,-0.061030395,0.870969534
53.580437,27.787284851,11.611228943,20.715011597,-0.154941648,-0.059565552,0.866330862
53.581062,27.947502136,11.267906189,20.921005249,-0.154331297,-0.061152466,0.868161917
53.581688,27.901725769,10.749107361,21.081222534,-0.158237547,-0.060175903,0.866452932
53.582315,27.840690613,10.443931580,21.157516479,-0.159458250,-0.057490356,0.866697073
53.582940,27.909355164,10.192161560,21.241439819,-0.155429929,-0.055781372,0.864866018
53.583566,28.168754578,9.703880310,21.294845581,-0.158603758,-0.055293091,0.865598440
53.584192,27.955131531,9.360557556,21.371139526,-0.157627195,-0.054804809,0.863157034
53.584818,28.100090027,8.841758728,21.249069214,-0.158603758,-0.055537231,0.859861135
53.585443,28.267936707,8.422142029,21.416915894,-0.156650633,-0.053217895,0.863645315
53.586069,28.184013367,7.949119568,21.523727417,-0.153476804,-0.054560669,0.862546682
53.599888,26.078300476,1.403099060,23.949874878,-0.108066648,-0.035883911,0.885617971
53.600605,26.032524109,1.242881775,24.033798218,-0.103672117,-0.031855591,0.882810354
53.601230,25.963859558,0.815635681,24.148239136,-0.106601804,-0.031245239,0.883054495
53.601855,25.651054382,0.670677185,24.148239136,-0.106723875,-0.030756958,0.882322073
53.602481,25.521354675,0.357872009,24.285568237,-0.104892820,-0.029536255,0.879880667
53.603106,25.506095886,0.174766541,24.255050659,-0.099155515,-0.025141723,0.881223440
53.603731,25.605278015,-0.153297424,24.636520386,-0.100742429,-0.027461059,0.881711721
53.604356,25.437431335,-0.328773499,24.445785522,-0.102573484,-0.025874145,0.882810354
53.604983,25.315361023,-0.275367737,24.674667358,-0.101841062,-0.021845825,0.885495901
53.605608,25.384025574,-0.733131409,24.659408569,-0.099277586,-0.019892700,0.886960745
53.606233,25.185661316,-0.778907776,24.819625854,-0.097202390,-0.021723755,0.886106253
53.606859,25.200920105,-1.068824768,24.857772827,-0.095249265,-0.017329223,0.890134573
53.607485,25.162773132,-1.381629944,24.743331909,-0.094760984,-0.015986450,0.883786917
53.608112,25.132255554,-1.511329651,24.895919800,-0.094272703,-0.012690552,0.885251760
53.608737,24.956779480,-1.892799377,25.040878296,-0.092319578,-0.010615356,0.883176565
53.609362,25.170402527,-1.976722717,25.231613159,-0.092075437,-0.011591919,0.884275198
53.609987,24.849967957,-2.167457581,25.178207397,-0.094150633,-0.009638794,0.878049612
53.610612,24.987297058,-2.335304260,25.132431030,-0.091587156,-0.006709106,0.882932425
53.611239,24.972038269,-2.754920959,25.338424683,-0.088901609,-0.002802856,0.884885550
53.611865,24.895744324,-2.838844299,25.132431030,-0.089145750,-0.000361450,0.884519339
53.612492,25.063591003,-2.876991272,25.254501343,-0.088535398,0.000493042,0.886228323
53.613118,24.911003113,-3.021949768,25.399459839,-0.087070554,0.002446167,0.884275198
53.613743,24.834709167,-3.372901917,25.307907104,-0.086216062,0.008793823,0.884153128
53.614370,24.888114929,-3.540748596,25.269760132,-0.086338133,0.008427612,0.884885550
53.614997,24.796562195,-3.601783752,25.506271362,-0.084140867,0.009892456,0.885007620
53.615624,24.712638855,-4.006141663,25.353683472,-0.085117429,0.017216675,0.881589651
53.616251,24.788932800,-3.967994690,25.254501343,-0.087192625,0.016362183,0.883298635
53.616877,24.735527039,-4.120582581,25.338424683,-0.083408445,0.019902222,0.879026175
53.617504,24.666862488,-4.387611389,25.323165894,-0.085971922,0.022343628,0.879880667
53.618130,24.743156433,-4.448646545,25.132431030,-0.085605711,0.026127808,0.879270315
53.619917,24.476127625,-4.769081116,25.056137085,-0.082920164,0.032841675,0.880979300
53.620543,24.689750671,-4.822486877,25.048507690,-0.082065672,0.033329956,0.879270315
53.621168,24.689750671,-5.058998108,24.911178589,-0.084140867,0.037114136,0.877927542
53.621793,24.598197937,-5.394691467,24.850143433,-0.082187742,0.039311402,0.873899221
53.628991,23.530082703,-6.973976135,23.873580933,-0.074985594,0.059697144,0.852781057
53.629616,23.682670593,-7.035011292,23.499740601,-0.075473875,0.059453003,0.854123831
53.630241,23.469047546,-7.157081604,23.461593628,-0.078159422,0.062993042,0.850950003
53.630866,23.331718445,-7.401222229,23.194564819,-0.075595945,0.062870972,0.848142385
53.631492,23.232536316,-7.378334045,23.087753296,-0.074131101,0.061528198,0.848752737
53.632118,23.270683289,-7.729286194,22.973312378,-0.074253172,0.062626831,0.845212698
53.632743,23.148612976,-7.851356506,22.660507202,-0.075718015,0.064335816,0.843137503
53.633368,23.102836609,-7.958168030,22.729171753,-0.073642820,0.064335816,0.842771292
53.633995,23.011283875,-8.248085022,22.546066284,-0.073642820,0.066899292,0.842527151
53.634620,22.805290222,-8.438819885,22.240890503,-0.073032469,0.067753784,0.840329885
53.635247,22.843437195,-8.667701721,22.225631714,-0.071811765,0.069462769,0.835935354
53.635872,22.362785339,-8.881324768,22.195114136,-0.071079344,0.074223511,0.840818167
53.636497,22.538261414,-9.140724182,21.897567749,-0.070102781,0.074101441,0.837766409
53.637123,22.286491394,-9.392494202,21.889938354,-0.073154539,0.073735230,0.836545706
53.651057,14.824943542,-14.595741272,17.800582886,-0.089756101,0.112431519,0.858274221
53.651813,14.107780457,-14.816993713,17.602218628,-0.094883054,0.116093628,0.858274221
53.652438,13.726310730,-15.198463440,17.411483765,-0.096103758,0.116948120,0.865964651
53.653065,13.108329773,-15.236610413,17.045272827,-0.098423094,0.116459839,0.867307425
53.653691,12.353019714,-15.877479553,16.663803101,-0.100498289,0.117802612,0.869748831
53.654317,11.941032410,-16.030067444,16.740097046,-0.100498289,0.117558472,0.871335745
53.654944,11.056022644,-16.258949280,16.259445190,-0.101230711,0.114750855,0.872800589
53.655569,10.697441101,-16.632789612,16.289962769,-0.106235594,0.117680542,0.877683401
53.656194,10.041313171,-16.709083557,15.969528198,-0.107456297,0.116215698,0.879270315
53.656821,9.377555847,-17.113441467,15.786422729,-0.107944578,0.113163941,0.888059378
53.657448,8.675651550,-17.342323303,15.336288452,-0.107700437,0.115971558,0.891477346
53.658074,7.805900574,-17.494911194,15.282882690,-0.110630125,0.115483277,0.894529104
53.658700,7.371025085,-17.678016663,14.855636597,-0.111728758,0.112797730,0.902707815
53.659326,6.531791687,-17.967933655,14.672531128,-0.110874265,0.108036987,0.906369925
53.659953,6.043510437,-18.128150940,14.199508667,-0.113803953,0.108159058,0.905515432
53.660580,5.326347351,-18.532508850,14.115585327,-0.112827390,0.109868042,0.913572073
53.661206,4.815177917,-18.807167053,13.787521362,-0.114048094,0.102421753,0.919431448
53.661831,3.945426941,-19.013160706,13.535751343,-0.112705320,0.105351441,0.920163870
53.662456,3.373222351,-19.097084045,13.467086792,-0.111728758,0.102055542,0.926877737
53.663081,2.900199890,-19.142860413,12.864364624,-0.112339109,0.102299683,0.929685354
53.663707,2.106742859,-19.562477112,12.696517944,-0.110996336,0.098759644,0.934324026
53.664332,1.442985535,-19.547218323,12.612594604,-0.111484617,0.097050659,0.937864065
53.664958,1.099662781,-19.699806213,12.391342163,-0.109287351,0.095829956,0.944333792
53.665585,0.054435730,-19.959205627,12.124313354,-0.108799070,0.095463745,0.947019339
53.666212,-0.410957336,-20.020240784,11.803878784,-0.105625242,0.093510620,0.950437307
53.666839,-0.945014954,-19.982093811,11.697067261,-0.105259031,0.088871948,0.953366995
53.667464,-1.616401672,-20.012611389,11.323226929,-0.104770750,0.089970581,0.959348440
53.668091,-1.852912903,-20.470375061,11.468185425,-0.102207273,0.090580933,0.963376760
53.668717,-2.737922668,-20.401710510,11.018051147,-0.102817625,0.091313355,0.966062307
53.669342,-3.271980286,-20.745033264,10.857833862,-0.100986570,0.091435425,0.972165823
53.671141,-5.240364075,-20.683998108,10.140670776,-0.101108640,0.090336792,0.980222464
53.671766,-6.117744446,-20.874732971,10.010971069,-0.098911375,0.092534058,0.987180471
53.672393,-6.621284485,-20.882362366,9.721054077,-0.093662351,0.090458862,0.991819143
53.673019,-7.346076965,-20.973915100,9.797348022,-0.092319578,0.092900269,0.990232229
53.673645,-8.116645813,-20.989173889,9.415878296,-0.095859617,0.091679566,0.994504690
53.674271,-8.551521301,-20.958656311,9.423507690,-0.093906492,0.085942261,1.000730276
53.674897,-9.184761047,-20.745033264,9.072555542,-0.089511961,0.085087769,1.002561331
53.675524,-10.130805969,-20.989173889,8.958114624,-0.090488523,0.086674683,1.006833792
53.676151,-10.588569641,-20.653480530,8.935226440,-0.091587156,0.084965698,1.009519339
53.676776,-11.046333313,-20.767921448,8.889450073,-0.090488523,0.082646362,1.007566214
53.677402,-11.786384583,-20.951026917,8.370651245,-0.086948484,0.082646362,1.008786917
53.678029,-12.373847961,-20.844215393,8.546127319,-0.088535398,0.084477417,1.010862112
53.678654,-12.816352844,-20.699256897,8.385910034,-0.083530515,0.082524292,1.013791800
53.679280,-13.388557434,-20.989173889,8.050216675,-0.085971922,0.083867066,1.013547659
53.679905,-14.128608704,-20.828956604,8.202804565,-0.088291258,0.082036011,1.018430471
53.680530,-14.563484192,-20.943397522,8.027328491,-0.083896726,0.085942261,1.018308401
53.681155,-15.013618469,-20.752662659,7.882369995,-0.082553953,0.083134644,1.019895315
53.695053,-18.896980286,-18.715614319,5.578292847,-0.087436765,0.065190308,1.081418753
53.695793,-18.797798157,-18.448585510,5.364669800,-0.083774656,0.058598511,1.083738089
53.696419,-18.813056946,-18.364662170,5.440963745,-0.081943601,0.058842652,1.085447073
53.697044,-18.515510559,-18.013710022,5.158676147,-0.083164304,0.057866089,1.090207815
53.697671,-18.584175110,-17.510169983,4.906906128,-0.079258054,0.052739136,1.090085745
53.698298,-18.538398743,-17.670387268,5.067123413,-0.079746336,0.054081909,1.090574026
53.698924,-18.195075989,-16.991371155,4.761947632,-0.077793211,0.052983277,1.097898245
53.699549,-18.042488098,-16.884559631,4.647506714,-0.071323484,0.049199097,1.099363089
53.700175,-17.966194153,-16.518348694,4.616989136,-0.070713133,0.044560425,1.100461721
53.700800,-17.783088684,-16.014808655,4.395736694,-0.065464109,0.047001831,1.103391409
53.701425,-17.561836243,-15.816444397,4.334701538,-0.064365476,0.040410034,1.106809378
53.702050,-17.264289856,-15.373939514,4.159225464,-0.062412355,0.039799683,1.112424612
