time,gyro x,gyro y,gyro z,accel x,accel y,accel z
7.258171,1.049491882,-0.069564819,-0.286437988,0.003887450,0.018725708,1.026632905
7.267998,1.202079773,1.166397095,-0.019409180,-0.004657472,0.019458130,1.006857514
7.268623,1.102897644,0.838333130,-0.065185547,-0.012836182,0.018237427,1.007223725
7.269250,0.950309753,0.502639771,-0.141479492,-0.014789307,0.011157349,1.015524507
7.269877,1.133415222,0.334793091,-0.164367676,-0.009662354,0.004565552,1.020773530
7.270504,1.263114929,-0.138229370,-0.156738281,-0.007465089,0.004687622,1.026266694
7.271129,1.461479187,-0.580734253,0.102661133,-0.004047120,0.000781372,1.032492280
7.271756,1.652214050,-0.710433960,-0.171997070,0.009258544,0.002490357,1.039938569
7.272382,1.347038269,-0.695175171,-0.004150391,0.021953857,0.008960083,1.029562593
7.273008,0.828239441,0.182205200,-0.240661621,0.027080810,0.007617310,1.031881928
7.273635,0.431510925,0.464492798,-0.164367676,0.025860107,0.001513794,1.034201264
7.274363,0.874015808,0.510269165,0.033996582,0.015606200,-0.009594604,1.039572358
7.275081,1.934501648,0.479751587,0.064514160,0.004741943,-0.017895386,1.048239350
7.275921,3.139945984,-0.481552124,0.110290527,-0.005756104,0.001880005,1.060812593
7.276749,3.048393250,-0.336593628,0.186584473,0.004619872,0.013598755,1.065573335
7.277598,2.872917175,-0.199264526,0.049255371,0.013408935,0.021167114,1.071310639
7.278419,2.018424988,-0.100082397,0.110290527,0.018291747,0.026782349,1.071554780
7.279238,1.568290710,-0.206893921,0.056884766,0.010235107,0.027270630,1.078512788
7.280098,1.202079773,-0.168746948,0.133178711,0.001079833,0.022998169,1.078756928
7.280900,1.072380066,-0.870651245,0.194213867,0.001323974,0.025683716,1.070212007
7.281525,0.187370300,-0.664657593,0.041625977,0.016826903,0.033496216,1.051657319
7.282151,-0.598457336,-0.229782104,-0.080444336,0.027202880,0.033130005,1.033835053
7.282776,-1.361396790,0.342422485,-0.027038574,0.027202880,0.023242310,1.021261811
7.283401,-1.391914368,0.876480103,-0.011779785,0.025982177,0.012500122,1.002462983
7.284026,-1.330879211,1.097732544,-0.019409180,0.024395263,0.007861450,0.981100678
7.284653,-1.712348938,1.700454712,0.003479004,0.018535888,0.000171021,0.962790132
7.285280,-1.361396790,2.043777466,-0.286437988,0.002666747,-0.013744995,0.957296968
7.285905,-0.239875793,1.853042603,-0.202514648,-0.010883057,-0.023876831,0.952414155
7.287751,2.491447449,0.380569458,0.033996582,-0.023090089,-0.009594604,0.973044038
7.288376,2.514335632,-0.046676636,-0.011779785,-0.018939698,0.003222778,0.976584077
7.289003,2.239677429,-0.168746948,-0.095703125,-0.015765870,0.008960083,0.986227632
7.289628,2.010795593,-0.443405151,0.110290527,-0.014423097,0.017993286,0.992087007
7.290254,1.659843445,-0.855392456,-0.126220703,-0.000995362,0.019946411,0.982809663
7.290879,0.706169128,-0.672286987,0.125549316,0.001446044,0.018969849,0.979513764
7.291505,0.332328796,-0.466293335,-0.194885254,-0.000995362,0.016406372,0.977194428
7.292132,-0.010993958,-0.542587280,0.033996582,-0.001971925,0.012622193,0.971457124
7.292757,-0.026252747,-0.588363647,-0.057556152,-0.001727784,0.007495239,0.973898530
7.293382,0.477287292,-0.679916382,0.033996582,0.000713622,0.004809693,0.974630952
7.294008,0.439140320,-0.634140015,0.041625977,0.000713622,-0.002148315,0.977682710
7.294633,0.858757019,-0.588363647,0.003479004,0.003765380,-0.001293823,0.985006928
7.295259,1.278373718,-0.664657593,0.285766602,0.007061278,-0.003857300,0.995260835
7.295885,1.575920105,-0.824874878,-0.133850098,0.006450927,0.002246216,1.007223725
7.296511,2.178642273,-1.282638550,0.148437500,-0.003802979,0.002612427,1.031149507
7.297138,2.994987488,-2.045578003,0.484130859,-0.015765870,0.001513794,1.071432710
7.297763,2.972099304,-2.556747437,0.339172363,0.016460693,0.042651489,1.059225678
7.298388,1.141044617,-1.519149780,-0.011779785,0.036968507,0.062182739,1.047140718
7.299014,-1.163032532,0.250869751,-0.408508301,0.053936280,0.062060669,1.034811616
7.299641,-2.482917786,1.715713501,-0.591613770,0.052105226,0.041430786,1.021261811
7.300267,-2.681282043,2.097183228,-0.049926758,0.039409913,0.015918091,1.016623139
7.300894,-2.177742004,1.944595337,0.217102051,0.017437255,0.007373169,1.005148530
7.315347,2.033683777,0.433975220,-0.179626465,0.010845458,0.017749146,1.022726655
7.316099,1.484367371,0.823074341,-0.187255859,0.027935302,0.030200318,1.017721772
7.316725,0.805351257,1.685195923,-0.217773438,0.029644286,0.022876099,1.016378999
7.317530,0.523063660,1.982742310,-0.179626465,0.021831786,0.016650513,1.028097749
7.318156,0.637504578,1.929336548,-0.141479492,0.018047607,0.014331177,1.025290132
7.318782,0.423881531,2.211624146,0.079772949,0.009868896,0.009936646,1.024313569
7.319407,0.538322449,2.524429321,-0.179626465,0.007549560,0.013110474,1.020773530
7.320034,0.629875183,2.821975708,-0.095703125,0.004619872,0.007861450,1.022726655
7.320660,0.881645203,2.837234497,-0.431396484,0.011333739,0.007373169,1.024801850
7.321285,0.683280945,2.516799927,-0.194885254,0.009258544,0.011767700,1.016989350
7.321912,0.477287292,2.875381470,-0.133850098,0.009258544,0.009448364,1.015646577
7.322537,0.576469421,2.669387817,-0.179626465,0.000835693,0.012011841,1.016745210
7.323163,0.652763367,2.402359009,-0.103332520,-0.006488526,0.016772583,1.017721772
7.323790,0.492546082,1.784378052,-0.057556152,-0.012469972,0.020556763,1.018087983
7.324416,0.523063660,1.647048950,-0.202514648,-0.011615479,0.019458130,1.015280366
7.325041,0.439140320,1.334243774,-0.034667969,-0.009784425,0.015185669,1.016989350
7.325666,0.065299988,1.013809204,-0.042297363,-0.005023682,0.013598755,1.011007905
7.326293,-0.506904602,1.280838013,-0.179626465,0.006572997,0.011767700,0.998434663
7.326918,-0.941780090,1.578384399,-0.294067383,0.012432372,0.010302857,0.986349702
7.327543,-1.292732239,1.967483521,-0.149108887,0.011089599,0.006152466,0.978293061
7.328169,-1.208808899,2.120071411,-0.065185547,-0.000873292,-0.007519409,0.975973725
7.328796,-0.430610657,1.517349243,-0.011779785,-0.008807862,-0.012158081,0.976217866
7.329423,0.446769714,1.196914673,0.072143555,-0.016498292,-0.011669800,0.973654389
7.330048,0.835868835,0.838333130,-0.011779785,-0.018329347,-0.001904175,0.973898530
7.330675,1.041862488,0.578933716,-0.088073730,-0.010883057,0.004443482,0.974020600
7.331300,1.034233093,0.563674927,-0.057556152,-0.001727784,0.009204224,0.974386811
7.331925,1.125785828,0.685745239,-0.126220703,0.006572997,0.010913208,0.975851655
7.332551,0.927421570,0.655227661,0.041625977,0.008159911,0.008471802,0.987448335
7.333176,1.217338562,0.548416138,0.148437500,0.003643310,0.002002075,0.989279389
7.333803,1.293632507,0.350051880,0.026367188,-0.002704347,0.000048950,0.998068452
7.335618,1.278373718,0.456863403,-0.049926758,-0.000873292,0.002002075,1.000143647
7.336243,0.812980652,0.922256470,-0.065185547,0.008281982,0.003833130,0.996603608
7.336870,0.820610046,1.029067993,-0.141479492,0.014263427,0.006762818,0.991842866
7.337495,0.584098816,1.181655884,-0.164367676,0.012554443,0.006762818,0.995871186
7.338120,0.935050964,1.471572876,0.056884766,0.009014403,0.001269653,1.001120210
7.338745,1.369926453,1.326614380,-0.049926758,-0.000018800,-0.003491089,1.006857514
7.339371,1.766654968,0.807815552,0.011108398,-0.005878175,-0.006054565,1.020529389
7.340000,1.888725281,0.853591919,0.087402344,-0.002338136,0.001880005,1.033712983
7.340626,2.117607117,0.769668579,0.064514160,0.002178466,0.006396607,1.040670991
7.341252,2.300712585,0.540786743,-0.080444336,0.006572997,0.012255982,1.050314546
7.341877,1.163932800,0.952774048,-0.049926758,0.017559325,0.033984497,1.049826264
7.342502,0.187370300,1.204544067,-0.019409180,0.018780028,0.033252075,1.044211030
7.343128,-0.278022766,1.784378052,-0.065185547,0.016826903,0.028125122,1.040670991
7.343754,-0.598457336,1.998001099,0.011108398,0.011333739,0.017871216,1.030905366
7.344379,-0.598457336,1.906448364,0.003479004,0.008526122,0.008349732,1.029074311
7.345006,-0.453498840,1.914077759,-0.019409180,0.003155028,0.005908325,1.019674897
7.345631,-0.117805481,1.830154419,-0.095703125,-0.002216065,-0.000805542,1.018087983
7.346256,0.225517273,1.700454712,0.003479004,-0.001727784,0.000781372,1.020895600
7.346881,0.713798523,1.601272583,0.125549316,0.006206786,0.003100708,1.016623139
7.347506,0.484916687,1.998001099,-0.126220703,0.041118897,0.028003052,0.994650483
7.363513,2.964469910,5.103164673,-0.027038574,0.014629638,-0.002514526,1.013571382
7.364271,3.078910828,5.553298950,-0.240661621,0.017437255,-0.000317261,1.014425874
7.364897,3.345939636,5.942398071,-0.019409180,0.014995849,0.007861450,1.021750093
7.365524,3.376457214,6.285720825,-0.294067383,0.011455810,0.010791138,1.024679780
7.366149,3.345939636,6.560379028,-0.049926758,0.008281982,0.014331177,1.023947358
7.366776,3.162834167,6.590896606,-0.156738281,0.003765380,0.014575318,1.027365327
7.367403,3.048393250,6.812149048,-0.271179199,0.002910888,0.012133911,1.029684663
7.368028,3.139945984,6.789260864,-0.255920410,0.000835693,0.010546997,1.050314546
7.368653,2.941581726,6.674819946,-0.202514648,-0.003558839,0.021777466,1.066671968
7.369279,2.041313171,6.438308716,-0.347473145,-0.002093995,0.041552857,1.066916108
7.369905,1.156303406,6.178909302,-0.286437988,-0.002216065,0.056079224,1.065695405
7.370530,0.278923035,5.843215942,-0.187255859,-0.011371339,0.054736450,1.054464936
7.371155,-0.674751282,5.751663208,-0.194885254,-0.014545167,0.039355591,1.047628999
7.371782,-1.124885559,5.400711060,-0.080444336,-0.011249268,0.028735474,1.032492280
7.372407,-1.559761047,5.271011353,-0.194885254,-0.007831300,0.018115357,1.022848725
7.373034,-1.300361633,4.912429810,-0.271179199,0.001934325,0.013720825,1.014181733
7.373659,-1.002815247,5.103164673,-0.080444336,0.011944091,0.011889771,1.007712007
7.374284,-1.040962219,5.492263794,-0.179626465,0.011089599,0.004687622,1.002340913
7.374910,-0.728157043,5.507522583,-0.248291016,0.012432372,-0.001904175,1.001730561
7.375535,-0.331428528,6.087356567,-0.271179199,0.016582763,-0.006176636,1.006003022
7.376160,-0.148323059,6.491714478,-0.049926758,0.015850341,-0.008007690,1.002707124
7.376785,0.004264832,6.506973267,-0.370361328,0.013653075,-0.000317261,1.006125093
7.377411,0.294181824,6.728225708,-0.088073730,0.004131591,0.001025513,1.007589936
7.378037,0.530693054,6.796890259,-0.255920410,-0.001849854,0.004321411,1.018332124
7.378663,0.530693054,6.804519653,-0.461914062,-0.008319581,0.008960083,1.027853608
7.379300,0.034782410,6.506973267,-0.332214355,-0.004535401,0.026049927,1.030172944
7.379925,-0.239875793,6.461196899,-0.393249512,0.001812255,0.033496216,1.032248139
7.380551,-0.659492493,6.369644165,-0.362731934,0.004009521,0.029589966,1.026877046
7.381176,-1.109626770,6.552749634,-0.225402832,-0.003314698,0.024829224,1.022238374
7.381801,-1.437690735,6.438308716,-0.431396484,-0.006610597,0.015918091,1.021261811
7.383612,-1.315620422,5.866104126,-0.126220703,-0.007587159,0.004443482,1.018332124
7.384239,-1.033332825,5.499893188,-0.339843750,-0.008441651,0.002490357,1.015768647
7.384865,-0.880744934,5.469375610,-0.019409180,-0.001239503,0.005664185,1.012472749
7.385490,-0.735786438,5.408340454,-0.240661621,-0.001849854,0.017627075,1.015158296
7.386116,-1.178291321,5.141311646,-0.225402832,-0.011737550,0.029101685,1.015158296
7.386742,-1.369026184,5.065017700,-0.316955566,-0.017230714,0.016162232,1.019796968
7.387368,-1.018074036,4.454666138,0.095031738,-0.011249268,0.004931763,1.021872163
7.387998,-0.720527649,4.012161255,-0.225402832,-0.004535401,0.002978638,1.013937593
7.388624,-0.766304016,4.042678833,-0.225402832,0.001079833,0.009204224,1.005392671
7.389251,-0.682380676,4.172378540,-0.149108887,0.000835693,0.012378052,1.005392671
7.389877,-0.979927063,4.195266724,-0.080444336,0.007671630,0.009448364,1.003073335
7.390503,-0.842597961,4.187637329,-0.316955566,0.008159911,0.004321411,1.002707124
7.391128,-0.918891907,4.431777954,-0.149108887,-0.000140870,0.002368286,1.000143647
7.391753,-0.590827942,4.355484009,-0.072814941,-0.000507081,0.003466919,0.998312593
7.392378,-0.499275208,4.248672485,-0.332214355,-0.001727784,0.008960083,0.996725678
7.393003,-0.567939758,4.355484009,-0.027038574,0.004009521,0.016894653,0.998068452
7.393628,-0.636604309,4.393630981,-0.309326172,0.005474364,0.017260864,0.999289155
7.394253,-0.720527649,4.630142212,-0.194885254,0.001690185,0.017382935,1.002096772
7.394878,-0.888374329,4.363113403,-0.019409180,-0.002826417,0.016406372,1.006247163
7.409241,1.095268250,1.135879517,-0.126220703,0.017071044,0.009814575,1.014303803
7.409998,0.858757019,1.471572876,-0.088073730,0.023540771,0.010546997,1.013327241
7.410624,0.706169128,1.723342896,0.148437500,0.014141357,0.007373169,1.014792085
7.411250,0.637504578,2.196365356,-0.004150391,0.011699950,0.006884888,1.012838960
7.411875,0.477287292,2.532058716,-0.271179199,0.003765380,0.008960083,1.012716889
7.412500,0.614616394,2.532058716,-0.011779785,-0.000751222,0.014209107,1.012961030
7.413126,0.629875183,2.539688110,0.011108398,0.003643310,0.010669068,1.019064546
7.413753,0.706169128,2.661758423,-0.042297363,-0.008075440,0.022387818,1.020407319
7.414379,0.462028503,2.699905396,0.140808105,-0.002216065,0.026904419,1.018210053
7.415005,0.103446960,2.501541138,0.072143555,0.000591552,0.029345825,1.018210053
7.415630,-0.300910950,2.471023560,-0.095703125,-0.001117432,0.029467896,1.021750093
7.416255,-0.636604309,2.493911743,-0.156738281,0.005230224,0.034716919,1.009787202
7.416880,-1.262214661,2.837234497,0.003479004,-0.003558839,0.036792114,1.003073335
7.417506,-1.842048645,2.867752075,-0.141479492,-0.016498292,0.020068482,1.006979585
7.418131,-1.437690735,2.257400513,-0.034667969,-0.014667237,0.003711060,1.005758882
7.418757,-1.346138000,2.280288696,-0.118591309,-0.015643800,-0.006054565,0.994040132
7.419384,-1.269844055,2.028518677,-0.240661621,-0.020770753,-0.004101440,0.989645600
7.420011,-1.018074036,1.776748657,-0.049926758,0.002788818,-0.001904175,0.975241303
7.420636,-1.147773743,2.226882935,-0.362731934,0.008404052,0.004321411,0.962057710
7.421262,-1.552131653,2.883010864,-0.454284668,0.022442138,0.018969849,0.937521577
7.421887,-2.658393860,3.966384888,-0.210144043,0.032696046,0.017016724,0.920065522
7.422514,-2.933052063,4.775100708,-0.202514648,0.008159911,0.010791138,0.921042085
7.423141,-2.719429016,4.881912231,-0.095703125,-0.009784425,-0.002880737,0.918966889
7.423767,-2.376106262,4.797988892,-0.286437988,-0.019061768,-0.017162964,0.926046968
7.424393,-1.765754700,4.508071899,-0.149108887,-0.030048097,-0.014599487,0.930685639
7.425019,-0.903633118,3.562026978,0.041625977,-0.050067626,-0.010449097,0.948385835
7.425644,-0.407722473,2.699905396,0.018737793,-0.025653565,-0.000683472,0.956564546
7.426271,-0.445869446,2.791458130,-0.263549805,-0.018085206,0.012133911,0.958151460
7.426898,-0.644233704,2.707534790,-0.141479492,-0.018573487,0.023730591,0.963522553
7.427525,-0.941780090,2.532058716,0.003479004,-0.016132081,0.014331177,0.968649507
7.429298,-0.224617004,1.463943481,-0.194885254,-0.027240479,0.003100708,0.995260835
7.429923,0.065299988,0.876480103,-0.126220703,-0.023944581,0.000293091,1.003927827
7.430549,0.217887878,0.533157349,-0.240661621,-0.016010011,-0.005078003,1.018576264
7.431174,0.477287292,0.273757935,-0.149108887,-0.006976807,-0.002026245,1.027853608
7.431800,0.660392761,-0.008529663,0.110290527,0.003155028,0.008960083,1.034323335
7.432427,0.393363953,0.449234009,-0.011779785,0.013775146,0.013598755,1.037619233
7.433052,0.187370300,0.723892212,0.026367188,0.005718505,0.010546997,1.046896577
7.433679,0.202629089,0.975662231,-0.027038574,0.014263427,0.000659302,1.050314546
7.434304,0.507804871,1.067214966,0.156066895,0.011089599,0.004199341,1.051169038
7.434929,0.233146667,1.151138306,0.156066895,-0.004413331,0.010546997,1.048605561
7.435556,0.202629089,1.082473755,-0.019409180,-0.000873292,0.003833130,1.056662202
7.436181,0.477287292,1.212173462,0.095031738,0.003155028,0.004321411,1.055685639
7.436807,0.462028503,1.112991333,0.018737793,0.004253661,0.008349732,1.051901460
7.437433,0.645133972,1.074844360,0.262878418,0.000591552,0.013598755,1.053610444
7.438060,0.355216980,1.036697388,0.102661133,-0.003925050,0.026904419,1.056295991
7.438685,0.004264832,1.189285278,0.117919922,-0.006854737,0.034106568,1.054831147
7.439310,-0.621345520,0.960403442,0.133178711,-0.000507081,0.032641724,1.051046968
7.439936,-0.842597961,0.945144653,0.156066895,-0.001239503,0.025317505,1.045309663
7.440563,-1.178291321,1.029067993,0.308654785,-0.008929932,0.010791138,1.034323335
7.454614,0.072929382,-0.000900269,0.125549316,-0.011249268,0.004321411,1.002340913
7.455363,-0.361946106,0.136428833,0.110290527,0.003277099,0.020922974,0.994040132
7.455988,-0.804450989,0.502639771,0.056884766,0.007061278,0.016650513,0.998678803
7.456613,-0.949409485,1.013809204,0.072143555,0.012188232,0.013598755,0.995260835
7.457238,-1.292732239,1.326614380,-0.057556152,0.007671630,0.004931763,0.993551850
7.457863,-1.117256165,1.456314087,0.224731445,0.009136474,0.003588989,1.000509858
7.458490,-1.086738586,1.608901978,0.026367188,-0.004657472,-0.000561401,1.002829194
7.459118,-0.522163391,0.922256470,0.278137207,-0.014545167,-0.000317261,1.025656343
7.459744,-0.522163391,0.922256470,0.278137207,-0.014545167,-0.000317261,1.025656343
7.460369,-0.690010071,0.807815552,0.133178711,-0.014056886,0.003100708,1.029806733
7.461000,-0.155952454,0.289016724,0.194213867,-0.004657472,0.005542114,1.043722749
7.461626,-0.094917297,0.281387329,0.247619629,-0.004047120,0.012988403,1.044333100
7.462252,-0.545051575,-0.023788452,0.087402344,-0.004169190,0.010913208,1.048971772
7.462877,-0.491645813,0.037246704,0.239990234,0.004986083,0.009692505,1.049093843
7.463502,-0.331428528,0.342422485,0.323913574,0.008037841,0.022021607,1.041891694
7.464128,-0.941780090,0.845962524,0.232360840,0.006450927,0.020068482,1.043478608
7.464754,-1.018074036,0.571304321,0.224731445,0.001934325,0.013598755,1.052633882
7.465379,-0.834968567,0.495010376,0.255249023,-0.000018800,0.013476685,1.051779389
7.466006,-0.957038879,0.639968872,0.163696289,0.008892333,0.024218872,1.035544038
7.466649,-1.437690735,1.296096802,-0.057556152,0.014019286,0.024829224,1.026388764
7.467511,-1.552131653,1.532608032,0.072143555,0.013531005,0.015307739,1.026877046
7.468385,-1.788642883,1.853042603,0.072143555,0.013531005,0.016284302,1.013083100
7.469244,-1.391914368,1.753860474,0.102661133,-0.021259034,-0.006298706,1.017477632
7.470158,-0.903633118,1.227432251,0.316284180,-0.020526612,-0.007031128,1.014425874
7.470957,-0.163581848,0.662857056,0.041625977,-0.028461182,-0.011059448,1.023337007
7.471583,0.454399109,-0.077194214,0.056884766,-0.026874268,-0.004711792,1.024801850
7.472209,0.668022156,-0.153488159,0.033996582,-0.002216065,0.015429810,1.015280366
7.472835,-0.163581848,0.380569458,-0.057556152,0.030254638,0.041064575,0.989279389
7.474583,-2.612617493,2.440505981,0.316284180,-0.030658448,-0.006786987,0.995993257
7.475209,-1.315620422,1.647048950,0.209472656,-0.065936767,-0.027905151,1.008200288
7.475835,-0.033882141,-0.298446655,-0.019409180,-0.076312743,-0.046459839,1.030295014
7.476460,1.400444031,-1.892990112,0.194213867,-0.047015868,-0.035473511,1.035299897
7.477086,1.987907410,-2.182907104,-0.156738281,0.002788818,-0.003124878,1.028830171
7.477711,1.903984070,-1.854843140,0.064514160,0.007793700,-0.008007690,1.053610444
7.478338,2.041313171,-2.381271362,0.331542969,-0.008441651,-0.000195190,1.071554780
7.478964,2.109977722,-2.556747437,0.255249023,-0.014178956,-0.000439331,1.082052827
7.479590,2.224418640,-2.854293823,0.217102051,-0.019305909,-0.000683472,1.099630952
7.480215,2.300712585,-3.464645386,0.156066895,0.003643310,0.023364380,1.097433686
7.480840,2.651664734,-3.525680542,0.278137207,0.000469482,-0.002148315,1.123434663
7.481467,2.300712585,-3.548568726,0.621459961,0.074566163,0.092700318,1.064108491
7.482093,-4.184272766,2.379470825,-0.812866211,0.272320062,0.278003037,0.865744233
7.482720,-10.470893860,10.047012329,-1.415588379,0.217876703,0.174853638,0.904318452
7.483346,-11.790779114,11.199050903,0.842712402,0.029400146,0.015551880,0.967062593
7.483973,-9.852912903,9.345108032,1.567504883,-0.127948493,-0.073681518,0.960104585
7.484600,-6.610420227,6.712966919,0.011108398,-0.202777594,-0.098217651,0.985739350
7.485226,-3.100898743,2.631240845,-0.400878906,-0.182147712,-0.102001831,1.016501069
7.485851,-0.300910950,-0.756210327,-0.606872559,-0.047015868,-0.062817261,0.981222749
7.486476,-0.110176086,-0.481552124,-0.515319824,0.044781007,-0.008251831,0.949850678
7.487102,-0.857856750,0.426345825,-0.065185547,0.039898194,0.029467896,0.949362397
7.500998,-1.391914368,-0.168746948,0.110290527,-0.025287354,-0.027050659,1.066794038
7.501731,-0.781562805,-0.489181519,-0.095703125,-0.011005128,-0.030590698,1.080587983
7.502357,-0.293281555,-0.672286987,-0.110961914,0.002666747,-0.030102417,1.089987397
7.502982,0.225517273,-0.817245483,0.224731445,-0.000262940,-0.025097534,1.095114350
7.503607,0.973197937,-0.977462769,0.278137207,-0.012836182,-0.021557495,1.107687593
7.504233,1.232597351,-1.297897339,0.217102051,-0.007098878,-0.002514526,1.112814546
7.504860,0.957939148,-1.053756714,0.148437500,0.047954835,0.047900513,1.076437593
7.505487,-0.552680969,0.777297974,-0.164367676,0.069072999,0.054370239,1.061422944
7.506113,-1.597908020,1.639419556,0.095031738,0.044781007,0.053149536,1.061422944
7.506739,-2.772834778,2.577835083,0.247619629,0.018902099,0.038501099,1.051291108
7.507366,-2.269294739,2.013259888,0.232360840,-0.057269774,-0.011791870,1.080832124
7.508000,-1.521614075,0.701004028,0.087402344,-0.053363524,0.007861450,1.053610444
7.508625,-2.673652649,1.288467407,-0.393249512,0.060894288,0.070971802,0.968039155
7.509251,-4.924324036,3.943496704,-0.637390137,0.086529054,0.066577271,0.941549897
7.516483,0.530693054,-3.632492065,-0.255920410,-0.016864503,-0.064404175,0.903586030
7.517108,1.385185242,-3.426498413,-0.233032227,0.015362060,-0.047924682,0.923239350
7.517735,1.881095886,-2.892440796,0.186584473,-0.005634034,-0.031323120,0.951071382
7.518362,1.942131042,-2.930587769,0.384948730,-0.027484620,-0.021069214,0.983297944
7.518988,2.483818054,-3.945297241,0.522277832,-0.051532470,-0.015331909,1.019064546
7.519614,3.162834167,-5.021041870,0.232360840,-0.049579345,-0.009960815,1.062887788
7.521455,3.124687195,-4.425949097,-0.370361328,0.121441163,0.092456177,1.092184663
7.522081,1.194450378,-2.083724976,-0.133850098,0.094951905,0.067431763,1.136496186
7.522706,1.018974304,-2.129501343,0.827453613,-0.042255126,-0.023022339,1.210470796
7.523332,3.559562683,-5.433029175,1.102111816,-0.163348883,-0.092358276,1.284079194
7.523959,4.642936707,-8.110946655,0.369689941,-0.005389893,0.049609497,1.200094819
7.524585,4.017326355,-5.509323120,-0.789978027,0.097515382,0.001269653,1.225729585
7.525210,4.879447937,-5.623764038,0.362060547,0.057232179,-0.031078979,1.272238374
7.525836,5.512687683,-5.959457397,1.208923340,-0.009052003,-0.050366089,1.272726655
7.526463,-5.191352844,-1.122421265,0.957153320,0.732647240,1.383349776,0.501974702
7.527089,-54.034736633,38.497024536,-4.635192871,1.038189173,1.144580245,0.520895600
7.527716,-60.359504700,42.456680298,-1.545288086,-0.242328376,0.126391724,0.908590913
7.528342,-51.700141907,14.525466919,7.648132324,-1.101581335,-0.478466690,0.853048921
7.528967,-34.213569641,-4.471725464,3.780029297,-0.867206275,-0.439404190,0.649557710
7.529594,-23.997810364,-10.880416870,-4.322387695,-0.175800055,-0.208691284,0.485373139
7.530219,-3.947761536,-3.525680542,-0.210144043,0.233989984,-0.669628799,0.604025483
7.530975,5.085441589,-2.205795288,2.078674316,-0.111591063,-0.470287979,0.660544038
7.531732,8.236381531,-4.059738159,1.117370605,-0.281146735,-0.135815307,0.692404389
7.532507,8.335563660,-7.103866577,-0.324584961,-0.183002204,-0.023754761,0.762106538
7.533285,9.312126160,-9.102767944,-0.759460449,-0.021259034,-0.014843628,0.866720796
7.534073,8.465263367,-7.897323608,0.354431152,0.012920653,0.174731568,0.993551850
7.534700,5.512687683,-7.325119019,0.484130859,-0.053119384,0.204516724,1.018942475
7.535326,3.208610535,-7.714218140,-0.301696777,-0.061053954,0.161792114,1.069113374
7.535953,0.851127625,-8.652633667,-0.301696777,-0.040912353,0.090747193,1.077047944
7.536580,-1.552131653,-9.743637085,0.392578125,-0.029803956,0.001269653,1.056295991
7.537205,-3.070381165,-9.797042847,0.850341797,-0.006000245,-0.070263550,1.049582124
7.537831,-3.634956360,-9.438461304,0.796936035,0.039409913,-0.134106323,1.085592866
7.538458,-2.780464172,-8.728927612,1.109741211,0.069805421,-0.167919800,1.104513764
7.539084,-1.315620422,-7.615036011,1.392028809,0.052471437,-0.156567261,1.088522553
7.539709,0.103446960,-6.760543823,1.788757324,0.019268310,-0.112011597,1.073263764
7.553776,1.255485535,-5.913681030,0.377319336,-0.011737550,-0.045239136,0.989157319
7.554566,1.881095886,-6.585067749,0.499389648,-0.017230714,-0.036450073,0.969870210
7.555191,2.552482605,-6.699508667,0.453613281,-0.014056886,-0.033032104,0.965963960
7.555818,2.888175964,-6.859725952,0.537536621,-0.007831300,-0.023998901,0.964743257
7.556445,3.048393250,-6.943649292,0.667236328,-0.004779542,-0.017285034,0.963400483
7.557070,3.452751160,-7.080978394,0.682495117,-0.008075440,-0.007641479,0.971701264
7.557697,3.551933289,-7.248825073,0.667236328,-0.006610597,-0.002636597,0.979147553
7.558323,3.551933289,-7.027572632,0.796936035,-0.011615479,0.000048950,0.983420014
7.558949,3.262016296,-7.157272339,0.735900879,-0.010394776,-0.006054565,0.992575288
7.559575,3.269645691,-6.966537476,0.919006348,-0.005878175,-0.016308472,1.004782319
7.560202,3.124687195,-7.164901733,0.964782715,-0.003314698,-0.023266479,1.003439546
7.560828,2.911064148,-7.142013550,1.018188477,-0.006244386,-0.023388550,1.000631928
7.561454,2.766105652,-7.378524780,1.125000000,-0.010028565,-0.018627807,1.001120210
7.562079,2.758476257,-7.157272339,1.224182129,-0.012347901,-0.011425659,0.997336030
7.562706,2.430412292,-7.340377808,1.247070312,-0.008563722,-0.001782104,0.997702241
7.563331,2.384635925,-7.523483276,1.254699707,-0.005511964,0.004931763,0.991476655
7.564012,2.003166199,-7.416671753,1.277587891,-0.009418214,0.009204224,0.991964936
7.564663,1.842948914,-7.470077515,1.460693359,-0.005267823,0.014209107,0.996847749
7.565288,1.697990417,-7.431930542,1.285217285,-0.000385011,0.016528443,0.996359468
7.565913,1.286003113,-7.615036011,1.117370605,-0.001117432,0.020312622,0.994650483
7.566540,1.118156433,-7.325119019,1.201293945,-0.002338136,0.019458130,1.000753999
7.567165,1.034233093,-7.454818726,1.193664551,-0.002460206,0.021899536,1.004660249
7.567790,0.606987000,-7.393783569,1.208923340,0.000347411,0.025683716,1.006003022
7.568415,0.164482117,-7.172531128,1.285217285,0.004375732,0.023974732,1.004049897
7.569040,-0.079658508,-7.203048706,1.186035156,0.002178466,0.023486450,1.003439546
7.569666,-0.064399719,-7.348007202,1.125000000,0.001812255,0.015185669,1.005758882
7.570292,0.103446960,-7.225936890,1.041076660,0.003277099,0.012500122,1.000753999
7.570919,0.004264832,-7.264083862,0.957153320,0.004864013,0.008105591,1.008932710
7.571546,0.393363953,-7.157272339,0.919006348,0.003277099,0.012988403,1.008932710
7.572173,0.423881531,-6.890243530,0.964782715,0.005352294,0.014941528,1.021139741
7.573969,0.202629089,-6.676620483,0.827453613,0.005718505,0.018603638,1.041769624
7.574595,0.301811218,-6.783432007,0.865600586,0.008404052,0.019213989,1.048605561
7.575221,0.065299988,-6.638473511,0.499389648,0.009014403,0.017260864,1.053610444
7.575846,-0.094917297,-6.615585327,0.621459961,0.008526122,0.016528443,1.056051850
7.576471,-0.392463684,-6.401962280,0.888488770,0.008892333,0.016772583,1.059958100
7.577097,-0.422981262,-6.134933472,0.659606934,0.005474364,0.014453247,1.061300874
7.577722,-0.705268860,-6.226486206,0.606201172,0.011455810,0.008715943,1.061911225
7.578349,-0.621345520,-5.898422241,0.476501465,0.010601318,0.005542114,1.063253999
7.578974,-0.438240051,-5.539840698,0.499389648,0.015972411,-0.001293823,1.067160249
7.579599,-0.453498840,-5.486434937,0.697753906,0.018413818,0.000415161,1.066061616
7.580226,-0.262763977,-5.249923706,0.438354492,0.020489013,0.003222778,1.071554780
7.580852,-0.468757629,-5.135482788,0.583312988,0.016704833,0.005053833,1.069845796
7.581478,-0.369575500,-4.670089722,0.552795410,0.020122802,0.010058716,1.073752046
7.582103,-0.751045227,-4.708236694,0.613830566,0.016216552,0.014331177,1.081686616
7.582729,-0.712898254,-4.128402710,0.575683594,0.015606200,0.009082153,1.081686616
7.583354,-0.934150696,-4.174179077,0.598571777,0.010601318,0.013598755,1.079855561
7.583980,-0.896003723,-4.013961792,0.568054199,0.014141357,0.009448364,1.083883882
7.584607,-0.896003723,-3.525680542,0.392578125,0.014385497,0.007861450,1.079855561
7.585233,-1.269844055,-3.357833862,0.537536621,0.015728271,0.005175903,1.076193452
7.599204,1.491996765,-0.855392456,-0.522949219,0.048931397,0.023242310,1.074728608
7.599948,1.041862488,0.197463989,-0.110961914,0.095684327,0.008838013,1.071798921
7.600574,1.377555847,1.784378052,0.331542969,0.039776124,-0.009472534,1.086203218
7.601200,1.636955261,2.593093872,0.140808105,-0.006488526,-0.001782104,1.098044038
7.601825,1.736137390,1.982742310,-0.057556152,-0.016864503,0.016162232,1.072287202
7.602452,0.690910339,1.357131958,0.239990234,-0.012103761,0.021045044,1.040182710
7.603077,0.515434265,1.166397095,0.323913574,0.002056396,0.006884888,1.018332124
7.603703,0.317070007,1.418167114,0.148437500,0.024883544,-0.001049682,1.011129975
7.604328,0.698539734,1.936965942,0.217102051,0.026714599,-0.006664917,1.017965913
7.604955,1.415702820,2.486282349,0.072143555,0.017437255,-0.004223511,1.028097749
7.605581,1.591178894,2.966934204,0.262878418,0.002544677,0.010791138,1.033346772
7.606207,1.606437683,2.577835083,0.125549316,-0.014911378,0.027270630,1.021139741
7.606833,0.889274597,2.333694458,0.140808105,-0.029071534,0.029345825,0.999411225
7.607460,0.217887878,1.830154419,0.217102051,-0.019183839,0.017505005,0.987570405
7.608085,-0.201728821,1.479202271,0.133178711,-0.021625245,-0.000195190,0.977438569
7.608711,0.309440613,1.807266235,0.041625977,0.014141357,-0.017040893,0.982199311
7.609337,1.324150085,2.150588989,0.079772949,0.021343505,-0.006664917,0.974142671
7.609962,1.217338562,2.356582642,0.285766602,-0.005878175,0.014453247,0.968527436
7.610588,1.125785828,2.333694458,0.102661133,-0.016254151,0.016894653,0.975241303
7.611213,0.866386414,1.959854126,-0.095703125,-0.016254151,0.024340943,0.970358491
7.611838,0.683280945,1.730972290,0.041625977,-0.007953370,0.019213989,0.968649507
7.612464,0.523063660,1.601272583,-0.011779785,-0.005145753,0.019580200,0.962912202
7.613090,0.355216980,1.608901978,0.186584473,-0.012836182,0.012378052,0.967062593
7.613717,0.622245789,1.486831665,-0.118591309,-0.008075440,0.004687622,0.977438569
7.614343,0.530693054,1.410537720,-0.263549805,-0.003802979,0.003222778,0.980490327
7.614968,0.072929382,1.540237427,0.133178711,-0.007220948,0.007006958,0.978903413
7.615595,0.103446960,1.547866821,0.163696289,-0.019550050,0.001391724,0.987936616
7.616220,0.301811218,1.174026489,-0.027038574,-0.015643800,0.000781372,0.987204194
7.616846,0.515434265,1.128250122,-0.110961914,-0.001971925,0.004687622,0.983908296
7.617472,0.454399109,0.952774048,0.102661133,-0.003314698,0.005786255,0.987814546
7.619202,0.294181824,1.257949829,0.117919922,0.001934325,0.013232544,1.006491303
7.619827,0.179740906,1.456314087,0.018737793,-0.000629151,0.015185669,1.004660249
7.620452,0.233146667,1.311355591,0.133178711,-0.008075440,0.016528443,1.003317475
7.621078,0.111076355,1.059585571,-0.019409180,-0.004169190,0.017382935,1.006491303
7.621705,0.027153015,1.105361938,-0.171997070,0.002056396,0.015185669,1.004049897
7.622331,-0.125434875,1.349502563,-0.027038574,0.004619872,0.005786255,1.012106538
7.622958,0.027153015,1.502090454,0.018737793,0.007183349,0.001391724,1.020773530
7.623583,0.072929382,1.730972290,-0.027038574,0.005962646,0.003222778,1.023092866
7.624209,0.141593933,1.738601685,0.033996582,0.000591552,0.010058716,1.028708100
7.624835,0.164482117,1.784378052,0.339172363,-0.003314698,0.008960083,1.032370210
7.625461,-0.010993958,1.799636841,0.148437500,-0.000140870,0.007129028,1.034445405
7.626087,-0.026252747,1.967483521,-0.019409180,0.011455810,0.005786255,1.035788178
7.626712,-0.010993958,2.219253540,0.026367188,0.010113036,0.010791138,1.040548921
7.627345,0.004264832,2.265029907,-0.118591309,0.002178466,0.013110474,1.041159272
7.627971,-0.346687317,2.356582642,-0.027038574,-0.001971925,0.015063599,1.044821382
7.628596,-0.514533997,2.318435669,-0.065185547,-0.002093995,0.014453247,1.040793061
7.629221,-0.880744934,2.463394165,0.072143555,0.000469482,0.013110474,1.039084077
7.629848,-0.842597961,2.516799927,0.056884766,-0.001483643,0.012255982,1.030661225
7.630474,-0.850227356,2.677017212,0.079772949,-0.002460206,0.005664185,1.030661225
7.631100,-0.613716125,2.631240845,-0.088073730,0.007915771,0.005053833,1.028952241
7.645099,0.278923035,2.097183228,-0.263549805,-0.011981690,-0.000805542,0.988546968
7.645876,0.500175476,1.700454712,-0.339843750,-0.010272706,0.001757935,0.986715913
7.646503,0.423881531,1.982742310,-0.126220703,-0.006976807,0.002978638,0.990500093
7.647129,0.210258484,1.982742310,-0.263549805,-0.006854737,-0.002026245,0.993673921
7.647755,0.324699402,1.990371704,-0.263549805,-0.005267823,0.001757935,0.996725678
7.648382,0.332328796,2.051406860,-0.210144043,-0.003802979,0.000659302,0.995627046
7.649008,0.256034851,2.051406860,-0.187255859,-0.004901612,0.005664185,0.996603608
7.649633,0.210258484,1.944595337,-0.103332520,-0.006732667,0.005420044,0.996847749
7.650259,0.133964539,1.860671997,-0.324584961,-0.007831300,0.006274536,0.998922944
7.650886,0.210258484,2.081924438,-0.194885254,-0.003436768,0.005908325,0.997824311
7.651513,0.042411804,2.181106567,-0.309326172,-0.003436768,0.007495239,1.000387788
7.652139,0.240776062,2.074295044,-0.149108887,0.002422607,0.006396607,1.002951264
7.652764,0.301811218,2.234512329,-0.149108887,-0.000873292,0.007006958,1.006613374
7.653389,0.126335144,2.226882935,-0.332214355,-0.003192628,0.003588989,1.003927827
7.654016,0.347587585,2.226882935,-0.507690430,-0.003192628,0.004077271,1.005270600
7.654641,0.202629089,2.509170532,-0.400878906,0.004131591,0.001757935,1.007101655
7.655266,0.576469421,2.745681763,-0.156738281,0.000591552,0.002734497,1.008444428
7.655891,0.706169128,2.417617798,-0.385620117,-0.006610597,0.001025513,1.006613374
7.656516,0.416252136,2.486282349,-0.439025879,-0.003802979,0.004687622,1.006369233
7.657143,0.698539734,2.486282349,-0.370361328,-0.001605714,0.005908325,1.012350678
7.657769,0.614616394,2.463394165,-0.278808594,-0.002216065,0.008105591,1.011984468
7.658394,0.675651550,2.738052368,-0.431396484,-0.003436768,0.006518677,1.013693452
7.659019,0.530693054,2.783828735,-0.286437988,-0.003802979,0.007251099,1.017843843
7.659644,0.622245789,2.738052368,-0.362731934,-0.000873292,0.002246216,1.016501069
7.660270,0.759574890,2.661758423,-0.217773438,-0.000629151,0.001635864,1.017843843
7.660896,0.584098816,2.585464478,-0.446655273,0.000591552,0.004931763,1.016623139
7.661523,0.591728210,2.699905396,-0.355102539,-0.005634034,0.002246216,1.021505952
7.662148,0.713798523,2.730422974,-0.500061035,-0.003925050,0.003711060,1.020285249
7.662773,0.774833679,2.806716919,-0.500061035,-0.003558839,0.002002075,1.019552827
7.663399,0.652763367,2.806716919,-0.492431641,0.004864013,0.002490357,1.024923921
7.665181,0.812980652,3.020339966,-0.629760742,0.002178466,0.007129028,1.029440522
7.665808,0.973197937,2.936416626,-0.484802246,0.002422607,0.004931763,1.029806733
7.666435,0.858757019,3.256851196,-0.454284668,0.002422607,0.004077271,1.031515718
7.667060,0.919792175,3.386550903,-0.439025879,0.003887450,0.007006958,1.032126069
7.667686,0.881645203,3.447586060,-0.538208008,0.002666747,0.005786255,1.034201264
7.668312,0.851127625,3.523880005,-0.477172852,0.003155028,0.005420044,1.035788178
7.668939,0.561210632,3.584915161,-0.782348633,0.002544677,0.007495239,1.040304780
7.669564,0.668022156,3.447586060,-0.454284668,0.005474364,0.008105591,1.040304780
7.670190,0.462028503,3.684097290,-0.553466797,0.007915771,0.010913208,1.041769624
7.670815,0.851127625,3.569656372,-0.545837402,0.003399169,0.012622193,1.042746186
7.671441,0.423881531,3.966384888,-0.599243164,0.000103271,0.018603638,1.045431733
7.672068,0.072929382,3.943496704,-0.507690430,0.001690185,0.024463013,1.048849702
7.672695,-0.270393372,3.912979126,-0.606872559,0.013408935,0.017871216,1.048239350
7.673320,-0.384834290,4.294448853,-0.583984375,0.017437255,0.006152466,1.047140718
7.673947,-0.171211243,4.569107056,-0.439025879,0.010601318,-0.004223511,1.043112397
7.674573,0.187370300,4.576736450,-0.439025879,0.002300536,-0.004589722,1.037619233
7.675200,0.500175476,4.698806763,-0.515319824,0.002178466,0.001880005,1.039328218
7.675827,0.599357605,4.523330688,-0.637390137,0.009746825,0.003833130,1.043844819
7.676454,0.477287292,5.019241333,-0.713684082,0.009014403,0.013232544,1.046896577
7.677080,0.194999695,4.897171021,-0.660278320,0.009868896,0.019091919,1.051291108
7.691016,0.072929382,7.994705200,-1.362182617,0.001323974,0.007373169,1.028463960
7.691785,0.347587585,8.879714966,-0.759460449,-0.041156493,0.100879028,0.970602632
7.692410,-0.880744934,7.857376099,-1.232482910,-0.087054931,0.119677857,0.924826264
7.693036,-2.315071106,6.682449341,-1.591064453,-0.099872313,0.060473755,0.889914155
7.693661,-3.062751770,5.148941040,-1.331665039,-0.081439696,-0.023022339,0.852682710
7.694287,-2.330329895,4.164749146,-1.224853516,-0.055804931,-0.074658081,0.825949311
7.694914,-1.315620422,3.188186646,-1.324035645,-0.045551024,-0.079174682,0.810202241
7.695540,-0.682380676,2.867752075,-1.217224121,-0.043719970,-0.075268432,0.804098725
7.696167,0.530693054,2.455764771,-1.156188965,-0.044086181,-0.077099487,0.795675874
7.696794,1.415702820,1.517349243,-1.186706543,-0.048358642,-0.073437378,0.787619233
7.697421,2.727958679,0.685745239,-0.912048340,-0.055438720,-0.058422729,0.775534272
7.698046,3.612968445,0.006729126,-0.812866211,-0.058490478,-0.031933472,0.767965913
7.698673,4.101249695,-0.817245483,-1.003601074,-0.054340087,-0.003979370,0.775412202
7.699300,4.398796082,-1.358932495,-1.232482910,-0.043719970,0.016040161,0.805563569
7.699927,4.108879089,-1.458114624,-1.201965332,-0.026141847,0.021533325,0.844748139
7.700553,3.567192078,-1.717514038,-1.278259277,-0.015399659,0.021777466,0.888571382
7.701178,3.178092957,-1.450485229,-1.095153809,-0.002582276,0.023730591,0.928976655
7.701805,2.354118347,-1.412338257,-0.789978027,0.000469482,0.023608521,0.969748139
7.702430,1.697990417,-1.038497925,-0.988342285,-0.000507081,0.016894653,0.999777436
7.703055,0.652763367,-0.870651245,-0.721313477,-0.002216065,0.001513794,1.017721772
7.703682,-0.133064270,-0.878280640,-0.484802246,-0.000262940,-0.014599487,1.024679780
7.704307,-0.461128235,-0.863021851,-0.400878906,0.003521239,-0.016674682,1.034323335
7.704932,-0.560310364,-0.229782104,-0.461914062,0.006817138,-0.008007690,1.037497163
7.705559,-0.827339172,-0.031417847,-0.446655273,0.014385497,0.001025513,1.042257905
7.706184,-1.178291321,0.304275513,-0.515319824,0.014019286,0.004931763,1.051169038
7.706809,-1.117256165,0.487380981,-0.347473145,0.011089599,0.002856568,1.053244233
7.707435,-1.208808899,0.639968872,-0.446655273,0.010967528,0.009326294,1.057150483
7.708062,-1.506355286,0.685745239,-0.461914062,0.012188232,0.020190552,1.058981538
7.708688,-1.819160461,0.777297974,-0.431396484,0.013408935,0.029834107,1.065695405
7.709315,-2.460029602,1.166397095,-0.439025879,0.018780028,0.034594849,1.073752046
7.711133,-3.734138489,1.715713501,-0.332214355,-0.000751222,0.015673950,1.051413178
7.711759,-3.718879700,1.654678345,-0.339843750,-0.000873292,0.002490357,1.037497163
7.712385,-3.657844543,1.517349243,-0.294067383,-0.008441651,-0.000927612,1.019308686
7.713012,-3.489997864,1.486831665,-0.500061035,-0.006976807,-0.009960815,1.000387788
7.713637,-3.009346008,1.326614380,-0.400878906,-0.009662354,-0.011425659,0.987448335
7.714264,-2.292182922,1.280838013,-0.469543457,-0.013202393,-0.008862182,0.971457124
7.714891,-1.575019836,1.074844360,-0.568725586,-0.009906495,-0.008251831,0.960348725
7.715516,-0.888374329,0.983291626,-0.782348633,-0.011005128,-0.001904175,0.953268647
7.716143,-0.682380676,0.693374634,-0.576354980,-0.013202393,0.005786255,0.953878999
7.716770,-0.392463684,0.662857056,-0.820495605,-0.014178956,0.011401489,0.953756928
7.717397,-0.110176086,0.395828247,-0.957824707,-0.015033448,0.020556763,0.959616303
7.718024,0.019523621,-0.016159058,-1.034118652,-0.012103761,0.016772583,0.960959077
7.718650,0.194999695,0.037246704,-1.339294434,-0.017108643,0.011401489,0.964377046
7.719276,0.027153015,-0.382369995,-1.385070801,-0.019794190,0.009082153,0.967306733
7.719903,0.164482117,-0.687545776,-1.453735352,-0.018817628,0.006640747,0.967550874
7.720529,0.248405457,-0.779098511,-1.430847168,-0.012592042,0.004443482,0.969015718
7.721155,0.484916687,-1.038497925,-1.438476562,-0.008807862,0.002490357,0.971823335
7.721780,0.889274597,-1.374191284,-1.514770508,-0.006122315,0.002612427,0.977194428
7.735830,-0.735786438,0.212722778,-2.437927246,0.003643310,0.014697388,1.016623139
7.736597,-0.613716125,0.205093384,-2.422668457,-0.000262940,0.014697388,1.014914155
7.737223,-0.819709778,0.159317017,-2.613403320,-0.002338136,0.012378052,1.020895600
7.737848,-0.697639465,0.174575806,-2.483703613,-0.001483643,0.013842896,1.018942475
7.738474,-0.781562805,0.128799438,-2.537109375,-0.001361573,0.009082153,1.016134858
7.739100,-0.857856750,0.304275513,-2.643920898,0.003155028,0.005786255,1.012106538
7.739725,-0.834968567,0.426345825,-2.666809082,0.007183349,0.011279419,1.013693452
7.740351,-0.896003723,0.433975220,-2.735473633,0.003643310,0.006640747,1.012228608
7.740978,-0.575569153,0.411087036,-2.643920898,-0.001117432,0.006762818,1.006613374
7.741603,-0.796821594,0.357681274,-2.712585449,-0.001605714,0.005175903,1.005148530
7.742228,-0.606086731,0.220352173,-2.735473633,0.001079833,0.001147583,1.004660249
7.742853,-0.606086731,0.639968872,-2.941467285,0.002544677,-0.000683472,1.006125093
7.743480,-0.514533997,0.296646118,-2.819396973,0.002422607,-0.001537964,1.008078218
7.744106,-0.552680969,0.365310669,-2.956726074,-0.002582276,-0.005322143,1.009543061
7.744733,-0.537422180,0.197463989,-2.804138184,-0.002338136,-0.005444214,1.011252046
7.745358,-0.224617004,0.441604614,-2.949096680,0.000713622,-0.002758667,1.013449311
7.745983,-0.155952454,0.365310669,-2.834655762,-0.002826417,-0.002392456,1.013449311
7.746608,-0.369575500,0.639968872,-2.865173340,0.003643310,0.000781372,1.014181733
7.747233,-0.278022766,0.426345825,-2.849914551,-0.000018800,0.000903443,1.014303803
7.747860,-0.407722473,0.624710083,-2.979614258,-0.001239503,0.003100708,1.011496186
7.748485,-0.415351868,0.609451294,-2.964355469,-0.001483643,0.005053833,1.007834077
7.749110,-0.415351868,0.388198853,-2.819396973,-0.002338136,-0.000195190,1.008932710
7.749735,-0.407722473,0.533157349,-2.964355469,-0.004413331,0.000415161,1.009543061
7.750361,-0.430610657,0.380569458,-2.827026367,-0.003680909,-0.001171753,1.011007905
7.750986,-0.354316711,0.227981567,-2.842285156,-0.004657472,-0.003857300,1.008078218
7.751613,-0.171211243,0.426345825,-2.872802734,-0.005023682,-0.001171753,1.005148530
7.752240,-0.102546692,0.365310669,-2.895690918,-0.007220948,-0.004223511,1.006613374
7.752866,-0.072029114,0.372940063,-2.811767578,-0.002216065,-0.000073120,1.008444428
7.753493,-0.003364563,0.449234009,-2.880432129,-0.003925050,0.002002075,1.007712007
7.754118,-0.178840637,0.586563110,-2.910949707,-0.008685792,0.001147583,1.004171968
7.755895,-0.247505188,0.166946411,-3.078796387,-0.014911378,0.000903443,1.005758882
7.756521,-0.239875793,-0.031417847,-2.903320312,-0.013446534,-0.003857300,1.001608491
7.757146,-0.285652161,0.044876099,-3.048278809,-0.007098878,-0.004589722,0.998922944
7.757773,-0.117805481,0.090652466,-3.063537598,-0.006854737,-0.005932495,0.996969819
7.758398,0.034782410,-0.000900269,-2.865173340,-0.005756104,-0.011669800,0.998556733
7.759024,-0.003364563,0.021987915,-2.849914551,-0.009540284,-0.009472534,0.995504975
7.759649,0.019523621,-0.176376343,-2.949096680,-0.011249268,-0.009594604,0.995260835
7.766861,0.973197937,-1.206344604,-2.788879395,-0.018695557,-0.013134643,0.976706147
7.767487,0.935050964,-1.313156128,-2.804138184,-0.014423097,-0.009472534,0.978537202
7.768112,1.087638855,-1.336044312,-2.628662109,-0.017718995,-0.013500854,0.975485444
7.768742,1.232597351,-1.481002808,-2.621032715,-0.015887940,-0.013622925,0.979025483
7.769369,1.331779480,-1.549667358,-2.697326660,-0.016254151,-0.014843628,0.974142671
7.770000,1.392814636,-1.816696167,-2.773620605,-0.013934815,-0.013012573,0.975973725
7.770625,1.293632507,-1.809066772,-2.430297852,-0.015277589,-0.012524292,0.979147553
7.771251,1.743766785,-1.938766479,-2.567626953,-0.013446534,-0.010204956,0.979025483
7.771878,1.453849792,-2.053207397,-2.575256348,-0.010516847,-0.012036011,0.977926850
7.772503,1.438591003,-1.908248901,-2.361633301,-0.007831300,-0.011059448,0.979635835
7.773128,1.614067078,-2.060836792,-2.361633301,-0.012592042,-0.003735229,0.983420014
7.773753,1.606437683,-2.228683472,-2.590515137,-0.012592042,-0.004833862,0.986715913
7.787768,0.843498230,-1.236862183,-1.621582031,-0.003802979,0.012622193,1.031637788
7.788527,0.629875183,-0.794357300,-1.751281738,-0.003314698,0.012255982,1.030172944
7.789152,0.339958191,-1.061386108,-1.507141113,-0.002093995,0.012133911,1.029196382
7.789777,0.263664246,-0.801986694,-1.804687500,-0.000873292,0.010058716,1.027365327
7.790403,0.118705750,-0.908798218,-1.858093262,-0.000140870,0.012133911,1.026144624
7.791029,0.126335144,-0.725692749,-1.743652344,0.001201903,0.006274536,1.023337007
7.791654,-0.072029114,-0.763839722,-1.751281738,-0.002460206,0.003466919,1.026266694
7.792281,0.027153015,-0.687545776,-1.827575684,-0.004413331,0.006518677,1.020407319
7.792907,0.225517273,-0.458663940,-1.758911133,-0.009540284,0.006518677,1.019552827
7.793534,-0.026252747,-0.626510620,-1.552917480,-0.006976807,0.004199341,1.012228608
7.794159,0.050041199,-0.504440308,-1.736022949,-0.008929932,0.004321411,1.014059663
7.794784,0.164482117,-0.428146362,-1.652099609,-0.008807862,0.003711060,1.013693452
7.795410,-0.049140930,-0.565475464,-1.545288086,-0.008563722,0.001269653,1.013205171
7.796035,-0.148323059,-0.489181519,-1.545288086,-0.005634034,0.000048950,1.010275483
7.796662,0.050041199,-0.580734253,-1.667358398,-0.008563722,0.001269653,1.013327241
7.797287,0.011894226,-0.336593628,-1.705505371,-0.007465089,0.001391724,1.010885835
7.797912,0.263664246,-0.466293335,-1.522399902,-0.010394776,-0.003491089,1.013571382
7.798537,0.240776062,-0.222152710,-1.552917480,-0.012714112,-0.001537964,1.009909272
7.799163,0.011894226,-0.191635132,-1.407958984,-0.009906495,-0.004223511,1.013449311
7.799789,-0.018623352,-0.466293335,-1.606323242,-0.011127198,-0.006786987,1.013449311
7.800416,0.133964539,-0.397628784,-1.331665039,-0.007953370,-0.011059448,1.016134858
7.801042,0.248405457,-0.435775757,-1.308776855,-0.009418214,-0.018749878,1.013693452
7.801668,0.423881531,-0.283187866,-1.339294434,0.003032958,-0.057568237,1.007589936
7.802294,1.270744324,-0.214523315,-1.179077148,-0.022968018,-0.041821167,1.001852632
7.802919,1.453849792,-0.290817261,-1.209594727,-0.036884032,-0.004101440,1.012350678
7.803546,1.476737976,-0.977462769,-1.263000488,-0.018573487,0.008715943,1.021750093
7.804172,0.706169128,-0.580734253,-1.018859863,0.001568114,0.009448364,1.024557710
7.804798,-0.278022766,-0.237411499,-0.812866211,0.000347411,0.008593872,1.022360444
7.805423,-0.590827942,0.021987915,-0.774719238,-0.010272706,0.003344849,1.021628022
7.806049,-0.857856750,-0.313705444,-0.606872559,-0.018207276,-0.008007690,1.019186616
7.807825,-0.400093079,-0.679916382,-0.492431641,-0.014301026,-0.021435425,1.000387788
7.808451,-0.499275208,-0.306076050,-0.431396484,-0.012225831,-0.021801636,0.998068452
7.809077,-0.224617004,-0.634140015,-0.362731934,-0.013324464,-0.021191284,1.001852632
7.809702,-0.010993958,-0.580734253,-0.316955566,-0.016010011,-0.026684448,1.000143647
7.810329,0.561210632,-0.534957886,-0.309326172,-0.014789307,-0.032665893,0.995260835
7.810954,0.736686707,-0.733322144,-0.339843750,-0.013202393,-0.029369995,0.995749116
7.811580,1.003715515,-0.725692749,-0.141479492,-0.018573487,-0.017651245,0.992819428
7.812205,1.064750671,-0.687545776,0.033996582,-0.021991456,-0.003491089,0.998312593
7.812831,1.011344910,-1.046127319,-0.042297363,-0.025043214,0.003466919,1.001608491
7.813457,0.843498230,-1.389450073,-0.080444336,-0.031635009,0.005908325,1.004171968
7.814084,1.217338562,-2.251571655,0.064514160,-0.063251220,-0.010449097,1.035666108
7.814710,1.591178894,-3.647750854,0.453613281,-0.077167235,-0.000073120,1.035421968
7.815335,1.430961609,-4.677719116,-0.042297363,-0.048602782,0.016528443,1.017477632
7.815960,0.782463074,-4.639572144,-0.057556152,-0.012225831,0.029101685,1.007101655
7.816585,0.217887878,-4.235214233,-0.110961914,0.010601318,0.016528443,0.993429780
7.817211,-0.056770325,-4.219955444,0.148437500,0.011822021,-0.008984253,0.983053803
7.817836,0.317070007,-3.960556030,0.354431152,-0.011493409,-0.024487182,0.980856538
7.818463,0.553581238,-4.136032104,0.453613281,-0.027240479,-0.022900268,0.979635835
7.832430,1.469108582,-4.754013062,0.262878418,0.002178466,0.003344849,0.982687593
7.833188,1.224967957,-4.456466675,0.041625977,0.003155028,0.010913208,0.976828218
7.833814,0.950309753,-3.891891479,0.148437500,0.006206786,0.017382935,0.978537202
7.834441,0.286552429,-3.388351440,0.156066895,0.022564208,0.030932739,0.965353608
7.835066,0.004264832,-2.678817749,0.186584473,0.006206786,0.014331177,0.982321382
7.835693,0.400993347,-2.915328979,0.407836914,-0.013202393,0.000781372,0.995260835
7.836318,1.041862488,-3.510421753,0.331542969,-0.032123290,-0.015087768,1.008566499
7.836943,1.842948914,-3.968185425,0.270507812,-0.037738524,-0.015209839,1.019430757
7.837587,2.445671082,-4.624313354,-0.324584961,-0.037738524,-0.012036011,1.034689546
7.838214,2.712699890,-4.845565796,-0.042297363,-0.006854737,0.010791138,1.034689546
7.838841,2.071830750,-4.837936401,-0.133850098,0.017193114,0.022265747,1.035299897
7.839468,1.026603699,-4.372543335,0.011108398,0.033428468,0.029589966,1.030172944
7.840093,0.652763367,-3.403610229,0.308654785,0.018291747,0.012866333,1.037863374
7.840718,0.469657898,-3.731674194,0.346801758,0.004009521,0.008227661,1.041403413
7.841343,0.324699402,-3.487533569,0.293395996,-0.000507081,0.013476685,1.034445405
7.841968,0.065299988,-3.106063843,-0.004150391,-0.003802979,0.008593872,1.026754975
7.842595,-0.003364563,-2.968734741,0.041625977,0.002422607,0.004687622,1.024069428
7.843221,0.309440613,-2.648300171,0.117919922,0.011333739,-0.002270386,1.027853608
7.843846,0.797721863,-2.785629272,0.377319336,-0.004169190,-0.003002807,1.030050874
7.844473,0.927421570,-2.701705933,0.209472656,-0.007831300,-0.000805542,1.032492280
7.845099,1.308891296,-2.945846558,0.056884766,-0.013080323,-0.006786987,1.042013764
7.845725,1.522514343,-2.999252319,0.255249023,-0.014667237,-0.004345581,1.047506928
7.846351,1.598808289,-3.090805054,-0.141479492,-0.004291261,0.002368286,1.048849702
7.846978,1.659843445,-3.106063843,0.033996582,0.001568114,0.004931763,1.047018647
7.847603,1.202079773,-2.877182007,0.087402344,0.007671630,0.007251099,1.038962007
7.848229,0.957939148,-2.747482300,0.285766602,0.009014403,0.004931763,1.034201264
7.848856,0.950309753,-2.602523804,0.163696289,0.003887450,0.004199341,1.031637788
7.849483,1.148674011,-2.289718628,0.239990234,-0.002338136,-0.004345581,1.025412202
7.850110,1.339408875,-2.480453491,-0.011779785,-0.007953370,-0.007397339,1.022238374
7.850737,1.736137390,-2.442306519,0.056884766,-0.012103761,-0.011547729,1.020895600
7.852547,2.491447449,-2.686447144,0.110290527,-0.006854737,-0.020214722,1.015158296
7.853174,2.827140808,-2.823776245,0.026367188,-0.009174073,-0.015087768,1.017355561
7.853801,3.345939636,-3.006881714,-0.057556152,-0.008197511,-0.014355347,1.015524507
7.854428,3.521415710,-3.228134155,0.140808105,-0.010394776,-0.015087768,1.016256928
7.855054,3.620597839,-3.075546265,-0.019409180,-0.007343018,-0.010693237,1.014547944
7.855680,4.139396667,-3.457015991,0.224731445,-0.009906495,-0.005200073,1.018576264
7.856305,4.322502136,-3.273910522,0.095031738,-0.009418214,-0.002758667,1.021505952
7.856930,4.307243347,-3.632492065,-0.011779785,-0.010883057,0.001269653,1.022116303
7.857555,4.620048523,-3.792709351,0.033996582,-0.011859620,0.005175903,1.022970796
7.858182,4.543754578,-3.830856323,-0.110961914,-0.010760987,0.009204224,1.024191499
7.858807,4.566642761,-4.059738159,0.178955078,-0.012836182,0.012378052,1.030661225
7.859434,4.612419128,-4.441207886,0.217102051,-0.011249268,0.007251099,1.029562593
7.860060,4.337760925,-4.677719116,0.117919922,-0.012714112,0.008471802,1.031027436
7.860687,4.398796082,-4.754013062,0.156066895,-0.005756104,0.011401489,1.033957124
7.861313,4.307243347,-4.906600952,0.209472656,-0.008807862,0.010058716,1.031271577
7.861938,4.017326355,-4.898971558,0.331542969,-0.005878175,0.010424927,1.032858491
7.862564,4.246208191,-5.043930054,0.209472656,-0.005756104,0.012011841,1.031881928
7.863190,3.864738464,-5.089706421,0.247619629,-0.004535401,0.012988403,1.026754975
7.863815,3.857109070,-4.990524292,0.171325684,-0.002093995,0.012622193,1.026510835
7.864440,3.628227234,-5.104965210,0.110290527,-0.002582276,0.012500122,1.025656343
7.878391,5.184623718,-7.042831421,0.301025391,-0.016010011,0.003100708,0.979879975
7.879131,5.215141296,-7.142013550,0.354431152,-0.005389893,0.002490357,0.986227632
7.879758,5.146476746,-7.294601440,0.400207520,-0.000629151,0.005420044,0.987204194
7.880383,4.902336121,-6.882614136,0.522277832,-0.000507081,0.007983521,0.986960053
7.881009,4.581901550,-7.088607788,0.507019043,-0.002338136,0.006640747,0.988058686
7.881634,4.444572449,-6.928390503,0.522277832,-0.004657472,0.008227661,0.985251069
7.882259,4.681083679,-7.172531128,0.461242676,-0.010272706,0.007617310,0.987570405
7.882885,4.711601257,-7.080978394,0.529907227,-0.007098878,0.009326294,0.991720796
7.883511,4.444572449,-7.378524780,0.278137207,-0.005756104,0.011279419,0.994406343
7.884138,4.246208191,-7.142013550,0.529907227,0.000591552,0.017016724,0.997091889
7.884763,4.185173035,-7.111495972,0.423095703,0.001690185,0.012133911,0.999655366
7.885388,4.055473328,-7.088607788,0.476501465,0.006572997,0.012378052,1.001974702
7.886013,3.719779968,-6.707138062,0.430725098,0.007061278,0.010058716,1.001364350
7.886639,3.696891785,-6.791061401,0.484130859,0.007671630,0.007129028,1.002462983
7.887265,3.735038757,-6.340927124,0.758789062,0.004009521,0.006762818,1.004294038
7.887891,3.849479675,-6.180709839,0.377319336,0.001568114,0.003466919,1.004904389
7.888518,3.902885437,-6.409591675,0.476501465,0.003643310,0.002978638,1.005392671
7.889144,3.742668152,-6.272262573,0.484130859,0.003032958,0.003466919,1.006491303
7.889769,3.803703308,-6.371444702,0.445983887,0.000835693,0.004931763,1.007467866
7.890394,4.139396667,-6.203598022,0.323913574,0.003887450,0.006030396,1.010031343
7.891021,4.330131531,-6.234115601,0.224731445,0.004864013,0.007006958,1.010885835
7.891646,3.879997253,-6.157821655,0.484130859,0.004986083,0.006762818,1.011374116
7.892273,3.971549988,-6.089157104,0.400207520,0.000225341,0.003466919,1.009176850
7.892898,4.284355164,-5.860275269,0.499389648,0.003887450,0.005297974,1.006857514
7.893523,4.200431824,-6.249374390,0.369689941,0.002544677,-0.001415893,1.011740327
7.894148,4.459831238,-6.127304077,0.453613281,-0.000140870,-0.005810425,1.009543061
7.894773,4.696342468,-6.104415894,0.400207520,0.003155028,-0.001293823,1.005758882
7.895399,4.215690613,-5.516952515,0.278137207,0.038311280,0.047900513,0.972677827
7.896025,2.857658386,-4.395431519,0.499389648,0.020855224,0.038867310,0.986715913
7.896652,3.208610535,-4.342025757,0.621459961,0.003277099,-0.002026245,0.991110444
7.898423,9.815666199,-8.812850952,1.697204590,-0.027606690,-0.046581909,0.968039155
7.899050,11.097404480,-8.988327026,0.651977539,-0.056537353,-0.014355347,0.992575288
7.899676,11.654350281,-8.927291870,-0.385620117,-0.021014893,0.014941528,1.006857514
7.900301,10.281059265,-8.171981812,-0.118591309,0.003643310,0.042651489,1.001608491
7.900926,8.541557312,-7.386154175,0.293395996,0.077007569,0.041674927,1.020285249
7.901551,7.175895691,-6.264633179,0.476501465,0.057964601,0.037280396,1.022970796
7.902176,5.566093445,-5.486434937,0.552795410,0.032940187,0.020922974,1.011862397
7.902802,4.871818542,-5.158370972,0.743530273,0.012676513,0.029101685,1.005270600
7.903429,3.658744812,-4.082626343,0.323913574,0.059673585,0.088794068,0.950827241
7.904055,-3.261116028,0.258499146,-0.362731934,-0.050067626,0.134936646,0.774923921
7.904682,-5.351570129,0.792556763,0.445983887,-0.109882079,0.005420044,0.884176850
7.905308,0.423881531,-4.845565796,-0.088073730,-0.183246344,-0.026684448,0.954733491
7.905933,6.512138367,-12.574142456,1.132629395,-0.167987555,-0.097851440,0.973288178
7.906559,9.945365906,-15.747970581,1.208923340,-0.052386962,-0.084423706,0.998800874
7.907186,9.685966492,-14.458602905,0.629089355,-0.020038331,-0.040234253,1.017111421
7.907812,6.870719910,-12.947982788,-0.233032227,0.048443116,-0.002514526,1.005026460
7.908438,3.979179382,-11.643356323,-0.171997070,0.120586671,0.037646607,0.982443452
7.909063,2.026054382,-9.636825562,0.789306641,0.148662835,0.052295044,0.964132905
7.909688,0.095817566,-7.676071167,1.453063965,0.129986078,0.038379028,0.949118257
7.923704,-4.672554016,-1.587814331,0.499389648,-0.017596925,0.010791138,0.968527436
7.924472,-4.153755188,-1.954025269,0.415466309,-0.024921143,-0.005810425,0.946310639
7.925097,-3.177192688,-2.228683472,0.301025391,-0.022113526,-0.020458862,0.928976655
7.925723,-2.368476868,-2.404159546,0.095031738,-0.013812745,-0.024487182,0.916159272
7.926349,-1.849678040,-2.800888062,0.186584473,-0.001605714,-0.025707886,0.899923921
7.926974,-1.239326477,-2.442306519,0.148437500,0.006572997,-0.021069214,0.894919038
7.927601,-1.208808899,-2.045578003,0.018737793,0.009136474,-0.029858276,0.887838960
7.928227,-0.445869446,-1.572555542,-0.187255859,0.009380614,-0.042187378,0.887838960
7.928854,0.362846375,-1.091903687,-0.133850098,0.004131591,-0.054516479,0.887961030
7.929480,1.095268250,-0.832504272,0.041625977,-0.004169190,-0.056103393,0.892721772
7.930107,1.934501648,-1.137680054,0.049255371,-0.011859620,-0.048168823,0.894552827
7.930733,2.369377136,-1.061386108,0.285766602,-0.020038331,-0.040112182,0.900900483
7.931359,3.094169617,-1.252120972,0.239990234,-0.019427979,-0.023144409,0.910055757
7.931984,3.445121765,-1.671737671,-0.004150391,-0.022723878,-0.009838745,0.922384858
7.932610,3.773185730,-1.702255249,0.079772949,-0.017963136,0.005786255,0.936178803
7.933236,3.887626648,-2.274459839,0.247619629,-0.012592042,0.017260864,0.947165132
7.933861,3.513786316,-2.465194702,0.026367188,-0.008197511,0.027148560,0.966574311
7.934488,3.216239929,-2.854293823,-0.011779785,-0.004657472,0.030932739,0.980612397
7.935113,2.743217468,-2.732223511,0.201843262,-0.002582276,0.026782349,0.988913178
7.935740,2.659294128,-2.869552612,0.163696289,-0.002460206,0.018359497,1.004416108
7.936365,2.377006531,-3.006881714,-0.118591309,-0.000018800,0.015063599,1.022360444
7.936997,2.109977722,-3.060287476,0.087402344,0.004375732,0.010546997,1.027975678
7.937623,2.056571960,-3.067916870,0.323913574,0.006328857,0.009570435,1.038351655
7.938248,1.972648621,-3.296798706,0.049255371,0.009502685,0.010302857,1.043112397
7.938873,1.881095886,-3.083175659,0.171325684,0.014141357,0.012255982,1.043722749
7.939500,1.636955261,-3.045028687,0.163696289,0.018780028,0.015918091,1.050070405
7.940126,1.308891296,-2.816146851,0.072143555,0.019878661,0.018969849,1.050314546
7.940752,1.110527039,-2.480453491,0.178955078,0.027935302,0.018115357,1.053366303
7.941379,0.843498230,-2.198165894,0.194213867,0.028301513,0.018359497,1.052023530
7.942004,0.843498230,-1.877731323,-0.011779785,0.024029052,0.013964966,1.053366303
7.943793,0.530693054,-1.137680054,0.125549316,0.015972411,0.006152466,1.053610444
7.944419,0.568840027,-1.236862183,0.285766602,0.013286864,0.002612427,1.058004975
7.945045,0.675651550,-1.137680054,0.247619629,0.010845458,0.002612427,1.047140718
7.945859,0.568840027,-0.985092163,0.186584473,0.007427489,0.008838013,1.043356538
7.946609,0.400993347,-1.000350952,0.079772949,0.007061278,0.007861450,1.038351655
7.947235,0.194999695,-0.901168823,0.056884766,0.008892333,0.011035278,1.031149507
7.947861,0.133964539,-1.122421265,0.217102051,0.000225341,0.010791138,1.026022553
7.948486,-0.026252747,-1.122421265,0.079772949,-0.000873292,0.010546997,1.015402436
7.949112,-0.026252747,-1.374191284,0.148437500,-0.002338136,0.011401489,1.008566499
7.949738,-0.102546692,-1.389450073,0.308654785,-0.005023682,0.008227661,1.001852632
7.950364,0.103446960,-1.694625854,0.224731445,-0.004779542,0.005908325,0.992575288
7.950989,-0.087287903,-1.908248901,0.178955078,-0.002216065,0.002612427,0.988546968
7.951615,-0.010993958,-1.793807983,0.209472656,-0.003070557,0.001757935,0.981711030
7.952241,0.233146667,-1.755661011,0.117919922,-0.000629151,-0.001904175,0.976217866
7.952867,0.080558777,-1.915878296,0.262878418,0.001323974,-0.003124878,0.971335053
7.953492,0.210258484,-1.885360718,0.217102051,0.002178466,-0.003979370,0.969992280
7.954118,0.530693054,-1.725143433,-0.118591309,0.002910888,-0.004101440,0.966940522
7.954744,0.668022156,-1.770919800,0.072143555,0.003032958,-0.004101440,0.967306733
7.955370,1.026603699,-1.664108276,0.072143555,0.004131591,-0.008251831,0.971335053
7.969296,-0.079658508,-0.275558472,0.110290527,0.010479247,0.007739380,1.023581147
7.969998,-0.247505188,-0.222152710,0.033996582,0.006939208,0.009448364,1.017721772
7.970623,-0.331428528,-0.313705444,0.056884766,0.007061278,0.008838013,1.013693452
7.971248,-0.346687317,-0.000900269,0.018737793,0.005962646,0.007251099,1.011007905
7.971874,-0.232246399,-0.069564819,0.201843262,0.004375732,0.006396607,1.004904389
7.972500,-0.155952454,-0.069564819,0.255249023,0.001568114,0.003833130,0.999533296
7.973211,-0.278022766,0.021987915,-0.072814941,0.000347411,0.007129028,0.994284272
7.973836,-0.293281555,-0.168746948,0.041625977,0.001812255,0.007251099,0.990378022
7.974462,-0.377204895,-0.260299683,0.117919922,-0.000873292,0.002368286,0.988669038
7.975089,-0.171211243,-0.336593628,-0.072814941,-0.002338136,0.003344849,0.983297944
7.975715,-0.072029114,-0.512069702,0.011108398,-0.005389893,0.000659302,0.980246186
7.976340,-0.148323059,-0.527328491,0.186584473,-0.000507081,0.001391724,0.975851655
7.976965,-0.033882141,-0.641769409,-0.072814941,-0.004901612,0.005053833,0.971579194
7.977591,0.011894226,-0.733322144,0.133178711,-0.003558839,0.001391724,0.971090913
7.978217,-0.087287903,-0.664657593,0.262878418,-0.005267823,0.004687622,0.967550874
7.978844,0.233146667,-1.015609741,0.110290527,-0.006610597,0.000048950,0.966086030
7.979471,0.248405457,-0.725692749,0.239990234,-0.003802979,0.001025513,0.967795014
7.980098,0.095817566,-0.962203979,-0.065185547,-0.007465089,0.002002075,0.967306733
7.980725,0.332328796,-1.015609741,0.102661133,-0.003680909,0.003222778,0.970602632
7.981351,0.385734558,-0.985092163,0.056884766,-0.003070557,0.002002075,0.971701264
7.981976,0.675651550,-1.221603394,-0.004150391,-0.005389893,0.002612427,0.976584077
7.982601,0.698539734,-1.069015503,0.186584473,-0.006732667,0.002124146,0.979513764
7.983226,0.835868835,-1.252120972,0.011108398,0.000225341,0.001025513,0.985983491
7.983853,1.041862488,-1.282638550,0.110290527,0.000957763,0.002246216,0.991598725
7.984480,1.041862488,-1.107162476,-0.034667969,-0.000018800,0.005175903,0.995016694
7.985105,0.874015808,-1.282638550,-0.149108887,0.001201903,0.001880005,1.001486421
7.985732,1.163932800,-0.985092163,0.072143555,0.002056396,0.002856568,1.005270600
7.986358,1.118156433,-1.236862183,-0.095703125,0.003032958,0.002490357,1.009909272
7.986984,1.125785828,-1.381820679,0.072143555,0.001934325,0.005664185,1.011740327
7.987609,0.889274597,-0.985092163,0.140808105,0.003277099,0.007495239,1.013571382
7.989371,0.965568542,-1.320785522,-0.034667969,0.003643310,0.013598755,1.021383882
7.990000,0.744316101,-1.275009155,-0.019409180,0.004986083,0.013720825,1.026388764
7.990627,0.904533386,-1.236862183,0.201843262,0.003155028,0.014819458,1.024313569
7.991252,0.851127625,-1.084274292,0.072143555,0.001690185,0.014697388,1.022360444
7.991877,0.797721863,-1.313156128,0.110290527,0.004375732,0.012500122,1.024069428
7.992503,0.683280945,-1.191085815,0.156066895,0.000347411,0.014575318,1.019308686
7.993128,0.706169128,-1.221603394,-0.118591309,0.002544677,0.013354614,1.018820405
7.993754,0.629875183,-1.175827026,0.033996582,0.001201903,0.013720825,1.018210053
7.994380,0.484916687,-0.977462769,0.178955078,0.000713622,0.013232544,1.011984468
7.995005,0.477287292,-1.236862183,0.178955078,0.002056396,0.012378052,1.010153413
7.995631,0.355216980,-1.389450073,0.087402344,0.001201903,0.007983521,1.006491303
7.996257,0.233146667,-1.076644897,0.133178711,0.000957763,0.007861450,1.001974702
7.996884,0.553581238,-1.168197632,0.095031738,-0.000018800,0.007739380,0.998800874
7.997510,0.362846375,-1.275009155,-0.011779785,-0.002948487,0.004565552,0.991354585
7.998135,0.156852722,-1.343673706,0.117919922,-0.003802979,0.005786255,0.989645600
7.998762,0.172111511,-1.320785522,0.087402344,-0.004047120,0.005420044,0.982931733
7.999387,0.355216980,-1.481002808,0.110290527,-0.003436768,0.005664185,0.984640718
8.000013,0.324699402,-1.397079468,0.171325684,-0.004047120,0.005297974,0.983542085
8.000639,0.385734558,-1.511520386,0.133178711,-0.003802979,0.002612427,0.982931733
8.001265,0.446769714,-1.343673706,0.049255371,-0.005389893,0.004931763,0.977438569
8.021915,-0.285652161,-0.077194214,0.079772949,0.003155028,0.009082153,1.014547944
8.022659,-0.171211243,0.006729126,0.087402344,0.000957763,0.007739380,1.008444428
8.023286,-0.140693665,-0.008529663,0.178955078,-0.000873292,0.005297974,1.005880952
8.023913,-0.339057922,-0.138229370,0.186584473,-0.000995362,0.004931763,0.998922944
8.024539,-0.331428528,-0.138229370,0.018737793,-0.003070557,0.006030396,0.992819428
8.025165,-0.186470032,-0.115341187,-0.004150391,-0.002216065,0.002246216,0.993185639
8.025790,-0.087287903,-0.214523315,-0.080444336,-0.001849854,0.005297974,0.990500093
8.026415,-0.186470032,-0.153488159,-0.194885254,-0.004047120,0.005664185,0.984884858
8.027042,0.050041199,-0.153488159,0.232360840,-0.003802979,0.004077271,0.986471772
8.027668,-0.125434875,-0.176376343,0.033996582,-0.002948487,0.004565552,0.980246186
8.028293,-0.125434875,-0.184005737,-0.011779785,-0.002460206,0.004321411,0.979757905
8.028918,0.065299988,-0.206893921,-0.019409180,-0.004047120,0.005175903,0.982077241
8.029545,0.294181824,-0.504440308,0.163696289,-0.002093995,0.003833130,0.980002046
8.030170,0.362846375,-0.275558472,0.079772949,-0.006122315,0.003955200,0.980612397
8.030796,0.408622742,-0.573104858,0.026367188,-0.004779542,0.002978638,0.984030366
8.031423,0.385734558,-0.336593628,0.095031738,-0.004535401,0.004931763,0.983542085
8.032048,0.477287292,-0.481552124,-0.065185547,-0.001605714,0.005786255,0.986715913
8.032673,0.500175476,-0.451034546,0.064514160,-0.002704347,0.007129028,0.990744233
8.033300,0.835868835,-0.374740601,-0.118591309,-0.003802979,0.004565552,0.989157319
8.033925,0.805351257,-0.740951538,-0.027038574,-0.005145753,0.005664185,0.991598725
8.034550,0.698539734,-0.565475464,0.178955078,-0.004657472,0.005786255,0.991598725
8.035175,0.637504578,-0.595993042,-0.042297363,-0.002826417,0.005420044,0.995138764
8.035800,0.622245789,-0.687545776,-0.011779785,-0.004291261,0.008715943,0.998190522
8.036426,0.843498230,-0.634140015,0.079772949,-0.003802979,0.004077271,1.001608491
8.037052,0.614616394,-0.657028198,0.171325684,-0.000873292,0.006762818,1.001730561
8.037678,0.393363953,-0.603622437,-0.110961914,-0.004901612,0.006274536,1.002829194
8.038303,0.828239441,-0.618881226,0.011108398,-0.001239503,0.005786255,1.007467866
8.038929,0.759574890,-0.763839722,-0.095703125,-0.003314698,0.007617310,1.011252046
8.039554,0.523063660,-0.740951538,0.201843262,-0.000385011,0.007495239,1.009543061
8.040180,0.767204285,-0.870651245,-0.110961914,-0.000140870,0.007617310,1.010397553
8.041951,0.538322449,-1.015609741,0.178955078,-0.001483643,0.008105591,1.012961030
8.042576,0.812980652,-0.885910034,0.354431152,-0.003314698,0.006274536,1.016256928
8.043203,0.576469421,-0.832504272,-0.042297363,-0.000140870,0.007739380,1.011496186
8.043830,0.637504578,-0.863021851,-0.011779785,-0.003436768,0.009204224,1.011252046
8.044457,0.484916687,-0.916427612,0.232360840,-0.001483643,0.007495239,1.009543061
8.045083,0.408622742,-0.885910034,0.087402344,-0.001361573,0.007983521,1.008688569
8.045708,0.545951843,-0.832504272,0.102661133,-0.003680909,0.007129028,1.006247163
8.046334,0.523063660,-0.855392456,0.003479004,-0.000873292,0.005786255,1.006613374
8.046959,0.431510925,-1.007980347,-0.080444336,-0.002093995,0.005908325,1.001974702
8.047585,0.362846375,-0.916427612,0.011108398,-0.000995362,0.006396607,1.001974702
8.048210,0.553581238,-1.069015503,0.041625977,-0.003436768,0.006274536,1.003805757
8.048836,0.393363953,-0.939315796,0.178955078,0.000591552,0.007739380,1.000753999
8.049463,0.683280945,-1.076644897,0.171325684,0.000103271,0.007251099,0.998678803
8.050088,0.576469421,-0.992721558,0.117919922,-0.002582276,0.007251099,0.995749116
8.050713,0.462028503,-1.175827026,0.316284180,-0.001483643,0.005297974,0.992575288
8.051340,0.690910339,-1.122421265,0.049255371,-0.002216065,0.004931763,0.996237397
8.051967,0.675651550,-1.000350952,0.117919922,-0.001849854,0.005786255,0.994162202
8.052593,0.805351257,-1.145309448,0.323913574,-0.005267823,0.006396607,0.992941499
8.053220,0.660392761,-1.053756714,0.041625977,-0.002826417,0.006152466,0.990744233
8.067162,0.462028503,-0.718063354,-0.011779785,0.009624755,0.016528443,1.022604585
8.067868,0.400993347,-0.687545776,-0.019409180,0.009624755,0.012500122,1.021872163
8.068494,0.645133972,-0.687545776,0.156066895,0.006084716,0.012622193,1.022360444
8.069121,0.278923035,-0.443405151,0.049255371,0.006572997,0.012011841,1.021139741
8.069746,0.462028503,-0.573104858,0.095031738,0.004253661,0.010302857,1.020529389
8.070373,0.317070007,-0.443405151,0.171325684,0.008159911,0.010180786,1.019308686
8.071000,0.317070007,-0.397628784,-0.110961914,0.004497802,0.012133911,1.017477632
8.071625,0.286552429,-0.344223022,-0.110961914,0.005718505,0.013598755,1.017111421
8.072252,0.141593933,-0.145858765,-0.004150391,0.006084716,0.010669068,1.015036225
8.072878,0.172111511,-0.420516968,0.102661133,0.008037841,0.012744263,1.010641694
8.073505,0.042411804,-0.176376343,0.003479004,0.003521239,0.007861450,1.009909272
8.074132,0.309440613,-0.016159058,0.217102051,0.002910888,0.007373169,1.009543061
8.074757,-0.049140930,-0.298446655,0.056884766,0.003277099,0.010180786,1.010763764
8.075382,0.118705750,-0.168746948,-0.011779785,0.002544677,0.012011841,1.007467866
8.076008,0.103446960,-0.260299683,0.072143555,0.003399169,0.011523560,1.007589936
8.076633,0.065299988,-0.389999390,0.209472656,0.005230224,0.011157349,1.002951264
8.077258,0.027153015,-0.122970581,-0.110961914,0.000957763,0.009936646,1.004049897
8.077884,0.004264832,-0.252670288,0.033996582,0.000713622,0.007129028,1.001730561
8.078511,-0.003364563,-0.237411499,-0.118591309,0.000103271,0.010302857,1.001242280
8.079136,0.034782410,-0.199264526,0.018737793,0.004253661,0.008227661,0.999045014
8.079761,0.256034851,-0.214523315,-0.156738281,0.001812255,0.007861450,0.999045014
8.080386,0.011894226,-0.321334839,0.140808105,0.000591552,0.006152466,1.000021577
8.081011,0.172111511,-0.184005737,0.026367188,0.001934325,0.006762818,0.999289155
8.081637,0.217887878,-0.107711792,-0.027038574,-0.000385011,0.007251099,0.998800874
8.082263,0.248405457,-0.222152710,0.133178711,0.000957763,0.006396607,0.998190522
8.082890,0.278923035,-0.176376343,-0.141479492,0.002544677,0.007373169,0.995871186
8.083516,0.072929382,-0.054306030,0.079772949,0.001323974,0.006152466,0.997213960
8.084141,0.301811218,-0.313705444,0.117919922,0.001446044,0.007129028,0.997580171
8.084766,0.103446960,-0.168746948,-0.103332520,-0.000262940,0.004809693,0.997580171
8.085393,0.004264832,-0.191635132,0.049255371,0.002178466,0.007129028,0.998312593
8.087141,0.286552429,-0.275558472,0.156066895,0.005230224,0.008349732,0.998312593
8.087768,0.423881531,-0.245040894,0.064514160,0.001568114,0.008593872,0.996603608
8.088394,0.347587585,-0.351852417,0.186584473,0.001201903,0.006274536,0.995993257
8.089021,0.301811218,-0.344223022,0.201843262,0.004009521,0.006030396,0.997580171
8.089647,0.111076355,-0.359481812,0.117919922,0.000835693,0.006640747,1.001120210
8.090272,0.210258484,-0.382369995,-0.095703125,0.003643310,0.007983521,1.000509858
8.090898,0.294181824,-0.328964233,-0.049926758,0.000957763,0.006396607,1.001608491
8.091523,0.248405457,-0.527328491,0.041625977,0.000591552,0.009204224,1.000998139
8.092148,0.256034851,-0.336593628,0.026367188,0.000225341,0.006396607,1.000998139
8.092773,0.393363953,-0.451034546,0.163696289,0.001201903,0.007739380,1.002340913
8.093400,0.393363953,-0.451034546,0.163696289,0.001201903,0.007739380,1.002340913
8.094026,0.225517273,-0.542587280,0.087402344,-0.000140870,0.007129028,1.001852632
8.094653,0.210258484,-0.695175171,-0.027038574,0.002544677,0.004809693,1.001120210
8.095279,0.393363953,-0.473922729,0.224731445,0.000591552,0.005297974,0.997702241
8.095905,0.294181824,-0.504440308,0.079772949,0.000713622,0.004077271,1.000387788
8.096530,0.423881531,-0.557846069,0.049255371,-0.001361573,0.007251099,0.996969819
8.097155,0.172111511,-0.740951538,0.178955078,-0.001117432,0.006274536,0.998190522
8.097780,0.370475769,-0.649398804,0.064514160,0.001323974,0.008349732,1.000509858
8.098407,0.332328796,-0.771469116,-0.019409180,0.004864013,0.005786255,0.997580171
8.112409,0.912162781,-1.099533081,0.262878418,0.005108153,0.007861450,1.006613374
8.113181,0.858757019,-1.206344604,0.125549316,0.005840575,0.007495239,1.008200288
8.113807,0.904533386,-1.069015503,0.018737793,0.005840575,0.006762818,1.011862397
8.114434,1.072380066,-1.213973999,0.194213867,0.008526122,0.006640747,1.015036225
8.115059,0.912162781,-1.168197632,0.003479004,0.008648193,0.006640747,1.015524507
8.115685,0.668022156,-0.954574585,0.033996582,0.008404052,0.008227661,1.011618257
8.116311,0.484916687,-1.038497925,0.041625977,0.010357177,0.008715943,1.011618257
8.116937,0.698539734,-0.985092163,-0.042297363,0.005230224,0.007739380,1.013571382
8.117563,0.561210632,-0.939315796,0.033996582,0.005108153,0.009570435,1.013205171
8.118188,0.629875183,-0.824874878,-0.103332520,0.005962646,0.009448364,1.013571382
8.118814,0.767204285,-0.786727905,0.003479004,0.007061278,0.008715943,1.016256928
8.119439,0.362846375,-0.695175171,0.270507812,0.008159911,0.007006958,1.016378999
8.120065,0.469657898,-0.885910034,-0.164367676,0.008281982,0.010058716,1.015280366
8.120690,0.507804871,-0.794357300,0.140808105,0.006328857,0.006274536,1.014914155
8.121315,0.561210632,-0.779098511,0.178955078,0.008159911,0.008715943,1.017111421
8.121941,0.469657898,-0.756210327,-0.019409180,0.007061278,0.009814575,1.015036225
8.122567,0.347587585,-0.580734253,0.171325684,0.007549560,0.010058716,1.014670014
8.123192,0.637504578,-0.855392456,0.049255371,0.006450927,0.008227661,1.015646577
8.123817,0.385734558,-0.733322144,0.064514160,0.006328857,0.006274536,1.013083100
8.124443,0.416252136,-0.603622437,-0.126220703,0.007061278,0.007373169,1.014792085
8.125070,0.355216980,-0.603622437,0.102661133,0.004619872,0.005175903,1.012594819
8.125695,0.400993347,-0.550216675,-0.126220703,0.006939208,0.005542114,1.010763764
8.126320,0.454399109,-0.527328491,-0.088073730,0.005840575,0.006762818,1.009543061
8.126947,0.477287292,-0.473922729,0.178955078,0.009624755,0.007983521,1.010153413
8.127573,0.332328796,-0.458663940,0.072143555,0.008037841,0.005297974,1.008810639
8.128199,0.378105164,-0.389999390,0.018737793,0.005840575,0.004931763,1.007467866
8.128826,0.088188171,-0.565475464,0.239990234,0.006695068,0.007006958,1.008566499
8.129451,0.294181824,-0.580734253,-0.065185547,0.007305419,0.007617310,1.008322358
8.130076,0.248405457,-0.466293335,0.018737793,0.005108153,0.008349732,1.009298921
8.130701,0.370475769,-0.519699097,0.125549316,0.004864013,0.007251099,1.008322358
8.132480,0.317070007,-0.328964233,0.064514160,0.005352294,0.006884888,1.009420991
8.133106,0.492546082,-0.245040894,0.117919922,0.002910888,0.004199341,1.010275483
8.133733,0.286552429,-0.260299683,0.049255371,0.005840575,0.005420044,1.006735444
8.134358,0.385734558,-0.420516968,0.102661133,0.005230224,0.003344849,1.006857514
8.134983,0.385734558,-0.267929077,0.064514160,0.004986083,0.006274536,1.009298921
8.135610,0.294181824,-0.359481812,0.018737793,0.007183349,0.006152466,1.005026460
8.136237,0.408622742,-0.252670288,-0.126220703,0.008648193,0.005053833,1.011252046
8.136864,0.439140320,-0.306076050,0.087402344,0.004619872,0.002856568,1.008932710
8.137490,0.225517273,-0.397628784,0.041625977,0.000713622,0.003955200,1.009176850
8.138116,0.515434265,-0.306076050,0.041625977,0.003277099,0.007006958,1.009909272
8.138743,0.378105164,-0.321334839,0.049255371,0.001812255,0.008349732,1.008566499
8.139369,0.263664246,-0.138229370,-0.187255859,0.004253661,0.008960083,1.010031343
8.139998,0.324699402,-0.245040894,0.026367188,0.005230224,0.007251099,1.007345796
8.140624,0.256034851,-0.229782104,0.018737793,0.003521239,0.007617310,1.007956147
8.141251,0.225517273,-0.351852417,0.110290527,0.004864013,0.004565552,1.011496186
8.141877,0.538322449,-0.359481812,0.178955078,0.006206786,0.004931763,1.009543061
8.142502,0.416252136,-0.374740601,-0.095703125,0.005230224,0.006884888,1.008322358
8.143128,0.088188171,-0.290817261,-0.065185547,0.004619872,0.007251099,1.006369233
8.143753,0.347587585,-0.336593628,0.056884766,0.001446044,0.004443482,1.008200288
8.144379,0.317070007,-0.229782104,0.041625977,0.006084716,0.005664185,1.004538178
8.158626,0.652763367,-1.000350952,-0.011779785,0.004619872,0.002246216,0.992697358
8.159345,0.973197937,-1.198715210,0.209472656,0.003277099,0.002490357,0.992453218
8.159971,0.996086121,-1.221603394,0.148437500,0.001079833,0.005297974,0.992819428
8.160596,1.041862488,-1.183456421,0.079772949,0.001323974,0.007006958,0.994528413
8.161221,0.805351257,-1.099533081,0.102661133,0.003643310,0.007495239,0.995993257
8.161846,0.980827332,-1.152938843,0.217102051,0.000835693,0.004809693,0.997091889
8.162471,0.927421570,-1.160568237,0.033996582,0.004741943,0.005786255,0.998922944
8.163098,0.942680359,-1.290267944,-0.011779785,0.002544677,0.006518677,1.000876069
8.163724,0.996086121,-1.038497925,-0.011779785,0.005840575,0.006152466,1.000387788
8.164351,0.866386414,-1.259750366,0.133178711,0.006572997,0.007617310,1.002340913
8.164976,1.011344910,-1.313156128,0.003479004,0.005108153,0.007983521,1.004049897
8.165601,1.003715515,-1.160568237,0.148437500,0.005474364,0.007983521,1.006247163
8.166226,1.125785828,-1.229232788,0.125549316,0.005108153,0.007495239,1.007101655
8.166853,0.874015808,-1.236862183,-0.019409180,0.006206786,0.006274536,1.006735444
8.167479,0.828239441,-0.946945190,0.171325684,0.006939208,0.007861450,1.010275483
8.168104,0.912162781,-1.297897339,0.018737793,0.008037841,0.011157349,1.010031343
8.168729,0.912162781,-1.290267944,0.133178711,0.007915771,0.009326294,1.009420991
8.169354,1.141044617,-1.221603394,0.011108398,0.008892333,0.011157349,1.013205171
8.169980,0.759574890,-1.007980347,0.163696289,0.007427489,0.010180786,1.012472749
8.170606,1.087638855,-1.091903687,0.056884766,0.007549560,0.011035278,1.013815522
8.171231,0.729057312,-1.084274292,0.148437500,0.007671630,0.007983521,1.016012788
8.171858,0.889274597,-0.969833374,0.049255371,0.008037841,0.010791138,1.014303803
8.172483,0.790092468,-1.061386108,0.079772949,0.007305419,0.012622193,1.016378999
8.173108,0.698539734,-0.908798218,0.041625977,0.009746825,0.008960083,1.015402436
8.173735,0.912162781,-0.878280640,0.049255371,0.009990966,0.010058716,1.015890718
8.174360,0.706169128,-1.038497925,0.232360840,0.010235107,0.010546997,1.014792085
8.174987,0.896903992,-0.924057007,0.003479004,0.006206786,0.008960083,1.013693452
8.175613,0.698539734,-0.649398804,0.171325684,0.005596435,0.008838013,1.016012788
8.176238,0.523063660,-0.908798218,0.117919922,0.007061278,0.011157349,1.017111421
8.176863,0.729057312,-0.786727905,0.018737793,0.008526122,0.009448364,1.012961030
8.178632,0.530693054,-0.664657593,0.239990234,0.008159911,0.012866333,1.009298921
8.179258,0.492546082,-0.496810913,-0.057556152,0.006328857,0.008349732,1.012106538
8.179885,0.545951843,-0.580734253,0.110290527,0.002300536,0.009204224,1.009909272
8.180510,0.538322449,-0.771469116,0.186584473,0.010357177,0.011767700,1.011740327
8.181135,0.545951843,-0.611251831,0.247619629,0.005718505,0.010546997,1.012350678
8.181761,0.614616394,-0.565475464,-0.072814941,0.005840575,0.008960083,1.012472749
8.182386,0.629875183,-0.695175171,0.041625977,0.004864013,0.010058716,1.011252046
8.183012,0.408622742,-0.565475464,0.156066895,0.010723388,0.009692505,1.009665132
8.183638,0.568840027,-0.565475464,0.011108398,0.007671630,0.011401489,1.009787202
8.184265,0.576469421,-0.504440308,0.064514160,0.004497802,0.009936646,1.006613374
8.184890,0.652763367,-0.306076050,0.011108398,0.008159911,0.007861450,1.008322358
8.185517,0.568840027,-0.275558472,0.095031738,0.007305419,0.010669068,1.011984468
8.186144,0.629875183,-0.550216675,0.278137207,0.008770263,0.010791138,1.010519624
8.186769,0.400993347,-0.389999390,-0.141479492,0.007915771,0.011279419,1.011618257
8.187394,0.439140320,-0.275558472,0.056884766,0.008770263,0.009448364,1.007589936
8.188020,0.385734558,-0.306076050,0.079772949,0.010235107,0.013842896,1.011618257
8.188646,0.431510925,-0.504440308,-0.027038574,0.007305419,0.009082153,1.010519624
8.189272,0.523063660,-0.290817261,-0.019409180,0.007549560,0.009570435,1.010275483
8.189899,0.393363953,-0.351852417,0.201843262,0.006817138,0.010302857,1.008566499
8.190525,0.362846375,-0.481552124,-0.027038574,0.005108153,0.008960083,1.011007905
8.204528,0.210258484,-0.245040894,0.156066895,-0.000018800,0.005175903,0.995260835
8.205265,0.301811218,-0.550216675,0.095031738,0.001446044,0.005664185,0.993795991
8.205891,0.446769714,-0.611251831,-0.004150391,0.000225341,0.004199341,0.991354585
8.206516,0.446769714,-0.519699097,0.102661133,-0.000507081,0.006274536,0.992087007
8.207143,0.492546082,-0.733322144,-0.065185547,0.000469482,0.002124146,0.990622163
8.207770,0.332328796,-0.672286987,0.056884766,0.000347411,0.003955200,0.991476655
8.208395,0.408622742,-0.687545776,0.041625977,-0.001971925,0.006030396,0.992575288
8.209020,0.477287292,-0.840133667,0.178955078,-0.000385011,0.006030396,0.992209077
8.209646,0.614616394,-0.725692749,-0.133850098,0.000591552,0.006274536,0.993307710
8.210272,0.530693054,-0.657028198,-0.103332520,0.000469482,0.004931763,0.994894624
8.210899,0.576469421,-0.687545776,-0.004150391,0.002788818,0.005542114,0.994772553
8.211524,0.835868835,-0.924057007,0.125549316,-0.001239503,0.004321411,0.994894624
8.212151,0.492546082,-0.847763062,-0.049926758,0.000591552,0.005297974,0.997824311
8.212777,0.637504578,-0.710433960,0.049255371,0.000469482,0.006640747,0.996603608
8.213403,0.812980652,-0.878280640,0.217102051,0.002422607,0.004199341,0.998068452
8.214028,0.744316101,-0.786727905,-0.027038574,0.003521239,0.002856568,0.999045014
8.214653,0.805351257,-0.824874878,0.079772949,0.000957763,0.006274536,1.000143647
8.215279,0.637504578,-1.069015503,-0.057556152,0.001690185,0.007129028,1.002340913
8.215905,0.782463074,-0.939315796,0.194213867,0.002910888,0.006030396,1.005636811
8.216532,0.927421570,-1.015609741,0.033996582,-0.000140870,0.004809693,1.003195405
8.217159,0.805351257,-1.152938843,-0.164367676,0.002422607,0.008227661,1.005636811
8.217784,0.797721863,-0.969833374,0.056884766,-0.000873292,0.006030396,1.006979585
8.218409,0.759574890,-0.962203979,0.072143555,0.002300536,0.008715943,1.007223725
8.219035,0.782463074,-0.924057007,0.011108398,0.001568114,0.008227661,1.010031343
8.219660,0.698539734,-0.924057007,0.056884766,-0.000995362,0.004931763,1.012228608
8.220287,0.866386414,-0.946945190,-0.019409180,0.001934325,0.005786255,1.011007905
8.220912,0.668022156,-0.946945190,0.110290527,0.002910888,0.004199341,1.010763764
8.221538,0.790092468,-1.152938843,0.056884766,0.002544677,0.005175903,1.011618257
8.222163,0.637504578,-0.878280640,0.087402344,0.000957763,0.003100708,1.009787202
8.222789,0.629875183,-0.748580933,0.033996582,0.003032958,0.007373169,1.012350678
8.224563,0.683280945,-0.916427612,0.171325684,0.002178466,0.006274536,1.010153413
8.225190,0.744316101,-1.053756714,-0.065185547,0.004864013,0.006518677,1.011374116
8.225815,0.721427917,-0.931686401,0.102661133,0.000835693,0.005786255,1.011129975
8.226441,0.561210632,-0.794357300,0.011108398,0.002422607,0.006274536,1.011374116
8.227067,0.668022156,-0.893539429,0.056884766,0.003277099,0.005053833,1.010275483
8.227692,0.469657898,-0.878280640,0.072143555,0.001934325,0.004565552,1.009298921
8.228318,0.561210632,-0.855392456,0.110290527,0.000591552,0.005175903,1.007712007
8.228944,0.668022156,-0.657028198,0.163696289,0.005962646,0.008105591,1.007467866
8.229571,0.637504578,-0.908798218,0.209472656,0.004253661,0.005297974,1.005636811
8.230197,0.774833679,-0.962203979,-0.080444336,0.003887450,0.004809693,1.010275483
8.230822,0.553581238,-0.756210327,-0.049926758,0.001812255,0.005053833,1.007956147
8.231448,0.530693054,-0.740951538,0.117919922,0.003765380,0.007006958,1.011374116
8.232073,0.675651550,-0.832504272,0.072143555,0.004864013,0.005664185,1.008078218
8.232727,0.469657898,-0.702804565,0.049255371,0.001934325,0.008349732,1.008810639
8.233495,0.568840027,-0.679916382,0.072143555,0.004253661,0.006030396,1.012838960
8.234309,0.866386414,-0.725692749,-0.049926758,0.003032958,0.006274536,1.008444428
8.235029,0.523063660,-0.710433960,0.178955078,0.005108153,0.007373169,1.011618257
8.235688,0.576469421,-0.489181519,0.095031738,0.005108153,0.008349732,1.013327241
8.236313,0.530693054,-0.611251831,-0.011779785,0.008281982,0.007006958,1.010519624
8.236938,0.523063660,-0.817245483,0.079772949,0.007305419,0.007861450,1.011129975
8.250838,0.179740906,-0.176376343,-0.080444336,0.006328857,0.006274536,1.005636811
8.251558,0.233146667,-0.168746948,0.072143555,0.006450927,0.008227661,1.003195405
8.252183,0.202629089,-0.161117554,0.117919922,0.003155028,0.007861450,1.006125093
8.252809,0.278923035,-0.046676636,0.072143555,0.004131591,0.007129028,1.004049897
8.253436,0.065299988,-0.206893921,-0.080444336,0.003643310,0.007739380,1.003195405
8.254062,0.233146667,-0.077194214,0.102661133,0.004375732,0.009692505,1.001364350
8.254689,0.210258484,0.006729126,0.026367188,0.005596435,0.010669068,0.999899507
8.255314,0.156852722,-0.260299683,0.087402344,0.003887450,0.005908325,1.000631928
8.255941,0.309440613,-0.061935425,-0.049926758,0.005596435,0.008349732,0.999045014
8.256566,0.217887878,-0.130599976,0.018737793,0.002422607,0.007495239,1.000021577
8.257192,0.225517273,-0.367111206,0.224731445,0.004497802,0.010546997,0.995993257
8.257817,0.210258484,-0.336593628,-0.057556152,0.002056396,0.010302857,0.996115327
8.258443,0.240776062,-0.298446655,-0.057556152,0.001446044,0.008838013,0.993918061
8.259068,0.339958191,-0.168746948,-0.019409180,0.005108153,0.009448364,0.995382905
8.259693,0.263664246,-0.359481812,0.125549316,0.006572997,0.007983521,0.993918061
8.260318,0.309440613,-0.275558472,0.095031738,0.005108153,0.010424927,0.991110444
8.260945,0.324699402,-0.328964233,0.041625977,0.003032958,0.011157349,0.993795991
8.261570,0.164482117,-0.107711792,0.018737793,0.003521239,0.005908325,0.994040132
8.262196,0.225517273,-0.580734253,0.224731445,0.002056396,0.007861450,0.994284272
8.262823,0.370475769,-0.405258179,0.018737793,0.004131591,0.008960083,0.993673921
8.263449,0.492546082,-0.389999390,0.011108398,0.001812255,0.008227661,0.995382905
8.271899,0.523063660,-0.542587280,-0.019409180,0.003887450,0.010180786,1.002707124
8.272524,0.591728210,-0.710433960,0.110290527,0.008892333,0.013598755,1.003805757
8.273149,0.515434265,-0.573104858,0.003479004,0.006695068,0.012133911,1.002340913
8.273775,0.553581238,-0.611251831,0.064514160,0.005108153,0.011401489,1.001852632
8.274402,0.408622742,-0.863021851,0.072143555,0.005840575,0.011401489,1.006125093
8.275029,0.584098816,-0.817245483,-0.103332520,0.004009521,0.010913208,1.003683686
8.275655,0.423881531,-0.779098511,-0.095703125,0.005352294,0.009082153,1.003805757
8.276280,0.545951843,-0.664657593,0.011108398,0.005962646,0.008105591,1.002585053
8.276907,0.317070007,-0.779098511,-0.255920410,0.007061278,0.012255982,1.001974702
8.277670,0.622245789,-0.718063354,0.056884766,0.005718505,0.012011841,1.003805757
8.278409,0.263664246,-0.573104858,0.033996582,0.009624755,0.010058716,1.005636811
8.279165,0.439140320,-0.580734253,-0.065185547,0.005352294,0.009326294,1.007467866
8.279945,0.545951843,-0.641769409,0.026367188,0.007427489,0.005420044,1.010763764
8.280817,0.492546082,-0.618881226,0.018737793,0.005108153,0.005420044,1.013205171
8.281579,0.454399109,-0.748580933,0.072143555,0.002910888,0.007129028,1.010275483
8.282364,0.614616394,-0.595993042,-0.095703125,0.006817138,0.010546997,1.007712007
8.283099,0.423881531,-0.832504272,-0.042297363,0.008037841,0.015551880,1.007712007
8.283901,0.568840027,-0.756210327,0.110290527,0.009014403,0.015307739,1.008444428
8.284641,0.477287292,-0.565475464,0.018737793,0.009258544,0.016284302,1.002951264
8.285462,0.149223328,-0.679916382,0.064514160,0.004375732,0.013842896,1.003439546
8.286165,0.179740906,-0.557846069,0.049255371,0.007183349,0.014819458,1.002218843
8.286941,0.217887878,-0.603622437,0.049255371,0.008281982,0.010546997,1.002218843
8.287716,0.233146667,-0.595993042,-0.095703125,0.006328857,0.011889771,1.006003022
8.288530,0.347587585,-0.611251831,-0.004150391,0.006450927,0.011889771,1.005758882
8.289277,0.355216980,-0.359481812,-0.049926758,0.006328857,0.005297974,1.001852632
8.290042,0.194999695,-0.451034546,0.133178711,0.005230224,0.011523560,1.003561616
8.292087,0.271293640,-0.290817261,0.171325684,0.005718505,0.008593872,1.006003022
8.292891,0.088188171,-0.313705444,0.003479004,0.003521239,0.007861450,1.004171968
8.305894,0.057670593,-0.000900269,-0.034667969,0.004131591,0.002124146,1.009054780
8.306658,0.126335144,-0.214523315,0.095031738,0.000713622,0.003711060,1.010519624
8.307283,-0.041511536,-0.191635132,-0.118591309,-0.001605714,0.000781372,1.005758882
8.307908,0.256034851,0.060134888,0.079772949,0.003277099,0.005786255,1.009298921
8.308533,0.194999695,0.021987915,0.011108398,0.000835693,0.002490357,1.009176850
8.309159,0.240776062,-0.191635132,-0.187255859,0.001934325,0.001635864,1.006979585
8.309785,0.133964539,-0.222152710,0.095031738,0.000957763,0.001635864,1.006613374
8.310410,-0.033882141,-0.191635132,0.133178711,0.000591552,0.001513794,1.007712007
8.312193,0.324699402,-0.161117554,0.194213867,-0.000873292,0.006030396,1.005026460
8.312819,0.141593933,-0.199264526,-0.034667969,-0.001727784,0.004321411,1.008932710
8.313445,0.072929382,-0.100082397,0.102661133,-0.002093995,0.004931763,1.005270600
8.314071,0.034782410,-0.473922729,0.018737793,-0.000995362,0.004687622,1.002707124
8.314696,0.141593933,-0.252670288,0.209472656,-0.003925050,0.003588989,1.003561616
8.315323,0.133964539,-0.214523315,0.064514160,-0.000262940,0.000903443,1.002340913
8.315948,0.301811218,-0.275558472,0.018737793,-0.001361573,0.000781372,0.999533296
8.316574,0.103446960,-0.397628784,0.095031738,-0.003070557,0.000903443,1.001852632
8.317200,0.133964539,-0.389999390,0.110290527,-0.000385011,0.002002075,1.002096772
8.317826,0.317070007,-0.184005737,0.041625977,-0.001849854,-0.000439331,1.001364350
8.318452,0.027153015,-0.328964233,0.087402344,-0.000751222,-0.000805542,0.999411225
8.319079,0.538322449,-0.527328491,0.110290527,0.000103271,0.000781372,0.994772553
8.319704,0.462028503,-0.672286987,0.171325684,-0.002093995,0.004687622,0.994772553
8.320330,0.103446960,-0.420516968,-0.011779785,-0.005389893,0.002124146,0.992575288
8.320956,0.301811218,-0.679916382,-0.004150391,-0.004291261,0.001025513,0.995504975
8.321582,0.378105164,-0.603622437,0.217102051,-0.003680909,0.000781372,0.992453218
8.322209,0.477287292,-0.573104858,0.056884766,-0.003680909,-0.003369018,0.992697358
8.322834,0.530693054,-0.756210327,0.041625977,-0.005023682,-0.010693237,0.991842866
8.323461,0.492546082,-0.893539429,-0.027038574,-0.004291261,-0.009594604,0.989279389
8.324088,0.561210632,-0.954574585,0.140808105,-0.006732667,-0.009106323,0.985617280
8.324714,0.782463074,-0.946945190,0.033996582,-0.006488526,-0.005688354,0.985983491
8.325341,0.668022156,-1.137680054,0.133178711,-0.006366456,-0.002270386,0.987570405
8.325967,0.965568542,-0.962203979,0.056884766,-0.006122315,0.000903443,0.985739350
8.326592,1.064750671,-1.442855835,0.041625977,-0.005023682,0.002490357,0.984030366
8.327218,1.209709167,-1.397079468,-0.049926758,-0.003192628,0.003466919,0.982565522
8.327843,1.003715515,-1.282638550,0.095031738,0.002178466,0.007129028,0.985739350
8.328468,1.186820984,-1.366561890,0.003479004,0.003521239,0.006274536,0.988058686
8.329093,1.041862488,-1.313156128,0.095031738,0.004986083,0.008105591,0.994040132
8.329720,1.293632507,-1.122421265,0.148437500,0.003521239,0.007739380,0.998312593
8.330346,1.324150085,-1.122421265,0.110290527,0.007183349,0.007861450,0.999777436
8.332169,1.186820984,-0.840133667,0.011108398,0.004497802,0.008715943,1.016989350
8.332794,1.232597351,-0.809616089,0.079772949,0.006450927,0.012988403,1.018332124
8.333419,0.973197937,-0.756210327,0.018737793,0.004619872,0.011279419,1.023092866
8.334044,0.973197937,-0.718063354,0.133178711,0.003765380,0.013110474,1.023337007
8.334670,0.973197937,-0.763839722,0.011108398,0.004619872,0.008838013,1.027121186
8.335295,0.545951843,-0.847763062,-0.065185547,0.001812255,0.012500122,1.029074311
8.335921,0.561210632,-0.840133667,0.148437500,0.001690185,0.010180786,1.029928803
8.336547,0.332328796,-0.611251831,0.056884766,0.004253661,0.010424927,1.026388764
8.337173,0.400993347,-0.962203979,0.117919922,0.002300536,0.002978638,1.026022553
8.337800,0.225517273,-0.718063354,0.003479004,0.003643310,0.008960083,1.026877046
8.338425,0.347587585,-0.924057007,-0.027038574,0.002544677,0.006030396,1.021139741
8.339051,0.187370300,-1.007980347,0.270507812,0.003521239,0.006640747,1.023825288
8.353100,0.530693054,-0.298446655,0.087402344,0.002178466,0.011523560,1.006125093
8.353817,0.599357605,-0.214523315,-0.057556152,0.002544677,0.011767700,1.002340913
8.354442,0.378105164,-0.512069702,0.117919922,0.005108153,0.012133911,1.006979585
8.355068,0.393363953,-0.321334839,0.110290527,0.007915771,0.013476685,1.004538178
8.355694,0.210258484,-0.138229370,0.178955078,0.002910888,0.013476685,1.005758882
8.356321,0.317070007,-0.252670288,0.102661133,0.003399169,0.012744263,1.006979585
8.356947,0.233146667,-0.275558472,-0.034667969,0.001568114,0.011767700,1.006125093
8.357574,0.286552429,-0.214523315,-0.057556152,0.004986083,0.016894653,1.007345796
8.358201,0.202629089,-0.191635132,0.041625977,0.002544677,0.014087036,1.005636811
8.358827,0.225517273,-0.168746948,-0.294067383,0.004131591,0.011523560,1.007712007
8.359454,0.240776062,-0.191635132,-0.027038574,0.003399169,0.010913208,1.008810639
8.360081,0.126335144,-0.023788452,-0.095703125,0.002544677,0.008960083,1.007589936
8.360706,0.248405457,-0.298446655,0.056884766,0.000591552,0.007495239,1.005758882
8.361332,0.187370300,-0.313705444,-0.072814941,0.002544677,0.006762818,1.008810639
8.361958,0.088188171,-0.290817261,-0.095703125,0.002300536,0.006274536,1.006125093
8.362584,0.332328796,-0.130599976,-0.034667969,0.002544677,0.005175903,1.008200288
8.363210,0.172111511,-0.130599976,0.102661133,0.001446044,0.008593872,1.006735444
8.363837,0.423881531,-0.145858765,0.072143555,0.001201903,0.007251099,1.008200288
8.364462,0.271293640,-0.077194214,0.148437500,-0.003070557,0.006518677,1.006613374
8.365088,0.355216980,0.052505493,-0.057556152,0.001446044,0.008960083,1.006979585
8.365713,0.301811218,-0.283187866,0.095031738,0.000591552,0.009936646,1.006735444
8.366340,0.584098816,-0.069564819,-0.011779785,0.000469482,0.010302857,1.004538178
8.366965,0.561210632,-0.115341187,0.011108398,-0.002338136,0.008960083,1.003561616
8.367591,0.408622742,-0.008529663,0.125549316,-0.000507081,0.010546997,1.004416108
8.368216,0.431510925,-0.115341187,-0.088073730,0.001323974,0.007373169,1.003195405
8.368843,0.393363953,-0.397628784,-0.027038574,-0.002582276,0.007373169,1.000753999
8.369469,0.378105164,-0.260299683,0.003479004,-0.003802979,0.007006958,0.999777436
8.370094,0.210258484,-0.344223022,0.026367188,-0.004779542,-0.000439331,1.000998139
8.370719,0.400993347,-0.344223022,0.095031738,-0.009784425,-0.000927612,0.997946382
8.371346,0.355216980,-0.245040894,0.033996582,-0.003925050,0.002612427,0.994040132
8.373081,0.561210632,-0.618881226,0.178955078,0.002666747,0.014331177,0.993063569
8.373707,0.751945496,-0.939315796,0.087402344,0.002178466,0.020922974,0.990011811
8.374333,0.446769714,-0.679916382,0.049255371,0.000591552,0.013598755,0.991598725
8.374959,0.660392761,-0.527328491,0.056884766,0.001812255,0.009936646,0.996725678
8.375585,0.545951843,-0.557846069,-0.057556152,0.001568114,0.009326294,0.994894624
8.376210,0.500175476,-0.466293335,0.087402344,0.002422607,0.003833130,0.999533296
8.376836,0.568840027,-0.199264526,0.117919922,0.001568114,0.004931763,0.999777436
8.377463,0.507804871,-0.298446655,0.163696289,-0.000873292,0.001880005,1.003073335
8.378089,0.660392761,-0.496810913,-0.095703125,-0.000995362,0.004199341,1.002340913
8.378715,0.881645203,-0.481552124,-0.103332520,-0.004413331,0.007006958,1.004171968
8.379341,0.835868835,-0.451034546,0.011108398,-0.005145753,0.006762818,1.006857514
8.379968,0.729057312,-0.824874878,0.087402344,-0.003192628,0.012011841,1.002829194
8.380595,0.492546082,-0.657028198,0.087402344,-0.002582276,0.012011841,1.007467866
8.381222,0.378105164,-0.542587280,0.087402344,-0.003070557,0.014453247,1.001364350
8.381848,0.294181824,-0.695175171,0.011108398,-0.001483643,0.013110474,1.000876069
8.382475,0.164482117,-0.626510620,-0.034667969,-0.006854737,0.010058716,1.001730561
8.383101,0.042411804,-0.756210327,0.163696289,-0.002582276,0.008105591,1.000876069
8.383826,0.332328796,-0.946945190,0.217102051,-0.000995362,0.005908325,0.996847749
8.384453,0.408622742,-0.809616089,-0.049926758,-0.003436768,0.004931763,0.994772553
8.398438,0.759574890,-0.969833374,0.117919922,0.006939208,0.011523560,1.011496186
8.399176,0.629875183,-0.679916382,0.194213867,0.005596435,0.009936646,1.012106538
8.399801,0.820610046,-0.695175171,-0.019409180,0.009014403,0.009570435,1.013205171
8.400428,0.851127625,-0.756210327,0.049255371,0.007427489,0.012622193,1.017477632
8.401053,0.759574890,-0.840133667,0.033996582,0.009502685,0.013720825,1.016378999
8.401678,0.622245789,-0.809616089,0.117919922,0.008037841,0.017260864,1.017233491
8.402303,0.668022156,-0.550216675,0.178955078,0.007915771,0.012133911,1.015036225
8.402929,0.545951843,-0.618881226,0.140808105,0.004253661,0.004443482,1.019552827
8.403555,0.446769714,-0.557846069,-0.072814941,0.001446044,0.003955200,1.016501069
8.404180,0.553581238,-0.481552124,0.056884766,0.003643310,0.007739380,1.021017671
8.404805,0.484916687,-0.664657593,0.011108398,0.003521239,0.007861450,1.019064546
8.405432,0.553581238,-0.687545776,0.087402344,0.005718505,0.007495239,1.018820405
8.406057,0.454399109,-0.481552124,0.247619629,0.006572997,0.010546997,1.019674897
8.406683,0.439140320,-0.466293335,0.262878418,0.006328857,0.008593872,1.019796968
8.407309,0.614616394,-0.389999390,0.110290527,0.006939208,0.010791138,1.019308686
8.407935,0.584098816,-0.626510620,-0.011779785,0.007793700,0.008960083,1.017965913
8.408560,0.400993347,-0.260299683,0.072143555,0.007793700,0.006762818,1.015646577
8.409186,0.423881531,-0.328964233,-0.095703125,0.006328857,0.009692505,1.016989350
8.409811,0.370475769,-0.344223022,0.041625977,0.003521239,0.013598755,1.011496186
8.410436,0.416252136,-0.367111206,0.056884766,0.000957763,0.018481568,1.009176850
8.411062,0.431510925,-0.214523315,0.072143555,0.003277099,0.018359497,1.007956147
8.411687,0.278923035,-0.328964233,-0.065185547,0.005474364,0.020800903,1.005514741
8.412313,0.248405457,-0.344223022,-0.095703125,0.004864013,0.020068482,1.002340913
8.412939,0.088188171,-0.298446655,0.102661133,0.001934325,0.016284302,1.003195405
8.413565,0.042411804,-0.351852417,0.148437500,0.005474364,0.008838013,1.003317475
8.414191,0.057670593,-0.153488159,0.079772949,0.003643310,0.004931763,1.005514741
8.414816,-0.155952454,-0.061935425,0.255249023,0.000835693,0.005297974,1.001730561
8.415443,-0.056770325,-0.214523315,0.064514160,0.000225341,0.005542114,1.000998139
8.416070,0.202629089,-0.443405151,0.163696289,0.000591552,0.004321411,0.997458100
8.416696,0.027153015,-0.351852417,-0.110961914,-0.002093995,0.002124146,0.998068452
8.418440,0.164482117,-0.443405151,-0.011779785,-0.001483643,0.004931763,0.991110444
8.419065,0.263664246,-0.428146362,0.072143555,-0.000995362,0.005664185,0.990744233
8.419690,0.118705750,-0.466293335,-0.011779785,0.003521239,0.007861450,0.990255952
8.420315,0.141593933,-0.588363647,0.125549316,0.005352294,0.007861450,0.990988374
8.420942,0.355216980,-0.672286987,0.102661133,0.001446044,0.006640747,0.989401460
8.421568,0.484916687,-0.489181519,0.064514160,0.004131591,0.004931763,0.995993257
8.422194,0.339958191,-0.420516968,0.095031738,0.002666747,0.004931763,0.991842866
8.422819,0.439140320,-0.512069702,0.049255371,0.002178466,0.005053833,0.996237397
8.423444,0.767204285,-0.573104858,0.049255371,0.000957763,0.006274536,0.995749116
8.424071,0.660392761,-0.595993042,0.049255371,0.003155028,0.003955200,1.002829194
8.424696,0.652763367,-0.550216675,-0.072814941,0.001079833,0.006274536,1.002462983
8.425323,0.668022156,-0.695175171,0.110290527,0.000469482,0.006884888,1.003073335
8.425948,0.744316101,-0.542587280,0.178955078,0.000103271,0.006884888,1.003195405
8.426574,0.729057312,-0.824874878,-0.194885254,-0.000629151,0.007739380,1.005026460
8.427200,0.690910339,-0.664657593,-0.095703125,0.001079833,0.004565552,1.008444428
8.427826,0.660392761,-0.870651245,-0.057556152,0.004253661,0.008471802,1.008322358
8.428451,0.614616394,-0.733322144,0.018737793,0.001690185,0.008593872,1.011129975
8.429078,0.629875183,-0.664657593,-0.072814941,0.000957763,0.007251099,1.012838960
8.429705,0.629875183,-0.733322144,0.079772949,0.001079833,0.005175903,1.012594819
8.430331,0.538322449,-0.718063354,-0.057556152,0.003032958,0.003466919,1.014914155
8.444268,0.584098816,-1.061386108,0.079772949,0.003399169,0.003344849,0.995016694
8.444972,0.713798523,-0.962203979,-0.027038574,0.001690185,0.002490357,0.994650483
8.445598,0.713798523,-0.992721558,0.209472656,0.003277099,0.005664185,0.993063569
8.446223,0.767204285,-0.985092163,0.011108398,0.005962646,0.003100708,0.996359468
8.446848,0.759574890,-0.946945190,0.232360840,0.002788818,0.005175903,0.994040132
8.447473,0.698539734,-1.053756714,0.125549316,0.004375732,0.003344849,0.995016694
8.448100,0.889274597,-0.740951538,-0.088073730,0.006084716,0.003466919,0.995627046
8.448726,0.629875183,-1.069015503,0.079772949,0.003643310,0.005908325,0.998068452
8.449353,0.675651550,-0.870651245,0.011108398,0.006817138,0.006152466,1.000998139
8.449979,0.805351257,-0.824874878,0.003479004,0.010235107,0.007251099,0.999777436
8.450604,0.782463074,-0.794357300,-0.027038574,0.005352294,0.005664185,1.001730561
8.451231,0.950309753,-1.061386108,0.056884766,0.006695068,0.007983521,1.006247163
8.451856,0.858757019,-0.977462769,-0.042297363,0.007061278,0.008960083,1.006247163
8.452483,0.477287292,-0.695175171,-0.080444336,0.007427489,0.008960083,1.004782319
8.453108,0.767204285,-0.832504272,0.064514160,0.004253661,0.010058716,1.007101655
8.453733,0.881645203,-0.664657593,0.117919922,0.007427489,0.001513794,1.012228608
8.454359,0.675651550,-0.832504272,-0.095703125,0.010357177,0.007983521,1.013083100
8.454984,0.751945496,-0.687545776,-0.004150391,0.010967528,0.008838013,1.013327241
8.455609,0.751945496,-0.550216675,0.018737793,0.011089599,0.006274536,1.013083100
8.456236,0.538322449,-0.756210327,-0.080444336,0.008281982,0.006518677,1.015768647
8.456861,0.622245789,-0.618881226,0.148437500,0.009990966,0.008227661,1.014425874
8.457487,0.759574890,-0.733322144,0.011108398,0.008770263,0.010791138,1.013571382
8.458113,0.469657898,-0.565475464,0.003479004,0.011333739,0.009814575,1.016867280
8.458740,0.332328796,-0.374740601,0.049255371,0.012310302,0.009936646,1.016012788
8.459366,0.500175476,-0.664657593,0.056884766,0.014263427,0.011279419,1.018576264
8.460000,0.423881531,-0.405258179,-0.004150391,0.012310302,0.011523560,1.015280366
8.460626,0.324699402,-0.443405151,0.018737793,0.012920653,0.010302857,1.016745210
8.461252,0.378105164,-0.489181519,-0.004150391,0.009014403,0.008838013,1.015768647
8.461878,0.393363953,-0.428146362,-0.164367676,0.009624755,0.011401489,1.015768647
8.462503,0.500175476,-0.573104858,0.148437500,0.011211669,0.010669068,1.015036225
8.464271,0.187370300,-0.458663940,-0.042297363,0.011944091,0.011279419,1.009909272
8.464898,0.225517273,-0.245040894,-0.004150391,0.005718505,0.007006958,1.010519624
8.465523,0.393363953,-0.359481812,0.110290527,0.012432372,0.007861450,1.010641694
8.466150,0.095817566,-0.168746948,-0.141479492,0.011699950,0.010424927,1.012594819
8.466775,0.309440613,-0.397628784,0.148437500,0.013775146,0.006640747,1.008322358
8.467402,0.194999695,-0.237411499,-0.065185547,0.010967528,0.011767700,1.006491303
8.468028,-0.049140930,-0.245040894,-0.072814941,0.011333739,0.010669068,1.007834077
8.468653,0.141593933,-0.290817261,0.064514160,0.011455810,0.010791138,1.006125093
8.469279,0.324699402,-0.275558472,0.079772949,0.009624755,0.011035278,1.011862397
8.469905,0.393363953,-0.161117554,0.117919922,0.009258544,0.008105591,1.005392671
8.470530,0.240776062,-0.168746948,0.072143555,0.009746825,0.007861450,1.007467866
8.471156,0.172111511,-0.130599976,0.255249023,0.011822021,0.009448364,1.003683686
8.471783,0.492546082,-0.122970581,-0.065185547,0.011822021,0.010180786,1.005758882
8.472408,0.278923035,-0.206893921,0.087402344,0.011211669,0.012378052,1.006003022
8.473034,0.271293640,-0.313705444,-0.080444336,0.013286864,0.012011841,1.003805757
8.473660,0.202629089,-0.153488159,0.140808105,0.008892333,0.011767700,1.004416108
8.474287,0.523063660,-0.054306030,0.095031738,0.009502685,0.011645630,1.006003022
8.474913,0.217887878,-0.161117554,-0.042297363,0.012554443,0.012500122,1.005636811
8.475538,0.332328796,-0.214523315,-0.072814941,0.009624755,0.013598755,1.003317475
8.476164,0.202629089,-0.351852417,0.133178711,0.012920653,0.013476685,1.005392671
8.490138,0.332328796,-0.611251831,0.110290527,0.006328857,0.002734497,0.995627046
8.490869,0.477287292,-0.695175171,0.011108398,0.005108153,0.008349732,0.996359468
8.491494,0.400993347,-0.733322144,0.018737793,0.003887450,0.005420044,0.996481538
8.492120,0.431510925,-0.679916382,0.049255371,0.007427489,0.005053833,0.994650483
8.492745,0.393363953,-0.679916382,-0.065185547,0.005230224,0.001513794,0.996237397
8.493372,0.446769714,-0.809616089,0.247619629,0.002788818,-0.003735229,0.998922944
8.494000,0.599357605,-0.954574585,-0.019409180,0.003399169,-0.005932495,0.999777436
8.494627,0.530693054,-0.725692749,0.095031738,0.001323974,-0.007031128,0.997824311
8.495252,0.561210632,-0.924057007,-0.034667969,0.001201903,-0.002392456,0.999777436
8.495878,0.606987000,-1.076644897,0.255249023,0.005108153,0.000171021,0.997213960
8.496503,0.805351257,-0.939315796,-0.049926758,0.006572997,0.006152466,0.997458100
8.497129,1.003715515,-0.885910034,-0.179626465,0.002178466,0.010180786,1.000631928
8.497755,0.584098816,-1.091903687,0.133178711,0.005962646,0.011523560,1.000998139
8.498380,0.851127625,-1.007980347,0.148437500,0.007549560,0.009814575,1.003927827
8.499005,0.805351257,-0.939315796,-0.202514648,0.008037841,0.007495239,1.004904389
8.499630,0.774833679,-0.931686401,0.163696289,0.009380614,0.006762818,1.005514741
8.500257,0.751945496,-0.824874878,-0.027038574,0.005962646,0.005908325,1.008688569
8.500883,0.950309753,-0.756210327,-0.004150391,0.009502685,0.006396607,1.009543061
8.501509,0.835868835,-0.786727905,-0.095703125,0.007671630,0.004565552,1.012838960
8.502135,0.797721863,-0.977462769,0.148437500,0.009136474,0.006274536,1.014181733
8.502760,0.896903992,-0.657028198,0.041625977,0.009380614,0.010791138,1.015890718
8.503386,0.790092468,-0.649398804,0.018737793,0.008281982,0.010302857,1.017355561
8.504012,0.744316101,-0.649398804,0.125549316,0.005596435,0.011035278,1.020163178
8.504638,0.561210632,-0.618881226,-0.027038574,0.005718505,0.008838013,1.018942475
8.505264,0.652763367,-0.565475464,-0.133850098,0.009624755,0.006884888,1.019796968
8.505891,0.362846375,-0.489181519,0.156066895,0.005718505,0.007861450,1.020285249
8.506518,0.400993347,-0.611251831,-0.149108887,0.006695068,0.009204224,1.017477632
8.507143,0.118705750,-0.557846069,-0.103332520,0.007671630,0.006518677,1.017721772
8.507769,0.217887878,-0.588363647,0.140808105,0.008892333,0.004199341,1.016256928
8.508394,0.294181824,-0.435775757,0.018737793,0.005474364,0.005175903,1.016623139
8.510171,0.210258484,-0.489181519,-0.011779785,0.010723388,0.007617310,1.008810639
8.510798,-0.003364563,-0.595993042,0.148437500,0.006450927,0.005542114,1.007467866
8.511423,-0.064399719,-0.351852417,-0.049926758,0.006572997,0.005053833,1.004171968
8.512049,0.095817566,-0.252670288,0.140808105,0.005596435,0.006884888,1.006491303
8.512674,0.080558777,-0.504440308,-0.080444336,0.003887450,0.006274536,1.002340913
8.513299,0.194999695,-0.573104858,0.026367188,0.004497802,0.008838013,1.004049897
8.513925,-0.003364563,-0.275558472,0.095031738,0.008037841,0.005908325,1.001852632
8.521137,0.538322449,-0.466293335,0.186584473,0.004741943,0.006518677,1.004294038
8.521763,0.500175476,-0.458663940,0.102661133,0.005108153,0.008227661,1.004904389
8.522390,0.446769714,-0.588363647,-0.042297363,0.003399169,0.006152466,1.006491303
8.523016,0.278923035,-0.168746948,0.156066895,0.005596435,0.003711060,1.005880952
8.523642,0.332328796,-0.473922729,0.156066895,0.008281982,0.004565552,1.008322358
8.524267,0.446769714,-0.397628784,-0.049926758,0.006695068,0.004687622,1.011374116
8.524894,0.584098816,-0.344223022,0.064514160,0.003277099,0.002002075,1.007834077
8.525520,0.317070007,-0.367111206,-0.019409180,0.003643310,0.005053833,1.013571382
8.526147,0.431510925,-0.374740601,-0.118591309,0.006206786,0.011279419,1.010885835
8.526773,0.454399109,-0.351852417,0.087402344,0.006817138,0.011157349,1.010397553
8.527399,0.462028503,-0.168746948,0.224731445,0.006572997,0.008593872,1.011252046
8.528024,0.339958191,-0.252670288,-0.049926758,0.007305419,0.010058716,1.011618257
8.542021,0.500175476,-0.527328491,0.026367188,0.001446044,0.006640747,0.995993257
8.542802,0.462028503,-0.626510620,0.049255371,0.002300536,0.006762818,0.995382905
8.543427,0.233146667,-0.473922729,0.095031738,0.002666747,0.005786255,0.995504975
8.544052,0.454399109,-0.481552124,-0.110961914,0.002300536,0.006884888,0.996481538
8.544677,0.446769714,-0.573104858,0.064514160,0.003155028,0.005908325,0.999899507
8.545303,0.477287292,-0.519699097,0.079772949,0.004009521,0.009570435,1.000631928
8.545930,0.561210632,-0.657028198,0.072143555,0.003155028,0.007495239,0.999533296
8.546555,0.652763367,-0.794357300,0.049255371,0.003765380,0.006640747,1.001730561
8.547180,0.462028503,-0.657028198,-0.019409180,0.006084716,0.006640747,1.005758882
8.547806,0.400993347,-0.603622437,-0.004150391,0.005108153,0.006396607,1.005270600
8.548433,0.637504578,-0.603622437,0.003479004,0.006695068,0.006884888,1.002462983
8.549060,0.576469421,-0.618881226,0.041625977,0.004009521,0.007861450,1.006003022
8.549686,0.561210632,-0.573104858,0.232360840,0.001201903,0.009326294,1.007834077
8.550311,0.706169128,-0.779098511,0.194213867,0.005474364,0.004687622,1.006613374
8.550937,0.874015808,-0.672286987,0.133178711,0.006572997,0.008715943,1.010153413
8.551563,0.751945496,-0.863021851,0.064514160,0.005352294,0.009326294,1.009420991
8.552188,0.507804871,-0.779098511,-0.103332520,0.007305419,0.007617310,1.011252046
8.552813,0.767204285,-0.618881226,-0.019409180,0.006572997,0.008838013,1.013571382
8.553439,0.729057312,-0.618881226,0.133178711,0.002178466,0.008471802,1.012716889
8.554066,0.606987000,-0.672286987,0.095031738,0.002300536,0.009570435,1.011496186
8.554691,0.637504578,-0.748580933,0.171325684,0.002422607,0.009448364,1.011007905
8.555317,0.683280945,-0.550216675,0.011108398,0.001690185,0.008838013,1.012350678
8.555944,0.576469421,-0.573104858,-0.118591309,0.004986083,0.009570435,1.011862397
8.556569,0.675651550,-0.573104858,0.186584473,0.003155028,0.010424927,1.012472749
8.557196,0.645133972,-0.466293335,0.026367188,0.004864013,0.010791138,1.012228608
8.557821,0.759574890,-0.626510620,-0.141479492,0.001079833,0.010546997,1.011984468
8.558447,0.370475769,-0.664657593,0.095031738,0.004497802,0.009814575,1.013571382
8.559073,0.599357605,-0.733322144,0.072143555,0.003521239,0.008227661,1.009909272
8.559698,0.385734558,-0.519699097,-0.004150391,0.005108153,0.008105591,1.010031343
8.560325,0.561210632,-0.603622437,-0.103332520,0.003765380,0.007861450,1.014181733
8.562111,0.637504578,-0.519699097,0.110290527,0.005230224,0.007251099,1.008688569
8.562736,0.706169128,-0.687545776,0.163696289,0.002056396,0.009448364,1.009054780
8.563361,0.408622742,-0.664657593,0.110290527,0.002910888,0.007251099,1.003805757
8.563988,0.591728210,-0.374740601,0.232360840,0.006084716,0.010058716,1.006857514
8.564613,0.515434265,-0.542587280,0.041625977,0.000591552,0.010669068,1.006125093
8.565238,0.538322449,-0.618881226,-0.027038574,0.003765380,0.012866333,1.004294038
8.565865,0.469657898,-0.595993042,-0.011779785,0.001568114,0.010302857,1.004294038
8.566491,0.393363953,-0.473922729,0.270507812,0.001934325,0.009570435,1.003195405
8.567117,0.629875183,-0.290817261,0.049255371,0.000957763,0.008960083,1.003195405
8.567743,0.423881531,-0.435775757,-0.057556152,0.003277099,0.010913208,1.003561616
8.568369,0.385734558,-0.374740601,0.041625977,0.003887450,0.007617310,1.001852632
8.569000,0.507804871,-0.588363647,-0.049926758,0.000591552,0.006274536,1.001852632
8.569626,0.256034851,-0.367111206,-0.011779785,0.003032958,0.009082153,1.001974702
8.570252,0.393363953,-0.267929077,0.140808105,0.000469482,0.006640747,0.997702241
8.570878,0.385734558,-0.443405151,0.003479004,0.001934325,0.005908325,1.001730561
8.571503,0.477287292,-0.389999390,0.033996582,0.001568114,0.008715943,1.003195405
8.572130,0.484916687,-0.557846069,0.079772949,-0.000873292,0.011767700,1.002096772
8.572757,0.568840027,-0.481552124,0.003479004,0.002788818,0.008227661,1.002829194
8.573383,0.408622742,-0.443405151,-0.065185547,0.002788818,0.011767700,1.004416108
8.574008,0.416252136,-0.443405151,0.003479004,0.000957763,0.008105591,1.003561616
8.588021,0.416252136,-0.298446655,-0.011779785,-0.000140870,0.007861450,0.999899507
8.588806,0.286552429,-0.466293335,0.140808105,0.004131591,0.007373169,0.999655366
8.589431,0.416252136,-0.412887573,0.255249023,0.002056396,0.008593872,1.000631928
8.590058,0.278923035,-0.290817261,-0.027038574,0.000591552,0.008471802,1.002462983
8.590683,0.339958191,-0.420516968,0.056884766,-0.000140870,0.010913208,0.999533296
8.591309,0.347587585,-0.428146362,0.354431152,0.002300536,0.009692505,1.002096772
8.591934,0.194999695,-0.374740601,-0.088073730,0.003155028,0.010546997,0.999289155
8.592559,0.454399109,-0.397628784,0.064514160,-0.002338136,0.005420044,1.000021577
8.593186,0.256034851,-0.458663940,0.087402344,0.003277099,0.006884888,1.001242280
8.593811,0.500175476,-0.466293335,-0.027038574,0.001568114,0.011523560,0.999533296
8.594436,0.469657898,-0.397628784,0.178955078,0.002544677,0.007983521,1.002096772
8.595062,0.454399109,-0.451034546,-0.103332520,0.003643310,0.006396607,1.002340913
8.595689,0.584098816,-0.534957886,0.072143555,-0.000507081,0.009204224,1.001242280
8.596314,0.469657898,-0.534957886,0.018737793,0.000103271,0.008593872,1.001486421
8.596940,0.355216980,-0.496810913,0.018737793,0.002910888,0.006884888,1.002585053
8.597566,0.462028503,-0.603622437,-0.110961914,0.000591552,0.008838013,1.002096772
8.598191,0.286552429,-0.664657593,0.072143555,0.000591552,0.011279419,1.002462983
8.598818,0.606987000,-0.611251831,0.026367188,0.001568114,0.008593872,1.002951264
8.599445,0.446769714,-0.512069702,-0.065185547,0.004619872,0.007617310,1.000753999
8.600072,0.515434265,-0.595993042,0.247619629,0.000469482,0.008715943,1.005514741
8.600698,0.416252136,-0.657028198,0.049255371,-0.001727784,0.009936646,1.002462983
8.601323,0.538322449,-0.679916382,-0.126220703,0.001568114,0.011157349,1.003073335
8.601950,0.568840027,-0.588363647,0.011108398,0.001079833,0.004443482,1.003561616
8.602575,0.660392761,-0.832504272,0.117919922,0.001201903,0.006518677,1.005270600
8.603200,0.652763367,-0.718063354,-0.187255859,0.003521239,0.011401489,1.005880952
8.603827,0.591728210,-0.748580933,0.026367188,0.003521239,0.009448364,1.004904389
8.604453,0.523063660,-0.618881226,-0.011779785,0.004253661,0.011645630,1.004049897
8.605078,0.530693054,-0.550216675,-0.103332520,0.002544677,0.010546997,1.003073335
8.605705,0.622245789,-0.695175171,0.140808105,0.005108153,0.010302857,1.004171968
8.606330,0.545951843,-0.679916382,0.056884766,-0.000507081,0.011279419,1.004538178
8.608095,0.553581238,-0.740951538,0.056884766,0.003399169,0.007983521,1.006735444
8.608721,0.477287292,-0.801986694,0.262878418,0.002178466,0.008105591,1.006979585
8.609347,0.278923035,-0.863021851,-0.088073730,-0.000140870,0.011523560,1.007956147
8.609973,0.515434265,-0.641769409,-0.072814941,0.002178466,0.011767700,1.003439546
8.610598,0.500175476,-0.756210327,0.247619629,0.001568114,0.011889771,1.004049897
8.611225,0.675651550,-0.824874878,-0.034667969,0.001201903,0.011157349,1.002340913
8.611850,0.362846375,-0.702804565,-0.011779785,0.003399169,0.009692505,1.006247163
8.612476,0.492546082,-0.595993042,0.072143555,0.004253661,0.005664185,1.005148530
8.613103,0.454399109,-0.748580933,-0.057556152,0.002178466,0.010058716,1.005880952
8.613729,0.706169128,-0.855392456,0.156066895,0.005108153,0.009326294,1.006979585
8.614356,0.652763367,-0.618881226,0.186584473,0.004009521,0.009204224,1.006125093
8.614981,0.492546082,-0.748580933,0.133178711,0.004741943,0.010669068,1.005758882
8.615608,0.614616394,-0.855392456,0.156066895,0.002544677,0.004931763,1.003927827
8.616235,0.477287292,-0.771469116,-0.042297363,0.004864013,0.005175903,1.006491303
8.616861,0.362846375,-0.595993042,0.041625977,0.002300536,0.007495239,1.010153413
8.617487,0.576469421,-0.771469116,-0.019409180,0.004741943,0.007129028,1.007712007
8.618113,0.225517273,-0.618881226,0.087402344,0.003277099,0.007861450,1.012228608
8.618739,0.553581238,-0.756210327,-0.065185547,0.002666747,0.010424927,1.010275483
8.619364,0.530693054,-0.603622437,0.018737793,0.004253661,0.009692505,1.010153413
8.619998,0.660392761,-0.389999390,0.079772949,0.002178466,0.006396607,1.009665132
8.633899,0.317070007,-0.115341187,0.110290527,0.003399169,0.007129028,1.007101655
8.634625,0.233146667,-0.397628784,0.018737793,0.001934325,0.005420044,1.006003022
8.635251,0.004264832,-0.122970581,-0.057556152,0.002544677,0.009082153,1.005758882
8.635876,0.210258484,-0.130599976,-0.072814941,0.002056396,0.007129028,1.004171968
8.636501,0.034782410,-0.382369995,0.056884766,0.003155028,0.004321411,1.002218843
8.637127,0.179740906,-0.283187866,0.095031738,0.000957763,0.007983521,1.004782319
8.637753,0.301811218,-0.313705444,0.270507812,0.002056396,0.008227661,1.000631928
8.638379,0.393363953,-0.298446655,-0.011779785,0.002056396,0.006762818,1.005514741
8.639005,0.347587585,-0.298446655,-0.019409180,0.004619872,0.004931763,0.997824311
8.639630,0.294181824,-0.306076050,-0.088073730,0.003277099,0.005664185,1.000387788
8.640256,0.408622742,-0.481552124,-0.004150391,0.003277099,0.005542114,0.997580171
8.640883,0.225517273,-0.351852417,0.087402344,0.001079833,0.007617310,1.002096772
8.641509,0.286552429,-0.328964233,-0.088073730,0.001201903,0.009204224,0.998312593
