time,gyro x,gyro y,gyro z,accel x,accel y,accel z
15.000521,17.162773132,15.128189087,1.720092773,-0.178363532,-0.095043823,1.046896577
15.001148,16.941520691,15.509658813,2.032897949,-0.178241462,-0.096142456,1.041769624
15.001773,16.697380066,16.074234009,2.208374023,-0.179462165,-0.095043823,1.039328218
15.002399,16.506645203,16.135269165,2.559326172,-0.180560797,-0.094555542,1.031393647
15.003026,15.949699402,16.364151001,2.658508301,-0.179706305,-0.094921753,1.025534272
15.003652,15.644523621,16.760879517,2.795837402,-0.178241462,-0.093578979,1.020895600
15.004279,15.255424500,17.142349243,3.116271973,-0.181049079,-0.093212768,1.015036225
15.004905,14.759513855,17.424636841,3.337524414,-0.183368415,-0.091259643,1.005758882
15.005713,13.790580750,17.691665649,3.497741699,-0.184833258,-0.089794800,0.993673921
15.006338,13.348075867,18.004470825,4.001281738,-0.185199469,-0.091503784,0.987692475
15.006963,12.615653992,18.179946899,4.077575684,-0.188861579,-0.090405151,0.980734468
15.007588,12.211296082,18.302017212,4.314086914,-0.190814704,-0.090038940,0.977072358
15.009395,10.204765320,18.347793579,4.878662109,-0.196552008,-0.084667847,0.957785249
15.010021,9.541007996,18.607192993,5.344055176,-0.199115485,-0.082470581,0.954123139
15.010647,8.923027039,18.576675415,5.603454590,-0.200092047,-0.082592651,0.948019624
15.011272,8.129570007,18.874221802,6.038330078,-0.201190680,-0.085156128,0.944235444
15.011898,7.542106628,18.706375122,6.076477051,-0.203510016,-0.084179565,0.936056733
15.012525,6.779167175,18.569046021,6.320617676,-0.208026618,-0.084789917,0.933249116
15.013151,5.863639832,18.904739380,6.580017090,-0.206317633,-0.085034057,0.932272553
15.013778,5.123588562,18.508010864,6.740234375,-0.204974860,-0.085888550,0.925802827
15.014405,4.749748230,18.691116333,7.114074707,-0.208392829,-0.082592651,0.920920014
15.015030,3.643486023,18.607192993,7.342956543,-0.209735602,-0.081127807,0.919699311
15.015657,2.773735046,18.607192993,7.518432617,-0.214618415,-0.084667847,0.916159272
15.016283,2.026054382,18.561416626,7.854125977,-0.214008063,-0.081494018,0.912741303
15.016909,0.965568542,18.530899048,7.915161133,-0.217059821,-0.083691284,0.908835053
15.017535,0.004264832,18.225723267,8.243225098,-0.219012946,-0.081005737,0.904562593
15.018324,-0.712898254,18.187576294,8.334777832,-0.217059821,-0.078930542,0.901999116
15.019144,-1.307991028,18.057876587,8.838317871,-0.214618415,-0.082348511,0.895895600
15.019974,-3.123786926,18.233352661,9.296081543,-0.215106696,-0.083203003,0.886007905
15.020790,-3.924873352,17.996841431,9.570739746,-0.215594977,-0.083325073,0.881369233
15.034907,-13.888862610,10.497146606,14.781616211,-0.234882087,-0.111279175,0.777853608
15.035681,-13.400581360,9.917312622,14.888427734,-0.230975837,-0.113842651,0.777487397
15.036308,-13.125923157,9.482437134,15.094421387,-0.228290290,-0.117870972,0.774923921
15.036934,-12.820747375,8.711868286,15.430114746,-0.228290290,-0.117016479,0.774069428
15.037561,-12.080696106,8.620315552,15.704772949,-0.224506110,-0.119091675,0.775290132
15.038186,-11.516120911,7.697158813,15.819213867,-0.224750251,-0.121288940,0.776632905
15.038812,-11.004951477,7.147842407,15.864990234,-0.225360602,-0.126293823,0.774069428
15.039508,-10.432746887,6.590896606,15.880249023,-0.222552985,-0.125439331,0.777487397
15.040133,-9.753730774,6.125503540,16.139648438,-0.224261969,-0.124951050,0.774679780
15.040760,-8.899238586,5.507522583,16.063354492,-0.223407477,-0.129833862,0.778952241
15.041387,-8.327033997,5.072647095,16.276977539,-0.223285407,-0.132519409,0.778586030
15.042012,-7.548835754,4.698806763,16.376159668,-0.224506110,-0.133373901,0.777121186
15.042637,-6.450202942,3.867202759,16.566894531,-0.224384040,-0.136303589,0.780539155
15.043263,-5.763557434,3.325515747,16.818664551,-0.225482672,-0.138500854,0.777731538
15.043888,-4.588630676,2.928787231,17.169616699,-0.222919196,-0.142040893,0.775778413
15.044513,-3.573921204,2.234512329,17.085693359,-0.222552985,-0.144848511,0.782492280
15.045138,-2.902534485,1.654678345,17.200134277,-0.218402594,-0.145336792,0.783346772
15.045763,-1.361396790,1.189285278,17.238281250,-0.219623297,-0.149487182,0.783835053
15.046389,-0.110176086,0.693374634,17.444274902,-0.218402594,-0.149731323,0.783346772
15.047016,0.904533386,0.174575806,17.650268555,-0.215106696,-0.149853393,0.783102632
15.047641,2.010795593,-0.336593628,17.657897949,-0.215106696,-0.154003784,0.784201264
15.048266,3.536674500,-0.565475464,17.863891602,-0.217059821,-0.154247925,0.781271577
15.048891,4.719230652,-1.091903687,18.138549805,-0.218280524,-0.154125854,0.783712983
15.049516,6.077262878,-1.969284058,18.092773438,-0.217914313,-0.154247925,0.784201264
15.050141,7.481071472,-2.037948608,18.245361328,-0.219379157,-0.151562378,0.784079194
15.050766,8.526298523,-2.625411987,18.359802246,-0.219867438,-0.151074097,0.787253022
15.051391,9.769889832,-2.983993530,18.733642578,-0.221210212,-0.149975464,0.786276460
15.052018,11.234733582,-3.464645386,18.626831055,-0.222430915,-0.144848511,0.787619233
15.052643,12.577507019,-4.113143921,18.825195312,-0.222552985,-0.145703003,0.782370210
15.053269,13.607475281,-4.548019409,19.046447754,-0.220111579,-0.148388550,0.782492280
15.055078,17.261955261,-5.845016479,19.359252930,-0.217914313,-0.143505737,0.785788178
15.055704,18.635246277,-6.325668335,19.328735352,-0.216083258,-0.140209839,0.784079194
15.056329,19.901725769,-6.768173218,19.557617188,-0.220355719,-0.138012573,0.783590913
15.063600,32.276603699,-11.979049683,21.403930664,-0.201068610,-0.114208862,0.796774507
15.064226,33.138725281,-12.589401245,21.533630371,-0.202167243,-0.111157104,0.801535249
15.064852,33.771965027,-12.894577026,21.709106445,-0.199115485,-0.109814331,0.803854585
15.065477,34.557792664,-13.245529175,21.823547363,-0.200214118,-0.104931518,0.800924897
15.066103,35.168144226,-13.733810425,21.937988281,-0.200214118,-0.102734253,0.803366303
15.066730,35.809013367,-14.084762573,22.044799805,-0.196796149,-0.097119018,0.805685639
15.067356,36.549064636,-14.382308960,22.029541016,-0.196063727,-0.091869995,0.805563569
15.067983,36.938163757,-14.840072632,22.281311035,-0.194965094,-0.090405151,0.814840913
15.068610,37.449333191,-15.183395386,22.685668945,-0.190936774,-0.084179565,0.812887788
15.069237,38.074943542,-15.328353882,22.395751953,-0.193988532,-0.076367065,0.815695405
15.069862,38.357231140,-15.892929077,22.868774414,-0.192401618,-0.074291870,0.814108491
15.070488,38.593742371,-16.121810913,22.937438965,-0.190448493,-0.070629761,0.819479585
15.071114,38.822624207,-16.358322144,23.097656250,-0.191913337,-0.068188354,0.823385835
15.071740,38.975212097,-16.549057007,23.105285645,-0.187518805,-0.066601440,0.826071382
15.085772,32.040092468,-21.279281616,26.622436523,-0.182635993,0.013354614,0.857931733
15.086534,31.254264832,-21.447128296,26.805541992,-0.183612555,0.018115357,0.864523530
15.087159,30.514213562,-21.340316772,26.752136230,-0.182758063,0.022876099,0.864523530
15.087784,29.781791687,-21.866744995,27.087829590,-0.180560797,0.025195435,0.865866303
15.088410,29.056999207,-22.202438354,27.125976562,-0.183978766,0.029589966,0.867331147
15.089045,28.034660339,-22.309249878,27.476928711,-0.180927008,0.032763794,0.869162202
15.089670,27.317497253,-22.782272339,27.408264160,-0.182880133,0.034594849,0.868918061
15.090295,26.272270203,-22.911972046,27.698181152,-0.181781501,0.038134888,0.870138764
15.090920,25.562736511,-23.201889038,27.759216309,-0.181293219,0.041552857,0.874533296
15.091545,24.364921570,-23.140853882,27.751586914,-0.180560797,0.045581177,0.880880952
15.092170,23.487541199,-23.491806030,27.957580566,-0.179095954,0.049975708,0.881857514
15.092795,22.648307800,-23.796981812,28.125427246,-0.178729743,0.055102661,0.886374116
15.093422,21.519157410,-23.781723022,28.316162109,-0.182880133,0.055102661,0.888937593
15.094047,20.588371277,-23.911422729,28.148315430,-0.178485602,0.060229614,0.893087983
15.094672,19.550773621,-24.102157593,28.400085449,-0.178729743,0.062304810,0.896261811
15.095298,18.536064148,-24.514144897,28.361938477,-0.177142829,0.064380005,0.898214936
15.095924,17.368766785,-24.681991577,28.369567871,-0.178119391,0.069506958,0.903708100
15.096550,16.384574890,-24.628585815,28.468750000,-0.176898688,0.066821411,0.904806733
15.097175,15.499565125,-24.804061890,28.667114258,-0.177875251,0.068896607,0.913717866
15.097801,14.408561707,-25.002426147,28.682373047,-0.176654547,0.071460083,0.915793061
15.098427,13.576957703,-25.071090698,28.796813965,-0.173846930,0.070483521,0.921774507
15.099054,12.318107605,-25.025314331,28.873107910,-0.175677985,0.076464966,0.925314546
15.099681,11.227104187,-25.238937378,28.941772461,-0.179218024,0.078051880,0.925192475
15.100308,10.372612000,-25.315231323,29.109619141,-0.174823493,0.076220825,0.929831147
15.100933,9.365531921,-25.223678589,28.857849121,-0.178607672,0.075854614,0.936178803
15.101560,8.305046082,-25.246566772,29.208801270,-0.175800055,0.077685669,0.939352632
15.102187,7.618400574,-25.391525269,29.269836426,-0.174457282,0.081713989,0.946066499
15.102813,6.466362000,-25.467819214,29.246948242,-0.172504157,0.081469849,0.948385835
15.103438,5.772087097,-25.391525269,29.376647949,-0.169330329,0.082690552,0.952170014
15.104065,4.955741882,-25.078720093,29.269836426,-0.167499274,0.080371216,0.957296968
15.105851,2.590629578,-24.826950073,29.391906738,-0.168964118,0.081347778,0.972311616
15.106476,1.812431335,-24.620956421,29.483459473,-0.170795172,0.083667114,0.974630952
15.107101,0.965568542,-24.659103394,29.544494629,-0.168475837,0.084521607,0.978659272
15.107727,0.355216980,-24.460739136,29.521606445,-0.170306891,0.086718872,0.985983491
15.108353,-0.384834290,-24.544662476,29.536865234,-0.167621344,0.090625122,0.989401460
15.108979,-1.063850403,-24.430221558,29.605529785,-0.164813727,0.091357544,0.989401460
15.109604,-1.704719543,-24.056381226,29.468200684,-0.162738532,0.091723755,0.991598725
15.110229,-2.231147766,-24.155563354,29.452941895,-0.159808844,0.090869263,0.997580171
15.110856,-2.826240540,-23.690170288,29.582641602,-0.159686774,0.091479614,0.996847749
15.111481,-3.467109680,-23.575729370,29.285095215,-0.158832282,0.088549927,1.000387788
15.112108,-3.978279114,-23.400253296,29.529235840,-0.157855719,0.091113403,1.002218843
15.112733,-4.649665833,-23.018783569,29.300354004,-0.163104743,0.093921021,1.000021577
15.113358,-4.992988586,-23.003524780,29.498718262,-0.156635016,0.092822388,1.004904389
15.113984,-5.267646790,-22.866195679,29.460571289,-0.157367438,0.094775513,1.003195405
15.114611,-5.496528625,-22.789901733,29.513977051,-0.154315680,0.094531372,1.007101655
15.115237,-5.939033508,-22.454208374,29.559753418,-0.154315680,0.096972778,1.003561616
15.115862,-6.473091125,-22.232955933,29.239318848,-0.152850837,0.095874146,1.006979585
15.129919,-8.906867981,-21.782821655,27.827880859,-0.139301032,0.125781372,1.005148530
15.130709,-9.143379211,-21.927780151,27.827880859,-0.135760993,0.130297974,1.012106538
15.131334,-9.173896790,-21.935409546,27.759216309,-0.139301032,0.129199341,1.009909272
15.131959,-9.257820129,-21.988815308,27.660034180,-0.138934821,0.133838013,1.010397553
15.132586,-9.334114075,-21.874374390,27.423522949,-0.136981696,0.134448364,1.013205171
15.133212,-9.334114075,-21.927780151,27.385375977,-0.136493415,0.139331177,1.009909272
15.133839,-9.334114075,-21.973556519,27.522705078,-0.136859626,0.139697388,1.012106538
15.134464,-9.372261047,-22.049850464,27.354858398,-0.137103766,0.138720825,1.015402436
15.135089,-9.593513489,-22.065109253,26.981018066,-0.136859626,0.143603638,1.018087983
15.135714,-9.608772278,-22.049850464,26.958129883,-0.133075446,0.148974732,1.020285249
15.136340,-9.883430481,-22.049850464,26.942871094,-0.134662360,0.146899536,1.019186616
15.136966,-9.921577454,-22.065109253,26.752136230,-0.135760993,0.150317505,1.021628022
15.137592,-10.089424133,-22.118515015,26.713989258,-0.133197516,0.151416138,1.022848725
15.138217,-10.257270813,-21.904891968,26.393554688,-0.130511969,0.155932739,1.028708100
15.138849,-10.356452942,-22.263473511,26.302001953,-0.129047126,0.156298950,1.026754975
15.139475,-10.493782043,-22.087997437,26.347778320,-0.126727790,0.160815552,1.028586030
15.140101,-10.722663879,-22.324508667,26.057861328,-0.127460212,0.162158325,1.028708100
15.140727,-10.898139954,-21.958297729,26.134155273,-0.127460212,0.165820435,1.030539155
15.141448,-11.111763000,-22.194808960,25.905273438,-0.125385016,0.167529419,1.032126069
15.142075,-11.394050598,-22.179550171,25.760314941,-0.125507087,0.167529419,1.030050874
15.142700,-11.622932434,-22.126144409,25.806091309,-0.121356688,0.173877075,1.032492280
15.143335,-11.867073059,-22.370285034,25.668762207,-0.122577392,0.174365357,1.030661225
15.143960,-11.935737610,-22.393173218,25.439880371,-0.120990478,0.176440552,1.030295014
15.144586,-12.301948547,-22.194808960,25.409362793,-0.122455321,0.179980591,1.034811616
15.145212,-12.431648254,-22.271102905,25.127075195,-0.120013915,0.179980591,1.031637788
15.145838,-12.454536438,-22.324508667,25.127075195,-0.119891845,0.184008911,1.030905366
15.146463,-12.736824036,-22.477096558,24.966857910,-0.117572509,0.187060669,1.031515718
15.147088,-12.881782532,-22.637313843,24.722717285,-0.119891845,0.189868286,1.036032319
15.147714,-13.057258606,-22.286361694,24.539611816,-0.117938720,0.189135864,1.034079194
15.148339,-13.370063782,-22.423690796,24.577758789,-0.116840087,0.192553833,1.034079194
15.150143,-14.262702942,-22.652572632,23.990295410,-0.117572509,0.195849732,1.040304780
15.150768,-14.071968079,-22.759384155,23.730895996,-0.113177978,0.196338013,1.043478608
15.151394,-14.178779602,-22.736495972,23.631713867,-0.115375243,0.197070435,1.047506928
15.152019,-14.415290833,-22.820419312,23.349426270,-0.117694579,0.198535278,1.048727632
15.152644,-14.705207825,-23.026412964,23.173950195,-0.115985595,0.200610474,1.045675874
15.153270,-14.590766907,-23.201889038,23.097656250,-0.115009032,0.198901489,1.050192475
15.153895,-14.720466614,-22.973007202,22.761962891,-0.111835204,0.203051880,1.054709077
15.154520,-14.621284485,-22.973007202,22.357604980,-0.112689696,0.204638794,1.055197358
15.155147,-14.621284485,-23.102706909,22.548339844,-0.114032470,0.201709107,1.060202241
15.155772,-14.750984192,-23.201889038,22.029541016,-0.113177978,0.201464966,1.064596772
15.156397,-14.781501770,-22.973007202,21.983764648,-0.112445556,0.203051880,1.064474702
15.157024,-14.720466614,-23.377365112,21.815917969,-0.112567626,0.202807739,1.068991303
15.157649,-14.583137512,-23.156112671,21.464965820,-0.110858642,0.201831177,1.069723725
15.158276,-14.369514465,-23.301071167,21.335266113,-0.109271728,0.202441528,1.076071382
15.158901,-14.262702942,-23.247665405,21.182678223,-0.109882079,0.198901489,1.078390718
15.159528,-14.003303528,-23.476547241,20.671508789,-0.106830321,0.199267700,1.077658296
15.160154,-14.049079895,-23.217147827,20.473144531,-0.109515868,0.194995239,1.082296968
15.174129,-0.247505188,-18.776840210,14.575622559,-0.107684813,0.179248169,1.174826264
15.174975,0.629875183,-18.425888062,14.217041016,-0.108539306,0.179492310,1.175070405
15.175739,1.408073425,-17.983383179,13.995788574,-0.109027587,0.175463989,1.181418061
15.176542,2.468559265,-17.113632202,13.507507324,-0.111835204,0.179858521,1.186545014
15.177371,3.414604187,-16.671127319,13.286254883,-0.108417235,0.179004028,1.189352632
15.178186,3.902885437,-16.121810913,12.859008789,-0.108051024,0.180102661,1.189230561
15.178888,4.559013367,-15.793746948,12.622497559,-0.111835204,0.183520630,1.194113374
15.179515,5.047294617,-15.305465698,12.645385742,-0.110248290,0.182299927,1.193625093
15.180219,5.901786804,-14.306015015,12.057922363,-0.109515868,0.188037232,1.198629975
15.180844,6.329032898,-13.840621948,11.676452637,-0.110492431,0.190112427,1.199240327
15.181470,6.847831726,-13.215011597,11.478088379,-0.110248290,0.191943482,1.202047944
15.182095,7.091972351,-12.711471558,11.294982910,-0.109637938,0.191333130,1.200338960
15.182722,7.290336609,-12.268966675,10.921142578,-0.107074462,0.194384888,1.202170014
15.183347,7.702323914,-11.879867554,10.738037109,-0.105243407,0.197924927,1.202170014
15.183973,7.824394226,-11.376327515,10.638854980,-0.112079345,0.198046997,1.200461030
15.184599,7.740470886,-10.888046265,10.219238281,-0.108173095,0.200610474,1.198507905
15.185225,8.060905457,-10.338729858,9.975097656,-0.106830321,0.201831177,1.200216889
15.185851,8.297416687,-10.010665894,9.830139160,-0.108539306,0.201342896,1.196432710
15.186478,7.915946960,-9.125656128,9.479187012,-0.108295165,0.205859497,1.193380952
15.187104,7.946464539,-8.843368530,9.448669434,-0.110858642,0.208545044,1.189230561
15.187730,7.626029968,-8.416122437,9.128234863,-0.114276610,0.213305786,1.186056733
15.188356,7.519218445,-7.950729370,8.823059082,-0.118182860,0.213061646,1.186300874
15.188981,7.252189636,-7.477706909,8.647583008,-0.121600829,0.214892700,1.181784272
15.189608,7.214042664,-7.271713257,8.411071777,-0.123431884,0.218798950,1.176779389
15.190233,6.885978699,-6.867355347,8.083007812,-0.123553954,0.217456177,1.176169038
15.190889,6.329032898,-6.440109253,8.067749023,-0.123676024,0.217334107,1.176291108
15.191763,6.000968933,-6.073898315,7.747314453,-0.120624267,0.216601685,1.174948335
15.192579,5.581352234,-5.730575562,7.556579590,-0.121112548,0.216113403,1.171774507
15.194645,3.483268738,-4.235214233,6.778381348,-0.125018805,0.223803833,1.162008882
15.195270,2.880546570,-3.945297241,6.610534668,-0.127216071,0.223681763,1.158957124
15.195914,2.506706238,-3.899520874,6.335876465,-0.126239508,0.221728638,1.153219819
15.196585,1.881095886,-3.395980835,6.023071289,-0.124652587,0.218798950,1.152975678
15.197210,1.041862488,-3.395980835,5.878112793,-0.125385016,0.221972778,1.150900483
15.197836,0.553581238,-2.930587769,5.672119141,-0.120258056,0.220752075,1.148703218
15.198461,-0.163581848,-2.770370483,5.626342773,-0.118915282,0.221362427,1.146383882
15.199087,-0.743415833,-2.716964722,5.252502441,-0.122699462,0.216479614,1.143942475
15.199713,-1.262214661,-2.617782593,5.107543945,-0.116107665,0.215380982,1.145773530
15.200369,-2.154853821,-2.152389526,4.909179688,-0.114154540,0.217944458,1.144552827
15.201149,-2.810981750,-1.801437378,4.687927246,-0.108661376,0.215869263,1.141623139
15.201775,-3.383186340,-1.572555542,4.527709961,-0.113300048,0.215136841,1.140768647
15.202401,-4.039314270,-1.389450073,4.352233887,-0.110492431,0.213061646,1.141623139
15.203028,-4.779365540,-1.053756714,4.176757812,-0.111957274,0.214526489,1.140890718
15.203653,-5.618598938,-0.962203979,3.871582031,-0.113055907,0.215136841,1.139547944
15.204278,-5.946662903,-0.618881226,3.902099609,-0.116107665,0.214526489,1.136862397
15.204904,-6.885078430,-0.473922729,3.482482910,-0.116229735,0.213061646,1.137228608
15.205529,-7.548835754,-0.245040894,3.200195312,-0.114886962,0.211474732,1.137228608
15.206154,-8.311775208,0.205093384,3.131530762,-0.117694579,0.210254028,1.136740327
15.206780,-9.067085266,0.456863403,2.917907715,-0.115619384,0.203296021,1.142111421
15.220774,-19.748237610,3.218704224,-0.171997070,-0.126239508,0.156787232,1.075949311
15.221563,-20.007637024,3.264480591,-0.660278320,-0.126605719,0.152758911,1.071798921
15.222189,-20.526435852,3.195816040,-0.675537109,-0.125385016,0.151049927,1.070334077
15.222815,-20.907905579,3.226333618,-0.873901367,-0.122821532,0.148486450,1.071676850
15.223440,-21.075752258,3.241592407,-1.003601074,-0.121356688,0.146655396,1.067160249
15.224065,-21.319892883,3.157669067,-1.209594727,-0.118427001,0.144336060,1.069845796
15.224691,-21.472480774,3.111892700,-1.201965332,-0.117572509,0.144336060,1.068380952
15.225317,-21.853950500,3.157669067,-1.461364746,-0.118427001,0.144702271,1.068625093
15.225944,-21.937873840,3.188186646,-1.545288086,-0.114886962,0.138964966,1.071676850
15.226571,-22.197273254,3.256851196,-1.682617188,-0.112201415,0.136035278,1.068503022
15.227202,-22.433784485,3.317886353,-1.865722656,-0.112201415,0.134326294,1.067892671
15.227827,-22.563484192,3.127151489,-1.873352051,-0.112689696,0.134814575,1.067892671
15.228452,-22.746589661,3.317886353,-2.033569336,-0.113300048,0.130053833,1.068625093
15.229079,-22.799995422,3.188186646,-2.086975098,-0.111468993,0.129443482,1.067648530
15.229859,-23.112800598,3.050857544,-2.323486328,-0.112445556,0.126757935,1.065939546
15.230716,-22.983100891,3.104263306,-2.354003906,-0.115619384,0.124804810,1.067038178
15.231537,-23.082283020,2.760940552,-2.674438477,-0.116718017,0.120776489,1.059347749
15.232427,-23.021247864,2.852493286,-2.666809082,-0.117084228,0.117602661,1.059836030
15.233279,-22.632148743,2.501541138,-2.880432129,-0.122211181,0.112597778,1.053976655
15.234089,-22.464302063,2.638870239,-3.101684570,-0.121844970,0.108447388,1.054342866
15.234956,-22.258308411,2.303176880,-3.147460938,-0.125873297,0.104419068,1.049582124
15.235819,-21.464851379,2.036148071,-3.635742188,-0.126605719,0.100268677,1.048849702
15.236476,-21.022346497,1.998001099,-3.605224609,-0.127948493,0.097461060,1.051291108
15.237113,-20.564582825,1.807266235,-3.933288574,-0.126117438,0.092334107,1.048483491
15.238018,-20.175483704,1.616531372,-4.108764648,-0.123553954,0.090625122,1.050436616
15.238887,-19.137886047,1.280838013,-4.330017090,-0.125995368,0.091113403,1.052145600
15.241046,-17.314460754,1.204544067,-4.780151367,-0.126117438,0.082934693,1.061178803
15.241673,-16.650703430,1.013809204,-4.925109863,-0.125507087,0.079150513,1.060446382
15.242298,-16.109016418,0.899368286,-5.253173828,-0.127094001,0.076342896,1.061789155
15.242923,-15.376594543,0.716262817,-5.291320801,-0.128192633,0.072680786,1.061789155
15.243688,-14.819648743,0.472122192,-5.207397461,-0.126361579,0.074389771,1.068380952
15.244343,-14.102485657,0.487380981,-5.466796875,-0.124652587,0.072192505,1.072165132
15.244969,-13.087776184,0.456863403,-5.733825684,-0.126605719,0.063647583,1.069235444
15.245596,-12.477424622,0.594192505,-5.863525391,-0.124042235,0.066088989,1.068380952
15.246221,-11.783149719,0.266128540,-6.275512695,-0.122699462,0.063037232,1.069601655
15.246847,-11.081245422,0.380569458,-6.267883301,-0.123065673,0.065478638,1.076437593
15.247483,-10.226753235,0.144058228,-6.290771484,-0.123187743,0.061450318,1.074118257
15.248108,-9.494331360,-0.061935425,-6.595947266,-0.127460212,0.060717896,1.076193452
15.248734,-8.655097961,-0.023788452,-6.618835449,-0.124408446,0.058520630,1.075216889
15.249359,-7.861640930,-0.115341187,-6.710388184,-0.122333251,0.061328247,1.079123139
15.249985,-7.121589661,0.075393677,-7.000305176,-0.119159423,0.058154419,1.079245210
15.250612,-6.312873840,-0.061935425,-7.076599121,-0.121112548,0.058276489,1.082785249
15.251238,-5.527046204,0.067764282,-6.946899414,-0.122089110,0.058642700,1.082541108
15.251864,-4.710700989,0.212722778,-7.213928223,-0.123065673,0.057910278,1.086203218
15.252490,-3.947761536,0.121170044,-7.320739746,-0.123920165,0.056323364,1.085959077
15.253117,-3.284004211,0.113540649,-7.610656738,-0.122821532,0.053393677,1.088034272
15.253743,-2.452400208,0.075393677,-7.641174316,-0.121722899,0.055346802,1.093283296
15.254567,-0.819709778,0.334793091,-7.885314941,-0.122333251,0.056079224,1.096945405
15.268838,5.978080750,6.209426880,-9.701110840,-0.126849860,0.059008911,1.129294038
15.269606,5.932304382,6.629043579,-9.792663574,-0.125629157,0.059253052,1.126608491
15.270232,5.833122253,6.857925415,-9.723999023,-0.127338141,0.058886841,1.127096772
15.270857,5.741569519,7.315689087,-9.731628418,-0.124408446,0.059741333,1.126486421
15.271483,5.627128601,7.689529419,-9.777404785,-0.124286376,0.060229614,1.130636811
15.272108,5.367729187,8.009963989,-9.693481445,-0.125018805,0.061694458,1.126974702
15.272734,5.268547058,8.536392212,-9.815551758,-0.124408446,0.062426880,1.126974702
15.273361,4.757377625,8.826309204,-9.762145996,-0.123676024,0.060717896,1.123678803
15.273987,4.658195496,9.085708618,-9.907104492,-0.125507087,0.059985474,1.122946382
15.274613,4.208061218,9.612136841,-9.983398438,-0.123676024,0.062060669,1.119284272
15.275240,3.963920593,9.940200806,-9.876586914,-0.128925055,0.061084107,1.118429780
15.275865,3.498527527,10.481887817,-9.952880859,-0.131732672,0.064502075,1.115500093
15.276492,3.216239929,10.512405396,-10.097839355,-0.130878180,0.066943482,1.111471772
15.277118,2.621147156,10.901504517,-9.899475098,-0.131732672,0.065478638,1.110739350
15.277744,2.163383484,11.305862427,-10.029174805,-0.132709235,0.067797974,1.107321382
15.278370,1.881095886,11.557632446,-9.960510254,-0.136493415,0.068164185,1.101462007
15.278999,1.018974304,11.733108521,-9.914733887,-0.137347907,0.064868286,1.103048921
15.279626,0.812980652,11.984878540,-10.013916016,-0.135272712,0.063037232,1.097799897
15.280251,-0.026252747,12.328201294,-10.013916016,-0.133929938,0.060229614,1.094870210
15.280876,-0.430610657,12.740188599,-9.960510254,-0.135394782,0.060962036,1.090109468
15.281502,-1.140144348,12.908035278,-9.823181152,-0.140399665,0.057788208,1.087668061
15.282127,-1.590278625,13.114028931,-9.647705078,-0.141010016,0.053759888,1.085226655
15.282752,-2.231147766,13.327651978,-9.708740234,-0.144427985,0.054126099,1.083395600
15.283377,-2.444770813,13.350540161,-9.670593262,-0.144427985,0.053149536,1.079001069
15.284003,-3.284004211,13.587051392,-9.617187500,-0.148700446,0.050830200,1.072775483
15.284629,-3.787544250,13.762527466,-9.601928711,-0.148456305,0.050463989,1.073752046
15.285254,-4.138496399,13.838821411,-9.479858398,-0.149432868,0.047412232,1.068014741
15.285879,-4.542854309,13.854080200,-9.418823242,-0.150775641,0.049609497,1.064718843
15.286505,-4.832771301,14.060073853,-9.388305664,-0.149921149,0.047900513,1.060446382
15.287132,-5.183723450,13.983779907,-9.441711426,-0.149554938,0.047656372,1.058004975
15.288976,-6.526496887,14.105850220,-9.022094727,-0.151874274,0.045337036,1.056173921
15.289602,-6.938484192,14.159255981,-9.403564453,-0.151996344,0.048388794,1.055075288
15.290229,-7.243659973,14.258438110,-9.304382324,-0.150897712,0.046679810,1.054342866
15.290854,-7.785346985,14.113479614,-9.075500488,-0.146991462,0.043750122,1.053122163
15.291479,-8.105781555,14.288955688,-9.373046875,-0.148334235,0.045459107,1.056540132
15.292106,-8.471992493,14.273696899,-9.151794434,-0.146747321,0.046923950,1.054709077
15.292732,-8.822944641,14.479690552,-9.098388672,-0.142474860,0.043994263,1.056906343
15.293357,-9.456184387,14.380508423,-9.174682617,-0.144427985,0.042407349,1.056784272
15.293983,-9.700325012,14.723831177,-9.151794434,-0.136371344,0.042529419,1.058859468
15.294608,-9.967353821,14.739089966,-8.961059570,-0.135760993,0.043505982,1.060812593
15.295235,-10.409858704,14.746719360,-9.044982910,-0.136127204,0.041552857,1.058737397
15.295862,-10.806587219,15.006118774,-8.976318359,-0.136493415,0.040698364,1.059591889
15.296488,-11.096504211,15.349441528,-8.861877441,-0.135638922,0.042163208,1.060324311
15.297114,-11.416938782,15.364700317,-9.060241699,-0.132220954,0.038745239,1.058737397
15.297740,-11.935737610,15.471511841,-8.892395020,-0.130145758,0.037158325,1.062765718
15.298366,-12.309577942,16.043716431,-9.121276855,-0.128192633,0.035937622,1.062155366
15.299000,-12.691047668,16.219192505,-8.755065918,-0.129779547,0.036303833,1.061545014
15.299625,-12.965705872,16.127639771,-8.877136230,-0.125629157,0.033007935,1.065329194
15.320380,-2.734687805,19.682937622,-8.114196777,-0.150897712,-0.032177612,0.987204194
15.321216,-1.201179504,19.324356079,-8.167602539,-0.150043219,-0.034863159,0.983053803
15.321842,-0.529792786,19.072586060,-8.213378906,-0.149554938,-0.035961792,0.981955171
15.322467,0.408622742,18.858963013,-8.121826172,-0.151752204,-0.037548706,0.981344819
15.323093,0.835868835,18.767410278,-8.137084961,-0.145526618,-0.037304565,0.979513764
15.323718,1.568290710,18.401199341,-7.984497070,-0.146503180,-0.037914917,0.978048921
15.324344,2.552482605,18.240982056,-8.121826172,-0.147723883,-0.037182495,0.970114350
15.324969,3.147575378,18.004470825,-8.060791016,-0.145770758,-0.039868042,0.971335053
15.325596,3.712150574,17.851882935,-7.755615234,-0.144550055,-0.041821167,0.967550874
15.326221,4.604789734,17.569595337,-7.915832520,-0.145526618,-0.038036987,0.971090913
15.326847,5.291435242,17.401748657,-7.763244629,-0.144305915,-0.034863159,0.962423921
15.327473,5.772087097,17.195755005,-7.938720703,-0.145648688,-0.033764526,0.964865327
15.328100,6.412956238,17.096572876,-7.923461914,-0.145892829,-0.032055542,0.964621186
15.328725,6.931755066,16.814285278,-7.595397949,-0.145282477,-0.033154175,0.964987397
15.329351,7.420036316,16.516738892,-7.702209473,-0.142474860,-0.031323120,0.963522553
15.329978,8.114311218,16.158157349,-7.786132812,-0.142108649,-0.028027222,0.968161225
15.330605,8.556816101,15.982681274,-7.534362793,-0.144550055,-0.026684448,0.963888764
15.331230,9.159538269,15.769058228,-7.641174316,-0.146625251,-0.023144409,0.966330171
15.331856,9.350273132,15.646987915,-7.603027344,-0.146869391,-0.020214722,0.962912202
15.332491,9.800407410,15.570693970,-7.404663086,-0.142108649,-0.021557495,0.965475678
15.333299,10.250541687,15.349441528,-7.427551270,-0.144305915,-0.019726440,0.966330171
15.334067,10.410758972,15.105300903,-7.603027344,-0.143085212,-0.019116089,0.968283296
15.334856,10.738822937,14.952713013,-7.328369141,-0.141864508,-0.018139526,0.970724702
15.335700,11.082145691,14.739089966,-7.259704590,-0.144794196,-0.012280151,0.970114350
15.336509,11.059257507,14.555984497,-7.206298828,-0.141742438,-0.013012573,0.971823335
15.337329,11.158439636,14.632278442,-7.030822754,-0.141864508,-0.012524292,0.973044038
15.338152,11.486503601,14.105850220,-7.038452148,-0.142474860,-0.008740112,0.976217866
15.338959,11.265251160,14.060073853,-6.931640625,-0.145404547,-0.006664917,0.978048921
15.340855,11.249992371,14.044815063,-6.954528809,-0.145526618,-0.000073120,0.979269624
15.341480,11.211845398,13.861709595,-6.809570312,-0.147723883,-0.003246948,0.981711030
15.342106,10.975334167,14.220291138,-6.573059082,-0.147235602,-0.002514526,0.980490327
15.342731,11.021110535,13.938003540,-6.649353027,-0.146869391,-0.004223511,0.983908296
15.343356,10.921928406,14.021926880,-6.557800293,-0.145526618,-0.005444214,0.982199311
15.343981,10.822746277,13.869338989,-6.618835449,-0.148090094,-0.006542847,0.984030366
15.344607,10.914299011,13.930374146,-6.534912109,-0.148212165,-0.002880737,0.984518647
15.345232,10.639640808,13.945632935,-6.290771484,-0.148456305,-0.004711792,0.989645600
15.345963,10.517570496,14.029556274,-6.382324219,-0.146136969,-0.005810425,0.987692475
15.346589,10.364982605,13.930374146,-6.161071777,-0.148944587,-0.009472534,0.988546968
15.347215,10.235282898,13.976150513,-6.054260254,-0.143939704,-0.012158081,0.991842866
15.347840,10.158988953,13.991409302,-6.000854492,-0.143451422,-0.013867065,0.991232514
15.348466,10.212394714,13.960891724,-5.955078125,-0.142108649,-0.014721557,0.994772553
15.349103,10.342094421,14.105850220,-5.993225098,-0.142963141,-0.010204956,0.995627046
15.349854,9.899589539,14.494949341,-5.504943848,-0.142474860,-0.014721557,0.998434663
15.350481,9.876701355,14.411026001,-5.710937500,-0.139667243,-0.016186401,1.000876069
15.351106,9.853813171,14.594131470,-5.222656250,-0.135760993,-0.015820190,1.005026460
15.351731,10.029289246,14.685684204,-5.092956543,-0.134784430,-0.019604370,1.008078218
15.352356,9.861442566,14.609390259,-5.161621094,-0.134296149,-0.019482300,1.009298921
15.366362,10.853263855,17.104202271,-2.964355469,-0.120258056,-0.010693237,0.998068452
15.367135,10.891410828,17.188125610,-2.796508789,-0.117450438,-0.007885620,0.996359468
15.367762,10.738822937,17.592483521,-2.750732422,-0.122089110,-0.006664917,0.995260835
15.368388,10.677787781,17.439895630,-2.605773926,-0.121600829,-0.004345581,0.990866303
15.369014,10.563346863,17.317825317,-2.491333008,-0.119037353,-0.002148315,0.992087007
15.369639,10.624382019,17.668777466,-2.445556641,-0.116962157,-0.000683472,0.991232514
15.370266,10.609123230,17.668777466,-2.239562988,-0.118060790,-0.002270386,0.988424897
15.370891,10.403129578,17.493301392,-2.338745117,-0.118671142,0.002612427,0.988913178
15.371516,10.303947449,17.729812622,-2.033569336,-0.114764892,0.003100708,0.987692475
15.372141,10.105583191,17.531448364,-2.170898438,-0.116229735,0.008105591,0.985617280
15.372766,9.708854675,17.554336548,-1.911499023,-0.114154540,0.009448364,0.987204194
15.373392,9.823295593,17.790847778,-1.789428711,-0.113177978,0.012255982,0.983420014
15.374018,9.632560730,17.828994751,-1.873352051,-0.115741454,0.013476685,0.979879975
15.374643,9.243461609,17.813735962,-1.636840820,-0.118549071,0.017138794,0.980490327
15.375269,9.235832214,18.027359009,-1.598693848,-0.116595946,0.016894653,0.981344819
15.375894,9.006950378,18.164688110,-1.545288086,-0.115619384,0.018603638,0.978293061
15.376519,9.022209167,18.034988403,-1.484252930,-0.115863524,0.021655396,0.977438569
15.377145,8.579704285,17.767959595,-1.446105957,-0.111957274,0.018359497,0.977804780
15.377771,8.221122742,18.027359009,-1.331665039,-0.109637938,0.022998169,0.977316499
15.378397,8.350822449,18.263870239,-1.285888672,-0.112323485,0.022143677,0.977072358
15.379173,7.770988464,18.248611450,-0.927307129,-0.110126220,0.027636841,0.974264741
15.379921,7.770988464,18.218093872,-0.988342285,-0.108173095,0.026904419,0.971335053
15.380731,7.374259949,18.111282349,-1.194335938,-0.110248290,0.025195435,0.971945405
15.381614,7.168266296,18.576675415,-1.079895020,-0.108783446,0.028369263,0.971945405
15.382440,6.855461121,18.233352661,-0.767089844,-0.105853759,0.029589966,0.971212983
15.383065,6.527397156,18.416458130,-0.774719238,-0.106708251,0.028979614,0.968649507
15.383692,6.298515320,18.340164185,-0.759460449,-0.101825438,0.033862427,0.969015718
15.384318,6.557914734,18.454605103,-0.805236816,-0.102557860,0.037158325,0.967306733
15.384943,6.535026550,18.187576294,-0.599243164,-0.101581298,0.032031372,0.961569428
15.386727,6.496879578,18.256240845,-0.500061035,-0.106586181,0.032763794,0.957296968
15.387353,6.435844421,18.195205688,-0.690795898,-0.103046142,0.032275513,0.950949311
15.387979,6.489250183,18.088394165,-0.645019531,-0.104633056,0.030932739,0.949728608
15.388604,6.573173523,17.890029907,-0.645019531,-0.103168212,0.028125122,0.946066499
15.389229,6.901237488,17.836624146,-0.675537109,-0.103778563,0.030932739,0.945822358
15.389854,7.099601746,17.737442017,-0.759460449,-0.103778563,0.028125122,0.943258882
15.390481,7.290336609,17.500930786,-0.690795898,-0.105609618,0.025683716,0.939596772
15.391106,7.763359070,17.310195923,-0.797607422,-0.106586181,0.027148560,0.935324311
15.391731,8.015129089,17.325454712,-0.637390137,-0.105853759,0.025195435,0.935568452
15.392358,8.633110046,17.050796509,-0.904418945,-0.106097899,0.023364380,0.933493257
15.392983,8.945915222,17.027908325,-0.973083496,-0.107318603,0.022631958,0.933371186
15.393608,9.571525574,16.661697388,-0.820495605,-0.107440673,0.025073364,0.934225678
15.394233,9.922477722,16.326004028,-0.896789551,-0.107928954,0.022265747,0.929098725
15.394859,10.586235046,16.203933716,-0.736572266,-0.110370360,0.026049927,0.926901460
15.395486,11.005851746,15.914016724,-0.942565918,-0.111713134,0.025195435,0.927633882
15.396113,11.822196960,15.738540649,-0.851013184,-0.111591063,0.022998169,0.923849702
15.396740,12.310478210,15.235000610,-1.110412598,-0.109515868,0.025683716,0.925680757
15.397367,13.271781921,15.036636353,-1.049377441,-0.108539306,0.024463013,0.926657319
15.398000,13.699028015,14.609390259,-0.942565918,-0.111835204,0.023364380,0.926169038
15.411997,28.118583679,10.214859009,-2.918579102,-0.095111571,0.071093872,0.936545014
15.412785,28.553459167,10.298782349,-3.132202148,-0.093402587,0.073046997,0.930563569
15.413410,29.072257996,9.947830200,-3.132202148,-0.095233642,0.077197388,0.928244233
15.414037,29.278251648,9.848648071,-3.414489746,-0.093036376,0.078906372,0.929220796
15.414664,29.774162292,9.680801392,-3.429748535,-0.094379149,0.086230591,0.931173921
15.415290,30.216667175,9.413772583,-3.734924316,-0.096332274,0.089892700,0.919821382
15.415916,30.575248718,9.245925903,-3.773071289,-0.092914306,0.090503052,0.921530366
15.416541,30.796501160,9.154373169,-3.948547363,-0.093402587,0.091967896,0.923727632
15.417167,31.261894226,8.673721313,-3.956176758,-0.093890868,0.093188599,0.922140718
15.417793,31.475517273,8.528762817,-4.169799805,-0.091327392,0.095385864,0.917990327
15.418419,31.734916687,8.223587036,-4.246093750,-0.090839110,0.097949341,0.915793061
15.419044,31.910392761,8.055740356,-4.482604980,-0.093890868,0.100390747,0.913962007
15.419669,31.841728210,7.964187622,-4.604675293,-0.093646728,0.101123169,0.912375093
15.420295,32.040092468,7.330947876,-4.619934082,-0.096332274,0.106494263,0.907614350
15.420922,32.108757019,7.338577271,-4.726745605,-0.099139892,0.110156372,0.907248139
15.421549,32.337638855,6.743484497,-5.009033203,-0.101581298,0.112353638,0.907492280
15.422176,32.230827332,6.423049927,-5.260803223,-0.099506103,0.112597778,0.905539155
15.422802,32.436820984,5.995803833,-5.306579590,-0.098651610,0.114795044,0.902975678
15.423428,32.253715515,5.621963501,-5.329467773,-0.104266845,0.116015747,0.901510835
15.424053,32.223197937,5.431228638,-5.443908691,-0.108051024,0.121630982,0.898092866
15.424678,32.124015808,4.797988892,-5.688049316,-0.112445556,0.124682739,0.899679780
15.425303,31.826469421,4.714065552,-5.611755371,-0.112567626,0.128955200,0.895529389
15.425930,31.544181824,4.118972778,-5.779602051,-0.114520751,0.132251099,0.893332124
15.426555,31.162712097,3.729873657,-6.229736328,-0.096332274,0.129809693,0.896628022
15.427181,30.865165710,2.387100220,-7.191040039,-0.004047120,0.121264771,0.916647553
15.427806,31.284782410,1.143508911,-7.587768555,0.040996827,0.087085083,0.918478608
15.428431,32.185050964,1.608901978,-5.916931152,0.055401124,0.095874146,0.925070405
15.429056,31.361076355,1.433425903,-4.993774414,0.025860107,0.096972778,0.921408296
15.429682,29.850456238,2.516799927,-5.108215332,-0.062396728,0.102221802,0.910421968
15.430308,27.210685730,3.317886353,-6.542541504,-0.154437751,0.127734497,0.888327241
15.432129,28.538200378,1.486831665,-6.573059082,-0.154193610,0.102099732,0.894919038
15.432754,29.255363464,0.464492798,-6.283142090,-0.159442633,0.096728638,0.912619233
15.433379,29.873344421,-0.161117554,-6.328918457,-0.160419196,0.109790161,0.940817475
15.434005,29.560539246,-0.161117554,-6.878234863,-0.159564704,0.123706177,0.944479585
15.434631,28.744194031,0.166946411,-7.168151855,-0.155292243,0.143237427,0.939352632
15.435258,27.821037292,0.334793091,-7.244445801,-0.148944587,0.154345825,0.938620210
15.435885,27.164909363,0.105911255,-7.259704590,-0.157977790,0.147021607,0.931295991
15.436510,27.370903015,-0.176376343,-7.351257324,-0.170062751,0.138354614,0.935324311
15.437136,27.286979675,-0.771469116,-7.450439453,-0.180804938,0.131884888,0.938131928
15.437761,27.065727234,-1.206344604,-7.854797363,-0.181293219,0.125415161,0.941183686
15.438387,26.920768738,-1.786178589,-7.801391602,-0.174457282,0.126391724,0.948019624
15.439013,26.470634460,-1.885360718,-8.159973145,-0.158832282,0.132129028,0.955343843
15.439639,25.715324402,-1.702255249,-8.297302246,-0.140399665,0.139453247,0.960837007
15.440266,25.143119812,-1.511520386,-8.343078613,-0.129901618,0.144091919,0.961203218
15.440891,24.509880066,-1.686996460,-8.518554688,-0.123920165,0.148974732,0.965475678
15.441516,23.838493347,-1.313156128,-8.617736816,-0.132220954,0.144213989,0.968527436
15.442142,23.640129089,-1.481002808,-8.762695312,-0.132587165,0.144213989,0.966818452
15.442767,23.098442078,-1.435226440,-8.655883789,-0.136127204,0.133960083,0.970724702
15.456706,11.295768738,0.281387329,-11.288024902,-0.101093017,0.127734497,0.982809663
15.457454,10.731193542,0.571304321,-11.135437012,-0.107318603,0.121753052,0.983908296
15.458080,10.403129578,0.502639771,-11.097290039,-0.108173095,0.116626099,0.986593843
15.458706,9.861442566,0.662857056,-11.341430664,-0.111835204,0.111865357,0.989035249
15.459332,9.373161316,0.769668579,-11.356689453,-0.116473876,0.111499146,0.992087007
15.459958,9.289237976,0.990921021,-11.463500977,-0.118671142,0.116992310,0.989767671
15.460585,9.022209167,1.090103149,-11.776306152,-0.124652587,0.109301880,0.988546968
15.461211,8.442375183,1.097732544,-11.761047363,-0.124042235,0.107959107,0.986349702
15.461837,8.244010925,0.975662231,-11.791564941,-0.120624267,0.102588013,0.989523530
15.462463,7.839653015,1.067214966,-12.066223145,-0.120502196,0.106128052,0.991232514
15.463089,7.496330261,1.555496216,-12.005187988,-0.120135985,0.106616333,0.992697358
15.463714,7.183525085,1.067214966,-12.173034668,-0.118671142,0.108569458,0.986593843
15.464340,6.679985046,1.349502563,-12.089111328,-0.115253173,0.108203247,0.986960053
15.464965,6.130668640,1.479202271,-12.440063477,-0.114032470,0.109546021,0.985861421
15.465592,5.794975281,1.418167114,-12.287475586,-0.111224853,0.109790161,0.984762788
15.466218,5.329582214,1.471572876,-12.455322266,-0.113544188,0.100268677,0.988058686
15.466844,4.848930359,1.471572876,-12.501098633,-0.120746337,0.092212036,0.982443452
15.467470,4.620048523,1.555496216,-12.302734375,-0.125385016,0.074023560,0.983053803
15.468096,4.513237000,1.807266235,-12.119628906,-0.133319587,0.065112427,0.983786225
15.468721,4.467460632,2.142959595,-12.806274414,-0.141376227,0.058154419,0.982687593
15.469346,4.993888855,2.158218384,-12.737609863,-0.147235602,0.053393677,0.984762788
15.469971,5.138847351,2.142959595,-12.867309570,-0.147357672,0.049243286,0.987448335
15.470596,5.985710144,1.860671997,-12.836791992,-0.141864508,0.041430786,1.001852632
15.471222,6.237480164,2.005630493,-12.745239258,-0.130511969,0.030444458,1.007223725
15.471848,6.367179871,1.891189575,-12.600280762,-0.115863524,0.018847778,1.020407319
15.472473,6.466362000,2.043777466,-12.302734375,-0.103412353,0.025439575,1.024069428
15.473099,6.580802917,2.631240845,-12.325622559,-0.093524657,0.037158325,1.020773530
15.473724,6.458732605,2.745681763,-12.119628906,-0.087787353,0.053027466,1.013449311
15.474350,6.382438660,2.936416626,-12.058593750,-0.087177001,0.075244263,1.005148530
15.474976,5.680534363,3.302627563,-11.989929199,-0.091815673,0.089404419,0.991476655
15.476788,3.933403015,3.417068481,-12.028076172,-0.082904540,0.087817505,0.972189546
15.477413,3.315422058,3.546768188,-12.005187988,-0.084003173,0.094775513,0.967917085
15.478038,2.979728699,3.691726685,-12.066223145,-0.090350829,0.101245239,0.956808686
15.478665,2.178642273,3.920608521,-12.256958008,-0.093890868,0.107959107,0.953878999
15.479290,1.186820984,4.065567017,-12.256958008,-0.104633056,0.101733521,0.950583100
15.479915,0.309440613,4.180007935,-12.241699219,-0.105365478,0.086352661,0.947531343
15.480540,-0.323799133,4.141860962,-12.379028320,-0.109149657,0.063037232,0.955221772
15.481166,-0.422981262,3.897720337,-12.150146484,-0.113666259,0.046801880,0.952414155
15.481792,-0.773933411,3.882461548,-12.409545898,-0.121478759,0.033496216,0.954001069
15.482454,-0.590827942,3.302627563,-12.111999512,-0.132098883,0.033740357,0.951559663
15.483079,-0.705268860,3.142410278,-12.089111328,-0.143939704,0.041186646,0.941794038
15.483704,-0.918891907,2.738052368,-12.157775879,-0.157977790,0.050830200,0.938376069
15.484329,-1.101997375,2.219253540,-12.249328613,-0.163959235,0.049243286,0.935202241
15.484955,-0.781562805,1.845413208,-12.203552246,-0.161517829,0.043505982,0.931540132
15.485581,-0.712898254,1.006179810,-12.096740723,-0.160785407,0.032397583,0.930807710
15.486207,-0.522163391,0.487380981,-12.050964355,-0.155902594,0.024585083,0.926413178
15.486833,-0.499275208,0.113540649,-11.707641602,-0.154559821,0.025683716,0.928610444
15.487459,-0.613716125,-0.435775757,-11.783935547,-0.153827399,0.032519653,0.924704194
15.501416,7.610771179,-0.885910034,-11.577941895,-0.106586181,0.046313599,1.054342866
15.502223,7.610771179,-0.481552124,-11.448242188,-0.103168212,0.050830200,1.053976655
15.502895,7.603141785,-0.283187866,-11.356689453,-0.100482665,0.052539185,1.051901460
15.503520,7.603141785,0.304275513,-11.547424316,-0.094501220,0.056933716,1.052633882
15.504147,7.526847839,0.540786743,-11.417724609,-0.097308837,0.063525513,1.047262788
15.504772,7.313224792,1.196914673,-11.478759766,-0.095233642,0.067309693,1.040670991
15.505398,7.244560242,1.601272583,-11.303283691,-0.097064696,0.063037232,1.037130952
15.506023,7.137748718,2.188735962,-11.463500977,-0.097430907,0.061206177,1.037130952
15.506649,6.885978699,2.684646606,-11.547424316,-0.098407470,0.064013794,1.036032319
15.507276,7.107231140,3.005081177,-11.341430664,-0.099872313,0.064135864,1.034445405
15.507902,6.786796570,3.699356079,-11.288024902,-0.099017821,0.063647583,1.031271577
15.508529,6.390068054,3.806167603,-11.555053711,-0.096332274,0.066455200,1.028219819
15.509155,6.115409851,4.279190063,-11.211730957,-0.098407470,0.069995239,1.028830171
15.509781,5.749198914,5.141311646,-11.516906738,-0.098285399,0.068896607,1.028463960
15.510407,5.321952820,5.072647095,-11.410095215,-0.094257079,0.071215943,1.025045991
15.511032,5.039665222,5.530410767,-11.242248535,-0.101337157,0.070483521,1.024069428
15.511658,4.314872742,6.079727173,-11.112548828,-0.103412353,0.073779419,1.018942475
15.512283,3.872367859,6.285720825,-11.112548828,-0.104022704,0.073535278,1.019186616
15.512909,3.246757507,6.369644165,-11.165954590,-0.107318603,0.072924927,1.013571382
15.513534,2.689811707,6.743484497,-10.967590332,-0.109515868,0.075488403,1.010031343
15.514159,1.896354675,7.041030884,-11.089660645,-0.114886962,0.074023560,1.004416108
15.514785,1.202079773,7.025772095,-11.074401855,-0.115741454,0.074755982,1.002462983
15.515412,0.462028503,6.934219360,-10.807373047,-0.118304931,0.074267700,0.997458100
15.516037,-0.186470032,7.086807251,-10.746337891,-0.121844970,0.076220825,0.992453218
15.516662,-0.865486145,6.972366333,-10.738708496,-0.125751227,0.075732544,0.981344819
15.517288,-1.636054993,7.025772095,-10.494567871,-0.128070563,0.076342896,0.977194428
15.517914,-2.437141418,7.048660278,-10.547973633,-0.129413337,0.076709107,0.970724702
15.518539,-3.421333313,6.918960571,-10.349609375,-0.133197516,0.074023560,0.964865327
15.519165,-3.886726379,6.743484497,-10.418273926,-0.136493415,0.075000122,0.961691499
15.519791,-4.725959778,6.720596313,-10.403015137,-0.132098883,0.076587036,0.954123139
15.521590,-6.495979309,6.461196899,-10.334350586,-0.134418219,0.069506958,0.945456147
15.522215,-7.358100891,6.384902954,-10.059692383,-0.135150641,0.074389771,0.944235444
15.522842,-7.922676086,6.140762329,-10.135986328,-0.135760993,0.071215943,0.940451264
15.523469,-8.708503723,6.194168091,-9.952880859,-0.133929938,0.069018677,0.943014741
15.524096,-9.089973450,6.041580200,-10.135986328,-0.135150641,0.072924927,0.944723725
15.524723,-9.891059875,6.117874146,-9.807922363,-0.133929938,0.068652466,0.946676850
15.525350,-10.577705383,5.835586548,-10.006286621,-0.136493415,0.073046997,0.949606538
15.525977,-11.256721497,5.713516235,-9.678222656,-0.137103766,0.072924927,0.948752046
15.526602,-11.851814270,5.774551392,-9.510375977,-0.132343024,0.073046997,0.953146577
15.527227,-12.881782532,5.629592896,-9.716369629,-0.129169196,0.074633911,0.954611421
15.527852,-13.354804993,5.454116821,-9.426452637,-0.126117438,0.075244263,0.958029389
15.528479,-13.949897766,5.560928345,-9.403564453,-0.127582282,0.077319458,0.959616303
15.529106,-14.773872375,5.431228638,-9.403564453,-0.122455321,0.075976685,0.964621186
15.529732,-15.658882141,5.454116821,-9.296752930,-0.125018805,0.077441528,0.959250093
15.530359,-16.406562805,5.591445923,-9.067871094,-0.124042235,0.074878052,0.961569428
15.530986,-17.306831360,5.629592896,-9.182312012,-0.124652587,0.077685669,0.964254975
15.531613,-17.909553528,5.553298950,-9.106018066,-0.123065673,0.075610474,0.964254975
15.532240,-18.771675110,5.499893188,-9.159423828,-0.122943603,0.076464966,0.968161225
15.546183,-28.880622864,6.308609009,-8.312561035,-0.130145758,0.024463013,0.937521577
15.546943,-28.583076477,6.194168091,-8.304931641,-0.130634040,0.012622193,0.937765718
15.547570,-28.483894348,6.049209595,-8.251525879,-0.131122321,0.006274536,0.936545014
15.548196,-28.102424622,6.278091431,-8.236267090,-0.131488532,0.002124146,0.939718843
15.548822,-27.865913391,5.873733521,-8.312561035,-0.132587165,-0.003613159,0.935080171
15.549448,-27.629402161,5.873733521,-8.266784668,-0.131854743,-0.008740112,0.936545014
15.550073,-26.866462708,5.873733521,-7.931091309,-0.131732672,-0.015331909,0.933493257
15.550746,-26.111152649,5.843215942,-8.175231934,-0.132343024,-0.024609253,0.935202241
15.551372,-25.355842590,5.484634399,-8.076049805,-0.127948493,-0.027538940,0.934836030
15.551999,-24.737861633,5.415969849,-7.969238281,-0.129047126,-0.033886597,0.936545014
15.552626,-23.700263977,5.469375610,-7.839538574,-0.131976813,-0.044872925,0.938742280
15.553268,-22.563484192,5.385452271,-7.992126465,-0.132465094,-0.050732300,0.935080171
15.553893,-21.480110168,5.187088013,-7.953979492,-0.131854743,-0.054516479,0.937887788
15.554520,-20.289924622,5.446487427,-7.892944336,-0.132220954,-0.058178589,0.938376069
15.555146,-19.099739075,5.179458618,-7.763244629,-0.129413337,-0.065380737,0.943258882
15.555773,-17.703559875,4.904800415,-7.801391602,-0.132831305,-0.069531128,0.942892671
15.556399,-16.658332825,5.019241333,-7.603027344,-0.129779547,-0.073803589,0.947775483
15.557024,-14.911201477,5.232864380,-7.686950684,-0.130023688,-0.076855347,0.952047944
15.557650,-13.385322571,5.026870728,-7.648803711,-0.127826422,-0.080883667,0.953268647
15.558277,-11.706855774,4.828506470,-7.610656738,-0.126361579,-0.085278198,0.959005952
15.558902,-10.188606262,5.171829224,-7.725097656,-0.132098883,-0.087475464,0.962912202
15.559527,-8.655097961,5.141311646,-7.664062500,-0.130634040,-0.087963745,0.964743257
15.560154,-7.106330872,5.255752563,-7.435180664,-0.124042235,-0.093701050,0.970358491
15.560780,-5.572822571,5.339675903,-7.412292480,-0.125140876,-0.093090698,0.971457124
15.561405,-3.818061829,5.377822876,-7.221557617,-0.127094001,-0.095043823,0.972921968
15.562031,-2.421882629,5.568557739,-7.343627930,-0.127582282,-0.092846557,0.974508882
15.570532,14.591667175,8.765274048,-6.367065430,-0.132953376,-0.068310425,0.968039155
15.571158,15.331718445,8.971267700,-6.374694824,-0.130511969,-0.068798706,0.967306733
15.571784,16.354057312,9.261184692,-6.244995117,-0.125262946,-0.062084839,0.968283296
15.572411,16.849967957,9.512954712,-6.351806641,-0.132831305,-0.059033081,0.960104585
15.573036,17.528984070,9.802871704,-6.092407227,-0.131244391,-0.057324097,0.958151460
15.573662,18.223258972,9.718948364,-6.092407227,-0.132098883,-0.051830932,0.948507905
15.574289,18.711540222,10.260635376,-6.031372070,-0.133075446,-0.051098511,0.945334077
15.574915,19.146415710,10.352188110,-5.558349609,-0.137103766,-0.046826050,0.941671968
15.575540,19.619438171,10.268264771,-5.649902344,-0.135883063,-0.041821167,0.937155366
15.576166,19.779655457,10.497146606,-5.665161133,-0.138324469,-0.034496948,0.933249116
15.576792,19.985649109,10.504776001,-5.596496582,-0.139545172,-0.031811401,0.927511811
15.577418,19.985649109,10.611587524,-5.451538086,-0.144550055,-0.024731323,0.921286225
15.578044,20.237419128,10.489517212,-5.314208984,-0.146747321,-0.025097534,0.918112397
15.578671,20.321342468,10.581069946,-5.016662598,-0.147845954,-0.019848511,0.910666108
15.579296,20.092460632,10.436111450,-5.138732910,-0.149310797,-0.018505737,0.907492280
15.579922,19.955131531,10.298782349,-5.153991699,-0.151141852,-0.011059448,0.902975678
15.580549,19.810173035,10.504776001,-4.986145020,-0.153949469,-0.006542847,0.898214936
15.581176,19.657585144,10.214859009,-4.886962891,-0.156635016,-0.004955932,0.893210053
15.581801,19.085380554,10.214859009,-4.886962891,-0.156879157,0.001391724,0.889914155
15.582427,18.696281433,10.207229614,-4.696228027,-0.157489508,0.003833130,0.889547944
15.583053,18.230888367,9.841018677,-4.764892578,-0.158954352,0.010180786,0.885275483
15.597099,-4.863288879,7.094436646,-2.514221191,-0.157001227,0.030688599,0.895163178
15.597881,-6.099250793,6.903701782,-2.292968750,-0.160419196,0.028125122,0.896750093
15.598508,-7.228401184,7.094436646,-2.216674805,-0.163348883,0.023364380,0.901754975
15.599135,-8.319404602,7.025772095,-2.254821777,-0.165057868,0.017993286,0.905661225
15.599760,-9.379890442,7.224136353,-1.896240234,-0.173358649,0.010913208,0.903341889
15.600386,-10.570075989,7.582717896,-1.674987793,-0.181781501,-0.000195190,0.907248139
15.601011,-11.600044250,7.712417603,-1.598693848,-0.188739508,-0.015331909,0.912130952
15.601637,-12.492683411,7.651382446,-1.339294434,-0.192645758,-0.029003784,0.917502046
15.602262,-13.423469543,7.803970337,-1.194335938,-0.197406501,-0.042919800,0.921164155
15.602897,-14.270332336,8.070999146,-0.843383789,-0.201801032,-0.050366089,0.916769624
15.603523,-15.269783020,8.254104614,-0.355102539,-0.208026618,-0.056469604,0.921164155
15.604148,-16.208198547,8.345657349,0.056884766,-0.208881110,-0.061596557,0.919333100
15.604775,-16.833808899,8.635574341,0.224731445,-0.212421149,-0.069653198,0.914328218
15.605402,-17.879035950,8.818679810,0.697753906,-0.213885993,-0.080639526,0.912863374
15.606027,-18.756416321,8.925491333,1.041076660,-0.213519782,-0.094189331,0.912741303
15.606653,-19.458320618,9.093338013,1.674316406,-0.215106696,-0.099926636,0.908102632
15.607279,-20.183113098,9.444290161,2.116821289,-0.219379157,-0.112377807,0.899069428
15.607905,-20.923164368,9.406143188,2.376220703,-0.214740485,-0.122997925,0.901632905
15.608530,-21.670845032,9.680801392,2.872131348,-0.213519782,-0.130200073,0.899435639
15.609157,-22.388008118,9.871536255,3.657958984,-0.207660407,-0.139599487,0.892477632
15.609782,-23.135688782,10.138565063,4.024169922,-0.207416266,-0.144116089,0.890402436
15.610408,-23.875740051,10.077529907,4.542968750,-0.202167243,-0.150707886,0.883200288
15.611034,-24.516609192,10.115676880,5.221984863,-0.199969977,-0.159130737,0.881735444
15.611660,-25.416877747,10.275894165,6.091735840,-0.194720954,-0.170239136,0.878683686
15.612285,-26.134040833,10.283523560,6.724975586,-0.191547126,-0.178417847,0.871969819
15.612911,-26.958015442,10.428482056,7.335327148,-0.189105719,-0.187695190,0.866598725
15.613536,-27.644660950,10.108047485,8.220336914,-0.184711188,-0.192333862,0.863669038
15.614161,-28.239753723,9.902053833,8.899353027,-0.177142829,-0.199169800,0.858053803
15.614787,-29.048469543,9.779983521,9.456298828,-0.171893805,-0.202709839,0.853415132
15.615413,-29.750373840,9.375625610,10.623596191,-0.160419196,-0.205639526,0.849630952
15.617195,-31.550910950,7.834487915,13.194702148,-0.128925055,-0.219433472,0.842672944
15.617820,-32.031562805,7.597976685,13.866088867,-0.118793212,-0.227612182,0.836569428
15.618446,-32.702949524,7.330947876,14.903686523,-0.113422118,-0.233715698,0.835592866
15.619071,-32.985237122,6.789260864,15.735290527,-0.108295165,-0.241406128,0.837301850
15.619697,-33.244636536,6.354385376,16.734741211,-0.101459228,-0.249706909,0.836569428
15.620322,-33.336189270,5.682998657,17.703674316,-0.098895751,-0.254345596,0.843527436
15.620949,-33.359077454,5.278640747,18.573425293,-0.098895751,-0.266186416,0.847311616
15.621575,-33.259895325,4.820877075,19.519470215,-0.093158446,-0.269726455,0.859152436
15.622201,-33.053901672,4.408889771,20.496032715,-0.094989501,-0.275585830,0.870871186
15.622827,-32.840278625,4.004531860,21.304748535,-0.096210204,-0.284985244,0.883688569
15.623454,-31.947639465,3.745132446,22.380493164,-0.094867431,-0.295117080,0.898214936
15.624079,-31.177070618,3.645950317,23.227355957,-0.095721923,-0.304272354,0.915304780
15.624706,-30.208137512,3.607803345,24.097106934,-0.095233642,-0.317700088,0.941427827
15.625331,-28.689888000,3.676467896,24.959228516,-0.090961181,-0.326733291,0.972433686
15.625957,-26.706245422,4.279190063,25.951049805,-0.065936767,-0.349804580,1.007834077
15.626583,-23.662117004,5.568557739,26.317260742,-0.050555907,-0.381420791,1.049215913
15.627210,-20.320442200,6.781631470,27.171752930,-0.048724853,-0.400463760,1.098044038
15.641188,106.213066101,70.365005493,42.354248047,0.028179443,-0.329785049,1.313131928
15.641941,110.226127625,73.676162720,42.842529297,0.030987060,-0.300732315,1.274313569
15.642568,114.284965515,76.682144165,43.162963867,0.022930419,-0.277172744,1.231711030
15.643195,118.351432800,79.375320435,43.559692383,0.006695068,-0.251904190,1.194357514
15.643821,122.204277039,80.870681763,43.933532715,-0.014667237,-0.221996948,1.148337007
15.644447,125.767204285,82.144790649,44.459960938,-0.033710204,-0.180126831,1.106588960
15.645088,128.414611816,83.266311646,44.673583984,-0.050067626,-0.141674682,1.062887788
15.645713,130.886535645,83.853775024,44.780395508,-0.054584228,-0.102123901,1.026266694
15.646338,132.336120605,84.288650513,45.161865234,-0.050311767,-0.065502807,0.984396577
15.646963,133.442382812,84.822708130,45.344970703,-0.044086181,-0.036450073,0.936667085
15.647589,134.228210449,85.089736938,45.680664062,-0.045184813,-0.002270386,0.889303803
15.648220,134.335021973,85.326248169,45.985839844,-0.061420165,0.035449341,0.840353608
15.648846,134.647827148,85.257583618,46.130798340,-0.069476806,0.075244263,0.792257905
15.649472,134.006958008,85.150772095,46.268127441,-0.082050048,0.115527466,0.750265718
15.650099,133.106689453,84.761672974,46.405456543,-0.089618407,0.158374146,0.710592866
15.650725,131.466369629,84.387832642,46.596191406,-0.094257079,0.190722778,0.679464936
15.651350,129.734497070,84.036880493,46.443603516,-0.103412353,0.221484497,0.650290132
15.651975,127.697441101,83.327346802,46.641967773,-0.102679931,0.243090943,0.626242280
15.652601,125.614616394,82.800918579,46.535156250,-0.113666259,0.262011826,0.599386811
15.653232,123.508903503,82.144790649,46.428344727,-0.126849860,0.292163193,0.583151460
15.653858,120.754692078,81.259780884,46.390197754,-0.150897712,0.327075303,0.564596772
15.654484,117.001029968,79.649978638,46.313903809,-0.169574469,0.359790146,0.547262788
15.655109,112.858268738,77.918106079,46.558044434,-0.184467047,0.384326279,0.531515718
15.655735,108.662101746,76.468521118,46.222351074,-0.198871344,0.415454209,0.513449311
15.656362,104.275199890,75.110488892,46.016357422,-0.204486579,0.440112412,0.497091889
15.656987,100.216362000,73.020034790,45.634887695,-0.212054938,0.466357529,0.484152436
15.657612,95.867607117,70.929580688,45.566223145,-0.210468024,0.486254990,0.459250093
15.658238,91.465446472,69.335037231,45.406005859,-0.211078376,0.502978623,0.439108491
15.658864,86.636039734,67.656570435,45.146606445,-0.215839118,0.517749131,0.421164155
15.659489,81.615898132,65.901809692,44.788024902,-0.219379157,0.528613389,0.407736421
15.661266,66.868278503,61.347061157,43.658874512,-0.243915290,0.555468857,0.381735444
15.661893,62.061759949,59.546524048,43.292663574,-0.249774665,0.559985459,0.378683686
15.662520,57.285758972,57.791763306,43.040893555,-0.256976813,0.566699326,0.378439546
15.663145,52.105400085,55.678421021,42.384765625,-0.257343024,0.576464951,0.384420991
15.663770,47.375175476,54.137283325,42.018554688,-0.260760993,0.586840928,0.385763764
15.664396,42.721244812,52.298599243,41.293762207,-0.259540290,0.586596787,0.386129975
15.665022,37.502738953,50.589614868,40.980957031,-0.252704352,0.587939560,0.392599702
15.665648,32.932731628,48.781448364,40.546081543,-0.254657477,0.586718857,0.396872163
15.666274,27.973625183,47.377639771,40.240905762,-0.258075446,0.584765732,0.399923921
15.666900,23.235771179,45.622879028,39.714477539,-0.264056891,0.579882920,0.404562593
15.667526,18.894645691,44.165664673,39.203308105,-0.263812751,0.575732529,0.407003999
15.668152,14.294120789,42.395645142,38.821838379,-0.262347907,0.568652451,0.410055757
15.668777,10.189506531,40.793472290,38.142822266,-0.261615485,0.561694443,0.414572358
15.669403,6.321403503,39.320999146,37.730834961,-0.256488532,0.555835068,0.419455171
15.670029,2.567741394,37.695938110,37.135742188,-0.254291266,0.551318467,0.423727632
15.670655,-1.079109192,36.177688599,36.632202148,-0.252704352,0.540087998,0.430685639
15.671281,-4.649665833,34.911209106,36.227844238,-0.250629157,0.532397568,0.433249116
15.671907,-7.846382141,33.316665649,35.602233887,-0.247699469,0.522876084,0.435324311
15.708875,39.127799988,-41.520065308,0.865600586,-0.245990485,0.424121201,0.525412202
15.710904,37.052604675,-45.594161987,-0.789978027,-0.243915290,0.426074326,0.534079194
15.711530,36.152336121,-46.883529663,-1.591064453,-0.241718024,0.424121201,0.536398530
15.712156,35.160514832,-48.134750366,-2.033569336,-0.239886969,0.423266709,0.541647553
15.712783,34.298393250,-49.630111694,-2.445556641,-0.239398688,0.417529404,0.546896577
15.713410,33.375236511,-50.782150269,-2.941467285,-0.236469001,0.420581162,0.553488374
15.714037,32.391044617,-52.445358276,-3.597595215,-0.235492438,0.414477646,0.559469819
15.714664,31.307670593,-53.444808960,-3.872253418,-0.234760016,0.410815537,0.565817475
15.715291,30.163261414,-54.703659058,-4.764892578,-0.235370368,0.408496201,0.571188569
15.715916,29.369804382,-55.825180054,-5.153991699,-0.232196540,0.402880967,0.582052827
15.716542,28.446647644,-57.167953491,-5.436279297,-0.227802008,0.399462998,0.590841889
15.717169,27.218315125,-58.442062378,-6.016113281,-0.225970954,0.396899521,0.600729585
15.717795,26.340934753,-59.410995483,-6.634094238,-0.224384040,0.391772568,0.608908296
15.718420,25.082084656,-60.608810425,-7.000305176,-0.220111579,0.389697373,0.615378022
15.719045,23.960563660,-61.921066284,-7.381774902,-0.221210212,0.385791123,0.626486421
15.719671,22.800895691,-62.775558472,-8.053161621,-0.218158454,0.382373154,0.640768647
15.720298,21.534416199,-63.622421265,-8.388854980,-0.216205329,0.376635849,0.652853608
15.720923,20.512077332,-64.606613159,-8.854248047,-0.213397712,0.373584092,0.664816499
15.721549,19.497367859,-65.300888062,-9.128906250,-0.213275641,0.368335068,0.678488374
15.722174,18.200370789,-66.285079956,-9.746887207,-0.210468024,0.363330185,0.688009858
15.722799,16.994926453,-67.116683960,-9.937622070,-0.209247321,0.358691514,0.702536225
15.723425,15.781852722,-67.666000366,-10.586120605,-0.208881110,0.355395615,0.715597749
15.724050,14.538261414,-68.360275269,-10.685302734,-0.206927985,0.349536240,0.724630952
15.724677,13.477775574,-69.031661987,-11.371948242,-0.203510016,0.344409287,0.740744233
15.725302,12.165519714,-69.596237183,-11.638977051,-0.202777594,0.338061631,0.750387788
15.725929,10.929557800,-70.046371460,-11.783935547,-0.201068610,0.333789170,0.766256928
15.726556,8.907768250,-70.595687866,-12.554504395,-0.193500251,0.316943467,0.799460053
15.727181,7.847282410,-70.946640015,-12.989379883,-0.190204352,0.308642685,0.813498139
15.727806,7.008049011,-71.099227905,-13.340332031,-0.192035407,0.305224717,0.830343843
15.728433,5.726310730,-71.442550659,-13.408996582,-0.189960212,0.299121201,0.843893647
15.729059,4.940483093,-71.335739136,-13.637878418,-0.187885016,0.286425889,0.858420014
15.730845,3.139945984,-71.404403687,-14.400817871,-0.188129157,0.276904404,0.889914155
15.731472,2.499076843,-71.251815796,-14.583923340,-0.185077399,0.271899521,0.900412202
15.732098,1.331779480,-71.381515503,-14.698364258,-0.183368415,0.266528428,0.912985444
15.732724,0.637504578,-71.091598511,-14.911987305,-0.184955329,0.265185654,0.920431733
15.733349,-0.247505188,-70.954269409,-15.278198242,-0.185565680,0.255664170,0.934958100
15.733975,-1.040962219,-70.740646362,-15.644409180,-0.186786383,0.249438599,0.943869233
15.734602,-1.750495911,-70.359176636,-15.659667969,-0.184833258,0.242358521,0.953512788
15.735227,-2.170112610,-70.206588745,-16.002990723,-0.186420172,0.236499146,0.960714936
15.735852,-3.055122375,-69.512313843,-16.102172852,-0.186298102,0.229907349,0.969137788
15.736477,-3.642585754,-69.146102905,-16.392089844,-0.187396735,0.226367310,0.975973725
15.737102,-4.359748840,-69.001144409,-16.613342285,-0.190814704,0.220874146,0.982931733
15.737728,-4.832771301,-68.627304077,-16.628601074,-0.190570563,0.219653443,0.992087007
15.738354,-5.473640442,-68.139022827,-16.987182617,-0.196552008,0.215503052,0.994650483
15.738979,-5.862739563,-67.772811890,-17.208435059,-0.195209235,0.208545044,1.004294038
15.739604,-6.679084778,-67.444747925,-17.254211426,-0.192401618,0.206347778,1.011007905
15.740230,-7.007148743,-66.750473022,-17.315246582,-0.194843024,0.203540161,1.016989350
15.754143,-22.853401184,-58.770126343,-19.329406738,-0.218036383,0.115771607,1.045187593
15.754873,-23.417976379,-58.663314819,-19.550659180,-0.215839118,0.109546021,1.045431733
15.755573,-24.005439758,-58.312362671,-19.375183105,-0.214252204,0.103320435,1.045309663
15.756198,-24.432685852,-58.419174194,-19.291259766,-0.217548102,0.098437622,1.049948335
15.756824,-24.737861633,-58.213180542,-19.100524902,-0.218036383,0.094531372,1.051169038
15.757454,-25.126960754,-58.274215698,-19.344665527,-0.217059821,0.088671997,1.053976655
15.758079,-25.569465637,-58.152145386,-19.253112793,-0.218280524,0.084643677,1.052878022
15.758704,-25.882270813,-58.243698120,-19.138671875,-0.215350837,0.080127075,1.056540132
15.759331,-25.920417786,-58.014816284,-19.192077637,-0.209857672,0.077197388,1.060690522
15.759958,-26.416328430,-57.976669312,-19.420959473,-0.208881110,0.070727661,1.061056733
15.760585,-26.599433899,-57.869857788,-18.711425781,-0.210590094,0.066821411,1.062277436
15.761211,-26.874092102,-57.961410522,-18.993713379,-0.206317633,0.062793091,1.067770600
15.761837,-27.171638489,-57.778305054,-18.917419434,-0.206439704,0.060962036,1.072165132
15.762463,-27.240303040,-57.953781128,-18.741943359,-0.204852790,0.054248169,1.077414155
15.763090,-27.225044250,-57.785934448,-18.886901855,-0.200702399,0.050097778,1.078878999
15.763715,-27.331855774,-57.633346558,-18.619873047,-0.200946540,0.045459107,1.079611421
15.764340,-27.629402161,-57.496017456,-18.299438477,-0.197650641,0.039965943,1.086935639
15.764965,-27.598884583,-57.427352905,-18.429138184,-0.192889899,0.037524536,1.092428803
15.765592,-27.675178528,-57.305282593,-18.390991211,-0.191058844,0.038012818,1.096335053
15.766219,-27.568367004,-57.053512573,-18.047668457,-0.187030524,0.032641724,1.102316499
15.766851,-27.583625793,-56.939071655,-18.116333008,-0.181293219,0.031543091,1.107931733
15.767718,-27.530220032,-56.557601929,-17.757751465,-0.172626227,0.022265747,1.114279389
15.768530,-27.194526672,-56.343978882,-17.811157227,-0.170551032,0.019580200,1.124167085
15.769157,-27.049568176,-55.947250366,-17.650939941,-0.165302008,0.012988403,1.128927827
15.769783,-26.782539368,-56.008285522,-17.429687500,-0.161884040,0.007983521,1.134298921
15.770409,-26.401069641,-55.481857300,-17.437316895,-0.160541266,-0.000195190,1.140890718
15.771083,-25.943305969,-55.314010620,-17.208435059,-0.158954352,-0.004223511,1.146994233
15.771708,-25.561836243,-55.077499390,-17.193176270,-0.153094977,-0.009228393,1.151877046
15.772333,-24.890449524,-54.924911499,-17.101623535,-0.152972907,-0.014599487,1.152853608
15.774179,-22.899177551,-54.123825073,-16.529418945,-0.142352790,-0.033398315,1.162619233
15.774805,-21.945503235,-53.902572632,-16.361572266,-0.141498297,-0.036694214,1.169577241
15.775431,-21.022346497,-53.734725952,-16.346313477,-0.141376227,-0.042309448,1.174093843
15.776058,-20.251777649,-53.505844116,-16.262390137,-0.133197516,-0.046093628,1.176657319
15.776685,-19.168403625,-53.292221069,-16.170837402,-0.130023688,-0.050610229,1.182150483
15.777311,-17.993476868,-52.910751343,-15.858032227,-0.126117438,-0.054150268,1.188131928
15.777938,-16.719367981,-52.781051636,-15.735961914,-0.126971930,-0.055737182,1.193014741
15.778564,-15.559700012,-52.407211304,-15.514709473,-0.122211181,-0.061352417,1.196432710
15.779191,-14.346626282,-52.140182495,-15.568115234,-0.120502196,-0.063915893,1.199972749
15.779817,-13.034370422,-51.819747925,-15.247680664,-0.114032470,-0.065014526,1.204977632
15.780444,-11.867073059,-51.537460327,-15.201904297,-0.115253173,-0.067333862,1.209494233
15.781069,-10.478523254,-51.354354858,-15.041687012,-0.112201415,-0.070751831,1.217795014
15.781695,-8.983161926,-50.751632690,-14.789916992,-0.109637938,-0.071972534,1.221701264
15.782321,-7.663276672,-50.476974487,-14.606811523,-0.111346923,-0.073193237,1.227194428
15.782948,-6.274726868,-49.988693237,-14.484741211,-0.110736571,-0.079418823,1.233664155
15.783573,-5.054023743,-49.752182007,-14.522888184,-0.106830321,-0.079540893,1.237936616
15.803138,25.059196472,-27.642196655,-7.175781250,-0.072894774,-0.067333862,1.406149507
15.803908,25.333854675,-25.643295288,-6.588317871,-0.074359618,-0.062451050,1.406271577
15.804535,25.272819519,-24.620956421,-6.290771484,-0.076923095,-0.057690307,1.408835053
15.805160,25.356742859,-23.552841187,-5.970336914,-0.071063720,-0.055859253,1.409567475
15.805787,25.135490417,-22.538131714,-5.604125977,-0.073138915,-0.052807495,1.412741303
15.806412,25.013420105,-21.447128296,-5.245544434,-0.074359618,-0.054028198,1.411276460
15.807037,24.700614929,-20.409530640,-4.894592285,-0.075580321,-0.046093628,1.410299897
15.807662,24.418327332,-19.524520874,-4.764892578,-0.074725829,-0.045483276,1.411154389
15.808288,24.113151550,-18.540328979,-4.116394043,-0.075336181,-0.042431518,1.409811616
15.808914,23.594352722,-17.266220093,-4.124023438,-0.074481688,-0.040356323,1.407003999
15.809561,22.991630554,-16.411727905,-3.734924316,-0.076556884,-0.041943237,1.407492280
15.810186,22.724601746,-15.343612671,-3.055908203,-0.079242431,-0.032177612,1.408346772
15.810812,21.801445007,-14.359420776,-2.903320312,-0.077777587,-0.028149292,1.407858491
15.811439,21.076652527,-13.215011597,-2.468444824,-0.077289306,-0.025952026,1.407370210
15.812064,20.397636414,-12.307113647,-2.071716309,-0.079120360,-0.023876831,1.406271577
15.819314,9.579154968,-1.557296753,1.765869141,-0.070331298,0.015063599,1.395773530
15.819939,8.587333679,-0.626510620,2.116821289,-0.071674071,0.015429810,1.395529389
15.820564,7.153007507,0.418716431,2.170227051,-0.066058837,0.021533325,1.395651460
15.821190,6.084892273,1.288467407,2.734802246,-0.066791259,0.020068482,1.393087983
15.823102,2.499076843,4.324966431,3.467224121,-0.063251220,0.030322388,1.390280366
15.823727,1.240226746,5.095535278,3.810546875,-0.062518798,0.028125122,1.389670014
15.824353,0.118705750,6.262832642,4.054687500,-0.063129149,0.032885864,1.386984468
15.824978,-1.109626770,7.170730591,4.588745117,-0.059955321,0.034961060,1.385885835
15.825605,-2.353218079,8.078628540,4.687927246,-0.060687743,0.039233521,1.385275483
15.826231,-3.314521790,9.024673462,4.710815430,-0.062030517,0.038256958,1.379660249
15.826856,-4.420783997,9.772354126,5.382202148,-0.056903563,0.037646607,1.375631928
15.827482,-5.359199524,11.206680298,5.420349121,-0.056049071,0.038623169,1.371481538
15.828108,-6.419685364,11.908584595,5.710266113,-0.056659423,0.041919068,1.367575288
15.828735,-7.472541809,13.014846802,5.832336426,-0.054218017,0.041186646,1.367453218
15.829361,-8.441474915,13.793045044,6.175659180,-0.057635985,0.043261841,1.366842866
15.829988,-9.547737122,14.815383911,6.229064941,-0.053729735,0.044360474,1.361349702
15.830613,-10.226753235,15.547805786,6.663940430,-0.051776610,0.047412232,1.357687593
15.831239,-11.172798157,16.249710083,6.740234375,-0.051288329,0.048510864,1.350851655
15.831865,-12.027290344,17.394119263,6.732604980,-0.053241454,0.046557739,1.346212983
15.832490,-12.767341614,18.225723267,7.167480469,-0.052142821,0.050097778,1.340475678
15.833115,-13.354804993,18.813186646,7.243774414,-0.053241454,0.050952271,1.338888764
15.833740,-14.064338684,19.629531860,7.495544434,-0.051898681,0.049487427,1.331442475
15.834366,-14.743354797,20.476394653,7.709167480,-0.050677978,0.051928833,1.325338960
15.834999,-15.475776672,21.246963501,7.747314453,-0.052997313,0.049975708,1.319845796
15.835625,-15.834358215,21.941238403,7.907531738,-0.049579345,0.050463989,1.315939546
15.836252,-16.261604309,22.887283325,7.838867188,-0.052142821,0.048632935,1.309958100
15.836879,-16.749885559,23.375564575,7.960937500,-0.049213134,0.047168091,1.303488374
15.837506,-16.940620422,23.932510376,8.296630859,-0.049945556,0.048144653,1.300436616
15.838131,-17.261054993,24.649673462,8.350036621,-0.045551024,0.046801880,1.294577241
15.838758,-17.505195618,25.275283813,8.365295410,-0.046893798,0.045459107,1.287008882
15.839384,-17.619636536,25.900894165,8.563659668,-0.044330321,0.044970825,1.278219819
15.840009,-17.505195618,26.305252075,8.700988770,-0.045551024,0.045459107,1.271994233
15.840634,-17.589118958,26.816421509,8.517883301,-0.048114501,0.042773560,1.265890718
15.855029,4.162284851,30.592971802,8.754394531,-0.042133056,-0.000317261,1.112692475
15.855815,5.810234070,30.463272095,8.540771484,-0.039325438,0.002368286,1.108664155
15.856440,7.114860535,30.165725708,8.815429688,-0.038959228,0.003344849,1.104879975
15.857079,9.022209167,29.830032349,8.365295410,-0.043842040,-0.000439331,1.100241303
15.857829,10.624382019,29.517227173,8.426330566,-0.043109618,0.001757935,1.094870210
15.858455,12.188407898,29.463821411,8.456848145,-0.045917235,0.000293091,1.091818452
15.859082,13.859245300,29.173904419,8.479736328,-0.045062743,0.003711060,1.088400483
15.859709,15.682670593,28.800064087,8.319519043,-0.046893798,0.003833130,1.080710053
15.860334,17.261955261,28.555923462,8.212707520,-0.043353759,0.007373169,1.077047944
15.860960,19.031974792,28.166824341,8.151672363,-0.052386962,0.006640747,1.074972749
15.861586,20.695182800,27.602249146,7.892272949,-0.050800048,0.007739380,1.070578218
15.862213,22.198173523,27.388626099,8.006713867,-0.050067626,0.008593872,1.067038178
15.862839,23.830863953,27.129226685,8.060119629,-0.057513915,0.010546997,1.063742280
15.863465,25.585624695,26.618057251,7.754943848,-0.052509032,0.012378052,1.061545014
15.864091,26.813957214,26.289993286,7.602355957,-0.058124267,0.013842896,1.058859468
15.864718,28.339836121,25.923782349,7.686279297,-0.060809813,0.016528443,1.057028413
15.865343,29.980155945,25.595718384,7.602355957,-0.059955321,0.019091919,1.055807710
15.865969,31.361076355,25.130325317,7.396362305,-0.056171142,0.018969849,1.055807710
15.866596,32.978507996,24.474197388,7.465026855,-0.060687743,0.024096802,1.054098725
15.867221,34.168693542,24.184280396,7.297180176,-0.058978759,0.025439575,1.053366303
15.867847,35.625907898,23.795181274,7.449768066,-0.056781493,0.027270630,1.053122163
15.868472,36.983940125,23.482376099,7.236145020,-0.056293212,0.033130005,1.056051850
15.869098,38.204643250,23.238235474,6.946228027,-0.058978759,0.035937622,1.053732514
15.869725,39.341423035,22.643142700,7.030151367,-0.059833251,0.039111450,1.055441499
15.870351,40.646049500,22.414260864,6.793640137,-0.058246337,0.042529419,1.055563569
15.870977,41.714164734,22.131973267,6.816528320,-0.059833251,0.041674927,1.060324311
15.871604,42.721244812,21.903091431,6.930969238,-0.059833251,0.048022583,1.056173921
15.872230,43.980094910,21.895462036,6.671569824,-0.060077392,0.048266724,1.060812593
15.872856,44.788810730,21.170669556,6.419799805,-0.059955321,0.051074341,1.063376069
15.873482,45.834037781,21.018081665,6.305358887,-0.061420165,0.051318482,1.063131928
15.875307,48.237297058,20.575576782,6.091735840,-0.060199462,0.063159302,1.068136811
15.875934,48.984977722,20.308547974,6.106994629,-0.063129149,0.061816528,1.071066499
15.876559,49.717399597,20.117813110,6.084106445,-0.062152587,0.064990357,1.074484468
15.877184,50.289604187,19.881301880,5.794189453,-0.058612548,0.066699341,1.072287202
15.877809,50.983879089,19.934707642,5.794189453,-0.063129149,0.069873169,1.071920991
15.878436,51.594230652,19.705825806,5.595825195,-0.065204345,0.071582153,1.076803803
15.879061,51.975700378,19.522720337,5.527160645,-0.060565673,0.071826294,1.078024507
15.879686,52.525016785,19.423538208,5.656860352,-0.065936767,0.073901489,1.078634858
15.880312,52.952262878,19.507461548,5.588195801,-0.063739501,0.072802857,1.077536225
15.880938,53.211662292,19.354873657,5.298278809,-0.066913329,0.074267700,1.077292085
15.881564,53.326103210,19.232803345,5.397460938,-0.072650634,0.077075318,1.084128022
15.882190,53.722831726,19.454055786,5.267761230,-0.074603759,0.077685669,1.083029389
15.882815,54.020378113,19.202285767,5.206726074,-0.078876220,0.075854614,1.084616303
15.883442,54.218742371,19.400650024,5.229614258,-0.082294188,0.080615357,1.084250093
15.884068,53.982231140,19.026809692,5.061767578,-0.086322509,0.077563599,1.084372163
15.884695,54.111930847,19.194656372,4.863403320,-0.092548095,0.081713989,1.085348725
15.885321,54.325553894,19.095474243,4.863403320,-0.096454345,0.085009888,1.087545991
15.885948,54.020378113,19.331985474,4.985473633,-0.104877196,0.084521607,1.089377046
15.900004,34.176322937,22.345596313,5.855224609,-0.165546149,0.108935669,1.093161225
15.900791,32.612297058,22.826248169,5.687377930,-0.165424079,0.112231568,1.091086030
15.901417,31.155082703,22.864395142,6.015441895,-0.166766852,0.111743286,1.090841889
15.902042,29.499504089,23.222976685,6.137512207,-0.169696540,0.111132935,1.088766694
15.902668,27.744743347,23.520523071,6.190917969,-0.169574469,0.114306763,1.089010835
15.903295,26.195976257,23.764663696,6.206176758,-0.172260016,0.110766724,1.084616303
15.903920,24.303886414,24.031692505,6.358764648,-0.175555915,0.114672974,1.085348725
15.904547,22.762748718,24.291091919,6.435058594,-0.178607672,0.113818482,1.084250093
15.905172,21.091911316,24.375015259,6.641052246,-0.177020758,0.111132935,1.083883882
15.905799,19.237968445,24.725967407,6.892822266,-0.178119391,0.108203247,1.079611421
15.906425,17.666313171,24.970108032,6.953857422,-0.180927008,0.104419068,1.077658296
15.907051,15.995475769,25.099807739,7.281921387,-0.181415290,0.107348755,1.074728608
15.907678,14.141532898,25.710159302,7.281921387,-0.182025641,0.107104614,1.073996186
15.908305,12.691947937,25.649124146,7.426879883,-0.183856696,0.102710083,1.073141694
15.908931,10.723564148,25.908523560,7.579467773,-0.185687751,0.102954224,1.069479585
15.909558,9.159538269,26.206069946,7.602355957,-0.184955329,0.104296997,1.068380952
15.910184,7.542106628,26.480728149,7.747314453,-0.187762946,0.099292114,1.066305757
15.910810,6.000968933,26.640945435,8.136413574,-0.190082282,0.096850708,1.059225678
15.911436,4.406425476,26.679092407,8.235595703,-0.192523688,0.095385864,1.061422944
15.912062,2.949211121,27.068191528,8.166931152,-0.194232672,0.092456177,1.059836030
15.912689,1.224967957,27.182632446,8.449218750,-0.194720954,0.089892700,1.056173921
15.913314,-0.339057922,27.472549438,8.586547852,-0.198627204,0.090625122,1.056295991
15.913940,-1.643684387,27.411514282,8.739135742,-0.200092047,0.088061646,1.049704194
15.914565,-2.910163879,27.762466431,8.784912109,-0.198260993,0.083300903,1.048361421
15.915191,-4.352119446,27.800613403,9.067199707,-0.202289313,0.082080200,1.046774507
15.915817,-5.656745911,27.762466431,9.212158203,-0.201190680,0.077197388,1.043722749
15.916444,-6.824043274,28.044754028,9.372375488,-0.202899665,0.077319458,1.041769624
15.917069,-8.143928528,28.342300415,9.364746094,-0.204364508,0.071826294,1.032980561
15.917694,-9.189155579,28.235488892,9.700439453,-0.206439704,0.072680786,1.033957124
15.918320,-10.158088684,28.235488892,9.738586426,-0.204608649,0.071582153,1.030295014
15.920151,-13.270881653,28.571182251,10.135314941,-0.210101813,0.060107544,1.018210053
15.920778,-14.178779602,28.723770142,10.303161621,-0.209125251,0.056201294,1.016501069
15.921404,-15.048530579,28.632217407,10.532043457,-0.208148688,0.057299927,1.015036225
15.922030,-15.674140930,28.655105591,10.600708008,-0.209979743,0.054858521,1.012350678
15.922657,-16.292121887,28.548294067,10.821960449,-0.211932868,0.052905396,1.011740327
15.923282,-17.016914368,28.662734985,10.829589844,-0.210223883,0.048755005,1.008932710
15.923908,-17.467048645,28.693252563,10.867736816,-0.209491462,0.046557739,1.002340913
15.924533,-18.245246887,28.601699829,11.104248047,-0.212299079,0.045947388,0.999411225
15.925159,-18.565681458,28.693252563,11.211059570,-0.211932868,0.042041138,0.997946382
15.925784,-19.191291809,28.548294067,11.409423828,-0.205951422,0.043017700,0.993673921
15.926409,-19.382026672,28.349929810,11.638305664,-0.207050055,0.038867310,0.989889741
15.927036,-19.755867004,28.304153442,11.424682617,-0.206927985,0.038501099,0.985251069
15.927661,-20.175483704,28.487258911,11.798522949,-0.206561774,0.041064575,0.983908296
15.928286,-20.366218567,28.319412231,11.905334473,-0.203998297,0.036914185,0.976950288
15.928911,-20.564582825,28.151565552,11.951110840,-0.206561774,0.038989380,0.974142671
15.929537,-20.717170715,28.067642212,12.111328125,-0.205096930,0.032885864,0.969626069
15.930164,-20.694282532,28.006607056,12.302062988,-0.203143805,0.032397583,0.969870210
15.930790,-20.762947083,27.541213989,12.050292969,-0.203387946,0.030810669,0.962668061
15.944709,-10.730293274,20.651870728,13.629577637,-0.188739508,0.017016724,0.896139741
15.945457,-10.058906555,19.927078247,13.721130371,-0.189838141,0.017016724,0.893698335
15.946082,-9.212043762,19.736343384,13.805053711,-0.187885016,0.020800903,0.890890718
15.946707,-8.426216125,19.148880005,13.721130371,-0.186053962,0.019336060,0.891012788
15.947332,-7.670906067,18.607192993,13.789794922,-0.183368415,0.019580200,0.890768647
15.947958,-5.946662903,17.737442017,14.110229492,-0.184467047,0.024218872,0.885763764
15.948583,-5.160835266,17.111831665,13.911865234,-0.182635993,0.024463013,0.888205171
15.949209,-4.573371887,16.585403442,14.102600098,-0.185565680,0.027392700,0.885031343
15.949835,-3.848579407,16.043716431,13.942382812,-0.183246344,0.025805786,0.884176850
15.950474,-3.024604797,15.494400024,14.163635254,-0.180438727,0.033496216,0.887594819
15.951099,-2.429512024,14.845901489,14.140747070,-0.181903571,0.033007935,0.882223725
15.951726,-1.925971985,14.678054810,14.026306152,-0.181537360,0.033984497,0.880758882
15.952532,-1.376655579,14.029556274,14.323852539,-0.181903571,0.039355591,0.883322358
15.953199,-0.499275208,13.564163208,14.094970703,-0.182269782,0.042529419,0.886496186
15.953824,-0.094917297,13.228469849,14.094970703,-0.186176032,0.040698364,0.886129975
15.954450,0.416252136,12.587600708,14.316223145,-0.187152594,0.045459107,0.885031343
15.955076,0.637504578,12.045913696,14.064453125,-0.189838141,0.048022583,0.886007905
15.955702,1.179191589,11.565261841,14.209411621,-0.189349860,0.046679810,0.890280366
15.956328,1.392814636,11.344009399,14.133117676,-0.187152594,0.049365357,0.890890718
15.956954,1.713249207,10.657363892,14.186523438,-0.190936774,0.052295044,0.892843843
15.957580,2.155754089,10.466629028,14.194152832,-0.189349860,0.052050903,0.892599702
15.958205,2.514335632,10.161453247,14.262817383,-0.193622321,0.056201294,0.895163178
15.958831,2.705070496,9.657913208,14.278076172,-0.192767829,0.059985474,0.902243257
15.959456,2.857658386,9.390884399,14.369628906,-0.193256110,0.060229614,0.901144624
15.960082,3.231498718,9.146743774,14.194152832,-0.195819587,0.063647583,0.901144624
15.960708,2.964469910,8.818679810,14.316223145,-0.193134040,0.064624146,0.905661225
15.961518,3.010246277,8.360916138,14.262817383,-0.194598883,0.063281372,0.909079194
15.962143,3.132316589,8.116775513,14.217041016,-0.197162360,0.064990357,0.908835053
15.962768,3.216239929,7.865005493,14.400146484,-0.195575446,0.066088989,0.911520600
15.963395,3.094169617,7.735305786,14.331481934,-0.196185797,0.069262818,0.915304780
15.965294,2.857658386,7.094436646,14.438293457,-0.198138922,0.073535278,0.922506928
15.965919,2.300712585,7.079177856,14.384887695,-0.200214118,0.072802857,0.930685639
15.966544,2.209159851,6.941848755,14.461181641,-0.202167243,0.077807739,0.930441499
15.967233,1.965019226,7.079177856,14.560363770,-0.199969977,0.076220825,0.938986421
15.967965,1.163932800,6.812149048,14.575622559,-0.198871344,0.081591919,0.940207124
15.968592,0.957939148,6.979995728,14.407775879,-0.194476813,0.085254028,0.947409272
15.969217,0.423881531,6.774002075,14.484069824,-0.198505133,0.086230591,0.948752046
15.969842,-0.064399719,6.926589966,14.827392578,-0.195575446,0.089160278,0.948629975
15.970469,-0.506904602,6.926589966,14.888427734,-0.196063727,0.084887818,0.952536225
15.971094,-0.964668274,7.079177856,14.766357422,-0.199481696,0.087817505,0.955099702
15.971719,-1.498725891,7.308059692,14.873168945,-0.196674079,0.090014771,0.960592866
15.972345,-2.139595032,7.254653931,14.888427734,-0.197772712,0.090869263,0.960959077
15.972970,-2.841499329,7.422500610,14.926574707,-0.198749274,0.088427857,0.961691499
15.973597,-3.215339661,7.758193970,15.102050781,-0.197528571,0.088671997,0.961691499
15.974222,-4.397895813,7.987075806,14.918945312,-0.194720954,0.095630005,0.963156343
15.974847,-4.725959778,7.819229126,15.109680176,-0.199115485,0.091967896,0.966818452
15.975472,-5.519416809,8.132034302,15.239379883,-0.197772712,0.092944458,0.966208100
15.976097,-6.015327454,8.498245239,15.216491699,-0.195575446,0.097705200,0.964743257
15.990131,-19.130256653,12.366348267,16.635559082,-0.195331305,0.079150513,0.952414155
15.990916,-19.664314270,12.053543091,16.589782715,-0.190570563,0.077075318,0.952292085
15.991542,-19.923713684,12.488418579,16.627929688,-0.194720954,0.075488403,0.953146577
15.992181,-20.030525208,12.450271606,16.818664551,-0.192279547,0.074755982,0.948263764
15.992807,-20.488288879,12.908035278,16.894958496,-0.189471930,0.075244263,0.946066499
15.993432,-20.686653137,12.694412231,16.948364258,-0.190326422,0.072924927,0.947897553
15.994058,-20.717170715,12.946182251,17.032287598,-0.189349860,0.068530396,0.947165132
15.994684,-21.213081360,13.190322876,17.200134277,-0.189594001,0.068286255,0.944235444
15.995309,-21.037605286,13.068252563,16.894958496,-0.189960212,0.066821411,0.941916108
15.995934,-21.304634094,13.136917114,17.383239746,-0.187152594,0.067920044,0.940085053
15.996560,-21.289375305,13.403945923,16.856811523,-0.187274665,0.063281372,0.942282319
15.997185,-21.449592590,13.754898071,17.314575195,-0.188373297,0.061572388,0.942160249
15.997810,-21.426704407,13.480239868,17.451904297,-0.182635993,0.057421997,0.937277436
15.998436,-21.266487122,13.449722290,17.429016113,-0.187274665,0.059130982,0.936300874
15.999063,-21.319892883,13.892227173,17.467163086,-0.187885016,0.057788208,0.935568452
15.999688,-21.228340149,13.785415649,17.459533691,-0.190204352,0.054004028,0.938009858
16.000313,-21.052864075,13.899856567,17.566345215,-0.191669196,0.054370239,0.936545014
16.000940,-20.541694641,13.938003540,17.474792480,-0.188373297,0.051196411,0.937521577
16.001566,-20.389106750,14.273696899,17.406127930,-0.185443610,0.051562622,0.936056733
16.002191,-20.206001282,13.991409302,17.642639160,-0.183124274,0.056079224,0.935324311
16.002817,-19.771125793,14.082962036,17.795227051,-0.186542243,0.051318482,0.934836030
16.003442,-19.862678528,14.258438110,17.802856445,-0.183978766,0.049853638,0.933859468
16.004068,-19.305732727,14.441543579,17.802856445,-0.181659430,0.051318482,0.935812593
16.004693,-18.977668762,14.441543579,17.879150391,-0.183002204,0.052539185,0.936178803
16.005318,-18.710639954,14.929824829,17.985961914,-0.182758063,0.050097778,0.935202241
16.005943,-18.428352356,14.830642700,17.871520996,-0.177875251,0.047168091,0.936911225
16.006568,-17.818000793,14.754348755,18.100402832,-0.176044196,0.048632935,0.934469819
16.007193,-17.390754700,14.975601196,18.138549805,-0.172870368,0.046679810,0.937887788
16.007819,-16.986396790,15.128189087,18.123291016,-0.173358649,0.049365357,0.935690522
16.008445,-16.406562805,15.479141235,18.275878906,-0.171161383,0.044116333,0.940207124
16.010248,-15.025642395,15.982681274,18.252990723,-0.163837165,0.042895630,0.936545014
16.010874,-14.285591125,16.051345825,18.275878906,-0.162982672,0.041919068,0.935934663
16.011499,-13.675239563,16.196304321,18.413208008,-0.160052985,0.039721802,0.935934663
16.012125,-13.049629211,16.409927368,18.314025879,-0.158466071,0.039233521,0.935446382
16.012751,-12.340095520,16.554885864,18.497131348,-0.157855719,0.039965943,0.930075288
16.013377,-11.470344543,16.470962524,18.405578613,-0.153949469,0.035815552,0.931784272
16.014003,-10.966804504,16.997390747,18.420837402,-0.153339118,0.036425903,0.929709077
16.014630,-9.845283508,16.966873169,18.275878906,-0.149432868,0.034716919,0.929464936
16.015256,-8.861091614,17.371231079,18.489501953,-0.149066657,0.034350708,0.927145600
16.015881,-8.265998840,17.363601685,18.481872559,-0.146869391,0.032153443,0.925314546
16.016507,-6.885078430,17.386489868,18.611572266,-0.152728766,0.032153443,0.923483491
16.017134,-6.198432922,17.439895630,18.550537109,-0.147113532,0.031176880,0.918722749
16.017761,-5.031135559,17.623001099,18.741271973,-0.145282477,0.026416138,0.916769624
16.018387,-3.741767883,17.767959595,18.466613770,-0.150287360,0.025439575,0.911642671
16.019014,-2.643135071,17.722183228,18.474243164,-0.148578376,0.024585083,0.907614350
16.019641,-1.536872864,17.821365356,18.458984375,-0.149066657,0.023608521,0.909445405
16.020266,-0.140693665,17.821365356,18.619201660,-0.149310797,0.022265747,0.905417085
16.034243,28.675529480,14.136367798,17.459533691,-0.145648688,0.075976685,0.854147553
16.034998,29.293510437,13.785415649,17.665527344,-0.142108649,0.077319458,0.855124116
16.035624,30.392143250,13.526016235,17.718933105,-0.141864508,0.081225708,0.851217866
16.036250,31.010124207,13.480239868,17.436645508,-0.145648688,0.088671997,0.851706147
16.036876,31.841728210,13.266616821,17.390869141,-0.143207282,0.093066528,0.849875093
16.037501,32.528373718,12.793594360,17.398498535,-0.140643805,0.099292114,0.851706147
16.038128,33.070060730,12.618118286,17.230651855,-0.140399665,0.107226685,0.851462007
16.038754,33.451530457,12.305313110,17.337463379,-0.142963141,0.109179810,0.850485444
16.039381,33.802482605,12.282424927,17.230651855,-0.141742438,0.113818482,0.851828218
16.040007,34.306022644,12.114578247,17.100952148,-0.139301032,0.115649536,0.848898530
16.040634,34.458610535,11.855178833,17.146728516,-0.137347907,0.124804810,0.848410249
16.041259,34.794303894,11.717849731,16.963623047,-0.141986579,0.127978638,0.852072358
16.041886,34.893486023,11.466079712,16.704223633,-0.140521735,0.133838013,0.855368257
16.042512,35.099479675,11.420303345,16.811035156,-0.139789313,0.138720825,0.855856538
16.043139,35.191032410,11.252456665,16.742370605,-0.139178962,0.142627075,0.856222749
16.043765,35.091850281,11.267715454,16.490600586,-0.135272712,0.148486450,0.856833100
16.044390,34.931632996,10.954910278,16.589782715,-0.135028571,0.149463013,0.855734468
16.045016,34.916374207,10.848098755,16.261718750,-0.136249274,0.152758911,0.860006928
16.045641,34.473869324,10.535293579,16.208312988,-0.136859626,0.158130005,0.859884858
16.046268,34.389945984,10.352188110,16.399047852,-0.135394782,0.163012818,0.861349702
16.046893,34.283134460,10.321670532,16.276977539,-0.134906501,0.164599732,0.863546968
16.047518,33.657524109,10.413223267,16.032836914,-0.134174079,0.166796997,0.862082124
16.048144,33.466789246,10.130935669,16.177795410,-0.132953376,0.169360474,0.860495210
16.048769,32.894584656,10.001235962,15.918395996,-0.134052008,0.170337036,0.860373139
16.049394,32.513114929,10.024124146,15.819213867,-0.136493415,0.169726685,0.861105561
16.050021,32.185050964,9.902053833,15.765808105,-0.138446540,0.173388794,0.859030366
16.050646,31.650993347,9.604507446,15.567443848,-0.140521735,0.175830200,0.858542085
16.051271,31.399223328,9.802871704,15.773437500,-0.145282477,0.175097778,0.856222749
16.051898,30.758354187,9.367996216,15.430114746,-0.147113532,0.176928833,0.856344819
16.052524,30.537101746,9.291702271,15.453002930,-0.147723883,0.176684693,0.854635835
16.054301,29.194328308,8.780532837,15.109680176,-0.150531501,0.178027466,0.854391694
16.054928,28.759452820,8.612686157,15.094421387,-0.153094977,0.179126099,0.855002046
16.055553,28.263542175,8.399063110,15.071533203,-0.152484626,0.181567505,0.855978608
16.056178,27.981254578,8.215957642,15.063903809,-0.155048102,0.181567505,0.856100678
16.056805,27.546379089,8.025222778,14.606140137,-0.153339118,0.178637818,0.853659272
16.057430,27.225944519,7.887893677,14.773986816,-0.153949469,0.180835083,0.855856538
16.058056,26.867362976,7.781082153,14.537475586,-0.155536383,0.181689575,0.859152436
16.058681,26.318046570,7.681900024,14.697692871,-0.154803962,0.182421997,0.860373139
16.059306,25.989982605,7.353836060,14.522216797,-0.152850837,0.184130982,0.860006928
16.059931,25.494071960,7.369094849,14.575622559,-0.153949469,0.182788208,0.866476655
16.060557,25.074455261,7.086807251,14.201782227,-0.150409430,0.184130982,0.866110444
16.061182,24.746391296,7.025772095,14.209411621,-0.149677008,0.184497193,0.871237397
16.061807,23.922416687,6.972366333,14.361999512,-0.148212165,0.185473755,0.872091889
16.062434,23.525688171,6.934219360,14.072082520,-0.150897712,0.185595825,0.873312593
16.069862,18.009635925,6.918960571,13.263366699,-0.150043219,0.189502075,0.898581147
16.070487,17.605278015,6.957107544,13.133666992,-0.148456305,0.188281372,0.899923921
16.071112,17.231437683,7.056289673,13.026855469,-0.150409430,0.189868286,0.902609468
16.071738,16.849967957,7.208877563,13.003967285,-0.155170172,0.189135864,0.899679780
16.085784,11.089775085,9.390884399,11.035583496,-0.170673102,0.168872193,0.889181733
16.086566,11.105033875,9.306961060,10.799072266,-0.170306891,0.172412232,0.885275483
16.087191,10.899040222,9.360366821,10.745666504,-0.173114508,0.171557739,0.881979585
16.087817,10.868522644,9.276443481,10.791442871,-0.176776618,0.167773560,0.881735444
16.088444,10.715934753,9.169631958,10.783813477,-0.173602790,0.168139771,0.880270600
16.089070,10.639640808,8.978897095,10.448120117,-0.178485602,0.169116333,0.878805757
16.089697,10.738822937,9.055191040,10.608337402,-0.178485602,0.166430786,0.871481538
16.090324,10.708305359,8.711868286,10.554931641,-0.178973883,0.165210083,0.868551850
16.090949,10.632011414,8.681350708,10.341308594,-0.178851813,0.162646607,0.870138764
16.091574,10.700675964,8.627944946,10.478637695,-0.181781501,0.161059693,0.864523530
16.092199,10.769340515,8.399063110,10.165832520,-0.180682868,0.161670044,0.858664155
16.092825,10.921928406,8.353286743,10.135314941,-0.182880133,0.162524536,0.859152436
16.093450,11.112663269,8.292251587,10.097167969,-0.182880133,0.162158325,0.859152436
16.094075,10.906669617,7.933670044,9.914062500,-0.181415290,0.159106568,0.856222749
16.094700,11.005851746,7.803970337,9.669921875,-0.184100837,0.160693482,0.853415132
16.095325,11.150810242,7.498794556,9.837768555,-0.185443610,0.158862427,0.852194428
16.095951,11.341545105,7.147842407,9.685180664,-0.186420172,0.159472778,0.848898530
16.096578,11.448356628,7.117324829,9.593627930,-0.185199469,0.158252075,0.847677827
16.097204,11.555168152,6.743484497,9.700439453,-0.184711188,0.154956177,0.848166108
16.097831,11.677238464,6.537490845,9.257934570,-0.185443610,0.159350708,0.843527436
16.098456,11.875602722,6.163650513,9.204528809,-0.187274665,0.158740357,0.839377046
16.099082,12.035820007,5.827957153,9.311340332,-0.187274665,0.155932739,0.839010835
16.099709,12.173149109,5.454116821,9.082458496,-0.188007087,0.154467896,0.838888764
16.100336,12.234184265,5.248123169,9.120605469,-0.192035407,0.157031372,0.835959077
16.100962,12.447807312,4.912429810,8.990905762,-0.191058844,0.155200318,0.837545991
16.101588,12.630912781,4.599624634,8.823059082,-0.188739508,0.156665161,0.834738374
16.102214,12.760612488,4.218154907,8.678100586,-0.188495368,0.156298950,0.832052827
16.102840,13.164970398,3.775650024,8.678100586,-0.186420172,0.154956177,0.831686616
16.103465,13.149711609,3.378921509,8.533142090,-0.188129157,0.156176880,0.830465913
16.104090,13.439628601,2.966934204,8.639953613,-0.189471930,0.156054810,0.829733491
16.105871,14.416191101,1.891189575,8.144042969,-0.190692633,0.151904419,0.829001069
16.106497,14.454338074,1.418167114,8.083007812,-0.191669196,0.150683716,0.831320405
16.107123,14.706108093,1.311355591,7.976196289,-0.190204352,0.150683716,0.831808686
16.107750,14.744255066,0.571304321,7.838867188,-0.192035407,0.146411255,0.829855561
16.108376,14.965507507,0.464492798,7.915161133,-0.191669196,0.146167114,0.830099702
16.109003,15.430900574,-0.130599976,7.724426270,-0.193134040,0.145312622,0.833639741
16.109629,15.812370300,-0.321334839,7.465026855,-0.191913337,0.142627075,0.830221772
16.110255,16.216728210,-0.832504272,7.419250488,-0.192035407,0.140307739,0.833273530
16.110881,16.376945496,-1.236862183,7.335327148,-0.190692633,0.137866333,0.832907319
16.111507,16.727897644,-1.610702515,7.335327148,-0.190204352,0.136889771,0.834982514
16.112133,17.246696472,-2.007431030,7.007263184,-0.190326422,0.137500122,0.839865327
16.112759,17.605278015,-2.396530151,7.236145020,-0.193011969,0.132006958,0.838766694
16.113384,18.024894714,-2.755111694,7.022521973,-0.191302985,0.130297974,0.839010835
16.114010,18.406364441,-2.953475952,6.808898926,-0.187640876,0.131396607,0.843283296
16.114637,18.764945984,-3.518051147,6.786010742,-0.188251227,0.127490357,0.843161225
16.115264,19.482109070,-3.838485718,6.648681641,-0.190082282,0.126025513,0.846579194
16.115891,19.855949402,-4.090255737,6.671569824,-0.190326422,0.121386841,0.846335053
16.116518,20.496818542,-4.532760620,6.854675293,-0.190204352,0.120288208,0.849142671
16.117144,21.000358582,-4.960006714,6.526611328,-0.191669196,0.118335083,0.850119233
16.131075,28.210136414,-10.498947144,5.725524902,-0.194598883,0.149585083,0.889425874
16.131801,28.103324890,-10.483688354,5.832336426,-0.195209235,0.152026489,0.889181733
16.132426,27.805778503,-10.827011108,5.809448242,-0.196796149,0.155078247,0.890280366
16.133052,27.195426941,-10.872787476,5.786560059,-0.194965094,0.161181763,0.890890718
16.133678,26.775810242,-11.261886597,5.832336426,-0.195209235,0.163745239,0.886374116
16.134304,26.302787781,-11.391586304,5.679748535,-0.194232672,0.168139771,0.886618257
16.134929,25.692436218,-11.513656616,5.809448242,-0.195331305,0.172900513,0.889181733
16.135554,24.883720398,-11.719650269,5.687377930,-0.197040290,0.173999146,0.889425874
16.136181,24.227592468,-11.979049683,5.633972168,-0.194110602,0.180957153,0.886984468
16.136807,23.540946960,-12.192672729,5.733154297,-0.197894782,0.183520630,0.887594819
16.137432,22.762748718,-12.345260620,5.687377930,-0.197284430,0.185107544,0.884176850
16.138057,21.740409851,-12.474960327,5.748413086,-0.197650641,0.189013794,0.882467866
16.138683,20.801994324,-12.825912476,5.626342773,-0.198993415,0.190234497,0.885031343
16.139309,19.520256042,-12.917465210,5.733154297,-0.196429938,0.196093872,0.881979585
16.139935,18.711540222,-13.169235229,5.641601562,-0.195087165,0.199755982,0.881735444
16.140561,17.597648621,-13.543075562,5.626342773,-0.198260993,0.202075318,0.884054780
16.141188,16.216728210,-13.604110718,5.489013672,-0.193622321,0.206958130,0.886129975
16.141814,15.179130554,-13.993209839,5.618713379,-0.196185797,0.207446411,0.885519624
16.142440,13.920280457,-14.244979858,5.618713379,-0.193622321,0.209887818,0.885153413
16.143065,12.615653992,-14.237350464,5.687377930,-0.193988532,0.212817505,0.887350678
16.143690,11.463615417,-14.618820190,5.801818848,-0.192279547,0.214770630,0.889547944
16.144315,9.853813171,-14.801925659,5.534790039,-0.193378180,0.215747193,0.889059663
16.144942,8.572074890,-15.221542358,5.443237305,-0.192889899,0.218188599,0.892355561
16.145568,7.038566589,-15.313095093,5.588195801,-0.194354743,0.220385864,0.893332124
16.146195,6.046745300,-15.694564819,5.565307617,-0.193622321,0.219897583,0.893087983
16.146820,4.368278503,-15.854782104,5.534790039,-0.193988532,0.219897583,0.896872163
16.147447,2.994987488,-16.068405151,5.527160645,-0.192889899,0.220141724,0.897238374
16.148074,1.514884949,-16.419357300,5.389831543,-0.194720954,0.221606568,0.901510835
16.148699,0.004264832,-16.343063354,5.527160645,-0.193866462,0.221362427,0.903463960
16.149325,-1.239326477,-16.732162476,5.496643066,-0.194110602,0.222461060,0.905783296
16.151128,-5.198982239,-17.182296753,5.557678223,-0.191302985,0.214404419,0.915304780
16.151755,-6.412055969,-17.342514038,5.351684570,-0.191669196,0.211474732,0.916403413
16.152380,-7.686164856,-17.441696167,5.298278809,-0.189838141,0.206469849,0.915548921
16.153005,-8.639839172,-17.754501343,5.138061523,-0.192645758,0.204638794,0.918356538
16.153630,-9.860542297,-17.960494995,5.366943359,-0.189349860,0.201342896,0.922628999
16.154256,-10.600593567,-18.120712280,5.237243652,-0.189960212,0.200000122,0.929831147
16.154881,-11.600044250,-18.074935913,5.252502441,-0.190936774,0.198657349,0.931295991
16.155507,-12.446907043,-18.113082886,5.244873047,-0.191791266,0.194140747,0.933981538
16.156132,-13.263252258,-18.258041382,5.054138184,-0.190326422,0.185962036,0.940085053
16.156759,-13.698127747,-18.670028687,5.229614258,-0.189716071,0.185717896,0.939962983
16.157385,-14.499214172,-18.700546265,5.115173340,-0.192401618,0.181323364,0.941305757
16.158012,-15.025642395,-18.700546265,5.168579102,-0.192523688,0.174121216,0.944479585
16.158637,-15.475776672,-18.853134155,5.077026367,-0.192279547,0.168383911,0.949118257
16.159264,-15.956428528,-19.036239624,4.924438477,-0.192889899,0.163745239,0.951315522
16.159890,-16.055610657,-19.272750854,4.901550293,-0.193988532,0.162768677,0.954977632
16.160516,-16.223457336,-19.280380249,4.840515137,-0.191791266,0.155688599,0.955099702
16.161142,-16.376045227,-19.333786011,4.863403320,-0.195209235,0.148608521,0.959616303
16.175146,-3.520515442,-21.782821655,3.345153809,-0.203265876,0.104663208,1.012716889
16.175912,-2.894905090,-21.996444702,3.444335938,-0.205341071,0.106372193,1.016745210
16.176538,-2.032783508,-21.973556519,3.322265625,-0.206439704,0.106616333,1.017721772
16.177163,-1.445320129,-21.988815308,3.352783203,-0.205341071,0.103564575,1.020529389
16.177789,-0.773933411,-22.026962280,3.230712891,-0.205585212,0.106494263,1.025412202
16.178415,-0.201728821,-22.133773804,3.268859863,-0.204852790,0.109912232,1.027609468
16.179041,0.462028503,-22.278732300,3.047607422,-0.205463141,0.107348755,1.025045991
16.179666,0.957939148,-22.095626831,2.963684082,-0.208026618,0.113452271,1.032980561
16.180291,1.408073425,-21.973556519,3.131530762,-0.206927985,0.115649536,1.033712983
16.180916,1.759025574,-22.049850464,3.039978027,-0.205096930,0.117968872,1.035666108
16.181542,2.300712585,-21.508163452,2.849243164,-0.209003180,0.118090943,1.037008882
16.182167,2.674552917,-21.668380737,2.963684082,-0.206317633,0.121508911,1.039938569
16.182792,2.949211121,-21.683639526,2.666137695,-0.206805915,0.123706177,1.042868257
16.183417,3.178092957,-21.630233765,2.757690430,-0.208392829,0.126147583,1.044211030
16.184044,3.429862976,-21.737045288,2.666137695,-0.205096930,0.128222778,1.044943452
16.184670,3.841850281,-21.401351929,2.620361328,-0.203021735,0.133105591,1.048971772
16.185296,3.635856628,-21.210617065,2.612731934,-0.203510016,0.134204224,1.050070405
16.185922,3.971549988,-21.218246460,2.467773438,-0.203632087,0.137378052,1.050924897
16.186548,3.849479675,-20.943588257,2.536437988,-0.200702399,0.141528443,1.053732514
16.187174,3.971549988,-20.943588257,2.566955566,-0.203510016,0.141162232,1.051413178
16.187799,3.979179382,-20.737594604,2.406738281,-0.197528571,0.143359497,1.057638764
16.188425,3.612968445,-20.386642456,2.277038574,-0.198505133,0.146533325,1.059103608
16.189050,3.551933289,-20.317977905,2.330444336,-0.197772712,0.144702271,1.059713960
16.189675,3.185722351,-20.073837280,2.132080078,-0.198749274,0.148120239,1.062643647
16.190302,3.010246277,-19.921249390,2.261779785,-0.195575446,0.148242310,1.061056733
16.190929,2.895805359,-19.776290894,2.261779785,-0.195697516,0.148974732,1.065207124
16.191556,2.560112000,-19.570297241,1.979492188,-0.194110602,0.151171997,1.066427827
16.192181,2.270195007,-19.349044800,2.063415527,-0.193744391,0.152392700,1.064962983
16.192808,1.781913757,-19.097274780,2.116821289,-0.193134040,0.153857544,1.064840913
16.193434,1.682731628,-18.914169312,2.002380371,-0.195453376,0.150683716,1.068136811
16.195244,0.553581238,-18.464035034,1.750610352,-0.192035407,0.150317505,1.070456147
16.195870,0.057670593,-18.288558960,1.918457031,-0.193134040,0.152270630,1.068503022
16.196496,-0.384834290,-18.036788940,1.704833984,-0.189227790,0.152392700,1.068625093
16.197123,-0.506904602,-17.861312866,1.598022461,-0.191302985,0.150439575,1.072287202
16.197748,-1.132514954,-17.525619507,1.842163086,-0.190570563,0.149340943,1.068869233
16.198374,-1.559761047,-17.289108276,1.475952148,-0.191302985,0.147021607,1.069479585
16.199000,-1.559761047,-17.334884644,1.605651855,-0.189227790,0.146777466,1.069845796
16.199625,-2.193000793,-17.075485229,1.468322754,-0.191058844,0.146777466,1.068258882
16.200252,-2.330329895,-16.991561890,1.552246094,-0.191669196,0.145800903,1.071432710
16.200877,-2.597358704,-16.831344604,1.536987305,-0.191180915,0.142016724,1.067770600
16.201502,-2.856758118,-16.404098511,1.346252441,-0.192279547,0.138842896,1.070578218
16.202129,-3.276374817,-16.472763062,1.468322754,-0.187640876,0.138354614,1.072043061
16.202755,-3.261116028,-16.274398804,1.269958496,-0.188251227,0.136523560,1.073507905
16.203381,-3.795173645,-16.114181519,1.430175781,-0.188983649,0.137500122,1.069845796
16.204008,-3.901985168,-15.854782104,1.300476074,-0.185199469,0.137378052,1.070822358
16.204634,-4.153755188,-15.938705444,1.132629395,-0.188617438,0.135302857,1.069845796
16.205259,-4.382637024,-15.908187866,1.254699707,-0.186664313,0.132129028,1.073263764
16.205886,-4.588630676,-15.671676636,1.109741211,-0.184833258,0.131030396,1.073629975
16.219853,-7.030036926,-14.718002319,1.186035156,-0.182025641,0.116504028,1.077902436
16.220604,-7.335212708,-14.817184448,0.857971191,-0.181293219,0.118945435,1.080221772
16.221229,-7.152107239,-14.725631714,1.125000000,-0.182269782,0.115039185,1.081930757
16.221854,-7.228401184,-14.649337769,1.056335449,-0.181293219,0.116992310,1.084616303
16.222481,-7.335212708,-14.458602905,0.873229980,-0.180927008,0.117358521,1.087545991
16.223106,-7.434394836,-14.550155640,0.888488770,-0.183246344,0.116870239,1.087423921
16.223733,-7.640388489,-14.397567749,1.170776367,-0.181781501,0.115527466,1.089987397
16.224359,-7.579353333,-14.298385620,1.018188477,-0.180194587,0.119311646,1.093649507
16.224985,-7.617500305,-14.306015015,0.896118164,-0.182513922,0.116626099,1.094870210
16.225611,-7.823493958,-14.191574097,1.125000000,-0.180560797,0.117602661,1.101828218
16.226237,-8.166816711,-13.955062866,0.941894531,-0.183246344,0.117602661,1.104635835
16.226862,-8.235481262,-13.932174683,0.949523926,-0.179218024,0.116259888,1.104025483
16.227487,-8.288887024,-13.817733765,0.934265137,-0.182758063,0.118701294,1.108664155
16.228112,-8.265998840,-13.497299194,0.934265137,-0.180072516,0.118823364,1.110373139
16.228738,-8.395698547,-13.367599487,0.987670898,-0.178485602,0.118090943,1.116110444
16.229364,-8.746650696,-13.123458862,1.102111816,-0.177631110,0.117602661,1.115744233
16.229997,-8.845832825,-12.955612183,0.857971191,-0.180682868,0.116992310,1.123068452
16.230624,-9.028938293,-12.574142456,1.247070312,-0.178973883,0.113086060,1.122946382
16.231250,-9.135749817,-12.368148804,1.063964844,-0.179095954,0.119067505,1.123678803
16.231875,-9.265449524,-12.253707886,0.857971191,-0.178973883,0.116626099,1.127707124
16.232501,-9.471443176,-11.879867554,1.086853027,-0.181415290,0.118945435,1.126974702
16.233127,-9.692695618,-11.795944214,1.109741211,-0.181171149,0.118823364,1.129660249
16.233754,-10.074165344,-11.391586304,0.896118164,-0.177753180,0.121630982,1.131857514
16.234379,-10.104682922,-10.956710815,1.155517578,-0.181171149,0.124926880,1.131613374
16.235005,-10.623481750,-10.758346558,1.216552734,-0.180682868,0.121875122,1.132956147
16.235631,-10.852363586,-10.544723511,1.254699707,-0.181903571,0.119433716,1.133688569
16.236258,-11.134651184,-9.942001343,1.025817871,-0.180927008,0.125781372,1.134787202
16.236884,-11.424568176,-9.758895874,1.262329102,-0.180316657,0.124072388,1.134787202
16.237510,-11.493232727,-9.552902222,1.330993652,-0.183490485,0.124926880,1.136007905
16.238135,-11.989143372,-9.163803101,1.376770020,-0.182758063,0.126391724,1.136618257
16.239939,-12.874153137,-8.324569702,1.407287598,-0.185077399,0.130664185,1.136984468
16.240565,-13.232734680,-7.721847534,1.437805176,-0.183490485,0.132983521,1.139792085
16.241191,-13.949897766,-7.340377808,1.392028809,-0.183612555,0.131640747,1.140036225
16.241816,-14.247444153,-7.126754761,1.414916992,-0.183368415,0.132861450,1.137350678
16.242441,-14.430549622,-6.844467163,1.536987305,-0.184344977,0.134204224,1.139547944
16.243067,-15.002754211,-6.340927124,1.567504883,-0.185199469,0.134692505,1.140768647
16.243694,-15.498664856,-5.951828003,1.376770020,-0.183124274,0.135546997,1.141012788
16.244319,-15.796211243,-5.677169800,1.605651855,-0.178851813,0.134936646,1.141012788
16.244944,-16.109016418,-5.188888550,1.704833984,-0.181293219,0.134936646,1.140402436
16.245570,-16.665962219,-4.868453979,1.613281250,-0.182269782,0.137622193,1.142355561
16.246195,-16.856697083,-4.349655151,1.674316406,-0.180682868,0.136035278,1.142843843
16.246821,-17.306831360,-3.975814819,1.674316406,-0.181171149,0.136035278,1.145407319
16.247447,-17.566230774,-3.746932983,1.506469727,-0.179706305,0.135302857,1.147116303
16.248073,-17.879035950,-2.915328979,1.628540039,-0.177631110,0.138354614,1.145163178
16.248698,-18.245246887,-2.701705933,1.750610352,-0.175922126,0.137133911,1.148825288
16.249324,-18.626716614,-2.388900757,1.720092773,-0.178119391,0.137133911,1.147848725
16.249949,-18.558052063,-1.854843140,1.872680664,-0.173480719,0.137255982,1.149435639
16.250575,-18.863227844,-1.252120972,1.872680664,-0.174213141,0.131274536,1.147360444
16.264579,-11.371162415,4.004531860,0.461242676,-0.191180915,0.115649536,1.091452241
16.265355,-10.982063293,3.867202759,0.308654785,-0.194720954,0.116381958,1.086081147
16.265980,-10.158088684,3.943496704,-0.027038574,-0.194965094,0.116626099,1.085592866
16.266606,-9.837654114,4.141860962,0.224731445,-0.195819587,0.118823364,1.080099702
16.267231,-9.006050110,3.890090942,-0.202514648,-0.195453376,0.117236450,1.079123139
16.267876,-8.471992493,4.012161255,-0.278808594,-0.195819587,0.117846802,1.076925874
16.268501,-7.686164856,4.118972778,-0.255920410,-0.196307868,0.116748169,1.073507905
16.269127,-7.289436340,3.943496704,-0.324584961,-0.200214118,0.116992310,1.072287202
16.269754,-6.740119934,3.790908813,-0.362731934,-0.198383063,0.118213013,1.070212007
16.270380,-6.106880188,3.897720337,-0.576354980,-0.198138922,0.120166138,1.063131928
16.271007,-5.672004700,3.874832153,-0.690795898,-0.199481696,0.117724732,1.061789155
16.271633,-4.985359192,3.623062134,-0.675537109,-0.201190680,0.119677857,1.061667085
16.272258,-4.695442200,3.348403931,-0.744201660,-0.203632087,0.118579224,1.059103608
16.272885,-4.123237610,3.470474243,-0.942565918,-0.205096930,0.118579224,1.056418061
16.273512,-3.459480286,3.157669067,-1.018859863,-0.204364508,0.120654419,1.053488374
16.274137,-2.788093567,2.959304810,-1.125671387,-0.204852790,0.123462036,1.056173921
16.274762,-2.620246887,2.806716919,-1.362182617,-0.203754157,0.123950318,1.052755952
16.275387,-1.536872864,2.417617798,-1.522399902,-0.205096930,0.126269653,1.050680757
16.276013,-1.163032532,2.478652954,-1.560546875,-0.203754157,0.123462036,1.047384858
16.276640,-0.804450989,2.295547485,-1.629211426,-0.204242438,0.125048950,1.049215913
16.277267,-0.316169739,2.112442017,-1.568176270,-0.204364508,0.126513794,1.048605561
16.277892,0.027153015,2.104812622,-1.880981445,-0.205341071,0.129931763,1.042746186
16.278517,0.294181824,1.921707153,-1.827575684,-0.204242438,0.130175903,1.048483491
16.279142,0.637504578,1.807266235,-1.903869629,-0.202289313,0.131152466,1.049826264
16.279768,0.896903992,1.685195923,-2.094604492,-0.202533454,0.130420044,1.048483491
16.280394,1.179191589,1.601272583,-2.193786621,-0.200702399,0.128466919,1.048727632
16.281020,1.575920105,1.494461060,-2.285339355,-0.200580329,0.130053833,1.048971772
16.281646,1.865837097,1.387649536,-2.346374512,-0.202411383,0.132006958,1.053488374
16.282271,1.873466492,1.364761353,-2.537109375,-0.198260993,0.133471802,1.051535249
16.282896,2.117607117,1.273208618,-2.331115723,-0.198383063,0.130297974,1.053244233
16.284704,2.628776550,1.097732544,-2.712585449,-0.200336188,0.132129028,1.057150483
16.285330,2.666923523,0.899368286,-2.697326660,-0.196307868,0.133838013,1.054098725
16.285956,2.941581726,0.784927368,-2.819396973,-0.197284430,0.131640747,1.053244233
16.286583,3.109428406,0.655227661,-3.078796387,-0.198505133,0.130786255,1.055075288
16.287208,3.048393250,0.639968872,-2.842285156,-0.197162360,0.133227661,1.058859468
16.287835,3.483268738,0.563674927,-2.819396973,-0.198627204,0.131640747,1.058127046
16.288461,3.628227234,0.464492798,-3.185607910,-0.200580329,0.135180786,1.057394624
16.289087,3.963920593,0.403457642,-3.223754883,-0.201801032,0.132129028,1.059103608
16.289714,4.162284851,0.289016724,-3.208496094,-0.199481696,0.129199341,1.056784272
16.290340,4.055473328,0.235610962,-3.246643066,-0.202777594,0.132251099,1.064230561
16.290967,4.330131531,0.266128540,-3.315307617,-0.202899665,0.132129028,1.059469819
16.291593,4.436943054,0.166946411,-3.635742188,-0.201923102,0.131640747,1.064352632
16.292220,4.711601257,0.296646118,-3.681518555,-0.203387946,0.129687622,1.064474702
16.292845,4.711601257,0.296646118,-3.681518555,-0.203387946,0.129687622,1.064474702
16.293470,4.833671570,0.083023071,-3.963806152,-0.200458258,0.130175903,1.067892671
16.294096,5.123588562,0.266128540,-3.910400391,-0.206805915,0.131274536,1.066794038
16.294721,5.154106140,0.044876099,-3.902770996,-0.206195563,0.131274536,1.068991303
16.295347,5.352470398,0.021987915,-3.979064941,-0.203998297,0.131274536,1.067404389
16.309288,1.850578308,1.586013794,-4.787780762,-0.206805915,0.158618286,1.107077241
16.310050,1.301261902,2.203994751,-4.795410156,-0.206195563,0.162158325,1.103537202
16.310676,0.759574890,2.181106567,-4.848815918,-0.206561774,0.161181763,1.105856538
16.311303,0.332328796,2.242141724,-4.986145020,-0.206073493,0.163745239,1.105002046
16.311929,-0.224617004,2.486282349,-4.848815918,-0.203632087,0.163623169,1.107321382
16.312554,-0.995185852,2.776199341,-5.077697754,-0.203632087,0.165454224,1.107687593
16.319793,-8.609321594,6.362014771,-5.291320801,-0.198383063,0.171923950,1.111960053
16.320418,-9.349372864,6.682449341,-5.222656250,-0.194232672,0.172778443,1.114767671
16.321044,-10.188606262,7.071548462,-5.436279297,-0.196552008,0.172412232,1.112570405
16.321669,-10.577705383,7.536941528,-5.215026855,-0.194843024,0.172656372,1.114157319
16.322296,-11.180427551,7.735305786,-5.291320801,-0.194720954,0.170214966,1.110128999
16.322923,-11.882331848,8.017593384,-5.192138672,-0.197284430,0.168139771,1.109274507
16.323548,-12.393501282,8.109146118,-5.405761719,-0.200092047,0.164843872,1.107077241
16.324174,-12.874153137,8.765274048,-5.344726562,-0.203143805,0.163989380,1.108542085
16.324801,-13.331916809,9.009414673,-5.245544434,-0.198749274,0.161914185,1.106588960
16.325427,-13.896492004,8.971267700,-5.428649902,-0.200214118,0.161792114,1.103170991
16.326053,-14.407661438,9.451919556,-5.375244141,-0.202533454,0.156421021,1.102194428
16.326680,-14.941719055,9.619766235,-5.428649902,-0.204730719,0.156665161,1.100119233
16.327305,-15.239265442,9.902053833,-5.535461426,-0.205096930,0.157153443,1.099264741
16.327930,-15.697029114,10.092788696,-5.581237793,-0.206073493,0.152636841,1.097311616
16.329762,-16.109016418,11.122756958,-5.413391113,-0.207294196,0.146655396,1.087057710
16.330387,-16.459968567,10.993057251,-5.581237793,-0.209491462,0.149096802,1.087668061
16.331012,-16.536262512,10.962539673,-5.611755371,-0.209735602,0.138476685,1.086203218
16.331637,-16.627815247,11.511856079,-5.588867188,-0.208392829,0.139697388,1.081442475
16.332262,-16.772773743,11.618667603,-5.512573242,-0.210712165,0.134936646,1.081808686
16.332888,-16.734626770,11.702590942,-5.482055664,-0.209613532,0.133715943,1.079977632
16.333513,-16.826179504,11.733108521,-5.421020508,-0.210101813,0.131884888,1.079733491
16.334140,-16.788032532,12.137466431,-5.466796875,-0.211444587,0.132006958,1.074362397
16.334766,-17.100837708,11.908584595,-5.489685059,-0.213153571,0.131152466,1.071676850
16.335392,-16.917732239,12.229019165,-5.443908691,-0.215594977,0.129565552,1.069235444
16.336018,-17.192390442,12.343460083,-5.382873535,-0.214984626,0.123217896,1.068136811
16.336643,-17.215278625,12.366348267,-5.222656250,-0.217792243,0.122973755,1.062399507
16.337269,-17.016914368,12.534194946,-5.619384766,-0.214130133,0.121264771,1.063620210
16.337896,-16.948249817,12.702041626,-5.352355957,-0.214984626,0.119921997,1.060080171
16.338522,-16.589668274,12.442642212,-5.306579590,-0.216327399,0.121875122,1.054709077
16.339149,-16.734626770,12.564712524,-5.367614746,-0.210101813,0.121386841,1.052633882
16.339775,-16.589668274,12.686782837,-5.184509277,-0.213275641,0.117602661,1.052511811
16.340400,-16.337898254,12.770706177,-5.329467773,-0.215839118,0.119677857,1.050924897
16.341027,-16.345527649,12.808853149,-5.321838379,-0.216937751,0.109790161,1.048239350
16.341654,-16.231086731,12.885147095,-5.276062012,-0.217059821,0.110522583,1.042502046
16.342279,-16.185310364,12.702041626,-5.001403809,-0.221454352,0.108081177,1.041403413
16.342905,-15.918281555,12.641006470,-5.153991699,-0.219623297,0.107470825,1.038962007
16.343530,-15.620735168,12.808853149,-5.199768066,-0.222308844,0.104907349,1.036886811
16.344155,-15.285041809,12.564712524,-5.077697754,-0.222919196,0.099902466,1.035666108
16.344781,-15.346076965,12.595230103,-4.970886230,-0.218402594,0.097705200,1.033835053
16.345407,-14.827278137,12.480789185,-5.222656250,-0.217426032,0.096606568,1.031027436
16.346034,-14.567878723,12.366348267,-5.184509277,-0.218280524,0.094775513,1.030783296
16.346661,-14.270332336,12.427383423,-4.902221680,-0.216083258,0.096362427,1.028586030
16.360770,-5.511787415,10.214859009,-2.750732422,-0.215350837,0.067431763,0.998800874
16.361596,-5.397346497,10.085159302,-2.415039062,-0.214374274,0.068652466,0.998556733
16.362221,-4.893806458,9.978347778,-2.651550293,-0.214496344,0.068408325,0.998190522
16.362848,-4.802253723,9.940200806,-2.529479980,-0.215228766,0.069384888,0.995260835
16.363475,-4.626777649,9.619766235,-2.277709961,-0.217426032,0.067675903,0.997458100
16.364100,-4.306343079,9.512954712,-2.201416016,-0.215594977,0.070483521,0.997702241
16.364726,-4.169013977,9.345108032,-1.995422363,-0.214862555,0.071215943,0.993307710
16.365353,-3.810432434,9.413772583,-2.041198730,-0.215961188,0.072070435,0.994528413
16.365979,-3.665473938,9.314590454,-1.896240234,-0.212543219,0.074267700,0.991964936
16.366604,-3.627326965,9.154373169,-1.552917480,-0.212299079,0.076709107,0.991964936
16.367229,-3.558662415,9.116226196,-1.720764160,-0.217670172,0.074389771,0.991598725
16.367854,-3.497627258,8.894973755,-1.377441406,-0.213397712,0.077929810,0.987082124
16.368480,-3.406074524,8.803421021,-1.369812012,-0.212543219,0.081225708,0.988424897
16.369107,-3.367927551,8.765274048,-1.041748047,-0.211932868,0.083667114,0.986227632
16.369733,-3.489997864,8.658462524,-0.995971680,-0.211810797,0.084277466,0.988424897
16.370364,-3.421333313,8.452468872,-0.812866211,-0.209247321,0.085742310,0.991842866
16.370998,-3.650215149,8.414321899,-0.683166504,-0.211566657,0.089892700,0.987936616
16.371623,-3.993537903,8.330398560,-0.316955566,-0.212543219,0.087939575,0.987082124
16.372248,-4.008796692,8.124404907,-0.301696777,-0.209247321,0.092578247,0.984396577
16.372873,-4.001167297,7.926040649,-0.202514648,-0.211200446,0.095630005,0.986105561
16.373500,-4.397895813,7.910781860,0.056884766,-0.206561774,0.096362427,0.984030366
16.374125,-4.512336731,7.826858521,0.140808105,-0.209247321,0.101123169,0.985128999
16.374750,-4.916694641,7.704788208,0.133178711,-0.208759040,0.102588013,0.984396577
16.375376,-5.351570129,7.361465454,0.247619629,-0.205463141,0.106128052,0.982077241
16.376003,-5.595710754,7.376724243,0.560424805,-0.204486579,0.109423950,0.978659272
16.376629,-5.961921692,7.300430298,0.644348145,-0.203876227,0.111865357,0.980002046
16.377254,-6.480720520,7.132583618,0.850341797,-0.202899665,0.115527466,0.978170991
16.377881,-7.014778137,7.071548462,0.934265137,-0.201312751,0.122485474,0.977438569
16.378506,-7.518318176,6.964736938,0.896118164,-0.200580329,0.126269653,0.975973725
16.379132,-7.998970032,6.857925415,0.972412109,-0.199115485,0.127490357,0.969992280
16.380888,-9.471443176,6.209426880,1.544616699,-0.194843024,0.137622193,0.968039155
