time,gyro x,gyro y,gyro z,accel x,accel y,accel z
38.138245,6.593280792,3.053760529,2.257595062,0.027931273,0.119113341,0.978787303
38.176732,-9.291118622,5.258655548,2.722988129,0.018776000,0.170016661,1.064724803
38.191000,-2.134746552,6.677722931,2.875576019,0.023292601,0.166110411,1.076565623
38.206380,4.754596710,7.433032990,2.356777191,0.016334593,0.109958068,1.023220897
38.244663,2.305561066,1.360034943,1.639614105,0.016700804,0.052585021,0.880642772
38.282936,-3.141826630,0.276660919,4.210720062,0.018653929,0.180514708,1.093533397
38.297202,4.838520050,0.307178497,3.562221527,0.015724242,0.123996153,1.055447459
38.312559,8.134418488,-0.844860077,4.088649750,0.037330687,0.136081114,1.011746287
38.350856,-2.020305634,-5.071544647,3.051052094,0.033912718,0.174167052,1.008938670
38.389139,6.051593781,-7.276439667,3.867397308,0.054786742,0.160739318,0.998318553
38.403426,6.631427765,-10.160350800,3.936061859,0.065284789,0.177951232,0.994534373
38.418780,-0.875896454,-13.189220428,3.371486664,0.041359007,0.125094786,1.025784373
38.457090,7.737689972,-7.001781464,3.615627289,0.049293578,0.146701232,1.050686717
38.495384,0.352436066,-0.142955780,2.341518402,0.033546507,0.134005919,1.046536326
38.509645,2.671772003,0.955677032,2.295742035,0.038429320,0.143527403,1.070828319
38.525006,8.691364288,4.999256134,2.593288422,0.044532835,0.125460997,1.049588084
38.563302,7.890277863,5.693531036,-0.954380035,0.050880492,0.112765685,0.953396678
38.601615,3.602558136,0.757312775,1.387844086,0.041725218,0.167697325,1.000515819
38.615884,9.774738312,-1.745128632,0.182399750,0.041725218,0.180270568,1.009915233
38.631235,10.972553253,-3.362560272,-0.977268219,0.045875609,0.158786193,0.985989451
38.669541,2.679401398,-12.510204315,1.586208344,0.049903929,0.171115294,0.930691600
38.707829,5.731159210,-6.696605682,0.586757660,0.044410765,0.151217833,0.923367381
38.722111,2.732807159,-2.828502655,-1.106967926,0.040260375,0.167697325,0.908596873
38.737455,2.679401398,-1.470470428,-0.710239410,0.037208617,0.184543028,0.897976756
38.775754,0.047260284,4.999256134,-0.710239410,0.049415648,0.162082091,0.897610545
38.814047,0.550800323,4.083728790,-2.968540192,0.049415648,0.152926818,0.869534373
38.828320,-1.448101044,2.344226837,-2.396335602,0.037818968,0.131686583,0.883572459
38.843663,-5.392498016,1.161670685,0.212917328,0.056739867,0.146090880,0.895291209
38.881949,-0.853008270,-1.546764374,-1.885166168,0.058448851,0.134982482,0.886868358
38.920225,-10.496562958,3.801441193,-2.793064117,0.068946898,0.124362364,0.933499217
38.951174,-2.256816864,6.670093536,-1.778354645,0.086158812,0.167086974,0.927029490
38.965494,-4.110759735,6.319141388,-4.158725739,0.078102171,0.142184630,0.904568553
39.003650,-10.199016571,1.123523712,-0.809421539,0.068092406,0.205539122,0.995144725
39.041925,-3.248638153,-5.926036835,-2.861728668,0.056739867,0.120211974,0.951321483
39.056204,-7.673686981,-7.314586639,-2.297153473,0.055763304,0.101779357,0.975613475
39.071525,-11.770671844,-7.375621796,-1.686801910,0.051490843,0.169894591,1.012844920
39.109860,-4.637187958,-5.681896210,-3.166904449,0.048683226,0.145968810,1.004910350
39.148140,-6.468242645,-6.391429901,-1.847019196,0.041725218,0.169040099,1.005154490
39.162432,-1.730388641,-7.322216034,-0.725498199,0.032936156,0.183078185,0.977932811
39.177772,-1.402324677,-8.115673065,-0.572910309,0.030616820,0.160128966,0.964627147
39.216075,-7.536357880,-9.992504120,2.059230804,0.046974242,0.165500060,1.006375194
39.254341,-0.509685516,-9.313488007,1.075038910,0.055275023,0.119479552,0.975003123
39.268620,-4.057353973,-8.214855194,0.479946136,0.054298460,0.104464903,0.985989451
39.283932,-6.506389618,-6.116771698,-1.427402496,0.038673460,0.157565489,1.012234569
39.322240,1.908832550,-8.535289764,2.105007172,0.027198851,0.158053771,0.925686717
39.360503,-6.254619598,-3.744029999,-0.054111481,0.040992796,0.193576232,0.973782420
39.374789,-2.394145966,-3.209972382,0.197658539,0.034645140,0.200045958,0.974148631
39.390114,0.619464874,-3.293895721,2.326259613,0.035987914,0.167819396,0.915921092
39.428428,-8.291667938,1.794910431,2.700099945,0.071266234,0.163058653,0.985623240
39.482335,-0.647014618,14.032459259,-3.639926910,0.069313109,0.093356505,0.926663280
39.496663,-5.384868622,16.031360626,-2.930393219,0.076515257,0.072116271,0.950466990
39.512027,-6.750530243,18.259143829,-4.944553375,0.077125609,0.155734435,0.980008006
39.550336,1.306110382,16.557788849,-5.165805817,0.067970335,0.100314513,0.924710155
39.588626,-8.978313446,7.021045685,-2.869358063,0.024147093,0.173190489,0.944851756
39.602918,-5.003398895,3.175830841,-0.893344879,0.024269164,0.190158263,0.946560740
39.618242,0.085407257,-3.637218475,0.746974945,0.049781859,0.149997130,0.914944530
39.656528,-11.702007294,-10.358715057,2.372035980,0.057106078,0.075168028,0.925320506
39.694825,-4.309123993,-15.096569061,-0.206699371,0.073097289,0.162570372,0.954495311
39.709120,-3.424114227,-15.134716034,-1.038303375,0.079078734,0.086276427,0.894192576
39.724469,-12.220806122,-11.922740936,-2.228488922,0.090187132,0.006442443,0.910183787
39.780707,-3.858989716,8.195972443,-11.902561188,0.105690062,0.054904357,0.929837108
39.819093,-15.448040009,10.736560822,-10.796298981,0.036476195,0.122775450,1.028347850
39.833411,-8.619731903,10.988330841,-7.920017242,0.050636351,0.132663146,1.021878123
39.848748,-3.988689423,9.454822540,-11.070957184,0.100196898,0.021701232,0.969265819
39.887075,-14.219707489,0.345325470,-8.553256989,0.033668578,0.063449278,1.023098826
39.925371,-3.187602997,-12.349987030,-7.157077789,0.065651000,0.109225646,0.994412303
39.939658,-2.317852020,-15.157604218,-6.493320465,0.057716429,0.087008849,0.945584178
39.954992,-19.545024872,-18.613719940,-3.182163239,0.047950804,0.001315489,0.990506053
39.993298,-3.752178192,-14.013195038,-4.372348785,0.100685179,0.158419982,1.085965037
40.031611,-9.832805634,-11.228466034,-7.683506012,0.052589476,0.002536193,0.921536326
40.045912,-14.715618134,-13.524913788,-2.281894684,0.066993773,0.124728575,1.039822459
40.061223,-9.214824677,-13.822460175,-0.672092438,0.076271117,0.142794982,1.057400584
40.099527,-4.316753387,-10.381603241,-5.417575836,0.092140257,-0.037136659,0.963162303
40.137847,-1.112407684,-11.579418182,-0.847568512,0.091529906,0.045382872,1.088162303
40.152133,1.367145538,-11.327648163,-1.549472809,0.111183226,-0.001858339,1.061917186
40.167469,-0.715679169,-10.351085663,-3.578891754,0.109352171,0.009494200,1.024075389
40.205782,-6.460613251,-9.382152557,-1.564731598,0.079322875,0.051120177,1.053738475
40.244064,1.100116730,-1.630687714,-3.983249664,0.129005492,0.016330138,1.006619334
40.258351,-1.951641083,-0.135326385,-5.898227692,0.115577757,-0.005520448,0.984768748
40.273646,-5.667156219,-1.005077362,-4.761447906,0.080421507,0.047335997,1.016629100
40.311969,-1.562541962,-1.859569550,-1.511325836,0.108741820,0.039767638,0.993435740
40.350257,-2.058452606,-0.753307343,-4.334201813,0.111427367,0.039157286,0.972561717
40.364528,-2.317852020,-1.333141327,-4.303684235,0.094093382,0.048678771,0.961575389
40.379863,-2.142375946,-0.783824921,-3.044834137,0.094581664,0.060519591,0.952542186
40.418187,-7.688945770,8.218860626,-4.379978180,0.100441039,0.055514708,0.954007030
40.456458,-10.977214813,11.499500275,-3.350009918,0.095680296,-0.007351503,0.996609569
40.470742,-11.503643036,14.330005646,-3.342380524,0.112159789,-0.001247987,1.032620311
40.486070,-6.597942352,20.982837677,-8.400669098,0.115943968,-0.004421815,1.089383006
40.524415,2.809101105,17.145252228,-4.265537262,0.077247679,0.014987364,1.030056834
40.562703,-3.637737274,11.858081818,-3.388156891,0.093360960,0.039767638,1.034329295
40.594345,6.669574738,9.157276154,-4.738559723,0.092750609,0.028415099,0.984524608
40.608667,3.755146027,8.424854279,-4.280796051,0.087013304,-0.004299745,0.941067576
40.646873,-0.379985809,10.019397736,-4.654636383,0.105690062,0.094821349,0.994778514
40.685175,-2.256816864,8.028125763,-2.388706207,0.092872679,0.078463927,1.013333201
40.699462,1.870685577,6.914234161,-1.503696442,0.085548460,0.075900450,1.004788280
40.714791,2.061420441,7.135486603,-3.594150543,0.117897093,-0.006130800,0.935452342
40.753119,2.221637726,3.625965118,-1.648654938,0.077125609,0.092868224,1.006131053
40.791438,-7.635540009,-0.509166718,0.563869476,0.097389281,0.022189513,1.004422069
40.818361,-2.577251434,-1.668834686,-1.686801910,0.084327757,0.029757872,1.076443553
40.832674,2.511554718,-6.032848358,1.700649261,0.061256468,-0.016262636,1.035549998
40.870872,-7.231182098,-9.328746796,2.112636566,0.081886351,-0.033840761,1.025784373
40.909176,2.915912628,-7.589244843,4.134426117,0.093971312,0.007296935,1.045681834
40.923464,-1.463359833,-5.147838593,2.913722992,0.088966429,-0.050076112,0.975125194
40.938824,-6.155437469,-3.759288788,3.150234222,0.085914671,-0.043972597,0.977200389
40.977159,-6.628459930,3.168201447,2.486476898,0.086402953,-0.073635682,1.046414256
41.015457,1.710468292,3.030872345,3.089199066,0.098609984,-0.082180604,0.988186717
41.029737,-2.577251434,2.840137482,1.944789886,0.097389281,-0.048733339,1.007229686
41.045106,-0.479167938,2.000904083,1.731166840,0.101295531,-0.014309511,1.028347850
41.083462,0.154071808,-1.806163788,1.807460785,0.096046507,-0.092312440,0.965359569
41.084238,0.154071808,-1.806163788,1.807460785,0.096046507,-0.092312440,0.965359569
41.122272,-1.356548309,-2.149486542,-0.649204254,0.103492796,-0.050686464,0.994534373
41.136563,-0.090068817,-2.370738983,-0.458469391,0.088966429,-0.050930604,0.988552928
41.151908,-0.502056122,-3.629589081,1.113185883,0.094459593,-0.063625917,0.944241405
41.190260,1.199298859,1.314258575,-0.130405426,0.094093382,-0.002102479,0.971829295
41.228534,-2.867168427,5.693531036,-2.228488922,0.091407835,0.002536193,0.917752147
41.242840,-3.851360321,5.228137970,-2.197971344,0.088478148,0.002169982,0.918972850
41.258199,-6.918376923,4.877185822,-0.527133942,0.092506468,-0.004910097,0.953518748
41.296508,-2.859539032,8.585071564,-2.800693512,0.121681273,-0.010647401,0.977688670
41.334821,-4.209941864,11.682605743,-7.698764801,0.092018187,-0.044094667,0.916653514
41.349117,-8.634990692,9.355640411,-5.783786774,0.082740843,0.015963927,0.978054881
41.364484,-5.423015594,8.264636993,-4.753818512,0.088600218,0.021579161,0.998684764
41.414547,-5.552715302,5.197620392,-9.232273102,0.075416625,-0.026882753,0.964016795
41.452913,-2.531475067,-4.949474335,-5.921115875,0.072242796,-0.002468690,1.038113475
41.467210,-0.624126434,-9.977245331,-4.082431793,0.090187132,-0.023830995,1.026272655
41.482534,0.596576691,-12.342357635,-5.707492828,0.105323851,-0.015896425,1.008938670
41.520881,-5.888408661,-15.226268768,-4.372348785,0.066017210,-0.015774354,1.071438670
41.559188,3.160053253,-13.448619843,-4.349460602,0.082862914,-0.055935487,1.012600780
41.573477,2.145343781,-13.807201385,-4.616489410,0.082130492,-0.057278261,0.983059764
41.588821,-4.583782196,-13.288402557,-4.143466949,0.055152953,-0.029934511,1.000882030
41.627169,-4.431194305,-11.663341522,-1.282444000,0.080055296,-0.075832948,0.960598826
41.665443,-9.878582001,-16.225719452,-0.275363922,0.095680296,-0.110745057,1.035427928
41.679738,-7.666057587,-16.630077362,-0.366916656,0.096778929,-0.117458925,1.052517772
41.695097,-1.738018036,-11.640453339,-3.029575348,0.122779906,-0.094997987,1.059231639
41.733456,1.100116730,-1.630687714,-7.691135406,0.100807250,-0.110745057,0.976101756
41.771736,-0.112957001,9.447193146,-6.531467438,0.107521117,-0.045315370,0.977200389
41.786023,-1.867717743,12.613391876,-7.347812653,0.104225218,-0.068752870,0.944729686
41.801386,-4.637187958,13.208484650,-7.256259918,0.110694945,-0.078274354,0.944241405
41.839716,-5.606121063,11.499500275,-6.455173492,0.110206664,-0.068630800,1.013089061
41.878021,-3.515666962,10.416126251,-8.476963043,0.123024046,-0.092190370,0.991482615
41.892320,-3.736919403,9.866809845,-9.247531891,0.108985960,-0.076321229,0.999295115
41.907645,-0.929302216,6.914234161,-7.714023590,0.089576781,-0.063137636,1.012234569
41.945949,-2.905315399,1.115894318,-5.417575836,0.095069945,-0.084377870,0.975857615
41.984225,-0.959819794,1.451587677,-7.164707184,0.089576781,-0.078640565,1.000515819
41.998511,-0.547832489,1.184558868,-6.294956207,0.076881468,-0.083523378,0.994534373
42.013839,-0.120586395,0.642871857,-4.090061188,0.099830687,-0.071072206,0.981716990
42.052157,-2.355998993,-0.272655487,-6.455173492,0.087623656,-0.094509706,0.971707225
42.102347,-2.256816864,5.098438263,-6.699314117,0.113014281,-0.111599550,1.011624217
42.116682,-1.120037079,5.212879181,-7.012119293,0.115821898,-0.091824159,1.027005076
42.132029,1.489215851,6.036853790,-9.484043121,0.135109007,-0.084377870,1.035672069
42.170339,1.893573761,7.585620880,-9.293308258,0.095192015,-0.093411073,1.028836131
42.208636,-3.355449677,12.033557892,-12.581577301,0.079322875,-0.145657167,0.984158397
42.222950,-4.499858856,5.914783478,-7.836093903,0.069801390,-0.112454042,1.025051951
42.250387,-1.173442841,-0.188732147,-6.996860504,0.080909789,-0.125515565,1.021145701
42.288789,-2.066082001,-7.993602753,-8.179416656,0.089698851,-0.131130800,1.009793162
42.327074,2.534442902,-11.457347870,-7.805576324,0.092994750,-0.093777284,0.980740428
42.341377,-2.249187469,-8.794689178,-7.599582672,0.096046507,-0.088162050,0.967434764
42.356693,-3.019756317,-6.635570526,-7.668247223,0.110450804,-0.063381776,0.971096873
42.395045,-6.613201141,4.785633087,-11.856784821,0.101295531,-0.059231386,1.012234569
42.433331,-3.050273895,13.574695587,-15.907993317,0.144874632,-0.073391542,0.975125194
42.447643,-5.094951630,14.917469025,-17.716159821,0.122535765,-0.085964784,0.981716990
42.463000,-3.118938446,16.336536407,-18.097629547,0.128273070,-0.012234315,1.014309764
42.501327,-2.493328094,14.856433868,-18.875827789,0.109108031,-0.061916932,0.944607615
42.539630,-2.088970184,13.940906525,-22.072544098,0.117286742,-0.042629823,0.971341014
42.553942,-3.004497528,11.087512970,-23.056735992,0.100318968,-0.050564393,0.975491405
42.569287,-3.134197235,8.577442169,-23.316135406,0.093605101,-0.055203065,0.976834178
42.607643,-1.509136200,-4.545116425,-20.478000641,0.085060179,-0.069973573,0.962796092
42.645923,-0.990337372,-8.932018280,-20.745029449,0.076515257,-0.057766542,0.981839061
42.660231,-4.591411591,-10.160350800,-20.615329742,0.075782835,-0.097073182,0.977322459
42.675590,-5.514568329,-10.793590546,-20.905246735,0.087257445,-0.083157167,0.988308787
42.713913,-3.218120575,-8.893871307,-25.093784332,0.081276000,-0.101589784,1.022122264
42.752220,-4.728740692,-1.981639862,-28.450717926,0.112526000,-0.129299745,1.008206248
42.766519,-5.590862274,0.330066681,-29.976596832,0.093360960,-0.130154237,1.019436717
42.781870,-3.073162079,3.259754181,-30.319919586,0.088111937,-0.102688417,1.025906444
42.820202,-5.499309540,-0.059032440,-27.886142731,0.102272093,-0.131130800,0.994900584
42.858482,-4.217571259,-0.097179413,-31.052341461,0.094459593,-0.133694276,1.008816600
42.872816,-5.316204071,-1.127147675,-30.564060211,0.084449828,-0.179104432,0.997219920
42.888169,-8.184856415,-1.241588593,-28.504123688,0.105934203,-0.140408143,1.030300975
42.926481,-8.017009735,-0.120067596,-31.082859039,0.073219359,-0.198025331,1.023342967
42.964787,-1.844829559,-0.516796112,-30.045261383,0.088478148,-0.157253847,1.044216990
42.979100,-4.553264618,-2.927684784,-29.106845856,0.089942992,-0.189602479,1.022610545
42.994448,-5.293315887,-2.904796600,-29.190769196,0.094459593,-0.134914979,1.043728709
43.032762,1.763874054,-3.003978729,-27.794589996,0.084816039,-0.086330995,1.031887889
43.084453,-1.043743134,-2.675914764,-29.206027985,0.093238890,-0.062649354,0.946316600
43.098823,-1.890605927,-2.103710175,-30.388584137,0.084938109,-0.012112245,0.959500194
43.114191,-0.563091278,-0.730419159,-29.389133453,0.075660765,-0.007229432,0.946926951
43.152502,-8.001750946,8.913135529,-31.273593903,0.090065062,-0.037747011,0.913723826
43.190827,-1.333660126,4.823780060,-31.861057281,0.023292601,-0.057766542,0.896511912
43.205130,-5.598491669,1.367664337,-26.573886871,0.015235960,-0.080593690,0.875637889
43.220470,-8.673137665,-0.860118866,-28.389682770,0.084205687,-0.018215761,0.899319530
43.258782,-8.268779755,-2.538585663,-23.659458160,0.102760375,-0.028103456,0.944241405
43.297078,-6.239360809,-16.408824921,-22.667636871,0.039039671,-0.071438417,0.985989451
43.311384,-9.298748016,-18.278026581,-22.766819000,0.050880492,-0.036892518,1.007473826
43.326718,-4.728740692,-14.326000214,-24.628391266,0.099952757,-0.043606386,0.993557811
43.378791,-8.993572235,13.483142853,-30.884494781,0.115821898,-0.051052675,1.016995311
43.417162,-2.851909637,10.500049591,-28.595676422,0.054786742,-0.057400331,1.049954295
43.431469,-2.401775360,7.570362091,-27.252902985,0.078468382,-0.069241151,1.040310740
43.446826,-3.912395477,3.801441193,-27.733554840,0.092872679,-0.058865175,1.053494334
43.485148,0.436359406,-0.661754608,-29.663791656,0.073707640,-0.072292909,1.093899608
43.523452,2.679401398,3.137683868,-30.251255035,0.090309203,-0.073513612,1.066677928
43.537760,2.931171417,8.012866974,-31.632175446,0.078956664,-0.063137636,1.054348826
43.553111,3.968769073,10.065174103,-31.944980621,0.070411742,-0.060085878,1.041897655
43.591468,1.534992218,15.794849396,-28.084506989,0.064796507,-0.078884706,0.961941600
43.629760,-6.323284149,20.494556427,-27.191867828,0.098121703,-0.109768495,0.943264842
43.644075,-8.276409149,20.959949493,-28.496494293,0.091529906,-0.076443300,1.002591014
43.659422,-6.414836884,19.960498810,-27.924289703,0.082374632,-0.064846620,1.021023631
43.697756,-2.798503876,15.520191193,-27.611484528,0.110817015,-0.096951112,1.008084178
43.736056,1.740985870,13.231372833,-30.960788727,0.118751585,-0.081570253,1.033474803
43.750363,3.358417511,12.598133087,-31.830539703,0.117775023,-0.084744081,1.027859569
43.765714,5.708271027,11.339282990,-32.639255524,0.108619750,-0.098904237,0.988186717
43.804067,3.167682648,14.856433868,-34.828891754,0.120338500,-0.084011659,0.935696483
43.842373,-0.776714325,14.940357208,-37.865390778,0.097145140,-0.068874940,0.914090037
43.856681,-1.646465302,12.491321564,-37.728061676,0.081520140,-0.069973573,0.919949412
43.885986,-3.889507294,-0.707530975,-35.858860016,0.051002562,-0.081081972,0.900662303
43.924396,-9.840435028,-20.292186737,-33.959140778,-0.002952516,-0.106106386,0.927517772
43.962682,-6.048625946,-40.204906464,-29.221286774,0.011329710,-0.079250917,0.970730662
43.977006,-6.155437469,-42.196178436,-28.938999176,0.020362914,-0.093166932,0.961575389
43.992343,-8.161968231,-41.311168671,-28.351535797,0.031959593,-0.095242128,0.958157420
44.030667,-9.115642548,-31.064891815,-29.740085602,0.056129515,-0.082058534,0.968289256
44.068958,-9.268230438,-15.767955780,-32.601108551,0.011207640,-0.058376893,0.969754100
44.083260,-9.680217743,-12.349987030,-30.411472321,0.000831664,-0.053982362,0.963772655
44.098604,-9.657329559,-10.801219940,-29.473056793,0.004493773,-0.064846620,0.958767772
44.136924,-12.724346161,2.801990509,-29.152622223,0.054420531,-0.086575136,1.014798045
44.175213,-8.207744598,18.823719025,-34.790744781,0.067115843,-0.118679628,1.002468944
44.189510,-7.780498505,20.158863068,-35.156955719,0.051246703,-0.125881776,0.988064647
44.204869,-9.733623505,19.235706329,-34.409275055,0.030372679,-0.118923768,0.975125194
44.243216,-7.559246063,9.882068634,-30.304660797,0.027931273,-0.095608339,1.019924998
44.281486,-9.436077118,6.586170197,-30.403842926,0.025123656,-0.116116151,1.006253123
44.295815,-9.787029266,4.098987579,-29.244174957,0.013893187,-0.095608339,1.024807811
44.311177,-7.246440887,-1.867198944,-25.833835602,0.009986937,-0.065945253,1.051174998
44.349492,-4.293865204,-2.508068085,-22.736301422,0.035011351,-0.095364198,1.029934764
44.387786,-5.377239227,0.825977325,-22.415866852,0.046730101,-0.106716737,1.037503123
44.402102,-4.156536102,0.841236115,-22.331943512,0.048561156,-0.102444276,1.071926951
44.417447,-2.706951141,0.658130646,-22.148838043,0.045997679,-0.103787050,1.082791209
44.455762,2.061420441,-1.623058319,-21.576633453,0.028053343,-0.082058534,1.050930858
44.494051,1.832538605,-2.729320526,-18.303623199,0.011207640,-0.075710878,1.045071483
44.508362,2.183490753,-1.684093475,-16.960849762,0.022682250,-0.081326112,1.039456248
44.523694,0.421100616,4.877185822,-17.166843414,0.052467406,-0.083767518,1.060330272
44.562056,6.349140167,19.632434845,-16.915073395,0.096778929,-0.066799745,1.100491405
44.600335,8.790546417,33.952808380,-21.691074371,0.099708617,-0.090969667,1.068264842
44.614645,11.498981476,35.257434845,-23.903598785,0.083961546,-0.070339784,1.050076365
44.644183,12.658649445,35.242176056,-18.028964996,0.091285765,-0.060330018,0.964627147
44.701298,2.206378937,26.010608673,-20.302524567,0.078956664,-0.039455995,1.014553905
44.739689,12.002521515,11.156177521,-20.706882477,0.065040648,-0.071926698,0.923977733
44.753997,6.715351105,6.792163849,-21.256198883,0.055152953,-0.118923768,0.905667186
44.769338,-0.097698212,-0.730419159,-18.219699860,0.046119750,-0.023342714,1.015286326
44.807669,10.308795929,-12.823009491,-19.341220856,0.028419554,-0.070339784,0.926052928
44.845967,4.891925812,-23.404979706,-18.891086578,0.043067992,0.000583068,0.933621287
44.860252,4.861408234,-30.034923553,-15.358676910,-0.006736696,-0.016384706,0.929592967
44.875603,4.190021515,-32.956981659,-12.039890289,0.008888304,0.001193419,0.932522655
44.913933,1.534992218,-34.124279022,-14.343967438,0.027320921,-0.005764589,0.878567576
44.952234,-0.471538544,-29.912853241,-12.711277008,0.052345335,0.051242247,0.962063670
44.966526,0.871234894,-25.037670135,-13.306369781,0.051857054,0.006808653,0.921414256
44.981871,-2.066082001,-22.024059296,-13.771762848,0.061500609,-0.015164003,0.901394725
45.020214,-5.964702606,-9.580516815,-15.213718414,0.062965453,0.032809630,1.013455272
45.058480,-2.874797821,-4.369640350,-13.138523102,0.062843382,-0.012234315,0.940457225
45.072788,-6.781047821,-4.461193085,-13.458957672,0.066749632,-0.025784120,0.950711131
45.088130,-6.987041473,-5.536937714,-13.725986481,0.068458617,0.048434630,1.016018748
45.126459,-1.127666473,-13.532543182,-6.767978668,0.071266234,0.043307677,0.961209178
45.164738,-9.291118622,-17.675304413,-3.906955719,0.065162718,0.025241271,0.969509959
45.179040,-8.268779755,-17.347240448,-3.845920563,0.081520140,0.061129943,1.019680858
45.194369,2.091938019,-14.867687225,-4.494419098,0.084449828,0.036837950,1.026638865
45.232702,0.535541534,-11.297130585,-7.004489899,0.102760375,-0.008816347,0.930325389
45.271022,-0.441020966,-8.260631561,-2.640476227,0.086402953,0.025485411,0.976345897
45.285303,-2.386516571,-3.217601776,-3.372898102,0.101905882,-0.002590761,0.956814647
45.300624,-3.813213348,-0.554943085,-4.021396637,0.117164671,0.003878966,0.970242381
45.338943,-5.201763153,12.659168243,-8.126010895,0.099708617,-0.052395448,0.979641795
45.377244,3.144794464,29.665088654,-8.629550934,0.112648070,-0.016384706,1.062161326
45.391531,2.770954132,31.625843048,-10.430088043,0.102760375,-0.077664003,1.005276561
45.406883,-8.993572235,30.473804474,-10.399570465,0.055275023,-0.087551698,1.021878123
45.445243,0.344806671,20.021533966,-0.931491852,0.100807250,-0.046047792,1.067898631
45.499269,2.053791046,-2.988719940,1.784572601,0.036232054,-0.014187440,1.046048045
45.513605,0.085407257,-14.455699921,9.009609222,0.091896117,-0.031521425,1.030300975
45.528993,-0.654644012,-18.064403534,6.163845062,0.109230101,-0.000149354,1.044461131
45.567331,0.237995148,-33.910655975,8.803615570,0.072975218,-0.057644472,1.037991405
45.605647,7.905536652,-22.977733612,3.020534515,0.143165648,0.019137755,1.024319530
45.619953,6.341510773,-17.537975311,0.083217621,0.125221312,-0.028103456,0.986477733
45.635311,-2.882427216,-8.565807343,1.097927094,0.071510375,-0.032375917,0.993435740
45.673660,2.488666534,17.313098907,-1.770725250,0.170509398,0.033297911,1.094387889
45.711952,0.497394562,36.081409454,-7.141819000,0.163429320,-0.030300722,1.031643748
45.726250,-0.250286102,38.217639923,-10.369052887,0.147682250,0.009860411,1.065213084
45.741617,8.119159698,38.889026642,-9.209384918,0.113014281,0.031222716,1.054592967
45.779949,5.738788605,35.593128204,-12.345066071,0.129127562,0.005710021,1.000515819
45.818246,8.164936066,19.754505157,-11.109104156,0.087257445,0.012545958,0.959988475
45.832552,3.732257843,9.286975861,-10.437717438,0.081520140,0.020968810,0.950711131
45.847905,3.060871124,4.648303986,-10.201206207,0.072364867,0.054660216,0.967190623
45.886241,3.282123566,-8.298778534,-9.461154938,0.057716429,0.021701232,0.923611522
45.924512,2.198749542,-12.319469452,-7.561435699,0.079200804,0.066256896,0.964138865
45.938833,2.526813507,-11.937999725,-9.026279449,0.066993773,0.039889708,0.956326365
45.970120,-0.151103973,-6.536388397,-8.049716949,0.070167601,0.007785216,0.931790233
46.008491,-2.279705048,-1.279735565,-7.355442047,0.062721312,0.047091857,1.017361522
46.046797,1.885944366,-0.364208221,-6.355991364,0.091774046,-0.011135682,0.963284373
46.061108,-3.561443329,-2.302074432,-7.698764801,0.071876585,-0.066555604,0.979397655
46.076475,-4.721111298,-4.415416718,-5.722751617,0.065162718,-0.029324159,1.024807811
46.114795,2.664142609,-13.288402557,-4.807224274,0.083351195,-0.053249940,0.980496287
46.153100,1.786762238,-20.124340057,-3.777256012,0.083229125,-0.036038026,0.962307811
46.167428,1.161151886,-19.941234589,-4.082431793,0.088966429,-0.033352479,0.955471873
46.182795,-0.753826141,-17.301464081,-4.853000641,0.083717406,-0.012112245,0.935330272
46.221117,-6.582683563,-10.221385956,-5.768527985,0.089454710,-0.030178651,0.929592967
46.259430,0.367694855,-1.493358612,-10.002841949,0.103981078,-0.017971620,0.983059764
46.273731,1.267963409,1.024341583,-10.544528961,0.102516234,-0.028591737,0.962674022
46.289107,0.398212433,2.489185333,-11.460056305,0.092628539,-0.028957948,0.939968944
46.327444,-0.875896454,1.825428009,-11.017551422,0.096168578,-0.045071229,0.896145701
46.381894,-8.039897919,-3.141307831,-7.004489899,0.071388304,-0.041897401,0.887600780
46.396220,-11.618083954,-4.728221893,-5.425205231,0.070045531,-0.037258729,0.899685740
46.411590,-12.182659149,-5.254650116,-4.402866364,0.103370726,-0.005154237,0.967678905
46.449898,0.176959991,3.816699982,-8.103122711,0.090675414,-0.061550722,0.983792186
46.488191,-6.445354462,14.291858673,-11.193027496,0.092506468,-0.029812440,1.011258006
46.502493,-4.866069794,16.496753693,-11.208286285,0.092262328,-0.021023378,1.012844920
46.517855,-3.210491180,16.817188263,-10.750522614,0.077980101,-0.031399354,1.007840037
46.556165,-2.561992645,11.575794220,-9.613742828,0.084449828,-0.010403261,1.010037303
46.594459,-2.523845673,2.336597443,-8.316745758,0.064918578,0.013034239,1.042752147
46.608751,0.855976105,-1.806163788,-6.539096832,0.052955687,-0.026150331,1.021756053
46.624097,-0.311321259,-4.033946991,-5.257358551,0.055152953,-0.027493104,1.010159373
46.662430,-4.095500946,-8.573436737,-5.196323395,0.067359984,-0.044582948,1.051541209
46.700702,3.663593292,-11.243724823,-3.266086578,0.051002562,-0.052517518,1.014431834
46.715016,-0.753826141,-11.419200897,-1.656284332,0.050636351,-0.084499940,0.993313670
46.730369,-8.139080048,-10.534191132,0.197658539,0.059425414,-0.020657167,1.061795115
46.768654,1.565509796,-7.329845428,1.601467133,0.070655882,-0.038845643,1.047024608
46.806926,-2.905315399,2.084827423,0.930080414,0.081153929,-0.070705995,1.017361522
46.821218,-3.523296356,4.724597931,0.632534027,0.079322875,-0.079739198,1.031887889
46.836578,-1.829570770,8.836841583,-0.160923004,0.069557250,-0.075710878,1.029324412
46.874887,-8.825725555,8.134937286,3.455410004,0.101295531,-0.047878847,1.012478709
46.913196,-1.203960419,6.898975372,2.326259613,0.099586546,-0.023953065,1.087063670
46.927482,4.098468781,5.251026154,-0.298252106,0.091163695,-0.097439393,1.034939647
46.942834,2.786212921,4.198169708,-0.511875153,0.081642210,-0.114040956,1.014920115
46.981132,-0.303691864,-2.126598358,-0.473728180,0.072120726,-0.104153261,1.026028514
47.019440,2.870136261,-1.569652557,0.403652191,0.097145140,-0.065945253,1.000882030
47.033737,0.443988800,-0.104808807,-1.908054352,0.071022093,-0.074001893,0.969754100
47.049089,-1.989788055,0.726795197,-1.183261871,0.060890257,-0.059963807,0.983548045
47.087407,3.243976593,5.327320099,-1.312961578,0.072120726,-0.009304628,0.974881053
47.125696,-0.883525848,6.731128693,-3.754367828,0.068214476,-0.020168886,0.946072459
47.140013,0.306659698,8.005237579,-3.769626617,0.065040648,0.023166075,0.971707225
47.155374,4.350238800,10.423755646,-4.875888824,0.057350218,0.003878966,0.959744334
47.193672,2.641254425,9.050464630,-4.936923981,0.065040648,-0.005886659,0.905789256
47.231955,-2.775615692,2.451038361,-1.099338531,0.049537718,0.052096739,0.992581248
47.246244,4.060321808,-1.386547089,-1.152744293,0.071632445,0.015841857,0.977688670
47.273132,-0.944561005,-7.047557831,-0.092258453,0.060401976,-0.008083925,0.960598826
47.311485,0.321918488,-5.689525604,-2.243747711,0.061866820,-0.016506776,1.004910350
47.361570,1.016193390,-4.186534882,-0.893344879,0.067115843,-0.081081972,0.995633006
47.375908,-1.112407684,-6.490612030,1.654872894,0.078834593,-0.042629823,1.043728709
47.391262,2.076679230,-6.826305389,1.799831390,0.089332640,-0.041164979,1.059231639
47.429546,1.824909210,-5.109691620,0.075588226,0.068092406,-0.051296815,1.014187694
47.467835,-3.881877899,-8.382701874,2.150783539,0.061256468,-0.124539003,0.951077342
47.482129,-5.384868622,-7.833385468,4.683742523,0.090065062,-0.029324159,0.991238475
47.497458,-3.599590302,-7.116222382,3.592739105,0.098243773,-0.041653261,0.986355662
47.535743,-3.134197235,-4.880809784,1.769313812,0.102150023,-0.019070253,0.997952342
47.574047,-2.211040497,2.145862579,-2.106418610,0.107887328,-0.031155214,1.003079295
47.588345,1.267963409,4.053211212,-2.785434723,0.104835570,-0.019314393,1.002468944
47.603676,3.343158722,6.616687775,-4.082431793,0.103370726,-0.089626893,0.945584178
47.641996,-2.447551727,13.246631622,-3.487339020,0.084816039,-0.079250917,0.946316600
47.680274,-2.424663544,16.016101837,-2.777805328,0.091407835,-0.020901307,0.947903514
47.694574,-2.325481415,15.375232697,-3.067722321,0.093116820,-0.026760682,0.939602733
47.709926,-4.064983368,13.490772247,-3.769626617,0.091407835,-0.051174745,0.949978709
47.748241,-2.424663544,9.508228302,-3.266086578,0.092628539,-0.031887636,0.989529490
47.786522,-1.440471649,2.893543243,-2.358188629,0.074317992,-0.060696229,0.952420115
47.800840,-1.715129852,0.459766388,-1.251926422,0.085914671,-0.043118104,0.966214061
47.816184,-3.073162079,1.558399200,-1.709690094,0.071754515,-0.060085878,0.975979686
47.854470,3.625446320,1.695728302,-0.725498199,0.077735960,-0.054226503,0.953396678
47.892748,-3.622478485,-0.181102753,0.754604340,0.071388304,-0.027248964,1.015408397
47.907047,-0.784343719,0.215625763,0.548610687,0.082008421,-0.009914979,1.033963084
47.922388,4.403644562,-0.829601288,-0.260105133,0.079933226,-0.050076112,1.001980662
47.960661,-4.408306122,-0.898265839,-1.076450348,0.067359984,-0.117092714,1.028591990
47.998940,4.159503937,0.795459747,1.258144379,0.070289671,-0.103298768,1.079983592
48.013237,4.922443390,-0.219249725,2.799282074,0.070411742,-0.133205995,1.051663280
48.028593,0.207477570,-2.874279022,2.547512054,0.085792601,-0.157742128,1.020535350
48.066879,-1.455730438,-2.477550507,4.248867035,0.059303343,-0.105984315,1.086575389
48.105164,4.830890656,-3.835582733,5.065212250,0.079933226,-0.053738222,0.945828319
48.119463,-7.605022430,-5.910778046,5.286464691,0.076393187,-0.055813417,0.929959178
48.146761,-4.507488251,-3.553295135,4.309902191,0.102516234,0.045627013,1.018093944
48.185167,-2.386516571,2.542591095,-0.061740875,0.082984984,-0.074246034,0.956082225
48.223453,-6.094402313,7.303333282,-0.061740875,0.065284789,-0.077175722,1.007595897
48.237757,-3.241008759,11.034107208,-0.435581207,0.094947875,-0.060574159,1.028714061
48.253123,-1.585430145,12.369251251,-3.044834137,0.094825804,-0.059841737,1.013577342
48.291445,-6.094402313,9.592151642,-3.037204742,0.060279906,-0.065456972,1.021145701
48.341917,2.557331085,6.364917755,-2.243747711,0.057350218,-0.044094667,1.001980662
48.356239,-2.294963837,1.054859161,-1.465549469,0.060524046,-0.061062440,0.996731639
48.371615,-3.607219696,0.215625763,-1.671543121,0.067726195,-0.029812440,1.025051951
48.409928,8.355670929,-1.417064667,-3.494968414,0.053321898,-0.014309511,1.042141795
48.448235,2.427631378,-5.094432831,-0.962009430,0.024269164,-0.021389589,0.988797069
48.462526,0.871234894,-6.055736542,0.052700043,0.025856078,0.006320372,1.013821483
48.477863,5.677753448,-8.458995819,0.106105804,0.031227171,0.071017638,1.031277537
48.516173,3.190570831,-13.173961639,0.502834320,0.059303343,-0.012844667,0.958401561
48.554456,4.136615753,-10.633373260,1.532802582,0.046485960,0.044162169,1.061795115
48.568763,7.829242706,-8.672618866,0.861415863,0.047706664,-0.013210878,1.051419139
48.597655,3.716999054,-3.980541229,0.235805511,0.053810179,-0.043972597,1.031155467
48.636069,7.005268097,-0.699901581,1.189479828,0.052345335,-0.054348573,1.034817576
48.674358,6.135517120,2.595996857,0.533351898,0.073097289,-0.014187440,1.014187694
48.688661,5.380207062,2.779102325,0.289211273,0.064308226,-0.058498964,0.992215037
48.704046,-0.059551239,0.856494904,3.051052094,0.055885375,-0.032742128,1.004666209
48.742374,0.550800323,-1.058483124,4.599819183,0.078712523,-0.067654237,0.986233592
48.780661,0.993305206,0.162220001,4.027614594,0.094093382,-0.058865175,1.009182811
48.794960,-1.783794403,1.108264923,3.951320648,0.080299437,-0.106838807,0.998928905
48.810306,-2.943462372,2.267932892,5.004177094,0.089454710,-0.097561464,1.017239451
48.848673,5.174213409,11.392688751,1.830348969,0.091651976,-0.087429628,1.034451365
48.886992,3.755146027,14.741992950,0.136623383,0.095192015,-0.068142518,0.977566600
48.901297,2.336078644,14.436817169,-0.565280914,0.093483031,-0.058010682,0.989529490
48.916660,5.273395538,11.552906036,-0.839939117,0.069923460,-0.019924745,1.023465037
48.955007,8.302265167,7.417774200,0.014553070,0.111183226,-0.022732362,0.958767772
48.993293,7.394367218,6.464099884,0.067958832,0.102638304,-0.018581972,0.931301951
49.007603,6.707721710,7.951831818,-1.099338531,0.102760375,-0.009792909,0.928982615
49.022967,6.738239288,14.535999298,-1.297702789,0.109230101,-0.006985292,0.941189647
49.061297,6.082111359,21.661853790,-7.492771149,0.101417601,-0.042751893,0.897854686
49.099625,5.776935577,15.344715118,-5.005588531,0.077613890,0.023288146,0.940579295
49.113936,5.113178253,8.371448517,-3.189792633,0.062110960,-0.031765565,0.920315623
49.129296,3.160053253,4.625415802,-1.702060699,0.062843382,-0.021633729,0.924588084
49.167643,0.291400909,-5.842113495,-0.420322418,0.045265257,-0.059963807,0.930935740
49.219685,0.161701202,-8.840465546,-1.152744293,0.059913695,-0.041531190,1.003811717
49.234020,-3.920024872,-9.527111053,0.617275238,0.054908812,-0.106106386,1.002224803
49.249378,-6.117290497,-10.053539276,1.021633148,0.045143187,-0.062649354,1.032986522
49.287707,0.070148468,-11.953258514,4.889736176,0.049781859,-0.096829042,0.977200389
49.326025,-6.010478973,-6.620311737,5.271205902,0.060401976,0.014377013,1.007595897
49.340328,-5.758708954,-2.355480194,3.913173676,0.082618773,-0.022732362,1.010769725
49.355655,-5.232280731,-0.631237030,2.471218109,0.080421507,-0.013332948,1.015774608
49.393992,-6.735271454,5.724048615,-1.549472809,0.082740843,-0.117580995,1.030667186
49.432267,-1.280254364,5.251026154,-0.756015778,0.062965453,-0.126247987,0.997464061
49.446567,-3.752178192,4.098987579,-0.176181793,0.066871703,-0.114040956,0.992092967
49.461910,-7.124370575,0.818347931,-0.763645172,0.063453734,-0.110134706,1.009304881
49.500265,1.596027374,-2.836132050,-0.534763336,0.075904906,-0.051418886,1.049221873
49.538544,3.587299347,-6.139659882,-0.504245758,0.082008421,-0.003323182,0.985379100
49.552858,0.466876984,-5.254650116,-2.320041656,0.065162718,-0.006619081,0.986477733
49.568203,1.504474640,-4.499340057,-2.106418610,0.063331664,0.022433653,0.999661326
49.606515,4.128986359,-0.852489471,-3.060092926,0.060768187,0.019503966,0.977200389
49.644836,1.550251007,-3.553295135,-3.121128082,0.050636351,0.005465880,0.950589061
49.659129,3.655963898,-4.667186737,-2.136936188,0.042579710,0.037204161,0.982327342
49.674475,5.303913116,-4.468822479,-1.724948883,0.046485960,0.039889708,0.975857615
49.712792,1.161151886,-6.421947479,-2.014865875,0.063209593,0.033786193,0.947415233
49.751084,4.464679718,-6.811046600,-4.189243317,0.061012328,0.012301818,0.978787303
49.765391,2.389484406,-6.353282928,-3.967990875,0.045387328,0.004855528,0.976101756
49.780724,2.473407745,-4.590892792,-2.701511383,0.063453734,0.017917052,0.990872264
49.819073,-1.142925262,-3.347301483,-3.128757477,0.033790648,-0.002224550,1.107327342
49.857368,5.853229523,-6.147289276,-3.800144196,0.060157835,-0.050686464,1.047146678
49.871663,4.197650909,-8.802318573,-3.380527496,0.045265257,-0.068020448,1.023220897
49.887014,0.329547882,-11.785411835,-1.137485504,0.030616820,-0.084988222,1.026028514
49.939340,1.634174347,-17.507457733,6.201992035,0.070900023,-0.018948182,0.975857615
49.977680,-2.165264130,-16.271495819,9.200344086,0.080665648,0.052096739,1.003079295
49.992002,0.802570343,-13.509654999,8.742580414,0.100318968,0.036715880,0.997586131
50.021521,-0.952190399,-3.385448456,3.249416351,0.110450804,0.013644591,0.952542186
50.059924,2.984577179,8.089160919,0.998744965,0.108131468,-0.019558534,0.955716014
50.098240,4.220539093,20.631885529,-2.938022614,0.115577757,-0.025173768,0.873684764
50.112533,1.557880402,23.012256622,-4.448642731,0.101417601,-0.051785097,0.844265819
50.127887,-8.688396454,24.873828888,-1.656284332,0.079444945,-0.042996034,0.880032420
50.166252,-4.919475555,24.904346466,-3.456821442,0.108985960,-0.030544862,0.918728709
50.204554,-5.072063446,20.967578888,-6.325473785,0.100074828,-0.015530214,0.954251170
50.218868,-2.035564423,14.330005646,-5.638828278,0.075782835,-0.020657167,0.973172069
50.234215,-0.631755829,10.347461700,-4.730930328,0.067726195,-0.006741151,0.968777537
50.272533,0.207477570,-3.011608124,-1.251926422,0.074684203,0.003024474,0.898342967
50.310850,-1.661724091,-10.038280487,2.471218109,0.052345335,0.079928771,0.985623240
50.325155,0.611835480,-11.617565155,2.532253265,0.072731078,0.040744200,0.959378123
50.340503,-0.479167938,-11.487865448,2.242336273,0.072853148,0.050265685,0.944729686
50.378877,-5.590862274,-9.221935272,2.906093597,0.071022093,0.027926818,1.040310740
50.417185,4.846149445,-5.842113495,6.087551117,0.101783812,-0.000881776,1.029934764
50.431475,2.862506866,-4.949474335,4.813442230,0.108619750,-0.053494081,0.986477733
50.446825,-10.633892059,-1.470470428,4.599819183,0.083717406,-0.039578065,1.066311717
50.485166,1.954608917,4.419422150,3.180751801,0.119361937,-0.092678651,1.095120311
50.523457,-5.232280731,3.305530548,4.485378265,0.073219359,-0.069363222,1.125515819
50.537761,-1.837200165,2.542591095,5.721340179,0.076393187,-0.077297792,1.138943553
50.553106,1.000934601,2.725696564,5.858669281,0.080177367,-0.095730409,1.126858592
50.591462,2.450519562,-1.439952850,6.491909027,0.079444945,-0.011990175,1.035305858
50.629759,0.581317902,-1.638317108,4.660854340,0.074440062,-0.004177675,1.044827342
50.644059,4.479938507,-0.883007050,3.546962738,0.073707640,-0.044338807,1.040554881
50.659394,5.136066437,-0.539684296,3.318080902,0.069679320,-0.071682557,1.018948436
50.697722,-1.112407684,1.306629181,5.042324066,0.076393187,-0.049221620,1.020413280
50.736047,1.199298859,-1.790904999,6.201992035,0.078224242,-0.028469667,0.982449412
50.750340,2.389484406,-2.340221405,5.446681976,0.090431273,-0.000759706,0.968289256
50.765657,0.711017609,-2.126598358,3.104457855,0.088234007,-0.030544862,0.930935740
50.819412,3.396564484,4.190540314,0.617275238,0.088478148,-0.013455018,0.948147655
50.857821,6.700092316,3.099536896,0.128993988,0.081520140,0.016818419,0.934231639
50.872121,2.450519562,3.847217560,-0.466098785,0.059791625,-0.013943300,0.919705272
50.887442,1.863056183,4.549121857,0.434169769,0.065651000,0.024508849,0.940701365
50.925756,2.297931671,2.359485626,0.220546722,0.080909789,0.006808653,0.919216990
50.964052,-5.148357391,1.497364044,0.579128265,0.063209593,0.012301818,1.068875194
50.978339,-0.349468231,2.168750763,0.991115570,0.078712523,0.054904357,1.116360545
50.993654,9.187274933,2.466297150,-1.251926422,0.080909789,0.013644591,1.112942576
51.031956,8.622699738,-4.369640350,1.334438324,0.053443968,0.033908263,1.130520701
51.070259,16.984516144,-4.720592499,-0.473728180,0.057228148,-0.003323182,1.028225780
51.084553,13.330036163,-3.766918182,0.373134613,0.066139281,-0.003567323,1.019558787
51.099888,12.086444855,-2.485179901,0.609645844,0.068702757,0.038424864,1.036160350
51.138243,9.797626495,3.625965118,-0.687351227,0.049049437,0.000583068,0.940701365
51.176546,6.997638702,1.779651642,0.159511566,0.048317015,0.008395568,0.931790233
51.190848,-0.273174286,-3.797435760,5.255947113,0.031959593,0.037082091,0.947293162
51.206184,1.023822784,-6.101512909,7.720241547,0.052467406,0.085910216,0.955471873
51.244514,-5.934185028,-8.993053436,6.797084808,0.082374632,-0.010037050,0.934597850
51.298521,-0.921672821,-5.590343475,5.507717133,0.100318968,-0.023586854,0.937161326
51.312869,-0.006145477,-2.286815643,3.676662445,0.103370726,0.015963927,0.947537303
51.328203,0.527912140,-0.463390350,3.035793304,0.104225218,-0.013577089,0.941555858
51.366533,-0.631755829,4.091358185,3.287563324,0.097633421,-0.006374940,0.906277537
51.404857,-2.073711395,9.416675568,-1.740207672,0.101661742,0.027072325,0.923733592
51.419159,-0.807231903,10.171985626,-1.839389801,0.106910765,0.022677794,0.915432811
51.434506,-0.662273407,10.667896271,-2.457370758,0.111671507,0.020480528,0.914578319
51.472883,-1.898235321,10.660266876,-6.203403473,0.085670531,-0.000027284,0.907254100
51.511195,-3.324932098,5.487537384,-4.074802399,0.078346312,-0.009304628,0.905667186
51.525492,-4.286235809,4.327869415,-3.449192047,0.070900023,-0.003811464,0.915676951
51.540839,-3.691143036,2.473926544,-1.816501617,0.073341429,-0.002834901,0.933255076
51.579180,-3.309673309,0.284290314,1.906642914,0.063697875,0.018893614,0.939114451
51.633353,-1.020854950,-2.286815643,1.769313812,0.069801390,-0.032375917,0.964993358
51.647702,-5.567974091,-3.011608124,3.340969086,0.072242796,-0.048367128,0.975125194
51.663051,-5.918926239,-2.134227753,3.829250336,0.078712523,-0.012844667,0.991726756
51.701386,-8.711284637,1.947498322,3.127346039,0.071632445,-0.035915956,1.051052928
51.739675,-5.476421356,1.390552521,3.188381195,0.056984007,-0.118679628,0.979031444
51.753968,-9.573406219,1.108264923,4.828701019,0.054542601,-0.070828065,1.010769725
51.769283,-6.758159637,0.703907013,6.392726898,0.069191039,-0.054470643,1.054226756
51.807633,-8.543437958,-1.577281952,8.200893402,0.070411742,-0.008572206,1.010403514
51.845931,-9.481853485,3.175830841,2.661952972,0.098976195,-0.034084901,1.082058787
51.860231,-7.032817841,5.319690704,1.860866547,0.098732054,-0.038845643,1.102932811
51.875580,-1.257366180,8.524036407,-0.588169098,0.105567992,-0.064602479,1.089383006
51.913909,-5.186504364,10.309314728,-2.510776520,0.082130492,-0.112820253,1.038235545
51.952230,-2.676433563,11.880970001,-2.152194977,0.086891234,-0.054104432,1.110745311
51.966529,3.518634796,9.904956818,-3.632297516,0.074440062,-0.071682557,1.050320506
51.981867,2.641254425,8.104419708,-2.709140778,0.084938109,-0.086330995,1.016873240
52.020197,-0.837749481,1.909351349,-3.334751129,0.072975218,0.005710021,1.057644725
52.058486,0.413471222,-2.805614471,-2.259006500,0.068214476,-0.026882753,0.968655467
52.072810,-0.936931610,-4.377269745,-3.090610504,0.064796507,-0.015286073,0.971585155
52.088139,-0.181621552,-5.674266815,-1.534214020,0.052589476,0.009860411,0.997341990
52.126485,3.907733917,-2.332592010,-3.586521149,0.072242796,0.003634825,0.980496287
52.164790,2.053791046,2.275562286,-5.120029449,0.053077757,0.014132872,0.995755076
52.179086,2.877765656,2.710437775,-4.715671539,0.049659789,0.014254943,0.997586131
52.194414,5.197101593,3.564929962,-4.051914215,0.061256468,0.040744200,1.000149608
52.232728,3.755146027,-0.806713104,-4.853000641,0.064674437,-0.022122011,0.944485545
52.271023,-1.432842255,-6.482982635,-3.586521149,0.045753539,0.038913146,1.056424022
52.285324,4.556232452,-7.055187225,-3.365268707,0.074562132,0.019992247,1.058621287
52.300650,6.112628937,-7.139110565,-5.226840973,0.071632445,0.005587950,1.034085155
52.355033,6.928974152,-6.971263885,-5.715122223,0.066261351,-0.007351503,1.032742381
52.393448,0.840717316,-4.941844940,-6.310214996,0.051979125,-0.006374940,0.981228709
52.407738,-1.333660126,-5.292797089,-6.973972321,0.037452757,-0.038113222,0.991726756
52.423079,-3.706401825,-6.734752655,-2.968540192,0.023170531,-0.029080018,1.027371287
52.461432,-1.631206512,-4.766368866,-0.252475739,0.066749632,-0.030789003,1.013577342
52.499715,-4.438823700,2.435779572,-1.625766754,0.083351195,-0.031643495,1.055203319
52.514016,0.482135773,6.387805939,-3.700962067,0.087989867,-0.043850526,1.061917186
52.529360,2.320819855,7.661914825,-4.448642731,0.085792601,-0.059231386,1.046658397
52.567696,6.104999542,9.615039825,-4.830112457,0.073341429,-0.040432557,0.987088084
52.617466,1.214557648,8.554553986,-3.807773590,0.069068968,-0.005154237,0.948391795
52.631829,-1.226848602,7.265186310,-4.540195465,0.076149046,-0.007839784,0.960110545
52.647187,-0.578350067,6.769275665,-4.799594879,0.078590453,0.008761778,0.973294139
52.685519,2.160602570,4.121875763,-7.012119293,0.061134398,-0.013943300,0.985867381
52.723839,5.105548859,2.214527130,-6.745090485,0.051002562,-0.026150331,0.927883983
52.738134,2.458148956,2.245044708,-6.149997711,0.047218382,-0.023342714,0.919461131
52.753485,0.039630890,1.901721954,-5.799045563,0.039650023,0.008761778,0.956204295
52.791821,0.299030304,-2.485179901,-0.046482086,0.037818968,0.009616271,0.959011912
52.830106,-1.974529266,-4.339122772,0.655422211,0.035621703,0.022677794,0.997341990
52.844422,-0.471538544,-4.896068573,1.029262543,0.046974242,0.036960021,1.019802928
52.859766,4.586750031,-6.391429901,0.334987640,0.054298460,0.023410216,1.027005076
52.898096,2.572589874,-8.146190643,0.769863129,0.053199828,-0.039333925,0.998318553
52.936397,0.939899445,-5.941295624,3.417263031,0.051979125,0.015231505,1.046902537
52.950694,4.182392120,-3.438854218,4.340419769,0.064186156,0.027072325,1.044094920
52.966035,5.219989777,-1.722240448,3.463039398,0.078102171,0.015719786,1.024685740
53.004358,1.916461945,4.243946075,1.258144379,0.042579710,0.000583068,1.100369334
53.042643,6.608539581,1.550769806,3.569850922,0.032081664,-0.061794862,0.983914256
53.056943,4.006916046,-1.157665253,4.981288910,0.023414671,-0.045437440,0.963650584
53.072281,-1.585430145,-7.299327850,9.108791351,0.023536742,0.031833068,0.972805858
53.122307,7.157855988,-9.389781952,6.018886566,0.074195921,0.005954161,0.980740428
53.160685,2.633625031,-1.249217987,4.988918304,0.052589476,-0.008328065,0.974758983
53.174980,4.037433624,1.443958282,4.676113129,0.055397093,-0.013699159,0.971829295
53.190310,2.229267120,4.182910919,4.927883148,0.049781859,-0.036770448,0.922146678
53.228669,-3.630107880,4.564380646,6.522426605,0.072364867,0.001925841,0.946804881
53.266953,-2.829021454,5.586719513,4.508266449,0.077247679,0.018039122,0.974881053
53.281244,-0.357097626,5.716419220,3.196010590,0.077735960,0.017306700,0.973782420
53.296598,0.230365753,5.251026154,2.547512054,0.071754515,0.014987364,0.968411326
53.334916,-3.378337860,1.352405548,3.844509125,0.054786742,0.003024474,0.959622264
53.373231,-0.112957001,-0.890636444,4.065761566,0.080055296,0.009616271,0.963406444
53.387511,-0.448650360,-0.623607635,2.150783539,0.071144164,-0.002712831,0.961087108
53.402868,-1.974529266,0.368213654,2.135524750,0.067359984,-0.012844667,0.970364451
53.441185,1.084857941,3.099536896,1.868495941,0.054298460,-0.007351503,0.943753123
53.479458,1.473957062,-0.127696991,1.288661957,0.065040648,0.072238341,0.952542186
53.493741,0.711017609,-1.378917694,1.685390472,0.059547484,0.038058653,0.937405467
53.509090,-4.667705536,-0.371837616,1.868495941,0.060157835,0.048312560,0.975613475
53.547429,2.168231964,6.906604767,-0.862827301,0.083717406,0.018283263,0.979519725
53.585716,-3.652996063,6.395435333,0.060329437,0.049537718,0.017184630,1.006619334
53.600015,-2.401775360,6.937122345,1.235256195,0.056251585,0.018039122,1.021633983
53.615338,-1.104778290,8.432483673,1.822719574,0.068824828,0.001437560,1.025784373
53.653680,-2.203411102,7.577991486,-1.030673981,0.067848265,-0.015286073,0.992703319
53.691952,-4.644817352,-0.707530975,4.752407074,0.087501585,0.005587950,1.046536326
53.706239,-3.454631805,-3.057384491,3.775844574,0.074928343,-0.053982362,0.998440623
53.721590,-7.086223602,-4.148387909,5.034694672,0.076881468,-0.053372011,0.993069530
53.759906,-8.428997040,-3.110790253,4.996547699,0.097877562,-0.037502870,1.085720897
53.798214,-0.051921844,3.847217560,0.670681000,0.098487914,-0.066921815,1.029568553
53.812496,-0.311321259,4.060840607,0.739345551,0.095314085,-0.062283143,1.021145701
53.827830,0.848346710,4.510974884,-0.038852692,0.092994750,-0.041409120,1.001736522
53.866151,-1.020854950,5.258655548,-0.733127594,0.102638304,-0.013210878,0.960965037
53.916344,-7.284587860,2.374744415,-1.717319489,0.096901000,-0.013210878,1.009304881
53.943996,1.832538605,0.993824005,-2.548923492,0.082130492,0.000216857,1.016507030
53.958276,3.930622101,0.009632111,-2.983798981,0.086158812,-0.002956972,0.988674998
53.996456,-1.387065887,0.894641876,-4.616489410,0.044899046,0.018405333,0.966214061
54.034732,0.138813019,0.711536407,-2.938022614,0.053566039,-0.011746034,0.927273631
54.049037,-1.921123505,-0.348949432,-1.824131012,0.043678343,-0.010403261,0.929837108
54.064380,-5.781597137,-1.195812225,-0.679721832,0.044166625,-0.007107362,0.974636912
54.102694,3.350788116,-4.003429413,2.776393890,0.049781859,0.012790099,0.999295115
54.140993,-0.837749481,-2.561473846,0.457057953,0.059913695,-0.061306581,0.991726756
54.155299,1.718097687,-1.485729218,1.158962250,0.049537718,0.004855528,1.051174998
54.170631,5.219989777,-1.462841034,0.945339203,0.048683226,-0.020168886,1.042019725
54.208935,-1.890605927,1.794910431,4.515895844,0.056861937,-0.064968690,0.978421092
54.247232,-1.127666473,11.247730255,1.387844086,0.052833617,-0.041287050,1.077664256
54.261525,1.100116730,12.193775177,1.746425629,0.053566039,-0.056667909,1.059109569
54.276869,-0.387615204,10.164356232,4.363307953,0.050148070,-0.070217714,1.016507030
54.315182,-5.949443817,4.861927032,5.507717133,0.058692992,-0.011501893,1.026883006
54.353448,-1.791423798,0.024890900,4.439601898,0.086647093,-0.018826112,1.042874217
54.367745,-0.921672821,-0.944042206,2.860317230,0.072975218,-0.049221620,1.034451365
54.383082,-0.944561005,-0.913524628,3.173122406,0.064918578,-0.064358339,1.055813670
54.421403,2.786212921,1.878833771,1.403102875,0.038307250,-0.093777284,1.023342967
54.459680,-1.486248016,4.762744904,0.548610687,0.061744750,-0.088650331,0.990017772
54.473978,-2.958721161,6.105518341,0.472316742,0.035255492,-0.061794862,1.022976756
54.489307,-0.585979462,5.914783478,1.609096527,0.043434203,-0.040554628,1.028836131
54.527644,0.802570343,-0.379467010,1.136074066,0.051734984,-0.035061464,0.949612498
54.565918,1.550251007,-5.445384979,-0.023593903,0.033302367,-0.012112245,0.983303905
54.580219,1.184040070,-6.940746307,1.761684418,0.031105101,-0.027248964,0.968411326
54.595545,1.298480988,-6.612682343,1.738796234,0.043067992,-0.017849550,0.972927928
54.633877,-0.547832489,-5.491161346,0.411281586,0.015846312,-0.022610292,0.991116405
54.672160,4.617267609,-7.123851776,2.532253265,0.022438109,-0.019314393,0.964505076
54.686454,3.884845734,-7.200145721,2.616176605,0.038185179,-0.017727479,0.948758006
54.715179,-0.868267059,-4.331493378,1.052150726,0.022316039,0.030002013,0.985989451
54.753583,1.267963409,-2.653026581,-0.176181793,0.035377562,0.006564513,0.993313670
54.791855,0.497394562,0.803089142,-3.319492340,0.040504515,-0.036160097,0.988552928
54.806147,-1.089519501,1.123523712,-3.235569000,0.020973265,-0.003567323,1.020047069
54.821473,4.701190948,-0.799083710,-1.114597321,0.011695921,-0.003811464,1.035183787
54.859778,1.123004913,-5.346202850,2.928981781,0.014869750,-0.034573182,1.027981639
54.898063,1.779132843,-3.499889374,3.028163910,0.031471312,-0.019192323,1.023953319
54.912358,1.794391632,-2.645397186,3.630886078,0.031837523,-0.017483339,1.016507030
54.927690,1.740985870,-1.623058319,3.722438812,0.036476195,-0.019802675,1.011502147
54.966029,-7.185405731,4.732227325,3.760585785,0.017311156,-0.026028261,1.002102733
55.004329,-4.904216766,7.440662384,6.545314789,0.071510375,-0.044582948,1.031399608
55.018625,-4.782146454,7.204151154,5.027065277,0.069068968,-0.070950136,1.046292186
55.033981,-5.491680145,7.066822052,5.500087738,0.071144164,-0.107571229,1.060086131
55.072280,6.791645050,17.122364044,0.441799164,0.121925414,-0.092068300,1.103299022
55.110553,5.281024933,22.867298126,-5.219211578,0.060646117,-0.075466737,0.997586131
55.124856,5.258136749,21.471118927,-3.517856598,0.053810179,-0.058254823,0.991360545
55.140195,3.694110870,18.747425079,-0.153293610,0.066139281,-0.058376893,0.960965037
55.178497,2.862506866,17.313098907,-6.851902008,0.075416625,-0.021389589,0.964505076
55.216788,4.792743683,8.943653107,-6.256809235,0.048805296,-0.002224550,0.974270701
55.231082,6.898456573,7.326221466,-6.439914703,0.043678343,0.005587950,0.964505076
55.260126,5.937152863,-4.224681854,-5.120029449,0.018165648,-0.017727479,0.867337108
55.298497,0.970417023,-17.286205292,2.410182953,0.006691039,0.045138732,0.944485545
55.336807,-0.944561005,-16.355419159,0.548610687,0.022804320,0.020846739,0.930203319
55.351113,-2.302593231,-15.874767303,1.990566254,0.011940062,0.003634825,0.939114451
55.366470,-2.043193817,-13.044261932,5.477199554,0.033912718,0.037570372,0.976101756
55.404788,1.527362823,-4.484081268,2.593288422,0.047340453,0.034884825,1.007717967
55.443086,-0.021404266,5.952930450,0.907192230,0.043190062,-0.007717714,1.005520701
55.457381,3.625446320,8.073902130,2.593288422,0.023902953,-0.033230409,1.006619334
55.472715,2.801471710,8.142566681,4.134426117,0.032325804,-0.046047792,0.993191600
55.524899,-1.120037079,4.457569122,4.172573090,0.030494750,-0.051418886,1.070462108
55.563248,4.563861847,0.711536407,4.767665863,0.013526976,-0.075710878,1.007351756
55.577545,-1.295513153,-2.263927460,6.415615082,0.027931273,-0.109036073,0.957424998
55.592862,-6.475872040,-2.027416229,5.744228363,0.017555296,-0.095608339,0.991726756
55.631174,-3.591960907,-5.750560760,12.374172211,0.012062132,-0.031643495,0.983792186
55.669446,-5.987590790,-8.687877655,10.405788422,0.040992796,-0.046658143,0.985501170
55.683740,-1.905864716,-4.735851288,8.811244965,0.064796507,0.003024474,1.038235545
55.699051,2.786212921,-1.996898651,6.133327484,0.059669554,-0.030911073,1.024197459
55.737353,-0.410503387,2.962207794,6.148586273,0.025856078,-0.069729432,0.958401561
55.775631,-7.879680634,3.366565704,10.192165375,0.036842406,-0.063992128,0.999539256
55.789928,-6.338542938,2.840137482,10.512599945,0.050880492,-0.062405214,1.018582225
55.805258,-2.417034149,1.886463165,7.163295746,0.066261351,-0.057766542,1.012112498
55.843560,-4.866069794,-2.057933807,9.772548676,0.073951781,-0.014187440,1.054592967
55.881849,4.006916046,-0.951671600,4.584560394,0.057350218,-0.068264589,0.993557811
55.896134,2.618366241,-2.706432343,3.997097015,0.065773070,-0.016384706,0.963040233
55.911450,1.962238312,-2.752208710,2.791652679,0.056007445,-0.031887636,0.948635936
55.949759,-0.013774872,2.542591095,5.080471039,0.055397093,0.010959044,1.030423045
55.988048,-2.722209930,2.801990509,4.660854340,0.042457640,-0.056789979,0.962307811
56.002336,-4.293865204,4.495716095,4.218349457,0.042213500,-0.017727479,1.019924998
56.017643,-2.882427216,5.701160431,4.554042816,0.028419554,-0.028225526,1.050930858
56.055950,4.235797882,3.984546661,3.745326996,0.061378539,-0.048489198,0.978909373
56.094227,0.970417023,-0.539684296,4.782924652,0.032692015,-0.005642518,1.061550975
56.108506,4.571491241,-0.158214569,5.110988617,0.041603148,-0.010525331,1.058743358
56.123829,8.256488800,1.466846466,3.356227875,0.045143187,-0.026760682,1.017971873
56.162149,1.039081573,4.602527618,3.463039398,0.026954710,-0.013699159,1.050442576
56.200428,7.142597198,5.899524689,5.255947113,0.041236937,-0.035793886,1.069607615
56.214712,10.156208038,5.098438263,4.958400726,0.054664671,-0.052151307,1.044583201
56.230043,8.172565460,4.373645782,2.753505707,0.062599242,-0.107082948,1.020169139
56.268365,3.785663605,3.114795685,5.912075043,0.047828734,-0.052639589,1.144192576
56.306665,9.973102570,4.968738556,3.165493011,0.062233031,-0.129788026,1.012356639
56.320957,-1.722759247,3.389453888,4.096279144,0.044532835,-0.118069276,1.056057811
56.350337,11.720233917,1.100635529,1.586208344,0.056007445,-0.123806581,1.029690623
56.388752,3.289752960,-0.829601288,0.914821625,0.052345335,-0.131741151,0.975247264
56.427056,4.952960968,-3.156566620,2.547512054,-0.008445680,-0.094387636,0.950466990
56.441352,3.961139679,-5.376720428,4.813442230,0.007911742,-0.058621034,0.915554881
56.456667,3.404193878,-6.658458710,5.072841644,0.006568968,-0.055569276,0.899929881
56.494980,-4.827922821,-6.322765350,5.812892914,0.013404906,-0.055935487,0.905789256
56.533255,1.000934601,0.337696075,2.211818695,0.036720335,-0.040188417,0.912503123
56.547538,-0.074810028,2.420520782,0.800380707,0.028053343,-0.064602479,0.889675975
56.578273,-2.211040497,7.692432404,-0.328769684,0.022193968,-0.014065370,0.935696483
56.616671,-5.224651337,2.855396271,4.546413422,0.020484984,-0.033474550,0.912503123
56.654952,-8.779949188,3.999805450,2.105007172,0.009376585,-0.037747011,0.964138865
56.669244,-6.987041473,7.082080841,3.188381195,0.042213500,-0.026516542,1.011990428
56.684598,-4.576152802,7.875537872,1.097927094,0.044410765,-0.017239198,1.018826365
56.722917,-7.200664520,2.801990509,3.745326996,0.040138304,-0.026882753,1.031887889
56.761225,-1.570171356,7.028675079,0.426540375,0.046119750,-0.017483339,1.061550975
56.775515,0.009113312,5.022144318,-1.877536774,0.052101195,-0.016140565,1.056668162
56.790864,1.237445831,-2.614879608,-1.465549469,-0.004783571,-0.049221620,1.040554881
56.829175,1.641803741,-14.272594452,1.136074066,0.018898070,-0.017239198,0.990994334
56.867463,-4.179424286,-25.113964081,7.544765472,0.030250609,0.014865294,1.011258006
56.881767,-3.385967255,-24.236583710,6.255397797,0.036720335,0.024752989,1.017849803
56.897130,-3.012126923,-19.323253632,3.936061859,0.046974242,0.001315489,1.016018748
56.935451,-3.347820282,-4.850292206,-0.565280914,0.076149046,0.031588927,1.036282420
56.973725,0.276142120,18.022632599,-6.890048981,0.084571898,0.027682677,1.043362498
56.988026,-0.769084930,26.529407501,-10.178318024,0.092872679,-0.013577089,1.014309764
57.003404,-2.943462372,29.878711700,-11.933078766,0.093238890,0.003268614,1.031277537
57.041736,3.518634796,32.274341583,-17.456760406,0.048194945,0.006564513,1.000515819
57.080053,-0.738567352,18.961048126,-15.366306305,0.049171507,0.040500060,0.990261912
57.094365,-0.090068817,14.268970490,-15.808811188,0.050026000,0.048312560,0.997097850
57.109719,1.550251007,2.016162872,-16.373386383,0.016944945,0.032687560,0.983914256
57.148060,2.023273468,-16.271495819,-13.672580719,0.059913695,0.047458068,0.978421092
57.186365,-1.959270477,-18.361949921,-15.724887848,0.038185179,0.041476622,1.005398631
57.219864,2.290302277,-15.699291229,-20.172824860,0.032447875,0.028048888,1.016751170
57.234211,2.282672882,-13.418102264,-19.837131500,0.051612914,0.010104552,1.006253123
57.272428,-2.088970184,-1.203441620,-27.031650543,0.030494750,0.041476622,1.048733592
57.310723,0.939899445,5.327320099,-27.329196930,0.058815062,-0.013577089,1.005398631
57.325022,-0.669902802,6.273365021,-28.237094879,0.054420531,-0.008572206,1.002957225
57.340375,-2.012676239,6.464099884,-27.970066071,0.057594359,-0.002834901,0.999050975
57.378688,-1.409954071,5.716419220,-31.197299957,0.044654906,-0.013943300,1.022976756
57.417011,3.709369659,2.641773224,-35.172214508,0.062355101,-0.036160097,0.993313670
57.431307,2.389484406,2.153491974,-34.989109039,0.048317015,-0.061428651,0.973294139
57.446665,-2.020305634,0.871753693,-34.561862946,0.031349242,-0.027493104,0.956814647
57.484999,-6.559795380,0.673389435,-29.366245270,0.064186156,-0.004177675,0.955838084
57.523294,-5.293315887,4.793262482,-34.615268707,0.087135375,0.002780333,0.993679881
57.537611,-3.553813934,4.961109161,-36.103000641,0.074928343,0.011813536,0.989529490
57.552996,-1.417583466,5.029773712,-35.340061188,0.051612914,-0.017117128,0.960110545
57.591311,-3.820842743,10.179615021,-38.017978668,0.084571898,-0.004421815,0.948880076
57.629634,-7.254070282,19.319629669,-38.437595367,0.041847289,-0.009548768,0.930203319
57.643935,-8.680767059,18.045520782,-36.385288239,0.039527953,-0.000515565,0.951077342
57.659289,-8.612102509,16.870594025,-35.263767242,0.049415648,-0.009304628,0.964383006
57.697610,-4.209941864,9.561634064,-36.339511871,0.039161742,0.001437560,1.025906444
57.735883,-1.341289520,-2.637767792,-34.126987457,0.038429320,-0.020168886,0.974392772
57.750191,-2.745098114,-5.369091034,-33.219089508,0.032203734,-0.017361268,0.978665233
57.765537,-4.164165497,-11.388683319,-32.517185211,0.030738890,-0.005032167,0.996609569
57.803844,0.474506378,-18.529796600,-29.495944977,0.040992796,0.005343810,1.027859569
57.842122,-2.363628387,-11.571788788,-33.791294098,0.070900023,0.021945372,1.036282420
57.856436,1.214557648,-11.556529999,-36.400547028,0.044288695,0.029635802,1.041653514
57.887722,2.473407745,-17.263317108,-31.433811188,0.044776976,-0.027126893,0.969265819
57.926105,-1.051372528,-16.599559784,-32.822360992,0.041969359,-0.026760682,1.037381053
57.964432,1.481586456,-24.099254608,-31.441440582,0.018165648,-0.093533143,0.987820506
57.978740,-0.685161591,-26.754283905,-28.740634918,0.032325804,-0.112209901,0.979153514
57.994115,-5.987590790,-24.152660370,-28.801670074,0.042823851,-0.100613222,1.010891795
58.032443,-6.330913544,-10.038280487,-30.457248688,0.050880492,-0.086453065,0.951443553
58.070733,-13.853496552,7.188892365,-28.046360016,0.078346312,-0.042019472,1.001736522
58.085043,-11.000102997,11.842823029,-30.251255035,0.095558226,-0.008328065,1.013089061
58.100417,-5.117839813,16.618824005,-36.080112457,0.080055296,-0.035915956,0.996975780
58.138722,-6.941265106,14.085865021,-33.707370758,0.045143187,-0.077053651,0.956204295
58.208905,-12.258953094,-3.187084198,-30.083408356,0.049171507,-0.039455995,1.011990428
58.224494,-11.206096649,-5.269908905,-28.671970367,0.045265257,-0.059109315,1.023831248
58.238752,-10.893291473,-6.246471405,-27.146091461,0.072242796,-0.055203065,1.037381053
58.276889,-5.186504364,-10.343456268,-30.976047516,0.070289671,-0.042629823,1.043362498
58.315193,-6.369060516,-12.617015839,-30.129184723,0.097511351,-0.058987245,1.068875194
58.329489,0.825458527,-7.467174530,-34.722080231,0.091407835,-0.042263612,1.070828319
58.344815,2.099567413,-4.842662811,-36.118259430,0.085914671,-0.068630800,1.042508006
58.383120,-0.425762177,1.627063751,-37.811985016,0.068580687,-0.064236268,1.001858592
58.421442,1.992755890,8.775806427,-40.978183746,0.078834593,-0.038845643,1.028591990
58.435740,2.679401398,8.592700958,-40.665378571,0.084571898,-0.045803651,1.010891795
58.451088,2.313190460,7.974720001,-43.541660309,0.099098265,-0.047512636,0.980740428
58.489405,1.924091339,10.652637482,-47.135105133,0.100196898,-0.041897401,1.034695506
58.527711,-1.455730438,10.660266876,-53.360691071,0.051857054,-0.064968690,1.021878123
58.542018,0.985675812,5.968189240,-50.995578766,0.035987914,-0.047878847,1.014431834
58.557373,-0.059551239,0.391101837,-48.233737946,0.052467406,-0.095242128,0.973416209
58.595676,-6.330913544,2.260303497,-47.600498199,0.074684203,-0.026028261,1.066189647
58.633978,0.032001495,2.412891388,-50.598850250,0.058692992,-0.115994081,0.985012889
58.648266,-5.453533173,2.641773224,-49.134006500,0.074440062,-0.057400331,1.031033397
58.663604,-2.493328094,4.602527618,-49.561252594,0.081153929,-0.039822206,1.051174998
58.701914,-4.583782196,10.713672638,-52.605381012,0.072120726,-0.083035097,0.964749217
58.740230,-6.590312958,10.347461700,-51.163425446,0.060157835,-0.079983339,0.988064647
58.754529,-7.559246063,10.995960236,-49.988498688,0.060890257,-0.074368104,0.988674998
58.769876,-7.017559052,13.994312286,-49.843540192,0.087013304,-0.049709901,1.000271678
58.808210,-5.346721649,12.178516388,-49.820652008,0.051002562,-0.071926698,0.975003123
58.846496,-6.491130829,6.967639923,-46.486606598,0.077003539,-0.062893495,0.947659373
58.860821,-8.802837372,6.395435333,-48.142185211,0.079933226,-0.053982362,0.946316600
58.876169,-9.672588348,2.664661407,-48.966159821,0.042579710,-0.036160097,0.987820506
58.914478,-6.346172333,-4.522228241,-42.900791168,0.037452757,-0.042751893,0.995510936
58.952776,-3.813213348,-6.498241425,-42.816867828,0.039894164,-0.045925722,0.994656444
58.967085,3.106647491,-14.943981171,-45.021762848,0.024147093,0.029757872,1.013943553
58.982419,7.058673859,-21.528148651,-41.779270172,-0.013450563,0.000216857,0.979641795
59.020739,1.214557648,-36.847972870,-34.363498688,0.062477171,0.003512755,0.929837108
59.059046,-0.814861298,-26.212596893,-33.394565582,0.085182250,0.016085997,0.909207225
59.073345,-2.790874481,-20.971202850,-36.133518219,0.085060179,0.014743224,0.905300975
59.102582,-6.521648407,-5.720043182,-37.361850739,0.056007445,-0.014431581,0.932278514
59.140985,-1.738018036,13.773059845,-40.009250641,0.070411742,0.005832091,0.988797069
59.179276,-10.626262665,15.909290314,-40.512790680,0.054176390,-0.049831972,0.988552928
59.206696,-3.744548798,6.326770782,-34.294834137,0.041603148,-0.043850526,1.033108592
59.221033,-3.317302704,2.435779572,-33.631076813,0.042945921,-0.043484315,1.018338084
59.259261,-8.665508270,-11.083507538,-31.105747223,0.052467406,-0.069729432,1.015652537
59.297551,0.245624542,-17.400646210,-28.321018219,0.024879515,-0.037014589,1.009304881
59.311859,-2.272075653,-17.743968964,-27.542819977,0.030860960,-0.061062440,0.975125194
59.327215,-11.702007294,-16.988658905,-26.871433258,0.018776000,-0.067532167,0.995388865
59.365543,-6.262248993,-13.769054413,-18.906345367,0.022316039,-0.047756776,1.056179881
59.403845,2.435260773,-0.326061249,-20.416965485,0.052833617,-0.023220643,1.043972850
59.418137,2.343708038,1.207447052,-22.606601715,0.062477171,-0.042141542,1.014431834
59.433504,0.573688507,-0.402355194,-22.614231110,0.012184203,-0.018215761,1.009671092
59.471875,-5.102581024,-6.093883514,-12.276401520,0.036720335,-0.035915956,0.944485545
59.510177,-3.202861786,1.154041290,-11.307468414,0.091651976,0.004977599,1.011868358
59.524462,-3.714031219,12.537097931,-17.960300446,0.101661742,-0.008083925,1.002835155
59.539830,-2.371257782,15.497303009,-19.142856598,0.079567015,0.013888732,1.012234569
59.578174,-3.569072723,25.377368927,-15.167942047,0.103004515,-0.002468690,0.991970897
59.616473,1.817279816,33.990955353,-23.537387848,0.060401976,-0.008694276,0.992947459
59.630767,-1.135295868,28.444385529,-13.245334625,0.045631468,-0.053738222,0.958889842
59.646148,-4.789775848,24.797534943,-11.170139313,0.067115843,-0.046902284,0.977322459
59.684500,7.020526886,9.554004669,-11.749973297,0.069923460,-0.014065370,1.004910350
59.722832,-0.296062469,-9.900951385,-10.643711090,0.029762328,-0.022488222,0.917141795
59.737128,-2.424663544,-12.502574921,-7.584323883,0.041603148,-0.005398378,0.941677928
59.752495,0.459247589,-16.279125214,-6.203403473,0.064064085,0.055392638,0.960965037
59.790856,-0.746196747,-19.071483612,-9.445896149,0.052345335,0.006686583,0.908841014
59.829150,-8.123821259,-16.599559784,-6.378879547,0.059547484,-0.004910097,0.959866405
59.843454,-6.330913544,-9.672069550,-8.850803375,0.098121703,-0.016018495,0.998806834
59.858815,-5.186504364,-5.170726776,-12.711277008,0.096534789,-0.014797792,1.003811717
59.909341,-8.390850067,15.840625763,-13.176670074,0.077369750,-0.028225526,1.046292186
59.947699,-4.324382782,21.669483185,-15.450229645,0.094337523,-0.060818300,1.052883983
59.962011,-4.873699188,15.550708771,-15.549411774,0.041359007,-0.090359315,1.071560740
59.977360,-3.485149384,9.683704376,-13.100376129,0.036109984,-0.077786073,1.097927928
60.015671,1.672321320,-18.072032928,-1.236667633,0.066993773,-0.105129823,1.119656444
60.053953,12.750202179,-33.109569550,-3.556003571,0.081520140,-0.072048768,1.002591014
60.068247,-3.073162079,-35.688304901,-6.699314117,0.034523070,-0.117703065,1.022854686
60.083596,-2.035564423,-37.122631073,-1.106967926,-0.002342165,-0.019192323,1.100857615
60.121896,6.463581085,-27.700328827,-0.305881500,0.091896117,-0.077541932,0.986111522
60.160184,-0.372356415,-2.927684784,-0.366916656,0.106910765,-0.024807557,1.040188670
60.174461,2.473407745,4.144763947,-3.044834137,0.115821898,-0.036404237,1.048367381
60.189776,5.082660675,18.976306915,-6.989231110,0.126319945,-0.059109315,1.015164256
60.228088,3.877216339,32.373523712,-15.961399078,0.077003539,-0.055325136,0.951687694
60.266372,3.068500519,28.024768829,-7.431735992,0.076637328,-0.041287050,0.940701365
60.280661,2.885395050,25.667285919,-9.751071930,0.103736937,-0.057888612,0.902981639
60.296021,0.535541534,24.408435822,-11.879673004,0.098732054,-0.072781190,0.894680858
60.334339,-1.188701630,6.708240509,-11.620273590,0.009864867,-0.069241151,0.914578319
60.372636,-2.516216278,-8.924388885,-4.128208160,0.040992796,-0.061672792,0.929470897
60.386931,-3.210491180,-14.814281464,-2.754917145,0.025367796,-0.085842714,0.914822459
60.402254,-5.186504364,-18.072032928,-1.236667633,0.007301390,-0.106472597,0.919339061
60.440540,1.641803741,-28.470897675,8.178005219,0.051612914,-0.047878847,1.019558787
60.478836,-3.485149384,-21.642589569,9.520778656,0.050636351,-0.145413026,0.945340037
60.507851,5.410724640,-5.979442596,11.321315765,0.117897093,-0.059841737,0.975491405
60.522198,3.999286652,2.077198029,8.223781586,0.129005492,-0.098660097,0.936184764
60.560372,-3.172344208,20.761585236,1.403102875,0.084449828,-0.091946229,0.960476756
60.598662,2.610736847,31.824207306,3.234157562,0.104347289,-0.085720643,1.005154490
60.612961,1.672321320,32.892322540,3.112087250,0.103981078,-0.091335878,0.986599803
60.628325,-0.067180634,32.304859161,-1.930942535,0.090431273,-0.083767518,0.968777537
60.666660,-4.736370087,16.161060333,8.406887054,0.061012328,-0.096584901,1.022000194
60.704935,-5.064434052,-4.987621307,12.862453461,0.045143187,-0.128933534,1.007107615
60.719231,-4.164165497,-11.800670624,13.648281097,0.034523070,-0.121243104,1.008084178
60.734602,-8.543437958,-22.619152069,17.714748383,0.014747679,-0.161282167,1.037503123
60.787128,5.792194366,-31.034374237,19.187221527,0.068580687,-0.128323182,1.000149608
60.825487,-4.919475555,-21.619701385,18.393764496,0.075416625,-0.095730409,1.075100780
60.839816,-1.013225555,-17.499828339,17.638454437,0.081153929,-0.066799745,1.104031444
60.855175,5.616718292,-7.673168182,11.473903656,0.095436156,-0.092434511,1.066067576
60.893478,-4.766887665,4.617786407,12.755641937,0.059791625,-0.103909120,0.999050975
60.931770,3.335529327,17.702198029,11.985073090,0.098243773,-0.013699159,1.067166209
60.946080,3.961139679,20.181751251,8.139858246,0.069679320,-0.067288026,0.996487498
60.961419,1.306110382,19.220447540,8.536586761,0.050392210,-0.071682557,0.969143748
60.999716,-2.821392059,9.019947052,16.631374359,0.050636351,0.003268614,1.082669139
61.038046,3.060871124,4.594898224,11.229763031,0.071144164,-0.077786073,0.946316600
61.052344,-2.317852020,4.892444611,12.633571625,0.070045531,-0.020413026,0.990506053
61.067677,1.779132843,6.937122345,10.726222992,0.077247679,0.001681700,0.998318553
61.105991,-0.143474579,12.598133087,13.770351410,0.042457640,-0.030300722,0.982449412
61.144276,-4.515117645,17.870044708,12.374172211,0.024879515,-0.101101503,0.958401561
61.158583,-5.644268036,18.686389923,13.823757172,0.032814085,-0.056423768,1.018338084
61.173922,4.785114288,19.334888458,14.762172699,0.049781859,-0.056423768,1.028958201
61.212243,1.359516144,15.642261505,11.840114594,0.039283812,-0.095364198,0.985134959
61.250523,1.580768585,7.516956329,19.843349457,0.003273070,-0.037747011,1.073147655
61.264841,10.613971710,3.053760529,21.231899261,0.016456664,-0.092312440,1.023831248
61.280182,10.858112335,0.368213654,22.712001801,0.018531859,-0.113796815,0.967434764
61.318475,-4.988140106,-0.028514862,29.219875336,0.026832640,-0.091580018,1.138577342
61.356771,18.365436554,-2.134227753,28.617153168,0.028907835,-0.115383729,1.057522655
61.371086,19.273334503,-7.596874237,28.670558929,0.029884398,-0.101223573,0.910549998
61.386428,12.910419464,-10.908031464,30.982265472,0.004737914,-0.145901307,0.859524608
61.424736,0.558429718,-14.799022675,34.537563324,0.014869750,-0.082913026,0.875882030
61.463041,-1.905864716,-5.208873749,26.412258148,0.023048460,-0.088528261,0.889309764
61.477340,-4.164165497,-3.957653046,28.647670746,0.001930296,-0.117947206,0.896878123
61.492676,-5.041545868,-1.172924042,32.439479828,0.030006468,-0.071926698,0.956814647
61.531009,-5.438274384,1.024341583,26.290187836,0.012062132,-0.105496034,0.921658397
61.569302,-8.497661591,-24.106884003,40.145168304,-0.012107790,-0.105740175,0.938382030
61.583619,-11.099285126,-27.517223358,41.999111176,0.025489867,-0.125393495,0.964505076
61.599004,-10.183757782,-27.128124237,38.947353363,0.058326781,-0.084744081,1.044339061
61.637330,-3.652996063,-22.840404510,33.797512054,0.033302367,-0.157497987,0.992581248
61.675653,1.657062531,-15.836620331,42.372951508,0.063453734,-0.059109315,1.109402537
61.705086,4.411273956,4.129505157,33.210048676,0.091651976,-0.118191347,1.018338084
61.719426,4.830890656,16.649341583,31.554470062,0.042945921,-0.063625917,1.005032420
61.757650,4.579120636,32.999134064,33.614406586,0.073829710,-0.045803651,0.961941600
61.795938,4.617267609,35.219287872,34.461269379,0.025734007,-0.015774354,0.968533397
61.825568,-0.105327606,19.609546661,44.341335297,-0.026634157,-0.070339784,0.976712108
61.839907,-0.273174286,9.882068634,49.613246918,0.037696898,-0.053982362,1.042874217
61.878106,4.731708527,-3.431224823,45.233974457,0.031837523,-0.127346620,0.999539256
61.916428,2.122455597,-15.005016327,53.313503265,0.019630492,-0.083035097,1.081692576
61.930716,9.431415558,-15.973949432,52.283535004,0.045753539,-0.093533143,1.073635936
61.946101,9.446674347,-16.080760956,48.949489594,0.033546507,-0.110378847,1.048123240
61.984456,8.706623077,-22.146129608,59.890041351,0.018043578,-0.087917909,1.096951365
62.022754,16.549640656,-18.819713593,57.235012054,0.033058226,-0.111965761,0.973904490
62.037055,10.095172882,-18.323802948,54.610500336,0.034523070,-0.112698182,0.969754100
62.052426,8.592182159,-18.194103241,54.717311859,0.021461546,-0.107449159,0.982449412
62.090750,12.162738800,-7.238292694,51.169643402,0.075416625,-0.076199159,0.984280467
62.129049,1.458698273,-7.955455780,48.842678070,0.025489867,-0.150295839,0.874783397
62.143343,-2.737468719,-7.848644257,48.850307465,0.034889281,-0.099880800,0.929348826
62.158699,1.908832550,-5.033397675,47.454128265,0.039527953,-0.088894472,0.997341990
62.197051,6.448322296,10.454273224,38.024196625,0.094337523,-0.045193300,0.994046092
62.235346,-0.944561005,11.362171173,36.864528656,0.059425414,-0.040554628,1.020047069
62.249645,4.373126984,11.713123322,34.987697601,0.055763304,-0.006497011,1.038235545
62.265025,8.920246124,12.849903107,34.209499359,0.050270140,-0.026150331,1.022000194
62.303344,-2.386516571,7.532215118,35.140285492,0.019142210,-0.067288026,0.965481639
62.341645,5.761676788,2.695178986,37.802944183,0.027565062,-0.042629823,1.061917186
62.355945,8.111530304,-1.684093475,38.268337250,0.009376585,-0.052273378,1.027127147
62.371312,7.897907257,-4.712963104,40.114650726,0.009620726,-0.061184511,1.011868358
62.409642,9.088092804,-7.635021210,43.326625824,-0.014793336,-0.013821229,1.049099803
62.447926,9.439044952,-4.262828827,44.570217133,0.017799437,-0.041287050,0.968899608
62.462225,7.409626007,-3.957653046,43.265590668,0.032081664,-0.014309511,0.979519725
62.477590,8.103900909,-6.505870819,43.166408539,-0.010276735,0.033419982,0.995388865
62.515892,13.619953156,-4.918956757,44.745693207,0.075294554,0.003512755,1.018460155
62.570041,19.525104523,2.603626251,33.187160492,0.008155882,-0.031399354,0.998806834
62.584397,8.622699738,-0.341320038,43.936977386,0.022193968,-0.102200136,0.976956248
62.599778,4.342609406,0.139331818,44.432888031,0.043922484,-0.053249940,1.010037303
62.638111,4.106098175,3.221607208,44.310817719,0.090553343,-0.026150331,1.115750194
62.676427,8.889728546,6.006336212,35.819301605,0.083839476,-0.077908143,1.053372264
62.690719,6.455951691,4.991626740,37.253627777,0.068458617,-0.063992128,1.061550975
62.706087,10.964923859,3.084278107,37.833461761,0.096046507,0.024630919,1.052761912
62.744419,4.792743683,0.986194611,35.178432465,0.093238890,0.034396544,0.968167186
62.782708,2.511554718,2.939319611,31.584987640,0.095680296,0.057101622,0.966458201
62.797010,3.137165070,3.130054474,31.638393402,0.090797484,0.073703185,0.960965037
62.812343,3.007465363,5.579090118,31.020412445,0.116798460,0.044284239,0.958889842
62.850655,-2.394145966,17.519092560,25.191555023,0.097877562,0.011691466,0.979275584
62.888945,0.627094269,26.552295685,22.483119965,0.105934203,0.002414122,1.007717967
62.903236,-0.112957001,26.651477814,22.544155121,0.094581664,-0.019192323,1.012844920
62.918605,-3.111309052,26.437854767,24.749050140,0.098243773,-0.050686464,1.037747264
62.956910,9.698444366,29.855823517,18.729457855,0.132057250,-0.000515565,1.076321483
62.995221,2.831989288,25.217151642,18.172512054,0.065895140,-0.020535097,0.980008006
63.009511,-0.509685516,21.997547150,21.102199554,0.077369750,-0.013088807,1.008328319
63.024861,2.946430206,16.481494904,18.821010590,0.101783812,0.075168028,1.061184764
63.063164,12.338214874,-0.112438202,14.868984222,0.069557250,0.080661193,0.973049998
63.101443,3.167682648,-20.597362518,23.917446136,0.008522093,0.076266661,0.902981639
63.132669,-0.647014618,-29.218578339,25.656948090,0.040504515,0.144870177,0.880764842
63.147014,-1.654094696,-30.843639374,24.489650726,0.044532835,0.128512755,0.890896678
63.185229,-1.333660126,-31.568431854,27.289638519,0.058937132,0.044162169,0.981350780
63.223513,-1.913494110,-13.738536835,14.601955414,0.097877562,-0.100857362,0.928006053
63.237836,-10.099834442,-9.878063202,13.510951996,0.056861937,-0.136623964,0.994168162
63.253198,-4.003948212,-5.300426483,19.706020355,0.067482054,0.016085997,1.156643748
63.291487,10.881000519,-4.384899139,11.512050629,0.082740843,-0.012478456,0.973049998
63.329789,6.806903839,-17.042064667,14.022121429,0.058326781,0.056369200,0.874539256
63.344101,2.122455597,-18.155956268,14.121303558,0.071510375,0.012301818,0.868801951
63.359469,-3.866619110,-15.340709686,13.358364105,0.089820921,0.098361388,0.959011912
63.397780,7.051044464,-7.619762421,4.355678558,0.086158812,0.047458068,0.913845897
63.436061,-1.509136200,4.976367950,6.247768402,0.073707640,0.047091857,0.917385936
63.450347,-3.431743622,15.321826935,2.242336273,0.104347289,0.064303771,0.974392772
63.465689,-0.044292450,20.006275177,-1.091709137,0.097511351,0.100436583,0.980374217
63.519925,-9.252971649,16.321277618,0.289211273,0.042457640,0.087130919,1.027859569
63.558282,6.890827179,5.846118927,-1.847019196,0.024757445,-0.007351503,0.881619334
63.572570,-3.424114227,1.154041290,1.746425629,0.016578734,-0.031277284,0.872586131
63.587891,-12.525981903,-1.050853729,3.150234222,0.036964476,0.095309630,1.014675975
63.626214,2.572589874,-1.264476776,-2.541294098,0.055763304,0.044528380,1.060818553
63.664487,-3.172344208,-14.150524139,1.868495941,-0.011253297,-0.085110292,0.974392772
63.678797,-7.048076630,-17.858409882,8.643398285,0.012184203,0.030734435,1.085232615
63.694135,-1.524394989,-18.216991425,8.925685883,0.042823851,0.042941466,1.108303905
63.732447,0.619464874,-13.715648651,1.868495941,0.072853148,-0.012234315,0.968533397
63.770731,-0.952190399,-12.472057343,7.605800629,0.024025023,0.074557677,1.139675975
63.785029,5.815082550,-11.381053925,7.277736664,0.057594359,0.051364318,1.098660350
63.800384,4.960590363,-6.734752655,2.616176605,0.064552367,0.011569396,0.989895701
63.838671,-3.935283661,1.848316193,2.570400238,0.056495726,0.044406310,1.015652537
63.876934,-2.958721161,12.956714630,0.975856781,0.070167601,-0.015652284,0.936673045
63.891235,-5.812114716,14.055347443,-0.931491852,0.079811156,-0.026150331,0.940457225
63.906575,-8.772319794,14.322376251,-0.801792145,0.039650023,-0.045681581,0.969754100
63.944870,-4.690593719,16.901111603,0.647792816,0.095436156,-0.009060487,1.039212108
63.983154,-5.339092255,18.297290802,-8.179416656,0.061622679,-0.068386659,0.970974803
63.997447,-5.552715302,10.347461700,-1.343479156,0.019752562,-0.020657167,1.006863475
64.012797,-2.294963837,6.273365021,0.037441254,0.046974242,-0.001614198,1.006497264
64.051102,1.527362823,-2.981090546,-1.114597321,0.039405882,0.006564513,0.959256053
64.089395,-4.461711884,-13.135814667,0.159511566,-0.020896852,-0.013699159,0.969876170
64.103696,-3.263896942,-14.943981171,4.927883148,-0.008811891,-0.004177675,1.005886912
64.119044,3.274494171,-15.355968475,3.455410004,0.049293578,0.031588927,1.002102733
64.157350,-2.607769012,-8.260631561,2.425441742,0.033668578,-0.041409120,0.944851756
64.195642,4.441791534,4.259204865,1.517543793,0.046241820,0.012057677,0.956814647
64.209932,2.992206573,8.226490021,0.632534027,0.048927367,-0.001980409,0.935574412
64.225250,-2.592510223,13.284778595,-0.382175446,0.045387328,-0.025417909,0.937649608
64.263542,1.092487335,20.273303986,-0.069370270,0.027687132,-0.065701112,1.011990428
64.301840,-1.142925262,20.929431915,-0.641574860,0.063942015,-0.052151307,1.000637889
64.316133,-4.301494598,17.282581329,-1.694431305,0.022316039,-0.108059511,1.017483592
64.331481,-5.690044403,13.193225861,1.097927094,0.009986937,-0.111233339,1.038479686
64.369819,0.413471222,-2.408885956,7.888088226,0.014381468,-0.133450136,1.020901561
64.424227,-4.499858856,-15.661144257,12.748012543,0.018531859,-0.045925722,1.036038280
64.452927,-5.827373505,-10.335826874,9.558925629,0.061012328,-0.079983339,1.043362498
64.467219,-4.446453094,-7.604503632,7.735500336,0.047706664,-0.095974550,1.055325389
64.505397,-0.547832489,3.336048126,5.629787445,0.040260375,-0.140530214,1.028225780
64.543664,-5.217021942,13.551807404,2.646694183,0.066017210,-0.094143495,1.034695506
64.557972,-4.858440399,13.437366486,1.075038910,0.063819945,-0.118191347,1.023953319
64.573302,-6.277507782,10.301685333,2.631435394,0.029151976,-0.075832948,1.061795115
64.611657,0.436359406,2.451038361,0.869045258,0.048805296,-0.080593690,0.995388865
64.649922,1.809650421,-2.088451385,-0.939121246,0.044044554,-0.041164979,0.994168162
64.664220,1.138263702,-2.859020233,-1.618137360,0.028541625,-0.045803651,0.989041209
64.679531,1.855426788,-3.202342987,-1.160373688,0.020729125,-0.028713807,0.984890819
64.717871,0.260883331,-4.827404022,-1.175632477,0.001075804,-0.039089784,0.969876170
64.756149,4.106098175,-9.473705292,2.410182953,-0.001609743,-0.002834901,0.980984569
64.770447,4.548603058,-9.641551971,3.127346039,0.012184203,-0.001492128,0.965969920
64.785778,0.573688507,-8.062267303,0.502834320,0.022926390,-0.030178651,0.942776561
64.824103,6.745868683,-3.454113007,0.334987640,0.034278929,0.010959044,1.017361522
64.862396,-2.691692352,7.890796661,-2.663364410,0.023536742,-0.019680604,1.014675975
64.876692,-0.318950653,9.996509552,-2.823581696,0.032692015,-0.009792909,1.030667186
64.892013,-0.311321259,10.553455353,-3.220310211,0.002662718,-0.094387636,1.030667186
64.930340,-0.364727020,7.776355743,-0.519504547,0.062233031,-0.087429628,1.084011912
64.968639,-1.402324677,4.655933380,-2.564182281,0.028297484,-0.088894472,1.092800975
64.982941,2.107196808,-2.759838104,1.151332855,0.006446898,-0.110745057,1.089383006
64.998257,3.007465363,-6.338024139,4.302272797,0.021339476,-0.104641542,1.072659373
65.036559,-0.318950653,-12.174510956,4.157314301,0.047950804,-0.110256776,1.019436717
65.074853,-1.036113739,-4.514598846,1.990566254,0.076026976,-0.102566347,1.028836131
65.089149,-0.303691864,4.625415802,-0.725498199,0.084816039,-0.105129823,1.019192576
65.104476,-1.013225555,10.004138947,-2.388706207,0.088966429,-0.105251893,1.020047069
65.142816,2.000385284,21.974658966,-7.378330231,0.070289671,-0.110622987,0.982327342
65.192859,-3.065532684,20.784473419,-7.157077789,0.074928343,-0.145535097,0.991848826
65.207223,-3.500408173,19.785022736,-7.775058746,0.067359984,-0.114407167,1.024685740
65.222579,1.435810089,16.252613068,-8.278598785,0.064186156,-0.113918886,1.068264842
65.260897,7.447772980,6.532764435,-9.766330719,0.056984007,-0.102322206,0.983425975
65.299202,5.891376495,-7.116222382,-6.745090485,0.020973265,-0.029812440,0.966214061
65.313476,8.691364288,-8.901500702,-6.561985016,0.041603148,-0.022610292,0.954495311
65.328793,7.646137238,-9.931468964,-8.072605133,0.029151976,-0.051296815,0.913601756
65.367123,4.937702179,-15.348339081,-7.019748688,-0.018821657,-0.021389589,0.893460155
65.405434,-0.181621552,-18.430614471,1.204738617,0.025001585,0.031222716,0.957058787
65.419721,6.997638702,-14.699840546,-2.640476227,0.047584593,0.029147521,0.953762889
65.435055,7.745319366,-11.510753632,-4.471530914,0.053199828,0.012179747,0.921658397
65.473369,-7.261699677,-2.927684784,-3.884067535,0.013526976,-0.003689393,0.998440623
65.511664,-1.097148895,6.517505646,-2.670993805,0.056739867,-0.084133729,0.960965037
65.525960,-2.500957489,8.134937286,-4.219760895,0.052467406,-0.106106386,0.949246287
65.541275,-11.373943329,10.637378693,-4.166355133,0.028175414,-0.151028261,0.997708201
65.579617,-2.554363251,7.234668732,4.180202484,0.045509398,-0.161770448,1.043850780
65.617903,-13.807720184,3.244495392,2.196559906,0.029762328,-0.189724550,0.994656444
65.632213,-14.151042938,1.375293732,4.325160980,0.056617796,-0.079495057,1.058255076
65.647574,-0.418132782,-0.944042206,1.189479828,0.074317992,-0.068752870,1.068997264
65.685885,-7.345623016,-0.417613983,-4.830112457,0.066505492,-0.107693300,1.032376170
65.724175,5.258136749,1.955127716,-7.973423004,0.036232054,-0.127102479,0.972805858
65.751684,-5.629009247,3.824329376,-6.104221344,0.026100218,-0.071926698,0.958767772
65.766015,-4.568523407,4.564380646,-6.424655914,0.030128539,-0.064602479,0.966580272
65.804221,-5.468791962,-2.782726288,-2.487888336,0.010841429,-0.039455995,0.985501170
65.842511,-11.099285126,-6.360912323,-4.753818512,0.034156859,-0.122952089,0.992947459
65.856832,-4.347270966,-4.568004608,-3.403415680,0.038185179,-0.012356386,1.068997264
65.872178,0.230365753,-5.056285858,-5.097141266,0.040748656,-0.051296815,1.056668162
65.910489,-6.430095673,-8.054637909,-2.754917145,0.030738890,-0.097073182,1.023098826
65.960889,8.493000031,-3.324413300,-3.243198395,0.052711546,-0.008450136,1.144924998
65.975224,15.664630890,-5.727672577,-2.609958649,0.034523070,-0.038357362,1.036770701
65.990601,10.423236847,-7.367992401,-2.777805328,0.040748656,-0.104153261,1.000759959
66.028925,16.198688507,-12.807750702,-1.343479156,0.030006468,0.007296935,1.011624217
66.067228,-0.326580048,-12.205028534,2.562770844,0.069923460,-0.018948182,1.023098826
66.081515,2.030902863,-7.665538788,0.800380707,0.084327757,-0.008328065,1.075589061
66.096859,7.127338409,3.015613556,-3.906955719,0.088111937,-0.080105409,1.089505076
66.135175,13.017230988,15.161609650,-5.852451324,0.078102171,-0.119900331,0.987454295
66.173450,9.866291046,20.006275177,-3.975620270,0.053443968,0.016085997,1.134182811
66.187740,17.243915558,18.579578400,-3.441562653,0.060768187,-0.034451112,1.073635936
66.203093,11.460834503,15.153980255,-4.090061188,0.058448851,-0.138943300,0.932766795
66.241430,-0.166362762,6.464099884,4.576931000,0.070533812,-0.028469667,1.064236522
66.279703,10.064655304,4.800891876,-6.851902008,0.121559203,-0.100735292,0.977200389
66.293996,9.820514679,3.130054474,-10.079135895,0.065162718,-0.111233339,0.909085155
66.309329,5.570941925,1.688098907,-8.782138824,0.061988890,-0.124905214,0.911038280
66.347662,5.197101593,5.350208282,-9.262790680,0.079567015,-0.019558534,0.929348826
66.385934,-3.324932098,4.495716095,-10.048618317,-0.003807008,-0.038357362,0.834133983
66.400233,-4.507488251,2.504444122,-6.935825348,-0.002464235,0.010959044,0.868313670
66.415579,2.374225616,1.192188263,-3.296604156,0.030006468,0.022311583,0.863186717
66.453888,-8.406108856,-3.248119354,-6.539096832,-0.008201540,-0.010647401,0.822659373
66.492168,-4.866069794,-22.054576874,7.216701508,-0.005271852,0.038913146,0.917630076
66.506458,-3.996318817,-22.825145721,7.697353363,0.037696898,0.028293028,0.885037303
66.521811,-7.650798798,-20.337963104,2.509365082,0.026710570,0.041964903,0.913845897
66.560137,-9.878582001,-11.167430878,7.964382172,0.043922484,0.028537169,0.972073436
66.598432,-4.583782196,2.023792267,4.561672211,0.054298460,0.053439513,1.028347850
66.612720,-2.539104462,8.585071564,1.509914398,0.050880492,0.068332091,1.054104686
66.628063,-1.074260712,8.226490021,2.516994476,0.032447875,0.044406310,1.043850780
66.666375,-3.485149384,11.629199982,9.536037445,0.064064085,-0.011990175,1.166897655
66.704652,5.464130402,19.174671173,3.775844574,0.080421507,-0.101711854,1.199002147
66.718953,5.990558624,17.435169220,2.990016937,0.056617796,-0.125393495,1.204129100
66.734291,6.303363800,12.949085236,5.454311371,0.049903929,-0.115872011,1.229153514
66.786104,10.552936554,23.416614532,2.928981781,0.090675414,-0.093655214,1.207547069
66.824471,12.940937042,35.783863068,0.373134613,0.109718382,-0.046902284,1.111599803
66.838777,10.247760773,34.425830841,-4.746189117,0.061744750,-0.034817323,1.065823436
66.854134,10.552936554,29.153919220,-3.960361481,0.011451781,-0.020535097,1.053250194
66.892477,12.170368195,-15.806102753,11.298427582,-0.047141969,-0.058010682,0.974881053
66.930764,6.349140167,-42.028331757,16.753444672,0.039039671,-0.064480409,0.958889842
66.945070,6.089740753,-40.731334686,16.906032562,0.065773070,-0.059353456,0.978299022
66.960411,7.340961456,-30.248546600,13.343105316,0.111427367,-0.036282167,1.003079295
66.998748,12.437397003,2.275562286,-0.771274567,0.096290648,-0.006741151,0.928494334
67.037047,12.750202179,11.751270294,-5.104770660,0.027076781,0.046359435,0.860867381
67.066314,10.636859894,4.793262482,-2.304782867,-0.007469118,0.037692443,0.786160350
67.080644,4.586750031,-0.196361542,-1.641025543,0.004737914,0.035617247,0.776272655
67.118860,3.022724152,-8.878612518,0.510463715,-0.006370485,0.072360411,0.843411326
67.157146,1.008563995,-13.128185272,0.357875824,0.019752562,0.047091857,0.813137889
67.171451,-0.517314911,-13.769054413,-1.290073395,0.000953734,0.041476622,0.805203319
67.186820,-3.408855438,-16.012096405,0.289211273,-0.015159547,0.038302794,0.807888865
67.225149,-7.917827606,-20.971202850,2.646694183,-0.017356813,0.038180724,0.852322459
67.263440,-10.824626923,-14.348888397,3.974208832,0.057106078,0.042697325,0.957547069
67.277738,-10.672039032,-0.707530975,0.968227386,0.103614867,0.045749083,1.035183787
67.293093,-9.214824677,7.028675079,-1.335849762,0.116066039,0.041720763,1.074002147
67.331429,-0.387615204,27.330493927,-8.278598785,0.102272093,-0.001492128,1.098049998
67.369715,-0.853008270,33.533191681,-5.570163727,0.115577757,-0.065579042,1.072171092
67.384021,-1.417583466,36.905384064,-5.898227692,0.138771117,-0.061794862,1.100247264
67.399387,0.032001495,46.838855743,-8.682956696,0.178077757,-0.066921815,1.149319530
67.437705,8.325153351,57.375049591,-21.225681305,0.118385375,-0.035915956,1.044705272
67.476007,-2.073711395,5.266284943,-13.596286774,-0.119651735,-0.076809511,0.852810740
67.490301,-6.048625946,-16.393566132,-5.097141266,-0.146385133,-0.061306581,0.854275584
67.505657,-10.618633270,-51.832103729,5.637416840,-0.090843141,-0.014431581,0.916043162
67.557943,-8.467144012,-67.869094849,6.163845062,0.109718382,-0.010525331,1.026272655
67.596304,-4.560894012,-44.507884979,-6.569614410,0.031471312,-0.021023378,0.943508983
67.610615,-5.445903778,-42.951488495,-7.279148102,-0.011619508,-0.036648378,0.921536326
67.625980,-8.520549774,-46.216869354,-1.854648590,-0.078758180,-0.042263612,0.912869334
67.664287,-6.033367157,-45.331859589,9.452114105,0.008888304,0.042575255,0.999783397
67.702581,-1.852458954,-13.669872284,2.715358734,0.097633421,0.015841857,0.968289256
67.716880,-2.203411102,15.070056915,-2.960910797,0.097999632,0.010592833,0.941677928
67.732198,-2.378887177,26.376819611,-4.379978180,0.089210570,0.012912169,0.932278514
67.770506,-5.743450165,45.847034454,-6.630649567,0.031471312,-0.010281190,0.896267772
67.808822,-8.383220673,35.921192169,-1.351108551,0.014625609,0.047702208,0.971218944
67.823115,-7.345623016,26.468372345,1.380214691,0.020118773,0.044406310,0.995510936
67.838467,-7.276958466,21.577930450,2.875576019,0.024879515,0.046237364,1.009915233
67.876779,-6.208843231,10.713672638,7.186183929,0.084327757,-0.003445253,1.100979686
67.915067,-0.570720673,10.614490509,4.882106781,0.089088500,-0.009426698,1.167630076
67.929359,1.809650421,9.348011017,4.637966156,0.077858031,-0.026638612,1.162258983
67.944662,3.900104523,4.335498810,6.949672699,0.048683226,-0.058498964,1.136624217
67.982965,3.282123566,3.061389923,10.680446625,0.059547484,-0.039578065,1.111233592
68.021260,2.290302277,12.468433380,9.391078949,0.074073851,-0.062893495,1.098049998
68.035550,2.221637726,16.115283966,10.489711761,0.083961546,-0.067165956,1.092678905
68.050882,2.183490753,18.091297150,9.978542328,0.092018187,-0.077297792,1.083889842
68.089215,3.686481476,21.593189240,5.576381683,0.061256468,-0.064846620,1.078884959
68.127490,7.196002960,6.181812286,10.352382660,0.024879515,-0.099148378,0.992092967
68.141794,4.151874542,-0.081920624,11.290798187,0.047462523,-0.107815370,0.968411326
68.157128,3.358417511,-1.394176483,10.787258148,0.060646117,-0.097317323,0.966824412
68.195462,-0.799602509,-6.803417206,6.942043304,0.042457640,-0.081448182,0.979763865
68.233733,0.306659698,-25.617504120,10.596523285,-0.002708375,-0.044705018,0.988797069
68.248034,1.252704620,-29.714488983,12.114772797,-0.002830446,-0.037014589,0.985745311
68.263369,2.023273468,-34.383678436,13.060817719,0.017189085,-0.023220643,0.983181834
68.301684,3.243976593,-31.286144257,11.374721527,0.042091429,-0.019314393,0.941067576
68.354119,2.046161652,-7.764720917,4.592189789,0.061866820,-0.006985292,0.935940623
68.385095,2.481037140,3.915882111,1.075038910,0.055275023,0.001559630,0.927883983
68.399366,1.939350128,5.426502228,0.518093109,0.045387328,0.001193419,0.920071483
68.437506,-1.440471649,7.913684845,0.182399750,0.026588500,0.011813536,0.912136912
68.475825,-4.026836395,7.272815704,2.417812347,0.029396117,0.031588927,0.968167186
68.490121,-3.988689423,7.967090607,3.997097015,0.060401976,0.014987364,1.012722850
68.505452,-3.912395477,10.034656525,3.836879730,0.082618773,0.001803771,1.033963084
68.559484,0.939899445,25.064563751,-3.449192047,0.075172484,-0.036770448,1.057766795
68.597876,0.176959991,14.276599884,0.205287933,0.016090453,-0.069363222,1.047512889
68.612207,0.466876984,4.579639435,6.621608734,0.032447875,-0.076077089,1.032986522
68.627528,-0.692790985,1.367664337,7.231960297,0.053688109,-0.092556581,1.031033397
68.665866,-1.669353485,2.222156525,7.132778168,0.107154906,-0.092434511,1.085598826
68.704144,1.550251007,11.011219025,1.700649261,0.105690062,-0.086208925,1.035916209
68.718448,1.351886749,10.080432892,0.693569183,0.065651000,-0.088284120,0.998074412
68.733785,1.191669464,8.165454865,1.891384125,0.056251585,-0.086941347,0.981716990
68.772103,-1.623577118,9.912586212,4.225978851,0.129615843,-0.082424745,0.968411326
68.810420,-1.356548309,27.223682404,-7.561435699,0.145607054,-0.055325136,1.002713084
68.824722,0.627094269,28.375720978,-10.353794098,0.119850218,-0.051785097,0.982205272
68.840063,2.168231964,21.448230743,-12.909641266,0.045021117,-0.074856386,0.909573436
68.878371,-7.078594208,-19.979381561,-3.708591461,-0.056053102,-0.052517518,0.836575389
68.916655,-9.291118622,-50.367259979,8.223781586,0.017311156,0.006320372,0.926052928
68.930959,-7.574504852,-50.657176971,8.139858246,0.055519164,0.008029357,0.952175975
68.946295,-5.407756805,-41.898632050,5.347499847,0.107643187,-0.005764589,0.966336131
68.984637,-5.499309540,-17.331981659,-3.327121735,0.111915648,-0.030666932,0.960476756
69.022919,-3.981060028,3.137683868,-5.440464020,0.053443968,-0.009670839,0.981350780
69.037215,-4.660076141,3.801441193,-4.669895172,0.031837523,-0.025784120,0.967678905
69.052554,-5.537456512,3.313159943,-4.204502106,0.019752562,-0.017727479,0.974270701
69.090874,-5.629009247,-1.897716522,-0.405063629,0.002052367,0.002536193,1.015408397
69.129155,-1.135295868,-1.012706757,4.744777679,0.038429320,-0.016628847,1.052395701
69.143444,-0.616497040,2.618885040,4.569301605,0.056984007,-0.024441347,1.062283397
69.174700,0.680500031,15.627002716,1.860866547,0.076759398,-0.051785097,1.066189647
69.213102,1.664691925,6.876087189,4.927883148,-0.018699586,-0.073757753,1.090603709
69.251405,3.961139679,0.223255157,12.717494965,0.044410765,-0.083279237,1.080227733
69.265712,2.969318390,10.324573517,11.153469086,0.087867796,-0.092434511,1.077908397
69.281067,2.534442902,16.275501251,9.902248383,0.104225218,-0.099636659,1.080471873
69.319395,2.839618683,35.944080353,2.372035980,0.095436156,-0.145657167,1.052151561
69.357672,1.962238312,25.682544708,1.670131683,0.005836546,-0.155300722,1.006253123
69.371973,2.656513214,17.404651642,3.142604828,-0.017845094,-0.163723573,0.984524608
69.387311,0.802570343,1.573657990,6.324062347,-0.030784547,-0.172268495,0.946560740
69.425638,-1.959270477,-14.646434784,10.039577484,0.009376585,-0.137356386,0.933010936
69.463923,-6.109661102,-14.524364471,7.102260590,0.004493773,-0.119289979,0.945095897
69.478225,-6.048625946,-14.470958710,6.591091156,0.008644164,-0.112576112,0.953640819
69.493588,-5.812114716,-16.553783417,5.172023773,-0.012351930,-0.088528261,0.964993358
69.531900,-3.500408173,-26.281261444,7.560024261,-0.053001344,-0.095120057,0.941189647
69.570206,-3.500408173,-42.463207245,13.732204437,-0.051170290,-0.065334901,0.933010936
69.584494,-4.911846161,-43.798351288,14.754543304,-0.021140993,-0.066921815,0.947293162
69.599858,-4.385417938,-41.425609589,14.487514496,-0.005515993,-0.054836854,0.957424998
69.638181,-1.898235321,-19.513988495,9.322414398,0.018531859,-0.065579042,0.942288280
69.676474,-4.850811005,2.000904083,8.178005219,-0.003440797,-0.063625917,0.950222850
69.690762,-4.538005829,7.043933868,8.483181000,0.006446898,-0.053860292,0.961697459
69.722298,-2.813762665,25.232410431,6.354579926,0.060890257,-0.041531190,0.981472850
69.760692,-3.134197235,36.722278595,2.242336273,0.067115843,-0.034695253,0.989895701
69.799011,-2.943462372,43.047046661,0.907192230,0.057106078,-0.044460878,1.022244334
69.813316,-3.096050262,40.399646759,1.006374359,0.043190062,-0.048611268,1.035916209
69.828658,-3.248638153,37.325000763,1.120815277,0.039039671,-0.055203065,1.044339061
69.866979,-2.264446259,15.916919708,4.721889496,0.011451781,-0.088162050,1.082547069
69.905253,0.466876984,-1.623058319,9.284267426,0.034156859,-0.109890565,1.118557811
69.919536,2.557331085,-2.805614471,12.130031586,0.035255492,-0.110012636,1.105496287
69.934874,3.610187531,-3.782176971,9.780178070,0.071388304,-0.131252870,1.094265819
69.984708,2.664142609,-6.879711151,8.345851898,0.040626585,-0.154934511,1.021145701
70.023081,-0.379985809,-18.842601776,8.300075531,-0.002098024,-0.171780214,0.950466990
70.037376,-2.478069305,-22.672557831,8.895168304,-0.018821657,-0.167019472,0.952908397
70.052706,-4.591411591,-29.371166229,12.084255219,-0.016014040,-0.149197206,0.991482615
70.091052,-0.204509735,-16.240978241,11.153469086,0.089332640,-0.129177675,1.035916209
70.129343,-2.409404755,14.154529572,-2.068271637,0.062355101,-0.188137636,0.969387889
70.143639,-3.004497528,15.604114532,-2.861728668,0.026466429,-0.192532167,0.958279490
70.158997,-3.248638153,14.490222931,-2.182712555,-0.002220094,-0.181301698,0.943875194
70.197297,-6.674236298,4.472827911,3.691921234,-0.051780641,-0.146145448,0.912991405
70.235603,-7.742351532,4.037952423,7.460842133,0.018165648,-0.139797792,0.933010936
70.249893,-9.649700165,12.056446075,3.623256683,0.040382445,-0.111111268,0.960720897
70.265225,-9.260601044,15.138721466,3.028163910,0.036720335,-0.084622011,0.974636912
70.303530,-3.195232391,11.911487579,3.127346039,-0.023216188,-0.133205995,0.973660350
70.341842,-7.231182098,-12.700939178,12.549648285,-0.070823610,-0.119412050,0.973294139
70.356138,-7.231182098,-18.392467499,15.448818207,-0.067283571,-0.106350526,0.997097850
70.371487,-4.377788544,-24.816417694,19.812831879,-0.029930055,-0.102932557,1.049954295
70.409822,1.962238312,-11.609935760,20.461330414,0.039039671,-0.128323182,1.010403514
70.448117,-2.531475067,8.310413361,17.768154144,0.023780882,-0.134670839,0.968777537
70.462427,-2.897686005,11.018848419,18.302211761,0.015846312,-0.123806581,0.984646678
70.477776,-2.699321747,13.940906525,20.011196136,0.007789671,-0.105496034,1.016018748
70.516100,0.855976105,11.201953888,22.162685394,-0.004173219,-0.090969667,1.025174022
70.554409,-0.593608856,7.730579376,27.488002777,0.003273070,-0.135281190,0.980984569
70.568701,-2.310222626,11.957263947,28.029689789,0.005348265,-0.144192323,0.986355662
70.584043,-2.600139618,12.582874298,28.350124359,0.002662718,-0.144802675,0.992092967
70.622344,-2.119487762,-1.584911346,33.957729340,-0.039207399,-0.178860292,1.002224803
70.660639,-2.928203583,-4.720592499,43.761501312,0.022926390,-0.211330995,1.023220897
70.674938,-3.759807587,-1.737499237,43.463954926,0.047096312,-0.214138612,1.029324412
70.690274,-3.462261200,2.229785919,42.250881195,0.055763304,-0.213162050,1.054226756
70.728593,-0.311321259,-1.027965546,44.646511078,0.035621703,-0.264919877,1.042874217
70.766880,4.388385773,-7.985973358,45.943508148,0.049537718,-0.232205018,1.032376170
70.781164,5.342060089,-8.550548553,45.462856293,0.058326781,-0.237698182,1.016262889
70.796506,4.304462433,-8.603954315,42.845973969,0.066871703,-0.269192338,0.982083201
70.846546,4.586750031,-10.976696014,39.130458832,0.023536742,-0.227688417,0.972317576
70.884915,4.220539093,-14.425182343,39.069423676,0.015480101,-0.214748964,0.947415233
70.899221,3.999286652,-15.340709686,39.206752777,0.022804320,-0.203762636,0.942288280
70.914582,3.907733917,-14.043712616,38.451442719,0.031471312,-0.202786073,0.942776561
70.952897,3.556781769,-3.385448456,35.765895844,0.035499632,-0.208889589,0.919339061
70.991203,2.046161652,-2.828502655,36.650905609,0.016822875,-0.175930604,0.912625194
71.018621,-0.158733368,-2.851390839,38.192043304,0.024147093,-0.204739198,0.895047069
71.032952,-1.715129852,-1.325511932,37.215480804,0.020729125,-0.210842714,0.891873240
71.071157,-3.256267548,-11.129283905,41.869411469,-0.007347047,-0.199368104,0.902127147
71.109452,-9.260601044,-17.614269257,45.790920258,0.007423460,-0.188015565,1.017361522
71.123749,-4.713481903,-13.250255585,46.386013031,0.028663695,-0.200344667,1.066922069
71.139103,-2.951091766,-9.588146210,46.057949066,0.036964476,-0.186794862,1.060574412
71.177441,-3.469890594,6.670093536,43.715724945,0.035621703,-0.182156190,1.038967967
71.215721,0.299030304,9.698963165,45.371303558,0.031105101,-0.174221620,1.129177928
71.230027,2.786212921,8.867359161,46.309719086,0.041481078,-0.165310487,1.138455272
71.245381,7.165485382,7.043933868,47.271022797,0.045631468,-0.159329042,1.136990428
71.283689,11.903339386,7.394886017,46.485195160,0.082008421,-0.166042909,1.096218944
71.322007,12.895160675,4.701709747,45.935878754,0.058448851,-0.160793886,1.097561717
71.336307,15.260272980,-2.881908417,45.256862640,0.029640257,-0.145901307,1.101590037
71.351665,17.167621613,-8.481884003,46.798000336,0.009742796,-0.155178651,1.098049998
71.389995,18.609577179,-27.326488495,53.397426605,0.032569945,-0.192288026,1.060940623
71.428280,18.899494171,-28.898143768,50.894985199,0.018653929,-0.187405214,1.007595897
71.442589,16.969257355,-32.407665253,52.245388031,-0.004417360,-0.178982362,0.984036326
71.457979,15.122943878,-35.001659393,53.565273285,-0.015037477,-0.190701112,0.983059764
71.496291,13.398700714,-36.390209198,59.325466156,0.042579710,-0.179836854,1.031887889
71.534615,14.314228058,-9.496593475,51.375637054,0.101905882,-0.146145448,0.971096873
71.548925,12.376361847,-3.148937225,49.407253265,0.094459593,-0.159451112,0.966091990
71.564280,10.057025909,5.823230743,49.086818695,0.087745726,-0.139919862,0.981716990
71.602613,10.995441437,20.265674591,42.617092133,0.099098265,-0.112820253,0.957302928
71.640907,5.853229523,19.685840607,41.022548676,0.045997679,-0.116726503,0.933987498
71.655218,4.540973663,16.512012482,42.861232758,0.045143187,-0.117703065,0.956570506
71.682732,6.204181671,9.401416779,44.921169281,0.070655882,-0.105129823,0.979763865
71.721147,3.434711456,9.958362579,40.503749847,0.075416625,-0.101223573,0.941677928
71.759450,3.564411163,0.696277618,41.770229340,0.032692015,-0.080471620,0.979153514
71.773742,6.043964386,-4.300975800,43.212184906,0.014137328,-0.089748964,0.968045115
71.789076,6.692462921,-5.865001678,44.898281097,0.015113890,-0.084011659,0.957180858
71.827389,3.297382355,-0.005626678,45.859584808,0.064674437,-0.095974550,0.957424998
71.865671,5.273395538,17.587757111,41.472682953,0.121192992,-0.084133729,1.009182811
71.879972,6.852680206,28.276538849,38.764247894,0.126075804,-0.091091737,0.994778514
71.895310,5.685382843,32.976245880,36.475429535,0.127662718,-0.093166932,0.982937694
71.933646,4.846149445,37.141895294,33.087978363,0.077858031,-0.073391542,1.019436717
71.971937,4.289203644,28.894519806,34.087429047,0.100318968,-0.104031190,0.987088084
71.986233,2.877765656,26.926136017,32.859096527,0.101539671,-0.100124940,0.989041209
72.001588,0.833087921,21.020984650,30.509243011,0.084693968,-0.109890565,0.997341990
72.039890,1.191669464,-11.114025116,32.767543793,0.003517210,-0.115872011,1.000759959
72.078204,0.878864288,-43.943309784,41.152248383,0.003761351,-0.135769472,1.012356639
72.092494,1.008563995,-48.391246796,41.678676605,0.034034789,-0.138821229,1.022976756
72.107840,2.816730499,-51.374340057,39.275417328,0.061988890,-0.153347597,1.040188670
72.146150,5.517536163,-42.234325409,35.552272797,0.106544554,-0.172634706,1.020779490
72.184456,4.174762726,-23.977184296,23.337612152,0.056984007,-0.138821229,1.043240428
72.198753,8.615070343,-24.343395233,23.070583344,0.014259398,-0.121121034,1.042996287
72.214091,10.636859894,-26.418590546,23.574123383,0.002296507,-0.118923768,1.025906444
72.252425,9.812885284,-28.371715546,25.794277191,0.028785765,-0.127102479,0.918484569
72.290721,5.517536163,-10.702037811,21.643886566,0.052345335,-0.121731386,0.911404490
72.319627,3.213459015,2.649402618,18.523464203,0.029762328,-0.106106386,0.917874217
72.333966,2.786212921,4.083728790,18.576869965,0.019142210,-0.104641542,0.915066600
72.372148,0.756793976,0.070667267,21.125087738,-0.001975954,-0.112331972,0.948880076
72.410456,-2.096599579,11.034107208,23.711452484,0.063453734,-0.163967714,0.925198436
72.424757,-5.377239227,17.412281036,21.277675629,0.082252562,-0.156277284,0.942166209
72.440125,-7.833904266,28.612232208,17.890224457,0.103736937,-0.132717714,1.011013865
72.478442,0.077777863,44.481372833,9.841213226,0.067726195,-0.083523378,1.094021678
72.516732,1.733356476,36.531543732,10.085353851,0.001686156,-0.107327089,0.981594920
72.531042,0.085407257,31.877613068,12.427577972,-0.005515993,-0.123318300,0.993924022
72.560165,0.772052765,21.883106232,18.485317230,0.060035765,-0.124539003,1.069729686
72.598529,3.945880890,23.920154572,6.858119965,0.086036742,-0.092556581,1.090115428
72.636848,10.423236847,-10.152721405,12.191066742,-0.047019899,-0.062649354,1.060452342
72.651132,10.606342316,-24.007701874,14.403591156,-0.053733766,-0.047024354,1.045071483
72.666480,11.964374542,-46.354198456,18.080959320,-0.056175172,-0.098538026,1.013577342
72.704789,11.453205109,-61.796092987,23.741970062,0.036598265,-0.079617128,1.023465037
72.743105,10.331684113,-42.760753632,19.469509125,0.121192992,-0.074856386,1.006131053
72.757419,9.591632843,-23.969554901,10.375270844,0.103370726,-0.049954042,0.994900584
72.772775,9.149127960,-16.919994354,7.964382172,0.068214476,-0.052029237,0.975125194
72.811067,3.999286652,-15.920543671,9.185085297,-0.052390993,-0.034573182,0.945095897
72.849349,1.863056183,-28.959178925,19.919643402,-0.018089235,0.016330138,0.897122264
72.863642,-0.479167938,-23.458385468,19.858608246,0.032936156,0.030978575,0.922879100
72.879008,-1.348918915,-17.316722870,18.317470551,0.062599242,0.027560607,0.949490428
72.917312,3.076129913,14.726734161,10.871181488,0.101051390,0.014132872,1.010159373
72.955637,0.527912140,32.854175568,6.018886566,0.070167601,-0.033352479,0.952908397
72.969930,-2.127117157,34.059619904,6.270656586,0.063087523,-0.033108339,0.950466990
72.985271,-5.033916473,33.517932892,5.995998383,0.060279906,-0.010403261,1.001980662
73.023549,-1.455730438,29.123401642,5.957851410,0.082008421,0.050143614,1.047879100
73.061872,-0.151103973,28.078174591,3.691921234,0.089576781,0.048312560,1.020901561
73.076154,1.153522491,26.910877228,1.807460785,0.074928343,0.045993224,1.019924998
73.091494,1.954608917,25.652027130,1.685390472,0.066505492,0.050387755,1.013821483
73.129798,4.739337921,12.956714630,1.563320160,0.024757445,0.026584044,0.999905467
73.168099,1.176410675,-10.557079315,8.033046722,-0.033714235,0.019137755,0.923245311
73.182413,-1.509136200,-20.017528534,14.289150238,-0.017112672,0.015841857,0.966214061
73.197774,-2.363628387,-21.436595917,15.288600922,0.011207640,-0.004421815,0.973049998
73.236074,-1.295513153,-6.231212616,10.092983246,0.095069945,0.028903380,1.062405467
73.274368,1.542621613,19.830799103,3.012905121,0.129127562,0.016818419,1.067532420
73.288648,2.740436554,25.369739532,0.403652191,0.122291625,0.013400450,1.067898631
73.304005,5.174213409,32.594776154,-1.877536774,0.098732054,0.000216857,1.052517772
73.342295,3.617816925,22.340869904,-2.564182281,0.009132445,-0.092190370,0.981350780
73.380613,3.511005402,-3.744029999,5.080471039,0.069068968,-0.054470643,0.996243358
73.409946,1.756244659,-5.140209198,0.655422211,0.123512328,-0.089871034,1.013333201
73.424280,1.565509796,-1.806163788,-6.569614410,0.112281859,-0.082668886,1.034451365
73.462447,4.716449738,-16.134166718,-9.690036774,-0.054344118,-0.087185487,0.941677928
73.500759,-3.378337860,-66.327957153,3.470668793,-0.129661500,-0.111233339,0.907498240
73.515045,-3.370708466,-75.323013306,9.459743500,-0.113059938,-0.097317323,0.919949412
73.530383,-5.476421356,-84.676651001,17.127285004,-0.017967165,-0.082913026,0.931546092
73.568675,-5.552715302,-63.337230682,11.145839691,0.082984984,-0.047512636,0.956082225
73.607014,-4.629558563,-13.227367401,-0.176181793,0.049537718,-0.070828065,0.954251170
73.636655,-2.287334442,9.027576447,0.685939789,0.031349242,-0.075710878,0.972073436
73.650982,-6.521648407,17.534351349,1.624355316,0.019630492,-0.095486268,0.975491405
73.689147,-6.239360809,43.092823029,-1.099338531,0.122657835,-0.060696229,1.015896678
73.727476,-2.798503876,72.259994507,-12.406101227,0.146827757,-0.078152284,1.003811717
73.741774,-1.966899872,83.932968140,-20.241489410,0.097023070,-0.081081972,0.993435740
73.757136,-2.569622040,83.086105347,-21.431674957,0.063819945,-0.071194276,0.978909373
73.795448,-3.652996063,48.441028595,-12.703647614,-0.051902711,-0.024441347,0.943386912
73.833755,-4.988140106,-1.523876190,-4.471530914,-0.018699586,-0.057400331,0.986966014
73.848049,-4.141277313,-18.621349335,-3.723850250,-0.016502321,-0.020290956,1.003811717
73.863403,-3.569072723,-26.052379608,-2.350559235,-0.025047243,0.026828185,0.993801951
73.901706,-4.759258270,-47.391796112,1.815090179,0.002296507,0.000094786,1.025540233
73.940036,-1.387065887,-42.890453339,1.380214691,0.054176390,0.007174864,1.073269725
73.954333,0.176959991,-38.549327850,0.266323090,0.061012328,0.001315489,1.094632030
73.969693,0.329547882,-27.158641815,-0.908603668,0.061866820,-0.040432557,1.100735545
74.008035,6.585651398,-0.463390350,-5.516757965,0.063942015,-0.048000917,1.102078319
74.046345,5.662494659,18.091297150,-7.141819000,0.061622679,-0.116116151,1.076565623
74.060649,5.166584015,25.934314728,-7.485141754,0.089942992,-0.108547792,1.071682811
74.076019,5.242877960,29.581165314,-9.217014313,0.097145140,-0.093166932,1.064480662
74.114329,3.953510284,35.028553009,-12.230625153,0.067970335,-0.121853456,1.026516795
74.152668,0.894123077,11.209583282,-8.545627594,-0.016136110,-0.098171815,0.995755076
74.166974,0.497394562,-8.809947968,-3.090610504,-0.035301149,-0.094143495,0.993313670
74.197768,-0.753826141,-26.174449921,3.585109711,0.026832640,-0.108914003,1.005032420
74.236164,-0.799602509,-14.188671112,-0.550022125,0.106544554,-0.106106386,1.031033397
74.274500,0.703388214,3.229236603,-5.371799469,0.115943968,-0.109890565,0.992459178
74.288809,-0.250286102,11.308765411,-7.584323883,0.105079710,-0.110745057,0.975003123
74.304127,-0.669902802,14.253711700,-8.644809723,0.101173460,-0.099758729,0.973049998
74.342445,1.206928253,19.723987579,-14.252414703,0.076759398,-0.074123964,0.950222850
74.380762,2.854877472,13.147449493,-13.748874664,0.059913695,-0.048245057,0.951321483
74.395054,4.556232452,8.287525177,-13.939609528,0.053566039,-0.038601503,0.932888865
74.410395,4.922443390,5.693531036,-13.481845856,0.052101195,-0.047390565,0.923123240
74.448703,1.069599152,-7.635021210,-11.482944489,0.024391234,-0.042507753,0.901150584
74.487040,0.299030304,-20.841503143,-6.317844391,-0.008445680,-0.007839784,0.917385936
74.501325,0.421100616,-23.893260956,-5.036106110,-0.005393922,-0.005642518,0.912503123
74.516660,-0.219768524,-28.470897675,-4.334201813,-0.007957399,-0.012600526,0.906887889
74.554958,-4.049724579,-29.340648651,-2.548923492,0.007301390,-0.000637636,0.920681834
74.593267,-2.310222626,-26.204967499,-0.023593903,-0.001487672,0.000338927,0.968411326
74.607556,-1.066631317,-20.833873749,2.082118988,0.019752562,-0.004665956,0.973538280
74.622899,-1.867717743,-15.561962128,2.417812347,0.051002562,-0.029690370,0.972317576
74.661230,-5.842632294,14.108753204,-2.686252594,0.136451781,-0.033962831,1.034817576
74.699541,-2.981609344,36.348438263,-7.874240875,0.101783812,-0.044949159,1.083401561
74.713847,0.169330597,37.057971954,-7.492771149,0.077613890,-0.068752870,1.076443553
74.729193,0.665241241,36.699390411,-6.241550446,0.083473265,-0.075466737,1.060086131
74.767479,-2.676433563,31.862354279,-6.317844391,0.094703734,-0.116848573,1.053128123
74.805828,-0.448650360,22.325611115,-6.661167145,0.091896117,-0.110134706,1.056301951
74.820117,-0.189250946,18.625354767,-6.981601715,0.081520140,-0.106228456,1.043240428
74.835466,-1.005596161,7.661914825,-6.523838043,0.047706664,-0.111111268,1.008328319
74.873756,-4.263347626,-19.857311249,-1.824131012,0.009132445,-0.107327089,1.008328319
74.912072,-1.669353485,-27.967357635,1.715908051,0.078468382,-0.130032167,1.004666209
74.959081,-0.700420380,-9.687328339,-8.156528473,0.079933226,-0.132351503,0.988430858
74.973409,-0.875896454,-6.269359589,-10.254611969,0.017799437,-0.125515565,0.966336131
75.011607,-1.661724091,-17.743968964,-1.297702789,-0.019432008,-0.094509706,0.956082225
75.049891,0.077777863,-18.972301483,-1.175632477,0.039283812,-0.087185487,0.935574412
75.064170,-2.943462372,-14.066600800,-3.014316559,0.041603148,-0.095974550,0.932522655
75.079508,-3.935283661,-11.602306366,-3.647556305,0.036232054,-0.082302675,0.945095897
75.117822,0.665241241,-6.353282928,-3.685703278,0.024757445,-0.030178651,0.963162303
75.156135,-3.149456024,-3.538036346,-3.632297516,0.023780882,-0.090237245,0.893582225
75.170433,-6.178325653,0.612354279,-4.074802399,0.040138304,-0.069973573,0.946682811
75.185776,-6.300395966,3.366565704,-4.357089996,0.052955687,-0.061916932,0.981472850
75.224060,0.443988800,8.730030060,-8.316745758,0.032569945,-0.063870057,0.970852733
75.262366,-4.164165497,-1.615428925,-4.135837555,0.006691039,-0.074856386,0.997830272
75.276643,-3.141826630,-2.309703827,-2.892246246,0.008033812,-0.068508729,1.029080272
75.291987,-0.288433075,-0.951671600,-0.321140289,0.035743773,-0.078396425,1.044827342
75.330262,-0.410503387,12.132740021,-6.195774078,0.079811156,-0.107815370,1.106350780
75.368559,5.548053741,18.198108673,-8.095493317,0.053932250,-0.101223573,1.115139842
75.382860,6.700092316,18.678760529,-6.165256500,0.040260375,-0.104763612,1.108425975
75.398195,7.958942413,16.847705841,-4.166355133,0.022438109,-0.102200136,1.109036326
75.436478,9.141498566,22.195911407,-3.533115387,0.118263304,-0.140652284,1.055569530
75.474782,2.770954132,24.362659454,-7.965793610,0.050880492,-0.136013612,0.998196483
75.489074,3.076129913,12.941455841,-4.357089996,0.009864867,-0.112454042,0.994534373
75.504416,3.984027863,5.663013458,-0.962009430,0.004737914,-0.106228456,0.979397655
75.542694,1.763874054,-9.817028046,0.815639496,0.090187132,-0.084255800,0.947049022
75.581007,-3.218120575,-6.093883514,-2.274265289,0.068336546,-0.100979432,0.934964061
75.595292,-2.066082001,-7.047557831,-1.847019196,0.064430296,-0.091091737,0.950100780
75.610617,-1.676982880,-5.483531952,-2.197971344,0.069435179,-0.140041932,0.931790233
75.648899,0.436359406,1.482105255,-6.905307770,0.060524046,-0.076077089,0.930935740
75.687210,-2.661174774,-0.409984589,-4.349460602,0.052711546,-0.085476503,0.891995311
75.701476,-1.722759247,-0.539684296,-5.890598297,0.035987914,-0.077541932,0.908230662
75.716820,-2.706951141,-0.249767303,-4.730930328,0.046608031,-0.092678651,0.898220897
75.771247,-3.492778778,-1.638317108,-4.585971832,0.012794554,-0.051663026,0.921170115
75.809674,-7.322734833,-7.192516327,1.097927094,0.013893187,-0.058743104,0.934964061
75.823971,-7.055706024,-7.680797577,1.830348969,0.015480101,-0.050808534,0.949612498
75.839282,-6.750530243,-6.399059296,3.409633636,0.034401000,-0.048611268,0.953030467
75.877595,-8.314556122,2.199268341,1.136074066,0.065406859,-0.048489198,1.025784373
75.915918,-4.301494598,8.516407013,6.118068695,0.062477171,-0.045437440,1.125027537
75.930219,-0.914043427,11.095142365,3.485927582,0.086525023,-0.033108339,1.123806834
75.945551,-1.982158661,14.055347443,0.434169769,0.056251585,-0.144558534,1.107937694
75.983865,1.565509796,17.603015900,-0.366916656,0.024025023,-0.081814393,1.247097850
76.022192,12.498432159,13.788318634,5.408535004,0.063331664,-0.139309511,1.150540233
76.036489,8.996540070,10.698413849,3.752956390,0.072975218,-0.185818300,1.124661326
76.051837,7.134967804,7.181262970,2.974758148,0.046608031,-0.182156190,1.117337108
76.090132,12.414508820,-15.081310272,13.793239594,0.041114867,-0.131863222,1.085354686
76.128476,8.538776398,-19.430065155,6.522426605,0.058082640,-0.170803651,1.054959178
76.142781,9.713703156,-19.224071503,6.690273285,0.043678343,-0.136623964,1.077420115
76.158129,16.320758820,-16.820812225,10.764369965,0.069557250,-0.142727479,1.059597850
76.196439,10.255390167,-6.940746307,5.431423187,0.041114867,-0.121487245,0.980618358
76.234757,9.599262238,-13.700389862,3.043422699,-0.042991579,-0.063625917,1.030789256
76.261820,15.336566925,-23.816967010,8.719692230,-0.019920290,-0.017239198,1.009549022
76.276157,12.422138214,-27.501964569,11.222133636,0.033058226,-0.070095643,0.938992381
76.314361,7.051044464,-18.155956268,5.667934418,0.020851195,-0.028835878,0.980252147
76.352697,7.844501495,-8.153820038,4.271755219,0.056129515,-0.020046815,0.979031444
76.366988,8.714252472,-2.614879608,3.859767914,0.046730101,-0.034695253,0.916775584
76.382329,8.370929718,-0.493907928,0.777492523,0.025978148,-0.001858339,0.959622264
76.420642,7.188373566,8.379077911,1.967678070,0.026710570,-0.012234315,0.929715037
76.458951,6.547504425,10.950183868,0.640163422,0.006813109,0.023654357,0.966824412
76.473239,7.379108429,5.663013458,3.058681488,0.007789671,0.026095763,0.954617381
76.500389,5.174213409,3.610706329,5.049953461,0.022682250,0.011569396,0.966091990
76.538738,3.877216339,11.125659943,4.561672211,0.065528929,0.042941466,1.062771678
76.577094,10.217243195,23.111438751,0.457057953,0.112403929,0.046359435,1.105252147
76.591398,10.758930206,25.491809845,-0.290622711,0.106056273,0.029147521,1.106106639
