time,gyro x,gyro y,gyro z,accel x,accel y,accel z
5.179138184,0.281982422,-0.027023315,-0.046424866,-0.003549438,0.002692016,0.010477543
5.188663006,0.236206055,-0.278793335,0.136680603,0.001699585,-0.002923219,-0.000874996
5.189323902,0.182800293,-0.263534546,0.014610291,0.002309937,-0.003411500,-0.004415035
5.189972878,0.312500000,-0.194869995,-0.099830627,0.001699585,0.001959594,-0.000630856
5.190618038,0.358276367,-0.141464233,0.106163025,-0.001596313,-0.000481812,-0.003072262
5.191280842,0.281982422,-0.240646362,0.159568787,0.001821655,0.003424438,0.000833988
5.191922188,0.465087891,0.026382446,0.060386658,0.000723023,0.004034789,0.004129887
5.192560196,0.388793945,0.041641235,-0.137977600,0.000967163,0.002936156,0.001444340
5.193220139,0.175170898,-0.057540894,-0.130348206,0.000356812,0.004767211,0.003275394
5.193865776,0.053100586,0.133193970,0.045127869,0.000356812,0.000860961,0.002054691
5.194508076,0.167541504,-0.065170288,0.075645447,0.001699585,0.001349242,0.004496098
5.195158005,0.083618164,-0.233016968,-0.099830627,0.000845093,0.003302367,0.002909184
5.195802212,0.060729980,-0.187240601,-0.137977600,-0.002694946,0.002814086,0.001688480
5.196459770,0.075988770,-0.057540894,-0.107460022,0.000600952,0.005255492,-0.000630856
5.197103024,-0.168151855,0.018753052,0.212974548,-0.001596313,-0.002068726,0.000956059
5.197745800,-0.198669434,0.278152466,0.037498474,-0.001230102,-0.005974976,0.004862309
5.198394775,-0.213928223,0.156082153,0.068016052,0.000967163,-0.000481812,0.002787113
5.199055195,-0.122375488,0.171340942,0.174827576,-0.001962524,0.003058227,0.004251957
5.199700832,0.045471191,-0.034652710,0.068016052,0.000600952,-0.000237672,0.003763676
5.200347900,-0.023193359,-0.095687866,0.266380310,-0.002939087,-0.002434937,-0.001363277
5.200998783,0.106506348,0.133193970,-0.061683655,0.000967163,-0.000481812,0.000223637
5.201645851,0.137023926,0.178970337,0.129051208,0.000723023,-0.003533570,-0.000874996
5.202294827,0.182800293,0.087417603,0.022239685,0.000967163,-0.002190797,-0.001241207
5.202950954,0.220947266,0.270523071,-0.038795471,-0.001108032,-0.002068726,0.000589848
5.203595161,0.289611816,-0.004135132,-0.176124573,0.000356812,-0.004021851,0.002176762
5.204245090,0.243835449,0.011123657,0.006980896,-0.000375610,0.003180297,0.000711918
5.204877853,0.373535156,-0.110946655,0.083274841,-0.000863892,0.002081664,0.000956059
5.205526829,0.297241211,-0.049911499,-0.137977600,-0.003305298,0.000983031,0.007181644
5.206183910,0.175170898,-0.294052124,-0.023536682,-0.004159790,0.000006469,0.006449223
5.206828117,0.137023926,-0.042282104,0.060386658,-0.003061157,-0.000359742,0.006205082
5.207471848,0.075988770,-0.316940308,-0.191383362,-0.003305298,0.001593383,0.000223637
5.208120823,-0.038452148,-0.149093628,0.068016052,-0.000619751,-0.000848023,0.002420902
5.208756924,0.243835449,-0.248275757,0.045127869,0.002065796,-0.003167359,0.001444340
5.209410191,-0.023193359,-0.019393921,0.243492126,-0.002084595,0.000860961,0.002665043
5.210152149,-0.046081543,-0.271163940,0.083274841,0.000356812,0.001349242,-0.001119137
5.210794926,0.289611816,-0.194869995,-0.008277893,-0.001108032,0.000983031,-0.001973629
5.211448193,0.152282715,-0.126205444,-0.122718811,-0.002694946,-0.000481812,0.003885746
5.212110043,-0.015563965,-0.065170288,-0.015907288,-0.000253540,0.000006469,0.003031254
5.212788105,0.137023926,-0.019393921,0.258750916,-0.000253540,0.001105102,0.001200199
5.213436127,0.327758789,-0.034652710,-0.008277893,-0.005380493,0.003668578,0.000223637
5.214081764,0.243835449,-0.187240601,-0.267677307,-0.003671509,-0.000237672,-0.003194332
5.214727879,0.327758789,-0.240646362,-0.206642151,-0.000497681,-0.002434937,0.000467777
5.215373039,0.274353027,-0.156723022,-0.015907288,0.002554077,0.000372680,-0.000142574
5.216022968,0.045471191,-0.294052124,-0.099830627,-0.000619751,0.002203735,-0.000752926
5.216669083,0.053100586,-0.133834839,-0.092201233,0.001699585,0.000128539,0.002909184
5.217320919,0.121765137,-0.210128784,0.068016052,0.000723023,-0.002801148,0.002909184
5.218060017,0.182800293,0.026382446,0.022239685,0.002432007,-0.001214234,0.004618168
5.218872070,0.159912109,-0.110946655,-0.199012756,0.000478882,0.002203735,0.003885746
5.232420921,-0.053710938,-0.156723022,-0.107460022,0.000234741,-0.001214234,0.001444340
5.233432770,-0.236816406,-0.149093628,0.029869080,-0.000741821,0.002325805,-0.001485348
5.234096050,-0.122375488,-0.187240601,0.022239685,-0.001352173,-0.001336304,-0.001851559
5.234746933,-0.114746094,-0.225387573,0.045127869,-0.001718384,-0.000603883,-0.002706051
5.235400200,-0.152893066,-0.095687866,0.144309998,0.000845093,-0.002434937,-0.002461910
5.236126900,0.159912109,-0.141464233,-0.130348206,-0.000131470,-0.004021851,-0.005147457
5.236781120,0.129394531,-0.133834839,0.167198181,-0.002572876,-0.001946656,-0.002461910
5.237442017,0.190429688,0.018753052,0.045127869,-0.000497681,-0.002312867,0.000956059
5.238217831,0.259094238,-0.088058472,-0.000648499,0.000723023,-0.002679078,0.000223637
5.238859177,0.274353027,0.110305786,-0.038795471,0.001943726,-0.003777711,-0.000386715
5.239512920,0.274353027,0.034011841,-0.054054260,-0.000375610,-0.001214234,0.003763676
5.240168095,0.487976074,-0.248275757,-0.008277893,-0.000863892,-0.001824586,0.000956059
5.240809917,0.098876953,-0.103317261,0.075645447,-0.000253540,-0.000115601,-0.000508785
5.241462231,0.396423340,0.201858521,0.068016052,0.000478882,-0.002312867,0.002298832
5.242113113,0.098876953,-0.118576050,0.083274841,-0.000497681,0.000372680,0.002054691
5.242756844,0.358276367,0.018753052,0.029869080,0.000478882,-0.001336304,0.001688480
5.243410110,0.259094238,-0.004135132,0.052757263,-0.000009399,-0.001458375,0.003519535
5.244059086,0.251464844,0.095046997,0.068016052,-0.001108032,0.000006469,0.002542973
5.244698048,0.198059082,-0.042282104,-0.145606995,-0.001840454,-0.000481812,0.003397465
5.245353222,0.281982422,-0.118576050,-0.069313049,-0.000253540,0.001959594,0.003275394
5.246006966,0.274353027,-0.088058472,-0.115089417,-0.000253540,-0.000603883,0.002665043
5.246651173,-0.038452148,-0.110946655,0.006980896,0.000723023,-0.002557008,0.004374027
5.247302055,0.381164551,0.133193970,0.068016052,0.000478882,-0.001092164,0.002787113
5.247952938,0.228576660,-0.019393921,-0.038795471,-0.000375610,0.000372680,0.002420902
5.248599052,0.198059082,-0.263534546,-0.176124573,-0.003183227,-0.000115601,0.001566410
5.249258995,0.022583008,-0.019393921,-0.008277893,0.001089233,0.001715453,0.001566410
5.249911785,0.075988770,-0.355087280,0.251121521,-0.000619751,0.000006469,-0.000630856
5.250551224,0.098876953,0.064529419,-0.015907288,-0.002206665,-0.002923219,0.003031254
5.251204014,0.053100586,-0.049911499,0.037498474,-0.000863892,-0.000970094,-0.001241207
5.251854897,0.175170898,-0.294052124,-0.000648499,0.001699585,0.001593383,0.005106449
5.252511978,0.167541504,-0.164352417,0.052757263,0.000234741,-0.000359742,0.000956059
5.253162861,0.175170898,-0.271163940,0.052757263,-0.000131470,0.000372680,0.003641605
5.253808022,0.091247559,-0.042282104,0.045127869,0.000478882,-0.001336304,-0.000386715
5.254455090,0.114135742,-0.149093628,0.098533630,-0.000985962,0.003790649,-0.000264645
5.255116940,0.144653320,-0.233016968,-0.076942444,0.002920288,-0.001336304,0.000345707
5.255767822,0.213317871,-0.194869995,0.068016052,0.000967163,-0.000237672,0.000711918
5.256430149,0.259094238,0.064529419,0.090904236,-0.001840454,0.000372680,-0.000142574
5.257085800,0.236206055,-0.301681519,-0.115089417,-0.001474243,0.002325805,0.002298832
5.257734776,0.014953613,-0.194869995,0.144309998,0.002309937,0.001959594,0.004740238
5.258389950,0.083618164,-0.126205444,-0.153236389,0.001943726,0.002569946,0.003153324
5.259048939,0.106506348,-0.156723022,-0.015907288,0.000356812,0.001593383,0.003153324
5.259695053,-0.007934570,-0.072799683,0.113792419,0.002432007,0.000128539,0.000833988
5.260350227,-0.015563965,-0.416122437,0.060386658,0.002309937,-0.002190797,0.001566410
5.261003017,0.213317871,-0.233016968,-0.046424866,0.000356812,0.000006469,-0.000264645
5.261641026,0.060729980,-0.095687866,-0.023536682,0.001577515,-0.002434937,0.001810551
5.262294769,0.228576660,-0.095687866,-0.115089417,0.001089233,0.000860961,0.002665043
5.262948990,0.167541504,-0.301681519,-0.084571838,0.000845093,0.001349242,-0.002950191
5.277798176,0.182800293,0.117935181,-0.023536682,-0.001962524,0.000006469,-0.000020504
5.278483868,0.190429688,-0.377975464,0.029869080,-0.002694946,-0.002679078,-0.000630856
5.279270172,0.426940918,-0.072799683,-0.061683655,-0.000863892,-0.001214234,-0.000142574
5.279918194,0.297241211,0.041641235,-0.008277893,-0.000619751,-0.001702515,0.000589848
5.280551910,0.587158203,-0.233016968,-0.122718811,0.002432007,0.000860961,0.000956059
5.281201839,0.243835449,-0.164352417,-0.183753967,-0.000619751,-0.000725953,0.000101566
5.281840801,0.442199707,0.049270630,0.251121521,-0.000253540,0.000372680,-0.002950191
5.282487869,0.312500000,0.018753052,-0.000648499,-0.002206665,0.000738891,0.002909184
5.283123970,0.281982422,-0.263534546,0.129051208,-0.001230102,0.000006469,0.000345707
5.283761978,0.251464844,-0.164352417,0.029869080,-0.001596313,0.000250610,0.004374027
5.284409046,0.457458496,-0.110946655,0.060386658,-0.001108032,-0.001214234,0.001932621
5.285065174,0.320129395,-0.301681519,-0.145606995,0.000845093,0.001471313,0.003641605
5.285703182,0.228576660,-0.187240601,0.235862732,-0.002572876,0.000860961,0.004251957
5.286354065,0.098876953,-0.164352417,0.006980896,-0.001718384,0.000494750,0.001444340
5.286994934,0.297241211,-0.202499390,-0.176124573,-0.002328735,0.000983031,0.004374027
5.287650108,0.304870605,-0.339828491,-0.122718811,-0.000497681,-0.000115601,0.004007816
5.288302898,0.327758789,-0.370346069,-0.038795471,-0.000741821,-0.000725953,0.002542973
5.288952827,0.266723633,-0.301681519,0.075645447,-0.002817017,-0.001214234,0.002176762
5.289595127,0.320129395,-0.278793335,-0.015907288,-0.000497681,-0.001824586,-0.000264645
5.290245056,0.350646973,-0.126205444,-0.130348206,0.000723023,-0.002434937,0.002420902
5.290884972,0.320129395,-0.454269409,0.327415466,-0.002572876,-0.000970094,-0.002217770
5.291543961,0.671081543,-0.393234253,0.083274841,0.002187866,-0.005486695,0.000589848
5.292195797,0.617675781,-0.515304565,-0.107460022,0.000356812,-0.003167359,0.003397465
5.292840004,0.716857910,-0.507675171,-0.252418518,-0.000985962,-0.001946656,0.001322269
5.293499947,0.594787598,-0.622116089,0.045127869,-0.000619751,-0.001702515,-0.000874996
5.294153214,0.625305176,-0.377975464,-0.008277893,-0.001718384,-0.003411500,0.001322269
5.294794083,0.564270020,-0.347457886,-0.008277893,-0.001230102,-0.000359742,0.002909184
5.295441151,0.777893066,-0.568710327,0.121421814,-0.003305298,-0.000237672,0.000711918
5.296085835,0.884704590,-0.423751831,-0.137977600,0.000723023,-0.000115601,0.000589848
5.296726227,0.671081543,-0.469528198,-0.092201233,0.002065796,-0.000481812,0.003031254
5.297370911,0.655822754,-0.622116089,-0.069313049,-0.002694946,-0.002557008,0.002787113
5.298023224,0.877075195,-0.606857300,-0.061683655,0.000234741,-0.000603883,0.001932621
5.298661232,0.800781250,-0.324569702,0.159568787,0.000723023,0.001837524,0.003519535
5.299310207,0.640563965,-0.622116089,-0.084571838,0.001211304,0.001715453,0.006571293
5.299956799,0.617675781,-0.690780640,0.167198181,0.000723023,0.001837524,0.000711918
5.300597191,0.541381836,-0.606857300,0.045127869,0.003042358,0.000738891,0.004374027
5.301240921,0.686340332,-0.439010620,-0.130348206,-0.000863892,-0.003045289,0.002298832
5.301885128,0.854187012,-0.461898804,-0.137977600,-0.002328735,0.000616821,0.004740238
5.302530766,0.808410645,-0.751815796,0.197715759,0.000478882,0.001471313,0.004007816
5.303178787,0.632934570,-0.500045776,0.090904236,0.001699585,-0.000481812,0.001810551
5.303818226,0.564270020,-0.309310913,-0.054054260,0.002309937,-0.001092164,0.004374027
5.304465771,0.564270020,-0.622116089,0.006980896,-0.000131470,-0.003289429,0.001200199
5.305109978,0.686340332,-0.515304565,0.068016052,0.001821655,0.003180297,0.002665043
5.305754185,0.693969727,-0.423751831,-0.130348206,0.003774780,0.000616821,0.000345707
5.306397915,0.724487305,-0.377975464,0.098533630,-0.001352173,-0.000603883,0.003885746
5.307046890,0.632934570,-0.614486694,0.075645447,0.000112671,0.000983031,0.002420902
5.307693005,0.922851562,-0.767074585,0.159568787,-0.000131470,0.003790649,-0.001363277
5.320737839,0.518493652,-0.065170288,-0.153236389,0.001211304,-0.000359742,0.002787113
5.321427822,0.442199707,-0.110946655,-0.153236389,-0.002572876,0.000738891,-0.000508785
5.322076797,0.281982422,-0.202499390,0.106163025,-0.001108032,-0.000359742,0.000345707
5.322718143,0.655822754,-0.049911499,-0.046424866,-0.001352173,-0.001336304,-0.001363277
5.323370934,0.571899414,0.140823364,0.098533630,-0.004159790,-0.001214234,-0.000997066
5.324031830,0.220947266,-0.088058472,-0.061683655,-0.001230102,-0.001336304,0.001688480
5.324676037,0.602416992,-0.210128784,-0.031166077,-0.002206665,0.001227172,0.001444340
5.325332165,0.457458496,-0.118576050,0.113792419,-0.001108032,0.000983031,-0.001851559
5.325986862,0.434570312,-0.072799683,0.197715759,0.000600952,0.000983031,0.002298832
5.326775074,0.350646973,-0.133834839,0.182456970,-0.001474243,-0.000481812,0.001444340
5.327433109,0.358276367,-0.377975464,-0.130348206,-0.000131470,-0.000237672,0.003153324
5.328085899,0.556640625,-0.110946655,-0.084571838,0.000723023,-0.002923219,0.003275394
5.328725815,0.571899414,-0.324569702,-0.008277893,-0.002817017,-0.000359742,0.004129887
5.329377174,0.640563965,-0.233016968,-0.176124573,0.000234741,0.000494750,0.000956059
5.330019951,0.556640625,-0.263534546,-0.000648499,0.000723023,0.000250610,0.002542973
5.330653191,0.602416992,-0.316940308,0.121421814,0.000478882,-0.000848023,0.001810551
5.331295967,0.594787598,-0.606857300,0.075645447,0.001333374,0.000494750,0.001322269
5.331946850,0.632934570,-0.446640015,0.014610291,-0.000863892,-0.000481812,0.000711918
5.332581043,0.655822754,-0.416122437,-0.054054260,-0.000497681,-0.000115601,0.001932621
5.333231926,0.587158203,-0.294052124,0.106163025,-0.002084595,-0.001702515,0.001444340
5.333875179,0.579528809,-0.423751831,0.075645447,-0.000497681,0.000250610,0.003519535
5.334523201,0.678710938,-0.446640015,-0.008277893,0.001333374,-0.001946656,0.001078129
5.335296154,0.823669434,-0.416122437,-0.107460022,-0.001718384,-0.001336304,0.003519535
5.335953236,0.526123047,-0.278793335,0.052757263,-0.000619751,0.001593383,0.002542973
5.336590767,0.663452148,-0.301681519,0.174827576,0.001455444,0.000738891,0.002787113
5.337242126,0.755004883,-0.561080933,0.266380310,-0.000619751,-0.000603883,0.003031254
5.337878227,0.617675781,-0.423751831,-0.244789124,0.001211304,0.002447875,-0.001119137
5.338533878,0.709228516,-0.645004272,0.190086365,-0.002694946,0.001593383,0.002054691
5.339186192,0.663452148,-0.416122437,-0.046424866,0.001089233,0.000738891,0.002176762
5.339828014,0.632934570,-0.515304565,-0.160865784,-0.000009399,0.001715453,0.000833988
5.340472221,0.678710938,-0.423751831,-0.023536682,-0.001718384,-0.001580445,0.003153324
5.341252804,0.793151855,-0.309310913,0.167198181,0.000723023,0.001471313,0.004618168
5.341898918,0.587158203,-0.393234253,0.106163025,0.000234741,0.001349242,0.003763676
5.342543125,0.755004883,-0.477157593,0.006980896,0.000967163,0.000738891,0.002176762
5.343191147,0.770263672,-0.477157593,0.075645447,0.000723023,0.002203735,0.002054691
5.343834877,0.693969727,-0.431381226,-0.084571838,0.001333374,0.001593383,0.002665043
5.344480991,0.640563965,-0.446640015,0.029869080,-0.002572876,0.002692016,0.000956059
5.345129013,0.480346680,-0.545822144,0.090904236,-0.000131470,0.001471313,-0.000020504
5.345761776,0.648193359,-0.637374878,-0.000648499,0.002432007,0.002936156,0.003641605
5.346407890,0.533752441,-0.332199097,-0.031166077,-0.000497681,0.000250610,0.003275394
5.347052097,0.686340332,0.087417603,-0.076942444,0.000356812,0.003180297,0.000711918
5.347689152,0.426940918,-0.591598511,0.151939392,0.000478882,0.000983031,0.001444340
5.348346233,0.259094238,-0.301681519,0.045127869,0.001699585,0.002325805,0.002909184
5.348999023,0.327758789,-0.286422729,0.029869080,-0.000131470,0.001471313,0.003031254
5.349637985,0.281982422,-0.309310913,-0.061683655,0.002187866,0.002569946,0.004618168
5.350288868,0.335388184,-0.034652710,-0.061683655,0.002309937,-0.000115601,0.001444340
5.350925922,0.259094238,-0.355087280,-0.023536682,0.003896851,0.001471313,0.002420902
5.363851070,-0.267333984,-0.126205444,0.037498474,0.000478882,0.004645141,0.002420902
5.364529133,0.022583008,0.056900024,-0.130348206,-0.000009399,0.003180297,-0.002339840
5.365170002,-0.252075195,-0.156723022,-0.153236389,-0.001474243,-0.001580445,0.000956059
5.365817070,-0.000305176,-0.278793335,0.006980896,0.000600952,-0.002923219,-0.000142574
5.366452217,0.045471191,-0.088058472,-0.023536682,0.000478882,-0.007073609,-0.000264645
5.367101192,0.274353027,-0.072799683,-0.084571838,0.008047241,-0.007806031,-0.001485348
5.367743015,0.503234863,-0.149093628,0.060386658,-0.008554321,0.000372680,-0.003926754
5.368392944,0.785522461,-0.309310913,-0.076942444,-0.004403931,-0.006585328,-0.012349606
5.369044781,0.846557617,-0.271163940,0.090904236,0.005361694,-0.013055054,0.001688480
5.369691849,0.991516113,-0.171981812,0.014610291,0.003530640,-0.006585328,0.006327152
5.370341778,1.372985840,-0.263534546,-0.000648499,-0.007455688,0.000494750,0.000833988
5.370986938,1.296691895,-0.118576050,0.159568787,-0.001108032,0.002203735,-0.006978512
5.371629238,1.189880371,-0.316940308,0.190086365,0.003896851,-0.003045289,-0.004170895
5.372283936,0.869445801,-0.675521851,-0.168495178,-0.007943970,0.003180297,0.008768559
5.372926235,1.006774902,-0.339828491,0.144309998,0.002187866,0.002692016,0.006937504
5.373571873,0.770263672,-0.294052124,-0.214271545,0.007925171,0.007452758,0.005228519
5.374220848,0.434570312,-0.370346069,-0.199012756,0.000845093,0.018805297,-0.000142574
5.375010967,0.236206055,-0.294052124,-0.359230042,-0.003061157,0.012213500,0.004129887
5.375658989,-0.259704590,-0.385604858,-0.145606995,-0.002694946,0.014899047,0.015360355
5.376319885,-1.144714355,-0.194869995,0.060386658,0.000723023,0.026129516,0.014261723
5.376970768,-1.686401367,-0.110946655,0.151939392,-0.000253540,0.031744750,-0.002217770
5.377621174,-2.388305664,-0.225387573,0.052757263,-0.004037720,0.017096313,-0.001119137
5.378275871,-3.044433594,-0.202499390,-0.092201233,0.023183960,0.003424438,0.014383793
5.378924847,-2.968139648,-0.118576050,-0.061683655,0.013662476,0.002447875,0.015360355
5.379572868,-2.868957520,0.926651001,-0.000648499,0.011465210,0.013800414,-0.002828121
5.380225182,-3.464050293,0.941909790,-0.084571838,0.006338257,0.013067992,-0.012837887
5.380869865,-3.517456055,1.010574341,-0.031166077,-0.005136352,0.008917602,-0.010884762
5.381522179,-3.395385742,0.873245239,0.235862732,0.006460327,-0.011590211,0.011942387
5.382177830,-3.235168457,1.208938599,0.274009705,0.013296265,-0.003777711,0.012430668
5.382825851,-2.807922363,1.559890747,0.266380310,0.008657593,-0.005608765,-0.003072262
5.383479118,-2.899475098,1.712478638,0.434226990,-0.001840454,-0.015740601,-0.016011715
5.384140015,-2.060241699,1.552261353,0.411338806,-0.009530884,-0.034661500,-0.019063473
5.384788036,-1.602478027,1.689590454,0.579185486,-0.002694946,-0.046136109,-0.019673824
5.385449886,-0.374145508,1.742996216,0.289268494,-0.000497681,-0.045159547,-0.020650387
5.386103153,0.541381836,1.590408325,0.274009705,-0.008188110,-0.047356812,-0.029195309
5.386753082,1.563720703,1.552261353,0.106163025,-0.003305298,-0.051507203,-0.028707027
5.387401104,3.112487793,1.353897095,0.075645447,-0.007333618,-0.055657594,-0.018208981
5.388058186,4.440002441,1.163162231,-0.054054260,-0.011484009,-0.047723023,-0.012471676
5.388707161,5.393676758,0.690139771,0.106163025,-0.014169556,-0.037469117,-0.008199215
5.389363766,6.461791992,0.400222778,0.426597595,-0.013070923,-0.029534547,-0.006856441
5.390018940,6.972961426,-0.187240601,0.251121521,-0.015512329,-0.028680054,-0.004048824
5.390670776,7.919006348,-0.828109741,0.243492126,-0.016488892,-0.023431031,0.003153324
5.391327858,8.353881836,-1.285873413,0.266380310,-0.020883423,-0.018059937,0.008280277
5.391986847,8.681945801,-2.018295288,0.090904236,-0.024301392,-0.009881226,0.009867191
5.392641068,8.926086426,-2.537094116,0.151939392,-0.025277954,-0.000970094,0.015360355
5.393312931,8.559875488,-3.925643921,-0.000648499,-0.025155884,0.009405883,0.028788090
5.393964767,8.392028809,-4.688583374,-0.229530334,-0.024789673,0.015143188,0.028666019
5.406857014,2.303771973,-4.902206421,-0.214271545,0.017324585,0.000372680,-0.009297848
5.407543182,2.326660156,-4.528366089,-0.137977600,0.014639038,-0.001946656,-0.009541988
5.408201218,2.479248047,-4.085861206,-0.160865784,0.015249390,-0.004021851,-0.010030270
5.408853054,2.631835938,-3.818832397,-0.244789124,0.013662476,-0.005486695,-0.010152340
5.409632206,3.028564453,-2.956710815,0.151939392,0.009023804,-0.003533570,-0.007833004
5.410291195,3.318481445,-2.964340210,-0.115089417,0.009145874,-0.006585328,-0.010030270
5.410943031,3.516845703,-2.613388062,-0.176124573,0.006338257,-0.008294312,-0.009419918
5.411592960,3.570251465,-2.430282593,0.014610291,0.007681030,-0.008172242,-0.007100582
5.412242889,3.722839355,-2.308212280,-0.031166077,0.007681030,-0.005608765,-0.006001949
5.412899017,4.142456055,-2.140365601,0.174827576,0.004873413,-0.006219117,-0.004537106
5.413540840,4.134826660,-2.209030151,-0.046424866,0.002554077,-0.004754273,-0.004292965
5.414198875,3.982238770,-2.140365601,-0.008277893,0.001089233,-0.001580445,-0.006734371
5.414843082,4.424743652,-2.285324097,-0.199012756,-0.001962524,0.003668578,-0.002339840
5.415540218,4.478149414,-1.934371948,0.029869080,0.000845093,0.002814086,0.000345707
5.416184902,4.577331543,-2.086959839,-0.107460022,0.001211304,0.002814086,-0.001851559
5.416831970,4.516296387,-2.018295288,-0.130348206,0.002432007,0.003058227,0.001810551
5.417535782,4.531555176,-2.048812866,0.037498474,0.003286499,0.002203735,0.001322269
5.418190956,4.546813965,-2.094589233,-0.061683655,0.004018921,0.006476196,0.002542973
5.418832779,4.440002441,-2.163253784,-0.122718811,0.004018921,0.007696899,0.000589848
5.419485092,4.165344238,-1.995407104,-0.229530334,0.006216187,0.010138305,-0.000142574
5.420138836,3.974609375,-1.819931030,-0.092201233,0.003408569,0.008063110,-0.002706051
5.420782089,4.218750000,-1.705490112,-0.008277893,0.004140991,0.006842406,0.003519535
5.421412945,4.005126953,-1.690231323,-0.023536682,0.004629273,0.009894164,0.001566410
5.422078133,4.020385742,-1.682601929,-0.115089417,0.004873413,0.008063110,0.001688480
5.422723770,3.776245117,-1.659713745,-0.046424866,0.005117554,0.006232055,0.004129887
5.423377991,3.844909668,-1.461349487,0.075645447,0.001943726,0.006109985,0.002542973
5.424026012,3.829650879,-1.629196167,0.014610291,0.003896851,0.004645141,0.003641605
5.424667835,3.471069336,-1.514755249,0.113792419,0.003408569,0.004889281,0.002542973
5.425321102,3.432922363,-1.324020386,-0.015907288,0.000356812,0.002325805,0.004374027
5.425969124,3.425292969,-1.385055542,0.106163025,0.001577515,0.004034789,0.005960941
5.426609039,3.211669922,-1.346908569,0.006980896,-0.001352173,0.003302367,0.008402348
5.427258968,3.150634766,-1.354537964,-0.008277893,-0.001840454,0.003546508,0.010721684
5.427906990,3.333740234,-1.842819214,0.029869080,-0.001352173,0.001593383,0.007425785
5.428553104,2.944641113,-1.804672241,0.159568787,-0.004648071,0.001715453,0.005716801
5.429205894,3.135375977,-1.964889526,-0.099830627,-0.003183227,0.004401000,0.007791996
5.429862976,3.173522949,-2.270065308,0.037498474,-0.006723267,0.004523071,0.006815434
5.430514812,2.959899902,-2.361618042,0.037498474,-0.004281860,0.002569946,0.010233402
5.431173801,3.341369629,-2.498947144,-0.214271545,-0.004648071,0.000738891,0.007791996
5.431817055,3.120117188,-2.857528687,-0.076942444,-0.005014282,0.000372680,0.006693363
5.432578087,3.364257812,-3.139816284,-0.054054260,-0.008310181,0.002814086,0.007914066
5.433345795,3.455810547,-3.742538452,-0.099830627,-0.005746704,-0.001092164,0.009378910
5.434010983,3.471069336,-3.658615112,-0.145606995,-0.008554321,-0.001214234,0.008036137
5.434659958,3.745727539,-4.200302124,-0.107460022,-0.004648071,0.000860961,0.004496098
5.435309887,3.776245117,-4.330001831,-0.412635803,-0.005990845,0.001837524,0.004618168
5.435956955,4.005126953,-4.330001831,-0.267677307,-0.004403931,-0.000237672,0.005838871
5.436604023,4.050903320,-4.650436401,-0.199012756,-0.002694946,-0.002068726,0.001444340
5.437256813,4.287414551,-5.100570679,-0.160865784,-0.001596313,0.000128539,0.002542973
5.437911034,4.676513672,-5.085311890,-0.298194885,-0.001108032,-0.001824586,-0.000874996
5.450815201,-0.664062500,-0.622116089,0.045127869,0.017446655,0.011481078,-0.005635738
5.451506138,-0.831909180,-0.774703979,0.327415466,0.016470093,0.003180297,-0.008687496
5.452167988,-0.686950684,-0.400863647,0.243492126,0.012319702,-0.004021851,-0.009786129
5.452822208,-0.641174316,0.041641235,0.106163025,0.011098999,-0.009148804,-0.008809566
5.453481197,-0.068969727,0.011123657,0.319786072,0.009878296,-0.010857789,-0.009664059
5.454148769,0.167541504,0.064529419,0.190086365,0.006460327,-0.010735719,-0.008565426
5.454802036,0.327758789,0.270523071,0.357933044,0.002798218,-0.006341187,-0.005879879
5.455459118,0.838928223,0.362075806,0.167198181,0.004507202,-0.003777711,-0.003926754
5.456116199,0.976257324,0.674880981,-0.176124573,0.003530640,0.000006469,-0.001607418
5.456759930,0.983886719,0.293411255,0.129051208,0.005117554,0.009650024,0.004740238
5.457414150,0.625305176,0.255264282,0.060386658,0.004140991,0.010504516,0.003153324
5.458072186,0.625305176,0.461257935,0.357933044,0.004140991,0.010992797,0.004129887
5.458722115,0.884704590,0.598587036,0.052757263,0.004629273,0.011114867,0.002542973
5.459379196,0.655822754,0.232376099,-0.046424866,0.005239624,0.010504516,0.001444340
5.460035801,0.610046387,0.285781860,0.129051208,0.005117554,0.009527953,0.004740238
5.460683823,0.510864258,0.545181274,0.151939392,0.000967163,0.003546508,0.000345707
5.461349964,0.518493652,0.400222778,0.319786072,0.004507202,0.003058227,-0.000142574
5.462007046,1.006774902,0.232376099,-0.092201233,0.003774780,0.002203735,-0.000020504
5.462647915,0.640563965,0.499404907,0.113792419,0.004629273,0.003668578,-0.000264645
5.463303089,1.075439453,0.384963989,0.052757263,0.004873413,0.001471313,-0.001363277
5.463961124,0.632934570,0.232376099,0.106163025,0.004995483,0.003546508,-0.000752926
5.464608192,0.999145508,0.453628540,0.357933044,0.005483765,0.003546508,0.002054691
5.465264797,0.770263672,0.400222778,-0.061683655,0.004018921,0.007208617,0.002054691
5.465918064,0.564270020,0.560440063,0.090904236,0.002676148,0.008307250,0.004007816
5.466564178,0.907592773,0.384963989,0.159568787,0.004995483,0.009405883,0.006205082
5.467222214,0.480346680,0.316299438,0.014610291,0.004018921,0.008185180,0.008036137
5.467866898,0.449829102,0.430740356,0.388450623,0.001211304,0.008673461,0.004374027
5.468522072,0.358276367,0.316299438,0.121421814,0.003774780,0.006598266,0.006327152
5.469180107,0.335388184,0.293411255,0.174827576,0.000112671,0.005377563,0.005472660
5.469824791,0.266723633,0.102676392,0.129051208,-0.002084595,0.003790649,0.005838871
5.470478058,0.236206055,0.072158813,-0.023536682,-0.001474243,0.003180297,0.008646488
5.471134186,0.381164551,0.003494263,0.022239685,0.000112671,0.000860961,0.006693363
5.471772194,0.373535156,-0.133834839,0.228233337,-0.000497681,0.004889281,0.005472660
5.472431183,0.663452148,-0.500045776,-0.008277893,-0.001474243,0.005743774,0.009989262
5.473095894,0.434570312,-0.805221558,0.159568787,-0.001474243,0.006232055,0.005960941
5.473886967,0.579528809,-1.011215210,0.075645447,-0.000497681,0.008185180,0.008402348
5.474542141,0.472717285,-1.110397339,0.068016052,-0.001474243,0.009039672,0.007425785
5.475201130,0.487976074,-1.133285522,0.037498474,-0.000497681,0.007452758,0.003275394
5.475849152,0.274353027,-1.148544312,0.052757263,0.001943726,0.008429321,0.005350590
5.476504803,0.610046387,-1.339279175,0.106163025,-0.002206665,0.008185180,0.003641605
5.477159977,0.320129395,-1.354537964,-0.054054260,-0.000741821,0.007330688,0.004251957
5.477806091,0.350646973,-1.224838257,0.014610291,0.005239624,0.008307250,0.001444340
5.478459835,0.167541504,-1.041732788,-0.084571838,0.002309937,0.007696899,0.001566410
5.479116917,0.281982422,-1.583419800,-0.206642151,0.003286499,0.006109985,0.004618168
5.479765892,0.190429688,-1.545272827,-0.076942444,0.004751343,0.006964477,0.001566410
5.480550766,0.426940918,-1.545272827,-0.054054260,0.005239624,0.005743774,-0.003316402
5.481215954,0.190429688,-1.392684937,-0.000648499,0.007681030,0.006109985,0.001078129
5.481993198,0.213317871,-0.912033081,0.197715759,0.007803101,0.005377563,0.001444340
5.494857788,0.114135742,0.240005493,0.281639099,0.003530640,0.010504516,0.005838871
5.495546818,-0.015563965,-0.278793335,0.205345154,0.003530640,0.006842406,0.004496098
5.496193886,0.098876953,0.041641235,0.106163025,0.001333374,0.005499633,0.002787113
5.496837139,-0.046081543,0.003494263,0.075645447,0.002554077,-0.000725953,-0.002217770
5.497478008,0.228576660,-0.042282104,-0.015907288,0.007070679,0.002569946,-0.003682613
5.498129845,0.365905762,0.285781860,0.075645447,0.004263062,0.001959594,0.000956059
5.498764992,0.472717285,0.308670044,-0.000648499,0.002187866,0.002203735,-0.003438473
5.499413013,0.419311523,0.110305786,0.113792419,0.008657593,0.004889281,-0.000752926
5.500062943,0.625305176,0.308670044,0.144309998,0.007314819,0.008917602,-0.000752926
5.500701904,0.541381836,0.285781860,0.106163025,0.009756226,0.008795531,-0.002583981
5.501350880,0.510864258,0.270523071,-0.031166077,0.003652710,0.009650024,0.002298832
5.501998901,0.335388184,0.621475220,0.159568787,0.006094116,0.008917602,0.000223637
5.502635956,0.167541504,0.537551880,0.121421814,0.009390015,0.004401000,0.002665043
5.503285885,0.144653320,0.720657349,0.327415466,0.005361694,0.007330688,0.002054691
5.503928185,0.419311523,0.339187622,0.190086365,0.004995483,0.006720336,0.001688480
5.504572868,0.030212402,0.766433716,-0.015907288,0.003164429,0.006232055,0.003031254
5.505216122,0.365905762,0.339187622,0.060386658,0.002187866,0.006964477,0.006449223
5.505857944,0.114135742,0.278152466,-0.008277893,-0.000009399,0.006842406,0.007425785
5.506501198,0.228576660,0.423110962,0.121421814,0.001821655,0.008307250,0.007059574
5.507153034,-0.061340332,0.369705200,0.006980896,-0.001108032,0.007086547,0.010965824
5.507792950,-0.068969727,0.095046997,0.151939392,0.000600952,0.005255492,0.005594730
5.508440971,-0.191040039,0.140823364,0.060386658,0.000112671,0.006476196,0.006937504
5.509085178,0.060729980,-0.011764526,0.006980896,-0.001840454,0.005499633,0.007303715
5.509725094,-0.244445801,-0.171981812,0.083274841,-0.000741821,0.002203735,0.007303715
5.510365963,-0.213928223,-0.194869995,-0.099830627,-0.000131470,0.004156860,0.005228519
5.511028767,-0.152893066,-0.355087280,0.029869080,-0.000863892,0.006109985,0.007181644
5.511671066,-0.183410645,-0.576339722,0.037498474,-0.000375610,0.007452758,0.004251957
5.512324810,-0.282592773,-0.507675171,0.090904236,0.001089233,0.006476196,0.006937504
5.512971878,-0.244445801,-0.339828491,-0.000648499,0.001699585,0.006720336,0.006205082
5.513613224,-0.152893066,-0.561080933,-0.000648499,0.004018921,0.004889281,0.003275394
5.514258862,-0.198669434,-0.614486694,0.006980896,0.006826538,0.006354125,0.000223637
5.514906883,-0.229187012,-0.706039429,-0.076942444,0.007558960,0.007452758,-0.001485348
5.515549183,-0.297851562,-0.805221558,0.090904236,0.004873413,0.006842406,0.000589848
5.516333103,-0.313110352,-0.393234253,0.060386658,0.007925171,0.006964477,-0.000386715
5.516979218,-0.358886719,-0.355087280,0.235862732,0.009023804,0.006109985,0.002665043
5.517634869,-0.397033691,-0.500045776,-0.031166077,0.007314819,0.008917602,-0.000386715
5.518282890,-0.335998535,-0.301681519,-0.137977600,0.009756226,0.006598266,0.000467777
5.518929005,-0.267333984,-0.118576050,-0.015907288,0.007803101,0.005499633,-0.002706051
5.519592762,-0.366516113,-0.133834839,0.083274841,0.006948608,0.007941039,-0.003316402
5.520247936,-0.404663086,0.178970337,-0.084571838,0.010854858,0.002936156,-0.001485348
5.520898819,-0.107116699,0.453628540,0.113792419,0.008901733,0.005377563,-0.002095699
5.521545887,-0.450439453,0.690139771,0.220603943,0.009267944,0.005743774,0.000345707
5.522192001,-0.351257324,0.461257935,0.045127869,0.007314819,0.005255492,-0.002828121
5.522839069,-0.473327637,0.552810669,-0.061683655,0.006460327,0.005377563,0.001078129
5.523482800,-0.343627930,0.987686157,-0.031166077,0.007558960,0.004889281,0.000467777
5.524136066,-0.282592773,0.888504028,-0.092201233,0.008779663,0.005011352,0.001078129
5.524776936,-0.053710938,1.331008911,-0.031166077,0.007070679,0.003424438,0.000956059
5.537907124,-0.755615234,1.041091919,0.006980896,0.004629273,0.007330688,0.002665043
5.538711071,-0.389404297,0.812210083,0.220603943,0.003652710,0.003912719,0.005106449
5.539389133,-0.587768555,0.766433716,-0.031166077,0.004140991,0.002814086,-0.001729488
5.540042877,-0.541992188,0.774063110,0.197715759,0.004140991,0.003058227,-0.000508785
5.540822983,-0.625915527,0.865615845,0.106163025,0.004751343,0.002325805,0.001688480
5.541478157,-0.816650391,0.613845825,-0.015907288,0.003652710,0.009283813,0.000223637
5.542125225,-0.549621582,0.735916138,0.182456970,0.004995483,0.004401000,0.000711918
5.542769909,-0.648803711,1.140274048,0.045127869,0.005727905,0.007696899,-0.001729488
5.543417931,-0.603027344,1.056350708,-0.023536682,0.004873413,0.008795531,0.003397465
5.544085026,-0.717468262,0.949539185,0.022239685,0.006826538,0.005011352,-0.000997066
5.544844151,-0.824279785,1.262344360,0.045127869,0.008901733,0.006109985,0.001200199
5.545496941,-0.809020996,1.254714966,0.159568787,0.007558960,0.007941039,0.002542973
5.546145916,-0.839538574,1.277603149,0.174827576,0.004629273,0.010016235,0.005472660
5.546793938,-0.809020996,1.346267700,0.014610291,0.005605835,0.008917602,0.004251957
5.547438145,-1.304931641,1.453079224,0.045127869,0.005605835,0.010260375,0.005106449
5.548090935,-1.167602539,1.681961060,0.090904236,0.005239624,0.012335571,0.006937504
5.548730850,-1.297302246,1.506484985,0.205345154,0.003164429,0.011236938,0.006937504
5.549383163,-1.579589844,1.331008911,0.121421814,0.001699585,0.012213500,0.007181644
5.550035954,-1.755065918,1.460708618,0.281639099,0.001333374,0.008307250,0.006571293
5.550681114,-2.052612305,1.537002563,0.167198181,0.000723023,0.005865844,0.004618168
5.551329136,-1.961059570,1.422561646,0.106163025,-0.000863892,0.008185180,0.005472660
5.551976204,-1.915283203,1.338638306,0.144309998,-0.001108032,0.008551391,0.008646488
5.552618027,-2.167053223,1.102127075,0.113792419,0.001943726,0.008185180,0.003519535
5.553269863,-2.319641113,1.163162231,0.441856384,-0.001962524,0.007696899,0.008036137
5.553917885,-2.228088379,1.193679810,0.106163025,0.001455444,0.004523071,0.008280277
5.554563046,-2.312011719,1.041091919,-0.061683655,0.001089233,0.005987914,0.007669926
5.555215836,-2.243347168,1.056350708,0.151939392,-0.000741821,0.005499633,0.001566410
5.555861950,-2.281494141,0.865615845,0.136680603,-0.000619751,0.001837524,0.005228519
5.556510925,-2.136535645,0.629104614,-0.023536682,0.002065796,0.003912719,0.002176762
5.557165146,-2.182312012,0.590957642,0.174827576,0.001699585,0.003424438,0.003641605
5.557806015,-2.235717773,0.789321899,0.037498474,0.001333374,0.006720336,0.000345707
5.558458805,-2.106018066,0.285781860,-0.076942444,0.004263062,0.005987914,0.001566410
5.559110165,-2.113647461,0.835098267,0.090904236,0.006948608,0.005743774,0.001444340
5.559751034,-1.907653809,1.010574341,0.052757263,0.004995483,0.002569946,0.002420902
5.560396194,-2.090759277,0.621475220,0.060386658,0.006704468,0.002203735,-0.000874996
5.561046124,-2.167053223,0.964797974,-0.008277893,0.008779663,0.002814086,-0.000997066
5.561694145,-2.144165039,1.186050415,-0.054054260,0.006826538,0.006964477,-0.002706051
5.562353134,-2.090759277,1.422561646,0.197715759,0.012197632,0.005133422,-0.002339840
5.563006878,-1.930541992,1.559890747,-0.008277893,0.010000366,0.004645141,-0.003194332
5.563652992,-2.022094727,1.468338013,0.144309998,0.011587280,0.007818969,-0.004292965
5.564304829,-2.174682617,2.032913208,0.281639099,0.011953491,0.007941039,0.000223637
5.564960957,-1.800842285,2.238906860,0.045127869,0.010488648,0.003302367,0.001078129
5.565602779,-2.235717773,2.498306274,0.174827576,0.013296265,0.007330688,0.000101566
5.566258907,-2.128906250,2.643264771,0.075645447,0.011098999,0.007818969,-0.003072262
5.566906929,-2.380676270,2.841629028,0.380821228,0.009756226,0.008917602,0.001810551
5.567552090,-2.411193848,2.818740845,0.327415466,0.008413452,0.010260375,0.005350590
5.568206787,-2.815551758,3.116287231,0.151939392,0.008413452,0.007452758,0.000711918
5.568853855,-2.708740234,3.024734497,0.258750916,0.007070679,0.010748656,0.001444340
5.581751823,-5.462951660,3.925003052,0.159568787,0.007681030,0.006720336,-0.000752926
5.582438946,-5.340881348,4.001296997,0.121421814,0.010244507,0.004889281,-0.002339840
5.583099842,-5.111999512,4.497207642,0.075645447,0.008901733,0.003668578,0.001932621
5.583749771,-5.325622559,4.398025513,0.243492126,0.007558960,0.006720336,-0.000997066
5.584416866,-5.478210449,4.596389771,0.182456970,0.008047241,0.007330688,-0.002706051
5.585080147,-5.317993164,4.871047974,0.319786072,0.007314819,0.003668578,-0.002950191
5.585731983,-5.523986816,4.901565552,0.609703064,0.009145874,0.007696899,-0.000997066
5.586396217,-5.546875000,5.046524048,0.335044861,0.005117554,0.004767211,-0.002217770
5.587058067,-5.409545898,5.176223755,0.220603943,0.005727905,0.001471313,0.000467777
5.587706089,-5.371398926,5.084671021,0.243492126,0.004873413,0.002081664,0.001566410
5.588365078,-5.638427734,5.374588013,0.327415466,0.004385132,0.001837524,0.002298832
5.589018822,-5.363769531,5.420364380,0.495262146,0.002554077,0.000006469,0.001322269
5.589663982,-5.409545898,5.168594360,0.342674255,0.001821655,0.000494750,0.000956059
5.590321064,-5.333251953,5.496658325,0.296897888,0.001699585,0.002081664,0.003275394
5.590981960,-5.600280762,5.527175903,0.289268494,0.001455444,0.001349242,-0.000630856
5.591631889,-5.287475586,5.222000122,0.449485779,-0.005502563,0.000738891,0.005228519
5.592289925,-5.310363770,5.344070435,0.388450623,0.000112671,0.000983031,0.002787113
5.592948914,-5.523986816,5.359329224,0.274009705,-0.002450806,0.002569946,0.005228519
5.593603134,-5.096740723,5.145706177,0.274009705,0.000967163,0.000616821,0.003031254
5.594264030,-5.379028320,5.153335571,0.167198181,-0.002572876,0.001105102,0.003763676
5.594920158,-5.020446777,4.993118286,0.220603943,-0.002694946,0.000983031,0.003031254
5.595579147,-5.066223145,4.687942505,0.472373962,-0.000619751,-0.000848023,0.003641605
5.596239090,-5.127258301,4.726089478,0.251121521,-0.002694946,-0.002312867,0.001932621
5.596889973,-4.707641602,4.794754028,0.243492126,-0.003671509,-0.000237672,0.003641605
5.597548008,-4.791564941,4.451431274,0.205345154,-0.003549438,-0.002068726,0.001078129
5.598209858,-4.394836426,4.756607056,0.380821228,-0.005258423,-0.002312867,0.001444340
5.598859787,-4.577941895,4.466690063,0.312156677,-0.001718384,-0.003289429,0.000467777
5.599516869,-4.394836426,4.329360962,0.220603943,-0.002328735,-0.003167359,0.003641605
5.600176811,-4.143066406,4.245437622,0.090904236,-0.002694946,-0.004143922,-0.000508785
5.600828171,-4.188842773,4.199661255,0.304527283,-0.001840454,-0.002557008,0.003885746
5.601486206,-4.234619141,4.123367310,0.243492126,-0.003915649,-0.002068726,0.001200199
5.602148056,-3.990478516,4.024185181,0.365562439,-0.004648071,-0.002434937,0.002054691
5.602799892,-3.822631836,3.604568481,0.373191833,-0.003427368,-0.003411500,0.002176762
5.603462219,-3.609008789,3.627456665,0.426597595,-0.005868774,-0.003289429,0.002420902
5.604112148,-3.380126953,3.482498169,0.068016052,-0.004648071,-0.006463258,0.003153324
5.604763985,-3.403015137,3.085769653,0.258750916,-0.005136352,-0.003655640,0.001932621
5.605424881,-3.311462402,3.329910278,0.296897888,-0.003183227,-0.003533570,-0.000874996
5.606085777,-3.349609375,3.123916626,0.357933044,-0.006234985,-0.005730836,0.002542973
5.606738091,-2.968139648,3.001846313,0.052757263,-0.005258423,-0.002679078,0.003397465
5.607396126,-2.800292969,2.833999634,0.212974548,-0.006479126,-0.007439820,0.001444340
5.608050823,-2.655334473,2.582229614,0.075645447,-0.007699829,-0.004632203,0.006327152
5.608703136,-2.601928711,2.528823853,0.212974548,-0.006112915,-0.004876344,0.004129887
5.609361172,-2.601928711,2.338088989,0.022239685,-0.006479126,-0.003777711,0.003275394
5.610014915,-2.357788086,2.528823853,0.357933044,-0.006112915,-0.005242554,0.003885746
5.610669136,-2.174682617,1.918472290,0.136680603,-0.005990845,-0.003899781,0.004496098
5.611329079,-2.212829590,1.872695923,0.113792419,-0.008920532,-0.005730836,0.003763676
5.611987114,-1.793212891,1.353897095,0.037498474,-0.009164673,-0.004265992,0.004862309
5.612635136,-1.648254395,1.361526489,0.136680603,-0.009775024,-0.005486695,0.004740238
5.625541210,-0.442810059,-0.271163940,0.151939392,0.001943726,0.001471313,-0.005269527
5.626228809,-0.183410645,-0.301681519,-0.054054260,-0.001474243,-0.000359742,0.000467777
5.626867771,-0.130004883,-0.248275757,-0.076942444,-0.000497681,-0.001336304,-0.000142574
5.627518177,-0.412292480,-0.400863647,-0.160865784,-0.001718384,-0.000603883,0.003031254
5.628168106,-0.335998535,-0.179611206,-0.038795471,0.002798218,0.000860961,-0.001241207
5.628815174,-0.206298828,-0.126205444,0.029869080,0.001577515,0.001715453,-0.000997066
5.629471779,-0.252075195,-0.278793335,-0.092201233,-0.000863892,0.002692016,0.000467777
5.630125046,-0.244445801,-0.179611206,-0.145606995,0.000845093,0.001105102,0.001444340
5.630762100,-0.160522461,0.064529419,-0.076942444,0.001943726,-0.000725953,0.000101566
5.631410122,-0.328369141,-0.126205444,-0.168495178,0.002187866,0.001593383,0.001078129
5.632061958,-0.183410645,-0.004135132,-0.107460022,0.003774780,0.000250610,0.000711918
5.632699966,-0.152893066,-0.110946655,0.113792419,0.001699585,-0.000115601,0.000833988
5.633343220,-0.007934570,0.026382446,0.052757263,-0.000497681,0.001593383,0.001200199
5.633986950,-0.137634277,0.178970337,0.090904236,0.002920288,-0.000115601,0.001932621
5.634625912,-0.152893066,0.240005493,0.129051208,0.000356812,0.001227172,-0.001607418
5.635280132,-0.206298828,0.362075806,0.060386658,0.003042358,0.002569946,0.000956059
5.635918140,-0.335998535,0.140823364,0.029869080,0.004140991,0.002203735,-0.001851559
5.636563778,-0.274963379,0.255264282,0.212974548,0.004018921,0.002447875,0.002054691
5.637217999,-0.107116699,0.133193970,0.129051208,0.000845093,0.004523071,-0.000264645
5.637858868,-0.427551270,0.331558228,0.037498474,0.001699585,0.003058227,0.004862309
5.638504982,-0.358886719,0.384963989,0.159568787,0.000234741,0.003058227,0.001078129
5.639154911,-0.435180664,0.568069458,-0.015907288,0.002798218,0.003668578,0.003397465
5.639797211,-0.366516113,0.384963989,-0.000648499,0.002432007,0.003180297,0.000711918
5.640440941,-0.389404297,0.491775513,0.022239685,0.002309937,0.001105102,0.003885746
5.641087055,-0.778503418,0.636734009,-0.160865784,0.000112671,0.001959594,0.002298832
5.641727924,-0.641174316,0.285781860,0.106163025,-0.000863892,0.005987914,0.001322269
5.642374039,-0.862426758,0.636734009,0.174827576,0.001211304,0.003790649,0.005594730
5.643023014,-0.770874023,0.575698853,0.060386658,0.001699585,0.003424438,0.002298832
5.643661976,-0.831909180,0.644363403,0.113792419,0.000112671,0.001471313,0.004007816
5.644312859,-0.900573730,0.796951294,0.022239685,-0.002328735,0.001715453,0.005106449
5.644960880,-0.877685547,0.751174927,-0.023536682,-0.000253540,0.000983031,0.000467777
5.645609856,-0.862426758,0.850357056,0.258750916,0.001211304,-0.002801148,0.002787113
5.646262169,-0.717468262,0.911392212,0.068016052,0.001699585,0.000006469,0.001932621
5.646906853,-0.931091309,0.529922485,0.159568787,-0.001718384,0.000128539,0.000101566
5.647544861,-0.816650391,0.644363403,0.022239685,0.000845093,0.000738891,0.002054691
5.648190975,-1.106567383,0.766433716,0.022239685,-0.002939087,-0.000481812,0.004984379
5.648829937,-0.847167969,0.621475220,-0.046424866,0.002432007,-0.002190797,0.002176762
5.649478912,-0.656433105,0.621475220,0.075645447,-0.000497681,-0.001702515,0.000589848
5.650125027,-0.801391602,0.560440063,0.037498474,-0.000863892,-0.001336304,-0.001607418
5.650767803,-0.732727051,0.522293091,0.220603943,-0.001108032,-0.001946656,-0.000630856
5.651414871,-0.656433105,0.285781860,-0.076942444,-0.000253540,-0.003289429,0.000223637
5.652068138,-0.656433105,0.453628540,0.182456970,-0.002939087,-0.003411500,0.000223637
5.652709961,-0.358886719,0.056900024,0.167198181,-0.004892212,-0.002923219,0.004007816
5.653357983,-0.442810059,0.140823364,-0.031166077,-0.001718384,-0.001702515,0.000956059
5.654003143,-0.335998535,0.217117310,-0.153236389,-0.001718384,-0.000481812,0.002420902
5.654651165,-0.175781250,0.163711548,-0.092201233,-0.005502563,-0.002434937,0.003885746
5.655303001,-0.320739746,0.278152466,0.144309998,-0.000863892,-0.001214234,0.003153324
5.668177128,-0.183410645,-0.042282104,-0.031166077,-0.000863892,0.002569946,0.003275394
5.668854237,-0.099487305,0.026382446,0.068016052,-0.003183227,0.003668578,0.002420902
5.669499874,-0.206298828,0.041641235,0.167198181,-0.000619751,0.001227172,-0.000386715
5.670152187,-0.267333984,-0.133834839,0.151939392,-0.000497681,0.003058227,0.001444340
5.670793056,-0.229187012,0.049270630,0.022239685,0.001699585,0.001837524,-0.000386715
5.671440125,-0.274963379,-0.187240601,0.113792419,0.000723023,0.002081664,-0.000142574
5.672085762,-0.160522461,0.049270630,-0.046424866,0.000112671,-0.000481812,0.001688480
5.672725201,-0.412292480,0.087417603,-0.046424866,0.001577515,0.001349242,0.000467777
5.673369884,-0.450439453,-0.057540894,-0.000648499,0.000600952,-0.000725953,-0.001363277
5.674015045,-0.206298828,0.102676392,0.052757263,-0.000863892,0.001471313,-0.000264645
5.674651146,-0.236816406,-0.149093628,-0.092201233,0.001211304,-0.000115601,0.001444340
5.675302982,-0.351257324,0.201858521,0.045127869,-0.000985962,0.001959594,0.001688480
5.675957203,-0.549621582,0.293411255,-0.023536682,-0.000253540,0.001715453,0.003763676
5.676606178,-0.305480957,0.186599731,0.075645447,0.002676148,-0.000359742,0.002054691
5.677252769,-0.397033691,0.240005493,0.136680603,-0.000863892,0.001959594,0.001444340
5.677903175,-0.175781250,0.285781860,-0.199012756,0.004385132,-0.000725953,0.003885746
5.678544044,-0.664062500,0.087417603,0.006980896,-0.000131470,-0.000481812,0.000956059
5.679184914,-0.335998535,0.117935181,0.197715759,0.000723023,-0.002068726,0.000711918
5.679822922,-0.267333984,0.507034302,-0.031166077,0.000600952,-0.000848023,-0.000264645
5.680469036,-0.381774902,0.354446411,0.106163025,0.003774780,0.001105102,0.003641605
5.681118965,-0.328369141,0.423110962,-0.000648499,-0.000741821,-0.001702515,-0.000752926
5.681756973,-0.381774902,0.323928833,0.052757263,0.000723023,0.002203735,0.003031254
5.682403088,-0.450439453,0.384963989,-0.145606995,-0.000497681,-0.000481812,0.002054691
5.683054924,-0.503845215,0.003494263,0.052757263,-0.000131470,0.000738891,0.000467777
5.683685780,-0.343627930,0.323928833,-0.000648499,-0.000741821,0.001593383,0.003031254
5.684337139,-0.564880371,0.217117310,0.243492126,0.000234741,0.002447875,0.003641605
5.684982777,-0.358886719,0.346817017,0.098533630,-0.001108032,0.001349242,0.000833988
5.685626030,-0.328369141,0.308670044,0.144309998,-0.001474243,-0.000970094,0.004618168
5.686281204,-0.534362793,0.461257935,-0.137977600,0.000478882,0.000250610,0.003153324
5.686927795,-0.328369141,0.316299438,0.129051208,0.001089233,0.001471313,0.004618168
5.687570095,-0.335998535,0.384963989,-0.107460022,-0.001474243,-0.000725953,-0.000386715
5.688220024,-0.351257324,0.178970337,0.174827576,-0.000131470,-0.001336304,0.003153324
5.688860893,-0.351257324,0.125564575,0.251121521,-0.003915649,-0.002312867,0.004740238
5.689518929,-0.397033691,0.636734009,-0.130348206,-0.000863892,0.001593383,0.000467777
5.690165043,-0.297851562,0.400222778,-0.092201233,-0.003061157,-0.002434937,0.002787113
5.690957069,-0.381774902,0.323928833,-0.015907288,-0.004037720,-0.002068726,0.003275394
5.691605091,-0.343627930,0.270523071,0.220603943,-0.001840454,0.000616821,0.002787113
5.692256927,-0.419921875,0.323928833,-0.145606995,0.000967163,0.000494750,0.000833988
5.692911148,-0.389404297,0.034011841,0.136680603,0.000356812,0.000738891,0.004251957
5.693552971,-0.419921875,0.392593384,-0.206642151,-0.000619751,0.000372680,0.000345707
5.694194794,-0.389404297,0.079788208,-0.176124573,-0.003549438,0.003790649,-0.000752926
5.694838047,-0.183410645,0.125564575,-0.069313049,0.001211304,0.000372680,0.002665043
5.695481777,-0.404663086,0.095046997,-0.076942444,0.000723023,0.001837524,0.002542973
5.696129799,-0.137634277,-0.095687866,0.029869080,-0.000741821,-0.000481812,0.004984379
5.696767807,-0.488586426,-0.118576050,0.060386658,0.000723023,0.000738891,0.006693363
5.697414875,-0.297851562,0.056900024,-0.130348206,-0.002328735,-0.000115601,-0.000630856
5.698190212,-0.351257324,-0.156723022,-0.031166077,-0.001230102,0.000738891,0.003763676
5.711094856,-0.496215820,0.331558228,-0.031166077,0.001333374,0.000494750,0.000833988
5.711764812,-0.519104004,0.316299438,0.098533630,-0.000009399,-0.000115601,0.000833988
5.712483883,-0.458068848,0.148452759,0.129051208,0.000478882,0.000860961,0.000101566
5.713296890,-0.404663086,0.262893677,0.113792419,0.003164429,0.003546508,0.001444340
5.714104176,-0.488586426,0.270523071,-0.076942444,0.002554077,0.001959594,0.002909184
5.714973927,-0.458068848,0.369705200,0.075645447,-0.000741821,0.000616821,0.003885746
5.715806961,-0.343627930,0.255264282,0.052757263,-0.000619751,0.000128539,0.003153324
5.716679096,-0.450439453,0.499404907,0.251121521,-0.000985962,-0.003167359,0.003031254
5.717517853,-0.503845215,0.240005493,-0.130348206,0.001821655,0.000616821,0.001444340
5.718372822,-0.656433105,0.522293091,0.037498474,0.000845093,0.000494750,0.000956059
5.719189167,-0.595397949,0.407852173,0.083274841,0.002309937,0.000372680,-0.000264645
5.720044136,-0.961608887,0.667251587,0.060386658,0.000600952,0.003790649,0.000956059
5.720850945,-0.755615234,0.575698853,0.060386658,0.001821655,0.001105102,0.002298832
5.721722126,-0.618286133,0.644363403,-0.183753967,-0.002206665,-0.001580445,0.005350590
5.722579002,-0.747985840,0.499404907,0.037498474,-0.000619751,0.000738891,-0.000386715
5.723442078,-0.740356445,0.430740356,0.060386658,-0.001352173,-0.000237672,0.004374027
5.724283218,-0.694580078,0.560440063,0.312156677,-0.002206665,-0.001702515,0.005472660
5.725121021,-0.747985840,0.423110962,-0.023536682,-0.002450806,-0.001458375,0.001566410
5.725843906,-0.793762207,0.735916138,0.190086365,-0.001352173,-0.000970094,0.004007816
5.726702213,-0.702209473,0.651992798,0.022239685,-0.000619751,0.000738891,0.003641605
5.727356911,-0.709838867,0.621475220,0.090904236,-0.001718384,-0.000481812,0.000833988
5.728003025,-0.961608887,0.568069458,-0.054054260,-0.001474243,0.004156860,0.005472660
5.728644848,-0.603027344,0.728286743,0.205345154,-0.003549438,0.000128539,0.004374027
5.729348183,-0.709838867,0.346817017,-0.038795471,-0.001840454,-0.001336304,0.002787113
5.730188847,-0.595397949,0.545181274,0.098533630,0.000234741,-0.000359742,0.001566410
5.730994225,-0.686950684,0.407852173,0.136680603,0.000356812,-0.002801148,0.000833988
5.731816769,-0.427551270,0.453628540,-0.084571838,-0.000497681,0.000738891,0.001810551
5.732686043,-0.572509766,0.499404907,0.174827576,-0.000497681,-0.001214234,0.004251957
5.733553886,-0.450439453,0.278152466,0.014610291,-0.000985962,0.000616821,0.003763676
5.734409809,-0.572509766,0.255264282,0.380821228,-0.000497681,-0.001702515,0.003275394
5.735251904,-0.496215820,0.369705200,0.144309998,0.000845093,-0.001336304,0.000589848
5.736084938,-0.473327637,0.316299438,-0.099830627,-0.000375610,0.000860961,0.001200199
5.736929893,-0.488586426,0.400222778,0.098533630,0.001821655,0.000494750,0.004984379
5.737775803,-0.297851562,0.308670044,-0.054054260,-0.000619751,-0.002434937,0.001322269
5.738853931,-0.366516113,0.308670044,0.022239685,-0.001352173,0.000738891,0.005228519
5.739719868,-0.549621582,0.102676392,0.052757263,0.000845093,0.000738891,0.007791996
5.740540028,-0.473327637,0.384963989,-0.107460022,0.000356812,-0.000848023,0.000345707
5.741413116,-0.549621582,0.316299438,0.083274841,-0.000375610,0.001227172,0.003153324
5.742150784,-0.435180664,0.285781860,0.144309998,-0.000863892,-0.000115601,0.001444340
5.742877960,-0.595397949,0.400222778,0.068016052,-0.003183227,0.001593383,0.004496098
5.743527889,-0.580139160,0.384963989,-0.069313049,-0.002572876,-0.000848023,0.002787113
5.744257927,-0.755615234,0.438369751,-0.145606995,-0.000009399,-0.002557008,0.003031254
5.745093822,-0.465698242,0.278152466,0.022239685,0.001699585,0.000738891,0.002176762
5.745930195,-0.549621582,0.346817017,0.014610291,0.002187866,-0.000848023,0.002665043
5.746788979,-0.580139160,0.400222778,0.029869080,0.000234741,-0.001336304,0.002054691
5.747629166,-0.587768555,0.110305786,-0.038795471,-0.000253540,0.000738891,0.003031254
5.748353958,-0.488586426,0.377334595,0.006980896,0.000967163,-0.001458375,0.003153324
5.761453152,-0.343627930,0.095046997,0.045127869,0.000723023,-0.001702515,0.002665043
5.762136936,-0.358886719,0.377334595,-0.145606995,-0.000863892,-0.002557008,0.000101566
5.762774944,-0.557250977,0.278152466,-0.015907288,-0.000497681,-0.000848023,0.003397465
5.763422966,-0.519104004,0.262893677,-0.054054260,0.000234741,-0.001214234,-0.000264645
5.764070034,-0.351257324,0.278152466,0.205345154,0.000845093,0.000494750,0.004007816
5.764709949,-0.274963379,0.293411255,0.006980896,0.001699585,-0.001336304,0.001200199
5.765356064,-0.480957031,0.133193970,-0.130348206,-0.005014282,-0.000115601,-0.000630856
5.766006947,-0.305480957,0.285781860,-0.008277893,-0.001840454,0.001959594,0.001078129
5.766646862,-0.267333984,0.301040649,0.129051208,0.000967163,0.000738891,0.002054691
5.767305851,-0.580139160,0.384963989,0.174827576,-0.000619751,-0.000848023,0.003275394
5.767952919,-0.107116699,0.102676392,0.151939392,-0.000497681,-0.002068726,-0.001241207
5.768599987,-0.397033691,0.278152466,-0.099830627,0.000723023,-0.000970094,0.000833988
5.769252777,-0.419921875,0.079788208,-0.244789124,0.000723023,0.000494750,0.002054691
5.769903183,-0.442810059,0.247634888,0.090904236,-0.000253540,0.000006469,0.002665043
5.770531178,-0.366516113,0.186599731,0.190086365,-0.001230102,0.000372680,0.002787113
5.771183968,-0.335998535,0.232376099,-0.084571838,-0.000131470,0.000983031,-0.000386715
5.771829128,-0.442810059,0.247634888,0.281639099,-0.000741821,-0.000970094,0.001200199
5.772490025,-0.305480957,0.194229126,-0.092201233,0.002187866,-0.001092164,0.002298832
5.773141861,-0.358886719,0.186599731,-0.099830627,0.000478882,0.001227172,0.000711918
5.773790836,-0.564880371,0.178970337,0.052757263,-0.001962524,-0.001458375,0.004740238
5.774446011,-0.435180664,0.240005493,0.113792419,-0.000009399,0.002569946,0.001810551
5.775093079,-0.625915527,0.102676392,0.029869080,-0.002694946,0.002936156,0.002787113
5.775734901,-0.587768555,0.148452759,-0.069313049,-0.003183227,-0.000359742,0.003885746
5.776387215,-0.282592773,0.262893677,0.052757263,-0.001718384,-0.001092164,0.003153324
5.777036190,-0.633544922,0.117935181,0.014610291,0.000112671,-0.001824586,0.003031254
5.777676105,-0.404663086,0.209487915,0.121421814,-0.001352173,0.000494750,0.002787113
5.778325081,-0.511474609,0.400222778,0.220603943,-0.003427368,0.000372680,0.000345707
5.778968811,-0.587768555,0.461257935,0.037498474,0.000845093,0.000860961,-0.002217770
5.779605865,-0.503845215,0.278152466,0.274009705,-0.000131470,-0.002190797,-0.002461910
5.780259132,-0.366516113,0.224746704,-0.168495178,-0.000497681,-0.001336304,0.003275394
5.780907154,0.007324219,0.415481567,-0.008277893,-0.001718384,-0.000848023,0.003641605
5.781545162,-0.282592773,0.041641235,0.022239685,0.000234741,-0.000970094,0.000345707
5.782196999,-0.068969727,0.362075806,0.129051208,-0.002084595,-0.004632203,0.004007816
5.782844067,-0.198669434,0.316299438,0.060386658,-0.002328735,-0.001214234,0.000833988
5.783489227,-0.122375488,0.346817017,0.121421814,-0.001108032,0.000494750,0.002420902
5.784142971,-0.198669434,0.285781860,0.045127869,0.000478882,0.001471313,0.002542973
5.784780025,-0.130004883,0.285781860,-0.130348206,0.000845093,-0.003777711,0.001932621
5.785429001,-0.130004883,0.362075806,-0.038795471,-0.001352173,0.002203735,0.000833988
5.786074162,-0.480957031,0.117935181,-0.031166077,-0.001718384,-0.000848023,0.003275394
5.786716938,-0.458068848,0.308670044,-0.008277893,0.000112671,0.000738891,0.003397465
5.787353039,-0.244445801,0.308670044,0.129051208,0.000723023,0.001471313,0.001322269
5.787999153,-0.259704590,0.087417603,0.045127869,-0.002328735,-0.000970094,0.005472660
5.788646221,-0.480957031,0.247634888,-0.023536682,-0.003061157,0.000860961,0.002298832
5.789301872,-0.397033691,0.079788208,0.083274841,-0.001840454,0.001227172,0.002542973
5.789948940,-0.488586426,0.140823364,0.006980896,-0.002328735,-0.000848023,0.005838871
5.790592194,-0.366516113,0.140823364,0.113792419,-0.001596313,-0.001336304,0.003397465
5.791244030,-0.435180664,0.217117310,-0.176124573,-0.000375610,0.000372680,0.004862309
5.791885853,-0.473327637,0.148452759,0.060386658,-0.005990845,-0.001824586,0.000223637
5.804766178,-0.175781250,0.056900024,-0.031166077,-0.000253540,-0.002190797,0.000223637
5.805446148,-0.633544922,0.232376099,0.243492126,0.000723023,-0.000237672,-0.001363277
5.806098938,-0.282592773,0.240005493,0.129051208,-0.000375610,0.000372680,-0.000508785
5.806743145,-0.335998535,0.217117310,0.167198181,-0.001840454,-0.003533570,0.000345707
5.807443142,-0.099487305,0.224746704,-0.015907288,0.000356812,0.001959594,0.000589848
5.808299065,-0.130004883,0.041641235,0.052757263,-0.000497681,-0.000481812,0.005228519
5.809134007,-0.320739746,-0.011764526,0.113792419,0.000112671,0.002447875,0.001810551
5.810004234,-0.435180664,0.331558228,0.113792419,0.000356812,0.000616821,0.002542973
5.810866833,-0.313110352,0.392593384,-0.038795471,0.003042358,0.000738891,0.003397465
5.811629772,-0.313110352,0.270523071,-0.000648499,-0.003549438,-0.003411500,0.002420902
5.812285900,-0.427551270,0.186599731,-0.092201233,-0.000253540,-0.000603883,0.002054691
5.813042164,-0.213928223,0.308670044,0.006980896,-0.003793579,0.001349242,0.002665043
5.813725948,-0.480957031,0.217117310,-0.069313049,-0.001108032,0.000616821,0.003763676
5.814380169,-0.381774902,0.323928833,-0.145606995,-0.001718384,-0.001092164,0.000345707
5.815032005,-0.435180664,0.255264282,0.083274841,-0.000375610,0.000494750,0.002054691
5.815667152,-0.412292480,0.384963989,0.182456970,0.002432007,0.001105102,0.002298832
5.816326141,-0.244445801,0.339187622,0.022239685,-0.000497681,-0.001946656,-0.000508785
5.816980839,-0.419921875,0.186599731,-0.038795471,-0.003427368,0.000250610,0.002298832
5.817629814,-0.450439453,0.316299438,-0.038795471,0.000356812,-0.000115601,0.003885746
5.818286896,-0.458068848,0.072158813,-0.054054260,0.001455444,-0.000359742,0.000589848
5.818939209,-0.641174316,0.201858521,-0.092201233,-0.000619751,0.002447875,0.003885746
5.819585800,-0.549621582,0.293411255,0.121421814,-0.003671509,-0.000359742,0.001200199
5.820242882,-0.480957031,0.148452759,0.045127869,0.001699585,-0.001702515,0.002054691
5.820899010,-0.587768555,0.606216431,-0.130348206,-0.001108032,-0.001580445,0.002176762
5.821547985,-0.496215820,0.354446411,0.045127869,-0.001718384,0.000616821,0.000711918
5.822200775,-0.519104004,0.308670044,0.159568787,-0.002084595,0.000738891,0.001932621
5.822845936,-0.419921875,0.186599731,0.319786072,0.002554077,-0.001824586,0.002176762
5.823503017,-0.595397949,0.400222778,0.121421814,-0.001596313,-0.001092164,0.000467777
5.824161053,-0.442810059,0.362075806,0.006980896,-0.000131470,0.003546508,0.001688480
5.824848175,-0.335998535,0.171340942,0.052757263,-0.004892212,0.001959594,-0.000264645
5.825627804,-0.351257324,0.384963989,0.113792419,0.001577515,-0.000848023,0.003397465
5.826285839,-0.435180664,0.262893677,-0.084571838,0.000356812,-0.001458375,0.002665043
5.826939106,-0.580139160,0.598587036,-0.031166077,-0.000009399,-0.003411500,-0.001973629
5.827585220,-0.313110352,0.400222778,-0.061683655,0.001699585,-0.007561890,0.003275394
5.828242779,-0.175781250,0.346817017,0.319786072,-0.000985962,-0.002801148,0.002542973
5.828908920,-0.068969727,0.621475220,-0.031166077,-0.000619751,-0.001336304,0.001688480
5.829611778,-0.068969727,0.285781860,-0.031166077,-0.004892212,-0.001580445,0.000467777
5.830268860,-0.137634277,0.453628540,-0.038795471,-0.003183227,-0.000359742,0.001932621
5.830920219,-0.015563965,0.125564575,0.006980896,-0.001962524,-0.001336304,0.005472660
5.831566811,-0.160522461,0.171340942,-0.122718811,-0.002328735,-0.002190797,0.004618168
5.832224846,0.075988770,0.255264282,0.014610291,-0.002084595,-0.000848023,0.003275394
5.832870007,-0.320739746,0.133193970,0.075645447,-0.002450806,-0.002312867,-0.000142574
5.833521843,-0.000305176,0.499404907,0.090904236,-0.004403931,-0.002557008,-0.000386715
5.834168911,-0.053710938,0.026382446,-0.076942444,0.001089233,-0.003411500,0.006937504
5.834957123,-0.130004883,0.049270630,-0.092201233,0.000845093,-0.002190797,0.007791996
5.835604191,0.075988770,0.140823364,0.083274841,-0.002450806,0.003302367,0.003641605
5.836257935,-0.267333984,0.140823364,-0.092201233,-0.003671509,0.003302367,0.001200199
5.849143982,0.083618164,0.308670044,-0.122718811,0.000234741,-0.001214234,0.001322269
5.849823952,0.159912109,0.423110962,0.083274841,-0.002450806,-0.000359742,0.003153324
5.850469112,0.075988770,0.301040649,0.052757263,-0.005624634,0.000738891,-0.000752926
5.851115227,0.068359375,0.552810669,-0.191383362,-0.003671509,0.000006469,0.004496098
5.851747036,0.083618164,0.125564575,-0.298194885,-0.001352173,-0.001214234,0.001688480
5.852400780,0.045471191,0.392593384,0.014610291,-0.004403931,-0.001336304,0.003885746
5.853047848,-0.076599121,0.270523071,-0.054054260,-0.004403931,0.000738891,0.000467777
5.853686810,-0.198669434,-0.110946655,0.106163025,-0.003061157,0.000738891,0.004251957
5.854337215,-0.122375488,0.232376099,0.075645447,-0.005502563,0.000983031,0.005960941
5.854994774,-0.084228516,-0.194869995,0.022239685,-0.001962524,-0.001702515,0.007425785
5.855641842,-0.274963379,-0.080429077,0.136680603,-0.002694946,0.000616821,0.005716801
5.856293201,-0.107116699,0.026382446,0.106163025,-0.004281860,0.002936156,0.001078129
5.856938839,-0.244445801,-0.210128784,0.113792419,-0.000009399,-0.000237672,0.004007816
5.857579231,-0.404663086,-0.088058472,-0.099830627,-0.001230102,-0.003533570,0.003031254
5.858236790,-0.412292480,-0.362716675,0.014610291,-0.000253540,-0.001702515,0.002054691
5.858884811,-0.061340332,0.056900024,-0.076942444,0.001089233,-0.004876344,0.003641605
5.859529018,-0.191040039,-0.263534546,0.335044861,-0.002939087,-0.001092164,-0.001485348
5.860184193,-0.015563965,0.011123657,0.045127869,-0.000375610,-0.000481812,0.000467777
5.860816956,0.037841797,-0.362716675,-0.122718811,0.001089233,0.000372680,0.001322269
5.861465931,0.007324219,-0.164352417,-0.008277893,0.002432007,-0.000115601,0.003275394
5.862108231,0.083618164,-0.187240601,0.060386658,-0.001840454,-0.000481812,0.003275394
5.862749100,0.083618164,-0.027023315,-0.092201233,-0.001962524,-0.001336304,0.001688480
5.863393784,-0.084228516,0.209487915,-0.122718811,-0.000497681,-0.003289429,0.003519535
5.864047050,0.129394531,-0.133834839,-0.168495178,0.000845093,-0.001702515,0.001688480
5.864688873,0.037841797,0.117935181,-0.130348206,0.002554077,-0.001458375,-0.000264645
5.865342140,-0.130004883,0.110305786,0.060386658,0.001211304,-0.003899781,0.000833988
5.865986824,-0.030822754,0.346817017,0.006980896,0.003408569,-0.003167359,-0.001729488
5.866629124,0.045471191,0.392593384,0.106163025,-0.000497681,-0.001458375,-0.001485348
5.867275238,-0.000305176,0.209487915,0.014610291,0.001211304,-0.003655640,-0.001119137
5.867918015,0.075988770,0.529922485,-0.031166077,0.000356812,-0.000359742,-0.000630856
5.868550777,0.152282715,0.438369751,-0.069313049,0.000356812,-0.000237672,-0.000020504
5.869194984,0.129394531,0.514663696,0.121421814,-0.002450806,0.000738891,0.003519535
5.869834900,0.175170898,0.011123657,-0.031166077,-0.004526001,-0.002557008,0.007914066
5.870550156,0.007324219,0.316299438,0.006980896,-0.004648071,-0.002312867,0.004984379
5.871321201,-0.183410645,0.278152466,0.037498474,-0.005502563,0.001593383,0.009745121
5.872104168,-0.046081543,0.163711548,0.113792419,-0.004526001,0.000006469,0.007181644
5.872947216,-0.274963379,-0.202499390,0.312156677,-0.007333618,-0.001824586,0.004251957
5.873792171,-0.381774902,0.011123657,-0.076942444,0.001211304,0.000616821,0.003275394
5.874639988,-0.091857910,-0.156723022,0.098533630,-0.000131470,-0.003167359,0.004496098
5.875510216,-0.374145508,-0.202499390,0.029869080,-0.000985962,-0.005364625,0.000956059
5.876355171,-0.122375488,-0.324569702,-0.046424866,-0.001474243,-0.002312867,0.000833988
5.877214909,0.053100586,-0.133834839,0.136680603,0.001943726,-0.001824586,0.003153324
5.878067017,0.114135742,-0.171981812,-0.145606995,0.000478882,0.000860961,0.001200199
5.878864765,-0.084228516,0.331558228,-0.008277893,0.002798218,-0.003777711,0.001444340
5.879721165,-0.053710938,-0.164352417,-0.069313049,0.000234741,-0.002557008,-0.002950191
5.880745888,0.030212402,-0.164352417,0.144309998,-0.001474243,-0.001336304,-0.000874996
5.881546974,0.281982422,-0.225387573,0.098533630,0.000356812,0.000738891,0.002054691
5.894484043,-0.023193359,-0.202499390,-0.015907288,-0.002328735,-0.000481812,0.000589848
5.895164013,0.083618164,-0.080429077,0.037498474,-0.002206665,-0.000848023,0.000589848
5.895799160,0.137023926,0.110305786,0.006980896,-0.001718384,0.000860961,0.001200199
5.896441936,0.083618164,-0.149093628,-0.145606995,0.000845093,-0.002679078,0.002665043
5.897088051,0.083618164,0.156082153,-0.107460022,-0.001108032,0.000372680,-0.002217770
5.897729874,0.152282715,-0.065170288,-0.099830627,0.001089233,0.000372680,0.000589848
5.898382187,0.045471191,-0.240646362,0.174827576,0.001211304,-0.002312867,0.002665043
5.899037838,-0.030822754,-0.072799683,0.090904236,-0.000009399,0.000738891,0.001200199
5.899665833,0.236206055,0.011123657,0.136680603,0.001699585,0.000494750,0.001444340
5.900314808,-0.091857910,0.079788208,-0.099830627,0.000356812,-0.000359742,-0.000997066
5.900965214,0.045471191,0.049270630,0.121421814,-0.000741821,0.001593383,-0.000874996
5.901607990,0.228576660,0.117935181,0.045127869,-0.000619751,0.000128539,0.000345707
5.902249813,0.159912109,0.018753052,0.083274841,-0.001840454,-0.000603883,0.003275394
5.902898788,-0.091857910,-0.019393921,0.029869080,-0.000253540,-0.000481812,0.003641605
5.903534889,0.320129395,0.117935181,0.075645447,-0.000863892,-0.000359742,0.003153324
5.904182911,-0.023193359,-0.171981812,-0.046424866,-0.000131470,-0.000481812,0.003519535
5.904821873,-0.091857910,0.011123657,-0.054054260,-0.001962524,-0.002190797,0.002420902
5.905470848,-0.091857910,0.072158813,0.037498474,-0.004037720,0.000006469,0.005106449
5.906113148,0.007324219,0.095046997,-0.038795471,0.000356812,-0.003533570,0.002176762
5.906751156,-0.038452148,-0.027023315,0.281639099,-0.000863892,-0.001580445,0.003641605
5.907396793,-0.076599121,0.194229126,0.052757263,-0.001962524,-0.001824586,-0.000752926
5.908047199,-0.130004883,0.049270630,-0.145606995,-0.003549438,-0.002801148,0.004374027
5.908689022,0.068359375,0.056900024,-0.099830627,-0.001352173,-0.001702515,0.003275394
5.909348011,-0.130004883,-0.004135132,0.037498474,-0.001718384,-0.001092164,0.004496098
5.909995079,0.091247559,0.201858521,0.159568787,-0.000253540,0.000128539,0.002176762
5.910634041,0.106506348,-0.141464233,0.052757263,0.000234741,-0.002190797,0.003153324
5.911281109,-0.168151855,-0.011764526,0.167198181,-0.001718384,-0.001092164,0.001444340
5.911928177,0.014953613,0.163711548,-0.099830627,-0.000619751,-0.000603883,0.002420902
5.912571907,-0.099487305,-0.149093628,0.083274841,0.001577515,-0.003411500,0.001322269
5.913228035,0.098876953,-0.171981812,0.174827576,-0.001962524,-0.002557008,0.000833988
5.913866997,0.068359375,0.056900024,0.075645447,-0.001596313,-0.001214234,0.002176762
5.914516926,0.060729980,-0.004135132,-0.153236389,-0.001962524,-0.002434937,-0.000020504
5.915162086,0.198059082,-0.004135132,0.365562439,-0.000985962,-0.000481812,0.005594730
5.915811062,-0.198669434,0.247634888,-0.061683655,-0.003183227,-0.001458375,0.004007816
5.916462898,0.022583008,-0.255905151,-0.000648499,-0.000863892,-0.002190797,0.001810551
5.917108059,0.144653320,-0.217758179,0.060386658,-0.002206665,-0.002312867,0.001932621
5.917748928,-0.152893066,0.171340942,0.037498474,-0.003183227,-0.001214234,0.001322269
5.918391228,0.259094238,-0.088058472,0.159568787,0.001211304,-0.000970094,0.002298832
5.919044971,-0.091857910,0.041641235,0.106163025,0.002187866,-0.002679078,0.001688480
5.919692993,0.198059082,0.140823364,0.136680603,0.002187866,0.000616821,0.002665043
5.920341969,-0.358886719,0.148452759,0.014610291,0.000112671,-0.000970094,0.004251957
5.920995235,0.182800293,0.041641235,-0.031166077,0.003042358,-0.000603883,0.004251957
5.921635151,-0.061340332,0.148452759,0.060386658,-0.000863892,-0.000970094,0.000589848
5.922286987,0.129394531,-0.217758179,0.190086365,0.001455444,-0.001336304,0.005472660
5.922938824,0.060729980,-0.072799683,0.090904236,0.000600952,-0.000725953,0.004374027
5.923574924,-0.015563965,0.026382446,-0.008277893,-0.001840454,-0.000970094,0.004129887
5.924229145,0.060729980,-0.057540894,-0.061683655,-0.003671509,0.002203735,0.004496098
5.937409878,0.068359375,0.262893677,-0.038795471,0.000478882,-0.000237672,0.003397465
5.938088894,0.129394531,-0.110946655,0.174827576,-0.005258423,-0.001580445,0.000223637
5.938728809,-0.023193359,0.194229126,-0.008277893,-0.005136352,-0.001824586,0.002420902
5.939382076,-0.137634277,0.056900024,-0.000648499,-0.000497681,0.000616821,0.000711918
5.940014839,-0.076599121,-0.095687866,0.243492126,0.002798218,-0.000725953,0.000101566
5.940657139,-0.046081543,0.049270630,-0.191383362,-0.001108032,-0.001458375,0.002176762
5.941304207,0.007324219,-0.049911499,0.029869080,0.000234741,-0.001092164,0.001322269
5.941948891,-0.175781250,0.064529419,0.197715759,-0.000131470,0.001349242,0.003153324
5.942587852,0.053100586,-0.019393921,0.052757263,-0.002328735,-0.002679078,-0.000264645
5.943237782,0.129394531,0.056900024,0.022239685,-0.001474243,-0.002557008,-0.000508785
5.943877220,-0.023193359,0.140823364,-0.115089417,-0.001474243,-0.000481812,0.002176762
5.944531918,-0.061340332,0.072158813,-0.023536682,-0.002084595,0.001593383,0.001444340
5.945179939,-0.030822754,-0.042282104,0.220603943,-0.000863892,-0.000725953,-0.000752926
5.945817947,0.075988770,0.003494263,0.045127869,-0.002328735,-0.000359742,0.001688480
5.946456909,0.114135742,-0.294052124,0.045127869,-0.002206665,-0.001458375,0.003397465
5.947110176,0.030212402,0.133193970,-0.069313049,-0.001108032,-0.001702515,0.002298832
5.947751999,-0.068969727,-0.057540894,-0.061683655,-0.002694946,0.000983031,0.000956059
5.948404789,0.060729980,0.056900024,0.022239685,-0.000985962,-0.000115601,-0.003682613
5.949060917,0.053100586,0.209487915,0.075645447,-0.000985962,0.001471313,0.002176762
5.949711800,0.014953613,0.110305786,-0.031166077,-0.001108032,-0.003411500,0.001932621
5.950365067,0.083618164,0.049270630,-0.061683655,-0.001108032,-0.004143922,0.000101566
5.951011181,0.083618164,-0.118576050,-0.008277893,0.001211304,-0.003899781,-0.000264645
5.951649189,0.083618164,0.095046997,0.029869080,-0.002084595,-0.002801148,0.001078129
5.952298164,0.037841797,0.125564575,0.083274841,-0.003305298,0.000372680,0.003763676
5.952942848,0.091247559,0.171340942,0.060386658,0.000723023,-0.002557008,0.000711918
5.953578949,-0.038452148,0.072158813,0.167198181,-0.001596313,-0.004265992,-0.001241207
5.954230785,-0.130004883,0.003494263,0.052757263,-0.000375610,-0.002068726,0.000101566
5.954868793,-0.084228516,-0.034652710,0.022239685,-0.001474243,-0.001092164,0.001932621
5.955515862,-0.099487305,0.018753052,-0.054054260,0.000967163,-0.002312867,0.001322269
5.956172943,0.022583008,-0.156723022,0.029869080,-0.000497681,-0.002434937,0.000833988
5.956812859,-0.160522461,0.026382446,0.068016052,-0.000375610,-0.003533570,0.001566410
5.957460880,0.159912109,-0.088058472,0.167198181,0.001333374,-0.002679078,0.002176762
5.958109856,0.022583008,0.056900024,-0.015907288,0.000356812,-0.000237672,0.000345707
5.958742142,0.129394531,0.102676392,-0.115089417,-0.001962524,-0.002679078,0.002909184
5.959391117,0.098876953,0.049270630,-0.137977600,0.000234741,-0.003045289,-0.000997066
5.960046768,-0.000305176,-0.110946655,-0.084571838,-0.001718384,-0.002801148,0.003275394
5.960690022,0.121765137,-0.019393921,-0.008277893,0.001821655,0.001959594,0.004129887
5.961340904,-0.122375488,0.003494263,-0.031166077,-0.001108032,0.001593383,0.001444340
5.961987019,0.152282715,-0.049911499,0.022239685,-0.000253540,0.000128539,0.001444340
5.962627888,-0.198669434,0.102676392,-0.282936096,0.000112671,-0.001214234,0.001688480
5.963280201,0.060729980,-0.103317261,-0.183753967,0.000967163,-0.001092164,0.000956059
5.964024067,-0.107116699,0.110305786,0.251121521,-0.003305298,-0.000481812,0.003275394
5.964872837,-0.023193359,-0.095687866,0.205345154,-0.000619751,-0.003411500,0.002298832
5.965727806,-0.213928223,0.110305786,-0.054054260,-0.000619751,-0.003777711,0.000589848
5.966566086,-0.023193359,-0.027023315,-0.069313049,0.000723023,0.000738891,0.003885746
5.967420101,-0.068969727,-0.103317261,-0.038795471,-0.001230102,-0.000725953,0.004862309
5.968203068,-0.015563965,0.072158813,0.373191833,-0.000375610,0.000372680,-0.000264645
5.981102943,0.106506348,-0.088058472,0.006980896,-0.003427368,0.001105102,0.002298832
5.981772900,0.022583008,0.117935181,-0.145606995,-0.003427368,-0.003411500,0.002787113
5.982422829,0.014953613,-0.110946655,-0.000648499,0.000723023,0.000616821,-0.001729488
5.983067036,0.137023926,0.178970337,0.022239685,-0.001352173,0.000128539,-0.000752926
5.983702183,0.030212402,-0.034652710,0.136680603,-0.001108032,-0.000359742,-0.000264645
5.984350204,0.007324219,0.056900024,-0.168495178,-0.000985962,0.001105102,0.004129887
5.984999180,0.159912109,-0.057540894,0.129051208,-0.001108032,0.002692016,0.002787113
5.985648155,0.014953613,0.171340942,0.075645447,-0.003549438,-0.001580445,0.001566410
5.986298084,-0.000305176,-0.095687866,-0.000648499,0.001821655,-0.001824586,0.004251957
5.986938953,0.037841797,0.064529419,0.083274841,-0.001352173,-0.000848023,0.004251957
5.987575054,-0.038452148,-0.080429077,-0.015907288,0.001333374,-0.001092164,0.002665043
5.988224030,-0.076599121,0.026382446,-0.015907288,-0.000375610,0.001471313,0.001688480
5.988861084,-0.023193359,-0.049911499,0.014610291,-0.000131470,-0.000603883,0.002909184
5.989508152,0.022583008,-0.057540894,-0.038795471,-0.002694946,0.001105102,0.003153324
5.990155220,-0.038452148,-0.065170288,0.190086365,-0.000375610,-0.000237672,0.000711918
5.990795135,0.007324219,0.102676392,-0.008277893,0.002065796,-0.000603883,0.002054691
5.991431236,-0.030822754,0.087417603,0.060386658,-0.000497681,-0.002923219,0.000711918
5.992074966,-0.160522461,0.026382446,0.182456970,0.000112671,0.000860961,0.005350590
5.992711067,0.144653320,0.270523071,0.083274841,-0.000497681,0.000494750,0.000711918
5.993356228,-0.107116699,-0.011764526,-0.298194885,-0.002206665,-0.002068726,0.000223637
5.994002819,0.060729980,-0.339828491,0.006980896,-0.001230102,0.000128539,0.001566410
5.994644165,0.060729980,-0.095687866,0.022239685,0.000112671,-0.002434937,0.002176762
5.995289803,0.068359375,-0.110946655,0.136680603,0.001455444,-0.000848023,0.001688480
5.995938778,0.022583008,0.079788208,0.129051208,0.000356812,0.000006469,0.002787113
5.996568203,-0.091857910,-0.011764526,0.220603943,-0.002694946,0.000860961,0.003397465
5.997219086,-0.061340332,0.278152466,-0.031166077,-0.001840454,-0.000115601,0.001444340
5.997858047,0.182800293,0.125564575,-0.054054260,-0.004159790,0.000738891,-0.002828121
5.998509884,-0.107116699,0.186599731,-0.076942444,-0.000253540,0.000616821,0.001322269
5.999155998,0.053100586,0.125564575,0.060386658,-0.000741821,-0.000970094,0.003397465
5.999802113,0.137023926,0.163711548,-0.099830627,-0.000131470,0.001105102,0.000956059
6.000456810,-0.236816406,0.247634888,-0.191383362,-0.000009399,-0.001458375,0.001932621
6.001110077,0.045471191,0.064529419,-0.046424866,-0.000131470,0.000250610,0.003031254
6.001740932,0.121765137,-0.019393921,-0.023536682,0.001821655,-0.001946656,0.000833988
6.002388000,-0.015563965,0.049270630,0.167198181,-0.001230102,0.002081664,0.002909184
6.003035069,-0.282592773,0.102676392,-0.076942444,-0.000009399,-0.001946656,0.000467777
6.003673077,0.030212402,0.034011841,0.045127869,0.002065796,0.000128539,-0.000386715
6.004312038,-0.007934570,-0.049911499,0.083274841,0.000356812,-0.001214234,0.001688480
6.004957199,-0.122375488,0.217117310,0.083274841,-0.002694946,0.000128539,0.000956059
6.005595207,-0.107116699,-0.065170288,0.136680603,0.000112671,-0.001824586,0.000833988
6.006244183,0.106506348,-0.133834839,-0.054054260,-0.003061157,0.000006469,0.000467777
6.006875038,0.068359375,0.018753052,-0.076942444,-0.002572876,0.003302367,-0.001485348
6.007524014,-0.084228516,0.140823364,0.006980896,-0.000619751,-0.001458375,0.000345707
6.008162975,0.014953613,-0.011764526,-0.008277893,-0.002206665,0.000250610,0.002909184
6.008801937,-0.107116699,-0.126205444,0.083274841,0.000478882,0.000494750,0.003397465
6.009445190,-0.000305176,0.178970337,-0.031166077,-0.002572876,0.000616821,0.001078129
6.010087013,-0.023193359,-0.004135132,-0.023536682,-0.002939087,0.001959594,0.003885746
6.010725021,-0.000305176,0.041641235,0.159568787,-0.000863892,-0.000237672,0.000833988
6.023584843,0.068359375,-0.057540894,0.014610291,-0.000131470,-0.001092164,-0.000386715
6.024267197,-0.068969727,0.178970337,-0.099830627,-0.001108032,-0.001336304,0.000223637
6.024918079,0.091247559,-0.103317261,0.052757263,-0.001596313,-0.002068726,0.001200199
6.025566101,-0.015563965,0.163711548,0.045127869,0.001333374,0.001837524,0.001078129
6.026216030,0.007324219,-0.294052124,-0.015907288,-0.001108032,0.000250610,-0.000630856
6.026853085,-0.046081543,-0.011764526,0.037498474,-0.000009399,-0.003899781,0.001444340
6.027495861,-0.046081543,-0.011764526,-0.076942444,-0.000619751,-0.000848023,0.003519535
6.028144836,-0.046081543,-0.156723022,0.098533630,0.002798218,-0.000115601,0.001688480
6.028913975,0.014953613,0.072158813,-0.084571838,0.000234741,0.000128539,0.000223637
6.029748917,-0.053710938,-0.263534546,0.274009705,-0.001596313,0.000616821,-0.000386715
6.030674934,0.091247559,0.301040649,-0.115089417,0.001455444,-0.001946656,0.003763676
6.031332016,0.098876953,-0.118576050,-0.145606995,-0.000375610,-0.000237672,0.002176762
6.031977177,-0.053710938,-0.187240601,-0.015907288,-0.004037720,-0.001336304,-0.000508785
6.032744884,0.014953613,0.095046997,-0.031166077,0.000600952,-0.000848023,0.000833988
6.033389091,-0.038452148,0.171340942,0.022239685,-0.001352173,-0.002190797,0.001078129
6.034040928,0.137023926,-0.110946655,0.098533630,0.001455444,-0.000970094,0.001200199
6.034706116,0.014953613,-0.034652710,0.205345154,-0.001962524,0.000128539,0.005716801
6.035455227,0.167541504,0.156082153,-0.153236389,-0.000985962,0.002203735,0.003275394
6.036111832,-0.038452148,0.186599731,-0.130348206,-0.001474243,-0.000115601,0.001322269
6.036762238,0.236206055,-0.103317261,0.136680603,0.003530640,0.001959594,0.004251957
6.037407875,-0.137634277,0.163711548,-0.092201233,0.000723023,0.000616821,0.001444340
6.038054943,0.083618164,0.110305786,-0.023536682,0.000112671,-0.001092164,0.000956059
6.038689137,0.037841797,0.110305786,-0.084571838,-0.002817017,-0.000481812,0.001200199
6.039341927,-0.007934570,0.156082153,-0.084571838,-0.002328735,0.002936156,0.002665043
6.039987087,0.091247559,-0.019393921,0.022239685,0.001943726,-0.002312867,-0.000630856
6.040626049,-0.046081543,-0.187240601,-0.046424866,-0.000009399,-0.000359742,0.002054691
6.041267872,0.175170898,0.095046997,-0.038795471,-0.001596313,-0.001458375,0.002665043
6.041917801,0.175170898,-0.088058472,0.174827576,-0.000741821,0.001471313,0.001444340
6.042554855,0.106506348,-0.027023315,-0.160865784,0.001089233,0.000738891,-0.000020504
6.043200016,-0.000305176,0.148452759,0.083274841,-0.000009399,-0.000359742,0.004740238
6.043828011,0.060729980,0.087417603,-0.038795471,-0.001840454,-0.000115601,0.001322269
6.044476986,0.121765137,-0.103317261,-0.008277893,-0.001230102,-0.002679078,0.003397465
6.045123100,0.007324219,0.079788208,0.014610291,0.000723023,0.000128539,0.002787113
6.045756817,0.060729980,-0.255905151,0.144309998,0.000112671,0.000250610,0.006205082
6.046393871,0.075988770,-0.088058472,0.129051208,-0.000863892,0.001837524,0.001322269
6.047042847,0.007324219,0.156082153,0.113792419,-0.001596313,-0.000848023,0.003641605
6.047678947,-0.068969727,0.072158813,0.113792419,-0.000985962,-0.001946656,0.000833988
6.048339844,0.129394531,0.095046997,0.052757263,-0.001840454,0.000738891,0.003641605
6.048986912,-0.114746094,-0.110946655,-0.092201233,-0.000985962,0.001349242,0.004374027
6.049640179,0.068359375,0.087417603,-0.084571838,-0.004281860,-0.001092164,0.002420902
6.050290108,-0.023193359,-0.149093628,0.029869080,-0.002450806,0.000983031,-0.001363277
6.050947189,-0.000305176,0.064529419,-0.015907288,-0.000009399,-0.001946656,0.000711918
6.051578045,-0.107116699,-0.065170288,0.006980896,0.000478882,-0.000115601,0.000467777
6.052219868,-0.175781250,-0.042282104,-0.145606995,-0.001230102,0.000128539,0.005350590
6.052859783,0.022583008,0.102676392,0.014610291,-0.002328735,0.003302367,0.000345707
6.053503990,-0.175781250,-0.004135132,0.090904236,0.000356812,0.000738891,0.001688480
6.054141998,-0.015563965,0.026382446,0.068016052,-0.000253540,-0.000848023,0.006327152
6.054781914,-0.160522461,0.056900024,-0.130348206,-0.001962524,-0.002434937,0.000956059
6.067666054,-0.259704590,-0.065170288,0.129051208,-0.000497681,-0.002923219,0.000589848
6.068348885,0.182800293,-0.019393921,0.090904236,-0.003793579,-0.001458375,0.000711918
6.068998814,0.037841797,0.072158813,0.220603943,-0.000375610,-0.003655640,0.000101566
6.069642067,-0.160522461,0.156082153,0.006980896,-0.000741821,-0.002190797,-0.000142574
6.070289135,0.022583008,0.110305786,0.060386658,-0.000619751,-0.002923219,0.000833988
6.070929050,-0.038452148,0.026382446,-0.015907288,0.000356812,0.001471313,-0.000386715
6.071570873,-0.030822754,0.026382446,0.037498474,-0.000985962,0.000372680,0.001688480
6.072228909,0.144653320,-0.164352417,-0.199012756,-0.000131470,-0.001336304,-0.001363277
6.072885036,-0.061340332,-0.324569702,-0.046424866,-0.000741821,-0.001946656,0.002542973
6.073538780,0.121765137,0.087417603,0.068016052,-0.002694946,-0.004388062,-0.000020504
6.074190140,0.159912109,-0.316940308,-0.015907288,-0.002817017,-0.001946656,0.000223637
6.074837208,0.137023926,0.072158813,-0.015907288,-0.002450806,-0.001336304,0.003519535
6.075490952,-0.084228516,-0.233016968,0.129051208,-0.000619751,-0.000115601,0.000223637
6.076140881,0.106506348,0.110305786,-0.099830627,-0.002084595,-0.001336304,0.002176762
6.076796055,0.022583008,-0.019393921,0.022239685,-0.000497681,-0.001336304,-0.000874996
6.077449799,-0.076599121,0.163711548,-0.038795471,-0.000253540,0.001105102,0.001200199
6.078104019,-0.061340332,0.041641235,0.014610291,-0.001840454,-0.000970094,0.000589848
6.078753948,-0.000305176,-0.095687866,0.113792419,0.001333374,0.000006469,0.004374027
6.079402924,0.083618164,0.056900024,0.037498474,-0.002939087,-0.000481812,0.003641605
6.080050945,-0.061340332,-0.088058472,-0.092201233,0.000234741,-0.002434937,0.000467777
6.080694199,0.045471191,0.079788208,0.129051208,-0.003183227,-0.003045289,-0.000508785
6.081349850,-0.023193359,-0.156723022,-0.130348206,-0.002206665,-0.000359742,0.000223637
6.082003117,0.137023926,0.095046997,-0.168495178,-0.000375610,-0.002312867,0.002909184
6.082649231,-0.038452148,-0.080429077,0.113792419,-0.001840454,0.000250610,0.003763676
6.083302975,-0.091857910,-0.095687866,0.121421814,-0.000253540,-0.001092164,0.001200199
6.083952904,-0.137634277,0.140823364,-0.191383362,-0.004159790,0.000983031,0.001810551
6.084609985,0.053100586,-0.210128784,-0.206642151,-0.003061157,-0.002923219,0.002420902
6.085269928,-0.068969727,0.224746704,0.159568787,-0.001474243,-0.001214234,0.000711918
6.085917950,-0.023193359,0.018753052,0.060386658,0.000845093,-0.000237672,0.003397465
6.086557865,0.060729980,-0.088058472,0.029869080,-0.000009399,-0.001336304,0.002176762
6.087205887,-0.107116699,-0.103317261,-0.153236389,-0.003061157,0.001715453,0.001566410
6.087858200,0.098876953,0.026382446,-0.000648499,-0.001718384,0.001593383,0.002665043
6.088507175,-0.046081543,0.003494263,-0.069313049,-0.002450806,-0.000970094,0.003641605
6.089166164,0.091247559,-0.088058472,0.220603943,0.004263062,-0.001336304,0.003275394
6.089815140,-0.015563965,0.064529419,-0.069313049,0.000356812,-0.000481812,0.002176762
6.090465069,0.098876953,-0.027023315,0.235862732,-0.000497681,-0.000115601,0.002298832
6.091114998,-0.015563965,0.079788208,-0.099830627,-0.000619751,-0.002557008,0.002909184
6.091766834,-0.206298828,-0.255905151,-0.069313049,0.000234741,-0.000481812,0.004740238
6.092416763,-0.191040039,0.117935181,-0.069313049,-0.000985962,0.001959594,0.002176762
6.093080044,-0.030822754,-0.118576050,-0.015907288,-0.000131470,-0.002068726,0.002542973
6.093729019,0.259094238,-0.049911499,0.212974548,-0.000375610,-0.000970094,-0.002828121
6.094392776,-0.030822754,0.095046997,0.220603943,-0.002084595,0.000006469,0.000223637
6.095040798,0.037841797,-0.171981812,-0.069313049,-0.000375610,-0.001702515,0.001078129
6.095687866,-0.107116699,0.034011841,-0.015907288,-0.003061157,-0.004510133,0.000589848
6.096343994,-0.000305176,-0.088058472,0.052757263,-0.003671509,-0.000359742,0.001688480
6.096991062,-0.038452148,0.156082153,0.090904236,-0.001962524,-0.002190797,0.003763676
6.097639084,-0.175781250,-0.027023315,-0.038795471,0.000112671,-0.000481812,0.002054691
6.110546112,0.007324219,0.186599731,0.052757263,0.001089233,-0.001580445,0.002665043
6.111225128,0.037841797,-0.095687866,0.197715759,0.000723023,-0.001092164,0.005960941
6.111862183,-0.084228516,0.163711548,-0.076942444,-0.000741821,0.001105102,-0.000020504
6.112506866,-0.160522461,0.117935181,0.090904236,0.000112671,0.001227172,0.001200199
6.113151073,0.121765137,0.247634888,-0.084571838,-0.003793579,-0.001458375,0.000223637
6.113793850,-0.000305176,-0.042282104,-0.084571838,-0.002206665,-0.004021851,0.002054691
6.114437103,-0.091857910,-0.042282104,0.060386658,-0.001474243,-0.001580445,0.000467777
6.115087986,0.022583008,0.156082153,0.190086365,0.000967163,0.000860961,-0.000874996
6.115728855,0.030212402,0.056900024,0.228233337,-0.001108032,-0.002923219,0.000833988
6.116377831,-0.030822754,0.049270630,-0.008277893,-0.000619751,0.000006469,-0.000020504
6.117006779,-0.046081543,-0.057540894,-0.206642151,-0.002084595,0.001471313,0.000345707
6.117646217,-0.099487305,-0.149093628,0.037498474,-0.000497681,0.000738891,0.000345707
6.118285179,-0.030822754,0.217117310,-0.031166077,-0.003183227,-0.003411500,0.001932621
6.118938923,0.121765137,-0.156723022,0.144309998,-0.003549438,-0.000115601,0.000711918
6.119577885,-0.183410645,0.087417603,0.136680603,-0.004037720,0.000372680,0.005106449
6.120226860,0.083618164,-0.042282104,0.090904236,-0.002694946,-0.001458375,0.001444340
6.120865822,-0.061340332,-0.110946655,0.106163025,-0.001474243,0.000128539,0.002909184
6.121517181,-0.274963379,-0.088058472,-0.008277893,0.000356812,-0.001092164,0.001810551
6.122160912,0.045471191,0.018753052,-0.137977600,0.001211304,-0.000481812,0.001444340
6.122803211,0.030212402,0.079788208,0.098533630,-0.001840454,-0.002190797,0.003397465
6.123445988,-0.145263672,0.003494263,-0.023536682,-0.001474243,-0.000603883,0.001688480
6.124094963,0.121765137,-0.240646362,0.029869080,-0.002328735,-0.001458375,0.001566410
6.124736786,0.129394531,0.171340942,0.151939392,-0.000863892,0.001837524,0.000223637
6.125381947,0.213317871,0.018753052,0.098533630,-0.003305298,0.000738891,0.000833988
6.126019001,-0.053710938,-0.164352417,-0.252418518,-0.002694946,-0.000359742,0.002787113
6.126802921,-0.053710938,0.056900024,0.045127869,0.000967163,-0.001458375,0.002420902
6.127582073,-0.030822754,0.232376099,0.151939392,-0.003061157,-0.000237672,0.000833988
6.128239155,0.182800293,0.095046997,0.144309998,-0.001718384,-0.001702515,0.001688480
6.128878117,-0.015563965,0.186599731,-0.054054260,-0.003549438,-0.004632203,0.000956059
6.129528046,-0.107116699,-0.095687866,0.060386658,-0.002817017,-0.001336304,0.002665043
6.130175114,-0.061340332,-0.027023315,-0.046424866,-0.001718384,0.002081664,0.002787113
6.130818844,-0.007934570,0.255264282,0.144309998,-0.001352173,0.001227172,0.001688480
6.131465912,-0.107116699,-0.133834839,-0.023536682,-0.001108032,-0.000481812,0.001200199
6.132178783,-0.000305176,0.056900024,0.144309998,-0.001962524,0.001105102,0.001078129
6.132812977,0.053100586,-0.065170288,-0.023536682,0.000234741,-0.000237672,0.004129887
6.133456230,-0.076599121,-0.034652710,-0.038795471,-0.000741821,-0.002923219,0.002420902
6.134105206,-0.236816406,0.026382446,-0.023536682,-0.002450806,-0.001336304,0.002054691
6.134749889,-0.038452148,0.102676392,-0.061683655,-0.002450806,-0.000970094,0.001078129
6.135403156,0.312500000,0.095046997,0.258750916,-0.001596313,0.001105102,0.005594730
6.136054993,-0.023193359,-0.080429077,-0.076942444,-0.002694946,0.000372680,0.001078129
6.136693001,0.182800293,0.026382446,0.006980896,0.000356812,0.000738891,0.000223637
6.137331009,0.091247559,-0.088058472,0.190086365,-0.001596313,-0.000237672,0.001444340
6.137971878,-0.091857910,-0.095687866,-0.092201233,-0.000619751,-0.001824586,0.004618168
6.138617992,-0.023193359,-0.049911499,-0.054054260,0.000600952,0.000006469,0.001688480
6.139257908,0.068359375,0.011123657,0.052757263,-0.000741821,-0.001946656,0.001200199
6.139906883,0.037841797,0.156082153,-0.137977600,-0.000619751,-0.001824586,0.005106449
6.140546799,0.159912109,0.049270630,-0.130348206,-0.001230102,-0.000725953,0.002909184
6.153468132,0.220947266,-0.110946655,-0.183753967,-0.001108032,0.001837524,0.004251957
6.154154778,0.137023926,0.049270630,0.136680603,-0.000009399,0.000738891,-0.000508785
6.154863834,-0.000305176,0.018753052,-0.137977600,-0.000863892,0.000860961,0.000223637
6.155704021,-0.015563965,0.377334595,0.090904236,-0.000741821,-0.001336304,0.002054691
6.156561852,0.106506348,0.102676392,0.075645447,-0.001108032,-0.001580445,0.000589848
6.157409191,0.007324219,-0.141464233,0.212974548,-0.001108032,0.000128539,0.000956059
6.158234119,0.030212402,0.003494263,-0.061683655,0.000234741,-0.000237672,0.001688480
6.158906937,0.106506348,-0.027023315,0.068016052,-0.000619751,-0.000359742,0.000833988
6.159537792,0.014953613,0.072158813,0.014610291,-0.000375610,-0.000481812,0.001444340
6.160185814,-0.183410645,0.003494263,0.075645447,0.000112671,-0.000970094,0.001688480
6.160824776,0.060729980,-0.095687866,0.029869080,-0.000619751,-0.000237672,0.002542973
6.161471844,0.030212402,0.072158813,-0.061683655,-0.004037720,-0.001458375,-0.000142574
6.162117958,-0.007934570,0.041641235,0.075645447,0.000478882,0.001471313,0.001078129
6.162755013,-0.206298828,-0.347457886,-0.069313049,-0.000985962,-0.000481812,-0.002339840
6.163411140,0.060729980,0.034011841,-0.008277893,-0.000985962,-0.001946656,0.000589848
6.164069176,-0.168151855,0.316299438,0.106163025,-0.001230102,0.000616821,0.002787113
6.164711952,-0.053710938,-0.316940308,-0.076942444,-0.000009399,0.002447875,0.006571293
6.165493965,0.022583008,0.003494263,-0.031166077,-0.000741821,0.000372680,0.005960941
6.166172981,-0.198669434,0.049270630,0.052757263,-0.000375610,-0.002434937,-0.000020504
6.166917801,0.022583008,-0.133834839,0.190086365,0.000112671,0.002814086,0.001078129
6.167562008,0.045471191,-0.110946655,0.045127869,-0.001718384,-0.002434937,0.001200199
6.168218136,-0.030822754,-0.004135132,0.151939392,0.001089233,0.000128539,0.003763676
6.168854237,0.152282715,0.156082153,-0.000648499,-0.000985962,0.001471313,0.003885746
6.169508934,0.159912109,-0.080429077,0.075645447,-0.000375610,0.001105102,0.004374027
6.170158863,0.091247559,0.110305786,-0.023536682,-0.002450806,-0.000970094,-0.000020504
6.170804024,0.144653320,-0.149093628,-0.038795471,-0.001840454,0.000250610,0.000956059
6.171451092,-0.015563965,0.110305786,-0.183753967,-0.003671509,-0.000970094,0.002054691
6.172111034,-0.053710938,-0.057540894,0.029869080,-0.002206665,-0.002434937,0.002176762
6.172879219,0.060729980,-0.126205444,0.197715759,-0.000253540,-0.000603883,0.004984379
6.173532963,-0.076599121,-0.004135132,0.029869080,0.001089233,-0.001946656,0.003885746
6.174179077,-0.137634277,0.026382446,0.106163025,-0.002328735,-0.000359742,0.002787113
6.174824238,-0.145263672,0.102676392,0.060386658,-0.000985962,-0.000237672,0.002054691
6.175475121,-0.091857910,0.224746704,0.006980896,-0.001352173,0.000006469,0.001566410
6.176121235,-0.229187012,-0.095687866,0.014610291,-0.001474243,-0.002923219,0.002176762
6.176761150,0.121765137,-0.057540894,-0.069313049,0.000723023,-0.001824586,0.001078129
6.177404881,-0.023193359,-0.042282104,-0.023536682,0.000600952,-0.001092164,0.002176762
6.178050995,-0.107116699,0.018753052,0.129051208,-0.000985962,-0.001580445,0.003153324
6.178701878,0.137023926,-0.065170288,0.098533630,-0.003061157,-0.003655640,0.004496098
6.179353237,-0.053710938,-0.088058472,0.075645447,0.000600952,0.001959594,0.004129887
6.180126190,-0.053710938,-0.271163940,-0.038795471,-0.001230102,-0.002923219,0.005228519
6.180902958,0.007324219,-0.095687866,0.006980896,0.000478882,-0.002557008,0.000101566
6.181538105,-0.007934570,-0.034652710,0.113792419,0.000478882,-0.005486695,0.001200199
6.182182789,-0.068969727,0.102676392,0.136680603,-0.000253540,0.001105102,0.001322269
6.182825089,0.281982422,0.072158813,-0.168495178,-0.002084595,-0.001336304,0.006571293
6.183472157,-0.000305176,-0.004135132,0.090904236,0.000967163,0.000372680,0.004251957
6.184119225,0.045471191,-0.011764526,0.090904236,-0.000009399,0.000738891,0.003885746
6.184752941,-0.206298828,0.041641235,0.060386658,-0.000375610,0.002203735,-0.000020504
6.197655201,0.129394531,0.003494263,-0.061683655,0.000478882,-0.000481812,0.000589848
6.198334217,0.137023926,0.034011841,-0.099830627,0.000356812,-0.002679078,0.004251957
6.198983192,0.030212402,-0.049911499,0.045127869,-0.002572876,0.001349242,0.003031254
6.199628830,0.075988770,-0.057540894,-0.008277893,0.000600952,-0.001580445,-0.002583981
6.200273991,0.152282715,-0.080429077,0.220603943,-0.002694946,0.001349242,-0.000264645
6.200918198,0.068359375,0.102676392,-0.099830627,0.001089233,-0.001458375,-0.000752926
6.201563835,0.129394531,-0.042282104,-0.069313049,-0.000619751,0.001471313,0.000223637
6.202218056,-0.007934570,-0.126205444,-0.069313049,0.000723023,-0.000970094,-0.000142574
6.202859879,0.236206055,0.178970337,-0.046424866,-0.001352173,-0.001580445,0.000467777
6.203512192,-0.015563965,0.110305786,0.068016052,0.000356812,0.000738891,0.000101566
6.204150200,0.045471191,-0.156723022,-0.107460022,-0.002206665,0.001959594,0.001566410
6.204793930,0.075988770,0.003494263,0.068016052,-0.000863892,-0.000481812,-0.000386715
6.205429077,0.114135742,-0.240646362,0.106163025,0.001943726,0.000372680,0.003397465
6.206079960,0.014953613,0.011123657,-0.069313049,-0.001840454,0.000128539,0.000589848
6.206716061,-0.000305176,0.087417603,0.136680603,-0.001108032,-0.000359742,0.000467777
6.207357883,-0.091857910,-0.042282104,0.068016052,-0.001474243,0.001227172,0.002542973
6.208003044,0.037841797,0.011123657,0.045127869,0.000967163,-0.000115601,-0.001241207
6.208651066,0.114135742,0.018753052,-0.023536682,0.003408569,-0.000970094,0.001810551
6.209308147,-0.046081543,0.087417603,0.014610291,-0.001108032,0.000006469,-0.001485348
6.209949017,-0.030822754,0.064529419,0.174827576,0.000600952,-0.003167359,0.003031254
6.210584164,-0.130004883,0.079788208,-0.054054260,-0.002328735,0.000983031,0.000711918
6.211239815,0.091247559,0.133193970,0.029869080,-0.003183227,-0.001702515,0.002298832
6.211883068,0.022583008,-0.095687866,0.113792419,-0.002572876,-0.000970094,0.000101566
6.212537766,-0.038452148,-0.057540894,0.029869080,-0.001474243,0.001105102,-0.001119137
6.213189125,-0.084228516,-0.156723022,0.136680603,-0.000863892,-0.001336304,0.004740238
6.213834763,0.114135742,0.308670044,-0.153236389,-0.001352173,0.000616821,0.004618168
6.214478970,-0.084228516,-0.149093628,-0.008277893,-0.001840454,-0.003411500,0.004496098
6.215130806,-0.023193359,-0.004135132,-0.015907288,-0.002694946,-0.001336304,0.001078129
6.215768814,0.228576660,0.140823364,0.174827576,-0.000375610,0.001227172,0.003397465
6.216422081,-0.053710938,0.064529419,0.014610291,-0.002817017,0.002936156,0.002054691
6.217198849,0.121765137,0.003494263,0.106163025,-0.002694946,-0.001214234,0.001688480
6.217845917,0.007324219,-0.027023315,0.060386658,-0.001108032,0.000372680,0.000956059
6.218482018,-0.053710938,-0.011764526,-0.076942444,-0.001352173,-0.001702515,0.003519535
6.219260216,-0.023193359,-0.126205444,0.113792419,-0.001474243,-0.001824586,0.000345707
6.219913006,0.030212402,-0.126205444,0.106163025,-0.003183227,-0.003411500,0.000467777
6.220637798,-0.000305176,-0.088058472,0.167198181,0.000112671,-0.001946656,0.001078129
6.221447945,0.251464844,0.278152466,0.068016052,-0.001596313,0.000372680,0.001810551
6.222260952,-0.046081543,0.079788208,0.197715759,-0.002450806,0.000006469,0.005106449
6.223115921,0.053100586,0.140823364,-0.069313049,-0.002328735,0.001715453,0.003519535
6.223989010,-0.084228516,0.034011841,-0.069313049,-0.000741821,-0.003411500,0.001444340
6.224818230,0.091247559,-0.057540894,0.014610291,0.000723023,-0.002801148,0.004251957
6.225666046,-0.206298828,0.064529419,0.014610291,-0.001718384,-0.000725953,0.002176762
6.226532936,-0.091857910,-0.202499390,0.151939392,0.000478882,-0.001336304,0.003153324
6.227373123,0.190429688,0.056900024,0.075645447,0.002065796,-0.001092164,0.003031254
6.228145123,0.137023926,0.056900024,-0.054054260,-0.002328735,-0.002312867,0.002054691
6.228870869,-0.206298828,0.056900024,0.144309998,-0.001840454,0.000616821,0.000956059
6.229690075,0.274353027,0.003494263,-0.130348206,-0.002817017,-0.001946656,-0.000997066
6.242807865,-0.000305176,0.026382446,-0.199012756,0.001333374,-0.001336304,0.000589848
6.243536949,0.083618164,0.285781860,-0.260047913,0.000478882,-0.000725953,0.000467777
6.244384766,-0.023193359,0.072158813,0.083274841,-0.002572876,-0.001702515,-0.000386715
6.245233059,0.030212402,-0.179611206,0.006980896,0.002432007,0.000738891,0.000223637
6.246066093,0.053100586,-0.004135132,-0.000648499,0.000478882,-0.001458375,0.002298832
6.246915817,-0.030822754,0.201858521,-0.038795471,-0.002328735,-0.002068726,0.001932621
6.247763157,0.106506348,-0.088058472,0.296897888,-0.000619751,-0.000725953,0.002420902
6.248540878,0.083618164,-0.065170288,0.258750916,-0.000741821,0.000494750,0.003885746
6.249186993,-0.061340332,-0.019393921,0.029869080,-0.000131470,0.000983031,0.001200199
6.249843121,-0.114746094,0.041641235,-0.099830627,-0.000741821,0.000372680,0.000467777
6.250606060,0.190429688,-0.095687866,-0.099830627,-0.000253540,-0.002068726,0.002176762
6.251409054,-0.099487305,0.056900024,0.098533630,-0.000009399,-0.000481812,0.000223637
6.252100945,-0.145263672,-0.072799683,0.174827576,0.000600952,0.000860961,0.004129887
6.252925873,0.121765137,0.034011841,0.235862732,-0.000497681,0.000006469,0.004984379
6.253767967,-0.107116699,0.110305786,-0.076942444,0.000723023,-0.001336304,-0.001119137
6.254631042,0.167541504,-0.133834839,-0.023536682,-0.001962524,0.000616821,0.001322269
6.255493164,-0.023193359,0.064529419,0.006980896,0.000845093,-0.002068726,0.002665043
6.256291866,-0.038452148,0.041641235,0.106163025,-0.000009399,-0.001580445,-0.000020504
6.257133961,-0.183410645,0.186599731,0.182456970,-0.002084595,-0.002068726,0.003031254
6.257969856,0.083618164,0.140823364,0.029869080,-0.001596313,-0.000970094,0.000467777
6.258800030,0.114135742,-0.065170288,-0.046424866,-0.001474243,-0.002312867,0.000956059
6.259468079,-0.023193359,-0.118576050,0.060386658,-0.001230102,-0.000970094,0.004618168
6.260121822,-0.206298828,0.079788208,-0.015907288,0.001577515,-0.000359742,0.003031254
6.260766983,0.144653320,0.041641235,0.083274841,-0.004037720,-0.000603883,0.003275394
6.261414051,0.007324219,-0.072799683,-0.000648499,-0.000131470,0.001715453,0.002909184
6.262054920,0.014953613,0.270523071,-0.046424866,-0.002084595,-0.001336304,0.003641605
6.262695789,0.075988770,-0.103317261,-0.031166077,-0.001840454,-0.002923219,0.002176762
6.263349056,0.030212402,0.064529419,0.075645447,-0.000009399,-0.000848023,0.000833988
6.263982773,-0.107116699,0.186599731,0.014610291,0.001699585,0.000983031,0.004740238
6.264634132,0.144653320,-0.042282104,0.106163025,-0.000619751,-0.003045289,0.003763676
6.265281200,-0.122375488,0.186599731,0.006980896,-0.000009399,-0.000725953,0.001078129
6.265917778,0.030212402,0.041641235,-0.137977600,0.003164429,-0.002190797,0.001322269
6.266559124,0.037841797,-0.049911499,-0.054054260,-0.000253540,-0.002068726,0.002176762
6.267210007,0.106506348,0.163711548,0.190086365,-0.000741821,-0.001946656,0.003031254
6.267936230,0.144653320,0.056900024,0.083274841,-0.001840454,-0.002557008,0.002420902
6.268805981,-0.046081543,0.034011841,-0.031166077,-0.001230102,-0.003411500,-0.001119137
6.269642830,0.037841797,0.247634888,-0.076942444,0.000478882,0.001349242,0.001810551
6.270493031,0.075988770,-0.187240601,0.083274841,0.000112671,-0.000725953,0.002420902
6.271330833,0.060729980,0.171340942,0.052757263,-0.001718384,-0.000237672,0.002420902
6.272107124,-0.015563965,-0.149093628,-0.015907288,-0.001718384,-0.001458375,0.001810551
6.272747040,-0.000305176,0.018753052,-0.008277893,0.001455444,-0.001702515,0.001078129
6.273388863,-0.000305176,0.117935181,0.266380310,-0.000619751,-0.002068726,0.000833988
6.274027824,-0.099487305,-0.233016968,-0.221900940,-0.001840454,0.000006469,-0.001241207
6.274668217,0.030212402,-0.072799683,0.075645447,-0.002694946,0.000372680,0.003397465
6.275310993,-0.145263672,0.079788208,-0.008277893,-0.000497681,-0.001458375,0.001688480
6.275957108,0.075988770,0.072158813,-0.130348206,0.001455444,-0.000848023,0.002542973
6.276594162,-0.160522461,0.049270630,0.129051208,-0.003549438,-0.000603883,0.002665043
6.289492130,-0.335998535,-0.294052124,-0.008277893,-0.001718384,0.000006469,-0.000142574
6.290171146,0.228576660,0.041641235,0.174827576,-0.000375610,-0.001214234,0.000345707
6.290809155,0.159912109,0.003494263,-0.008277893,-0.001474243,-0.000359742,0.001688480
6.291452885,0.175170898,0.095046997,-0.038795471,-0.000131470,-0.000848023,0.000345707
6.292095184,-0.053710938,0.018753052,-0.000648499,-0.000741821,-0.000848023,0.002176762
6.292862892,-0.206298828,0.240005493,-0.008277893,-0.000863892,-0.002190797,0.004740238
6.293512821,0.144653320,-0.065170288,0.006980896,0.002920288,-0.001824586,-0.000997066
6.294170856,0.083618164,-0.072799683,-0.008277893,-0.000985962,-0.001336304,0.000345707
6.294818878,-0.068969727,0.018753052,0.090904236,-0.000863892,-0.001092164,0.001444340
6.295467854,0.060729980,0.026382446,0.045127869,0.001333374,-0.002068726,0.000711918
6.296112061,0.106506348,-0.004135132,0.014610291,0.001821655,0.000372680,0.001810551
6.296747208,-0.000305176,-0.164352417,-0.046424866,-0.003427368,-0.001458375,0.004374027
6.297390938,0.045471191,-0.110946655,-0.000648499,-0.002328735,0.000983031,0.001444340
6.298046112,0.114135742,0.110305786,0.106163025,-0.000985962,-0.001336304,0.004129887
6.298697948,0.060729980,0.117935181,-0.031166077,-0.001230102,-0.001214234,0.002420902
6.299355030,0.075988770,-0.019393921,-0.069313049,0.000723023,-0.000725953,-0.000874996
6.299994946,0.014953613,0.056900024,0.235862732,-0.001352173,-0.002801148,0.000711918
6.300635815,-0.107116699,-0.103317261,0.090904236,0.000112671,-0.000970094,0.003519535
6.301286221,-0.023193359,-0.049911499,-0.145606995,-0.001230102,-0.000970094,0.003153324
6.301949024,-0.030822754,-0.171981812,-0.115089417,-0.000375610,-0.003411500,0.005594730
6.302593231,0.030212402,0.034011841,0.029869080,-0.001962524,-0.002434937,0.001200199
6.303244114,0.022583008,-0.049911499,0.075645447,-0.000863892,-0.000848023,-0.001851559
6.303876877,-0.007934570,0.133193970,0.029869080,-0.000985962,-0.001336304,0.003397465
6.304533005,-0.213928223,-0.217758179,0.006980896,0.000600952,-0.001702515,0.001200199
6.305180073,0.167541504,0.392593384,0.045127869,0.001211304,-0.002923219,0.001688480
6.305820942,-0.076599121,0.041641235,-0.199012756,-0.001840454,-0.001824586,0.001444340
6.306468010,0.289611816,-0.179611206,-0.008277893,-0.002817017,-0.001336304,0.001322269
6.307122231,0.198059082,-0.126205444,0.113792419,-0.001962524,-0.000725953,0.005716801
6.307762146,-0.175781250,-0.126205444,0.182456970,0.000234741,-0.002190797,0.005106449
6.308414936,0.198059082,0.186599731,0.045127869,-0.001230102,-0.001336304,0.001200199
6.309063911,0.228576660,-0.011764526,-0.061683655,-0.001352173,-0.000481812,0.002054691
6.309709072,0.190429688,-0.080429077,0.197715759,-0.002206665,0.001349242,0.000956059
6.310482979,0.022583008,0.011123657,0.006980896,-0.001718384,-0.000481812,0.000956059
6.311128139,0.060729980,0.102676392,0.022239685,-0.000131470,-0.001946656,0.003519535
6.311768055,0.152282715,0.026382446,0.060386658,-0.002694946,-0.002312867,0.002420902
6.312418938,-0.023193359,-0.057540894,-0.137977600,-0.000985962,0.000860961,0.003275394
6.313074112,-0.023193359,-0.019393921,0.083274841,-0.000131470,0.000738891,0.004496098
6.313714981,-0.152893066,0.003494263,-0.023536682,-0.000497681,0.000738891,0.000345707
6.314352036,-0.038452148,-0.103317261,-0.015907288,0.003286499,0.000738891,0.000223637
6.314994812,-0.168151855,-0.042282104,-0.130348206,-0.001596313,-0.000603883,0.002787113
6.315637112,0.182800293,-0.088058472,-0.061683655,-0.000009399,0.000250610,0.000833988
6.316278934,-0.061340332,-0.004135132,0.159568787,-0.002939087,-0.000848023,0.003885746
6.316917896,-0.007934570,-0.133834839,0.006980896,-0.002328735,-0.000603883,0.004862309
6.317557812,-0.076599121,-0.110946655,0.037498474,-0.001108032,0.001959594,0.006449223
6.318208218,0.037841797,0.079788208,-0.084571838,-0.000619751,-0.001946656,0.004251957
6.318848133,-0.114746094,-0.011764526,0.136680603,-0.000131470,-0.002557008,0.001810551
6.319491863,0.022583008,-0.011764526,-0.122718811,-0.003061157,-0.001946656,0.002542973
6.332437038,0.030212402,0.018753052,-0.061683655,-0.000497681,0.001349242,0.001444340
6.333116055,-0.099487305,-0.080429077,-0.092201233,-0.000131470,-0.001092164,0.000101566
6.333749771,0.098876953,0.110305786,0.098533630,0.001699585,-0.004021851,-0.001119137
6.334402084,-0.137634277,0.148452759,0.083274841,-0.001352173,0.000006469,-0.000020504
6.335040092,0.037841797,-0.065170288,-0.076942444,-0.002206665,0.000006469,0.001688480
6.335676193,0.129394531,-0.088058472,0.022239685,-0.000497681,0.000372680,0.001688480
6.336383820,-0.084228516,-0.187240601,0.060386658,-0.003183227,0.001227172,0.001078129
6.337160110,0.175170898,0.011123657,0.075645447,-0.000863892,-0.003167359,-0.000874996
6.337797165,-0.198669434,0.018753052,-0.099830627,-0.001840454,0.001349242,0.001932621
6.338457108,-0.068969727,0.186599731,0.006980896,-0.000497681,0.001715453,0.000956059
6.339099884,-0.114746094,0.217117310,0.205345154,0.000112671,-0.003289429,0.000956059
6.339738846,-0.046081543,-0.141464233,-0.069313049,-0.002450806,0.000983031,0.003519535
6.340402126,-0.099487305,0.064529419,0.029869080,-0.000863892,-0.000359742,-0.000264645
6.341144085,-0.175781250,-0.049911499,0.243492126,-0.000741821,0.000372680,-0.000264645
6.341780186,0.037841797,0.392593384,-0.031166077,-0.001596313,0.000250610,0.000345707
6.342423916,0.137023926,0.018753052,0.075645447,-0.000131470,-0.001214234,0.002787113
6.343070030,0.075988770,-0.233016968,-0.099830627,-0.001108032,-0.001336304,0.003153324
6.343723774,0.053100586,0.087417603,-0.008277893,-0.000497681,0.000250610,0.004374027
6.344363213,0.045471191,-0.164352417,-0.015907288,-0.001596313,0.002569946,0.003031254
6.345011234,0.022583008,-0.057540894,0.167198181,-0.000985962,-0.000237672,-0.000264645
6.345654011,0.144653320,0.201858521,-0.168495178,-0.002817017,-0.002190797,0.002054691
6.346311092,0.083618164,0.201858521,0.083274841,-0.000131470,0.000616821,0.002665043
6.346949100,0.228576660,-0.263534546,0.113792419,-0.000741821,-0.001092164,0.004007816
6.347593784,0.022583008,0.117935181,-0.038795471,-0.001474243,-0.002557008,0.003275394
6.348243237,-0.084228516,0.011123657,0.037498474,-0.001596313,-0.000970094,0.001688480
6.348898888,0.213317871,-0.072799683,0.037498474,-0.000375610,0.000372680,0.002176762
6.349538803,-0.053710938,0.232376099,-0.008277893,0.000723023,0.000250610,0.000956059
6.350317001,0.144653320,0.102676392,0.045127869,0.001577515,0.001593383,0.005350590
6.350965023,-0.053710938,0.079788208,-0.069313049,0.000845093,-0.001092164,0.001200199
6.351729870,-0.030822754,-0.133834839,0.068016052,-0.002572876,-0.001458375,0.004618168
6.352381229,-0.015563965,-0.141464233,-0.153236389,-0.003061157,0.001105102,0.003641605
6.353036880,0.098876953,-0.042282104,-0.046424866,-0.001352173,0.000128539,0.004374027
6.353674889,-0.068969727,-0.248275757,0.113792419,-0.002694946,-0.003045289,0.004374027
6.354331970,0.121765137,-0.171981812,-0.000648499,-0.001230102,0.000494750,0.002665043
6.354971886,-0.091857910,0.034011841,-0.130348206,-0.000009399,-0.000115601,0.001810551
6.355607986,0.060729980,0.064529419,-0.008277893,0.000723023,-0.000359742,0.002054691
6.356247902,0.007324219,0.072158813,0.006980896,-0.001840454,-0.000237672,0.005106449
6.356883049,-0.084228516,-0.011764526,0.098533630,-0.001108032,-0.001336304,0.003153324
6.357531071,0.083618164,0.011123657,-0.046424866,-0.000131470,0.000738891,0.005228519
6.358177185,-0.145263672,0.087417603,0.022239685,-0.001352173,0.001105102,0.002542973
6.358815193,-0.137634277,0.079788208,-0.015907288,-0.002450806,-0.000481812,0.001444340
6.359467030,-0.152893066,0.194229126,0.014610291,-0.002694946,0.000006469,0.003153324
6.360108852,0.182800293,-0.088058472,0.167198181,-0.002084595,-0.002557008,0.003031254
6.360751152,0.114135742,0.011123657,0.129051208,-0.002817017,0.001715453,0.002054691
6.361399174,0.030212402,-0.149093628,-0.069313049,0.000112671,-0.005364625,0.001322269
6.362047195,0.037841797,-0.088058472,-0.023536682,-0.001596313,-0.001214234,0.001932621
6.362688065,-0.343627930,-0.141464233,0.037498474,-0.001230102,0.000128539,0.004251957
6.375616074,-0.030822754,-0.210128784,0.060386658,-0.001962524,0.000006469,0.003397465
6.376296043,0.182800293,0.125564575,0.014610291,-0.000253540,-0.005120484,0.001688480
6.376938820,-0.023193359,-0.095687866,-0.076942444,-0.002694946,0.000494750,0.001932621
6.377583027,0.007324219,0.079788208,0.068016052,0.000967163,-0.002434937,-0.001973629
6.378234863,0.014953613,0.034011841,0.174827576,-0.002694946,-0.000725953,0.001444340
6.378880024,-0.191040039,-0.133834839,-0.122718811,-0.000131470,-0.000970094,-0.000142574
6.379535198,0.289611816,0.011123657,-0.054054260,-0.000863892,0.000006469,0.002542973
6.380183220,0.037841797,-0.103317261,0.045127869,-0.001352173,-0.001702515,-0.000997066
6.380829811,-0.000305176,0.018753052,0.220603943,-0.003793579,-0.002923219,0.002542973
6.381477833,-0.160522461,0.194229126,0.006980896,-0.000985962,-0.003655640,0.002665043
6.382129192,0.259094238,0.049270630,-0.199012756,-0.003183227,-0.003655640,0.004251957
6.382780075,-0.229187012,0.156082153,-0.252418518,0.000112671,-0.001702515,0.002298832
6.383428097,-0.023193359,-0.042282104,0.022239685,-0.002450806,-0.002679078,-0.001607418
6.384079933,0.129394531,-0.133834839,0.014610291,0.001577515,-0.001458375,0.000345707
6.384717941,0.030212402,0.163711548,0.106163025,0.000234741,-0.001214234,0.000345707
6.385365963,-0.137634277,-0.095687866,-0.023536682,-0.000619751,0.001349242,0.001444340
6.386011124,0.075988770,-0.034652710,-0.153236389,-0.000619751,0.000738891,0.000223637
6.386647224,0.022583008,0.018753052,-0.023536682,-0.002572876,-0.001580445,0.001200199
6.387293816,0.091247559,-0.042282104,0.060386658,-0.001840454,-0.000115601,0.001688480
6.387942791,-0.076599121,-0.233016968,-0.015907288,0.001089233,0.001959594,0.003519535
6.388583183,-0.038452148,-0.011764526,0.136680603,0.000967163,-0.000359742,0.002909184
6.389242172,0.075988770,-0.202499390,0.075645447,-0.000741821,-0.001336304,0.001444340
6.389883995,0.098876953,0.194229126,-0.137977600,-0.000131470,-0.000603883,0.004496098
6.390531063,-0.175781250,0.156082153,0.121421814,0.000478882,-0.000603883,0.002542973
6.391176224,0.152282715,-0.126205444,0.029869080,-0.002084595,-0.000970094,0.001688480
6.391827106,-0.099487305,-0.011764526,0.121421814,-0.003671509,-0.002068726,0.002298832
6.392476082,0.037841797,-0.118576050,-0.084571838,-0.001230102,-0.002679078,0.003519535
6.393128872,-0.198669434,-0.072799683,0.136680603,0.001699585,0.001959594,0.005960941
6.393768787,-0.107116699,0.026382446,0.220603943,-0.002084595,-0.002801148,0.001932621
6.394423008,-0.122375488,-0.019393921,0.045127869,-0.000009399,-0.002068726,0.002542973
6.395065784,-0.168151855,-0.095687866,-0.008277893,-0.001474243,0.001471313,0.003519535
6.395711899,-0.152893066,0.064529419,0.098533630,-0.000619751,0.001349242,0.002909184
6.396357059,0.137023926,-0.004135132,-0.069313049,-0.000741821,0.000860961,0.000345707
6.396998882,0.243835449,0.186599731,0.022239685,0.002065796,-0.001092164,0.001932621
6.397641182,-0.084228516,0.003494263,-0.191383362,0.000723023,-0.003289429,0.004129887
6.398286819,-0.053710938,-0.133834839,0.060386658,0.004018921,-0.000481812,0.002420902
6.399063110,-0.175781250,0.072158813,-0.137977600,-0.002694946,-0.001336304,0.002054691
6.399703979,-0.061340332,0.110305786,-0.000648499,-0.000375610,-0.001580445,0.003641605
6.400348186,0.030212402,0.079788208,-0.153236389,-0.000985962,-0.001092164,0.002909184
6.401002884,0.098876953,0.056900024,0.174827576,-0.002450806,-0.002923219,0.005228519
6.401644230,0.243835449,0.072158813,0.167198181,-0.002206665,-0.002801148,0.002298832
6.402297974,-0.168151855,-0.164352417,-0.038795471,-0.003061157,-0.000481812,-0.001973629
6.402948856,0.106506348,0.095046997,0.014610291,-0.002084595,0.001837524,0.004862309
6.403588772,-0.046081543,0.079788208,0.014610291,-0.000375610,-0.000848023,0.002909184
6.404229164,-0.023193359,0.316299438,-0.092201233,0.000723023,-0.001336304,0.001444340
6.404871941,0.007324219,0.041641235,-0.092201233,-0.001230102,-0.000359742,0.004862309
6.405511856,-0.206298828,-0.095687866,0.068016052,0.000356812,-0.000359742,0.001932621
6.418440819,-0.030822754,0.056900024,-0.199012756,-0.001596313,-0.003167359,-0.002828121
6.419123173,0.014953613,0.178970337,0.014610291,-0.002694946,-0.001092164,0.000833988
6.419758797,-0.084228516,-0.110946655,-0.214271545,0.000356812,-0.002190797,0.003275394
6.420412064,-0.137634277,0.270523071,0.022239685,-0.001840454,-0.001580445,-0.000020504
6.421058178,0.053100586,-0.042282104,-0.206642151,0.000234741,-0.002801148,0.003153324
6.421699047,-0.099487305,-0.164352417,0.029869080,-0.000375610,0.000372680,0.001200199
6.422346115,0.175170898,0.217117310,0.144309998,-0.001474243,-0.002190797,0.000467777
6.422995090,-0.122375488,-0.049911499,-0.031166077,-0.001108032,-0.001336304,0.002054691
6.423638821,0.083618164,-0.103317261,-0.115089417,-0.001596313,0.000128539,0.001200199
6.424290180,0.213317871,-0.019393921,-0.107460022,0.001211304,-0.000970094,-0.000142574
6.424942970,0.007324219,0.026382446,0.014610291,-0.003305298,-0.000970094,0.001444340
6.425590992,-0.046081543,0.018753052,0.060386658,-0.002572876,-0.001702515,0.002787113
6.426240921,0.175170898,-0.065170288,-0.023536682,0.000723023,-0.003045289,0.000833988
6.426880836,-0.221557617,-0.194869995,-0.015907288,0.000723023,-0.001946656,-0.001729488
6.427530766,-0.046081543,-0.118576050,0.121421814,-0.000253540,0.001837524,0.003519535
6.428181171,0.022583008,0.026382446,0.029869080,-0.000863892,-0.000359742,0.000956059
6.428811073,-0.061340332,-0.065170288,0.106163025,-0.002694946,-0.000115601,0.001444340
6.429462910,-0.236816406,-0.141464233,0.190086365,0.000845093,0.000616821,-0.001119137
6.430107117,0.014953613,-0.118576050,-0.031166077,0.000845093,-0.000237672,0.001566410
6.430745125,-0.099487305,0.049270630,0.068016052,-0.000009399,0.000738891,0.001322269
6.431377888,-0.213928223,-0.110946655,-0.000648499,-0.001840454,0.000128539,0.000711918
6.432023048,-0.259704590,0.140823364,0.029869080,-0.001840454,-0.001336304,-0.000142574
6.432664871,0.114135742,0.003494263,-0.099830627,-0.002450806,-0.001214234,0.003031254
6.433321953,-0.191040039,0.102676392,0.335044861,-0.001962524,-0.001580445,0.000467777
6.433971882,-0.076599121,0.049270630,-0.176124573,-0.001840454,-0.002312867,0.002542973
6.434617043,-0.061340332,-0.027023315,-0.191383362,-0.000497681,-0.000481812,0.001078129
6.435262203,-0.152893066,-0.072799683,-0.038795471,-0.001840454,-0.001458375,0.004862309
6.435916901,0.014953613,-0.133834839,0.151939392,-0.002572876,0.000860961,0.000833988
6.436553955,0.114135742,0.507034302,-0.069313049,0.000723023,0.000128539,0.004251957
6.437202930,-0.160522461,0.003494263,-0.046424866,-0.000619751,-0.003289429,0.000956059
6.437835217,-0.099487305,-0.126205444,0.045127869,-0.001962524,-0.003533570,0.001078129
6.438484192,0.083618164,0.011123657,0.197715759,-0.001596313,-0.000237672,0.000711918
6.439140797,0.030212402,-0.049911499,-0.023536682,-0.002206665,0.000006469,0.002542973
6.439776897,0.068359375,0.011123657,-0.023536682,-0.001840454,-0.002068726,0.002665043
6.440423012,0.358276367,0.041641235,-0.115089417,0.002432007,-0.000481812,0.004007816
6.441092968,0.106506348,-0.057540894,0.197715759,-0.000985962,-0.000359742,0.004740238
6.441737175,-0.099487305,0.156082153,0.006980896,-0.000863892,0.002447875,0.003519535
6.442382812,0.053100586,-0.156723022,0.022239685,0.000967163,0.000250610,0.001078129
6.443150043,-0.084228516,0.049270630,0.037498474,-0.001596313,-0.002190797,0.002176762
6.443799973,-0.053710938,-0.301681519,0.029869080,-0.000985962,-0.000848023,0.001078129
6.444581032,0.045471191,0.049270630,0.113792419,-0.000985962,0.002814086,0.002054691
6.445247173,0.014953613,-0.004135132,0.159568787,-0.002572876,0.000372680,0.005228519
6.445888042,-0.122375488,-0.324569702,0.159568787,-0.000985962,-0.000603883,0.003763676
6.446547031,0.144653320,0.095046997,0.197715759,-0.001230102,-0.000970094,0.003397465
6.447206974,0.251464844,-0.126205444,-0.214271545,-0.001718384,0.000494750,0.003031254
6.447856903,-0.015563965,0.079788208,0.075645447,-0.000985962,-0.002679078,0.003153324
6.448506832,0.098876953,-0.294052124,0.068016052,-0.001718384,-0.001214234,0.000956059
6.461410046,0.007324219,-0.194869995,0.022239685,0.000234741,-0.001092164,0.000833988
6.462087154,0.327758789,-0.065170288,-0.061683655,0.001211304,-0.000970094,0.001200199
6.462734222,0.053100586,-0.027023315,0.190086365,-0.001352173,0.001471313,-0.000386715
6.463384151,0.182800293,-0.118576050,-0.221900940,-0.000009399,0.000738891,0.003153324
6.464025974,-0.030822754,0.117935181,0.068016052,-0.002084595,0.001349242,0.001444340
6.464669228,0.091247559,-0.301681519,-0.153236389,-0.001230102,-0.000237672,0.000589848
6.465314865,-0.046081543,-0.156723022,-0.076942444,0.000723023,0.002325805,0.003275394
6.465960979,0.213317871,0.171340942,0.022239685,-0.002328735,-0.003899781,-0.000386715
6.466602802,-0.152893066,-0.095687866,0.151939392,-0.000497681,0.001349242,0.001810551
6.467255116,0.030212402,0.156082153,-0.000648499,0.000723023,-0.001580445,-0.000752926
6.467885017,-0.191040039,0.262893677,-0.000648499,0.001455444,0.000006469,0.002420902
6.468523979,-0.091857910,0.041641235,-0.008277893,-0.002084595,-0.003167359,0.000956059
6.469169140,0.030212402,-0.095687866,-0.046424866,-0.002450806,0.000006469,0.000101566
