time,gyro x,gyro y,gyro z,accel x,accel y,accel z
32.000179,-4.889755249,1.446762085,-15.935737610,-0.082462035,-0.181993291,0.966923833
32.000806,-5.019454956,1.614608765,-16.073066711,-0.083560668,-0.188463017,0.972050786
32.001431,-5.156784058,1.492538452,-15.691596985,-0.083804809,-0.188829228,0.969243169
32.002057,-5.057601929,1.507797241,-15.439826965,-0.081363402,-0.187974736,0.970463872
32.002682,-5.271224976,1.759567261,-15.142280579,-0.078677855,-0.189805791,0.967534184
32.003307,-5.103378296,1.599349976,-15.142280579,-0.080386840,-0.188218877,0.967290044
32.003932,-5.027084351,1.484909058,-14.753181458,-0.077579223,-0.189927861,0.970585942
32.004559,-4.828720093,1.629867554,-14.486152649,-0.077701293,-0.189561650,0.965825200
32.005185,-4.752426147,1.759567261,-14.585334778,-0.076602660,-0.193834111,0.968876958
32.005811,-4.836349487,1.507797241,-14.211494446,-0.079166137,-0.194322392,0.966679692
32.006436,-4.584579468,1.729049683,-13.814765930,-0.076968871,-0.189317510,0.969121099
32.007062,-4.431991577,1.370468140,-13.830024719,-0.074771605,-0.192125127,0.966923833
32.007687,-4.187850952,1.622238159,-13.585884094,-0.073428832,-0.189683720,0.966069341
32.008312,-4.172592163,1.851119995,-13.654548645,-0.075137816,-0.189195439,0.966557622
32.008937,-3.890304565,1.462020874,-13.349372864,-0.073795043,-0.189073369,0.967167974
32.009562,-3.485946655,1.576461792,-13.364631653,-0.079532348,-0.187242314,0.969365239
32.010187,-3.409652710,1.713790894,-12.868721008,-0.076602660,-0.183213994,0.968510747
32.010814,-3.249435425,1.637496948,-12.830574036,-0.074405394,-0.181871220,0.966435552
32.024827,-1.227645874,2.705612183,-9.908515930,-0.066592894,-0.133409306,0.973515630
32.025558,-1.113204956,2.942123413,-10.007698059,-0.066714965,-0.133165166,0.972416997
32.026183,-1.090316772,2.911605835,-9.992439270,-0.068301879,-0.136827275,0.967900395
32.026808,-0.998764038,2.873458862,-9.855110168,-0.067813598,-0.130479619,0.969853520
32.027433,-0.869064331,2.926864624,-10.053474426,-0.068179809,-0.129869267,0.964482427
32.028059,-0.960617065,2.797164917,-9.733039856,-0.069278441,-0.128282353,0.965458989
32.028684,-0.724105835,2.820053101,-9.572822571,-0.071353637,-0.128038213,0.965458989
32.029309,-0.510482788,2.865829468,-9.794075012,-0.073672973,-0.129503056,0.960576177
32.029934,-0.197677612,2.774276733,-9.679634094,-0.072696410,-0.129747197,0.958989263
32.030560,-0.098495483,2.743759155,-9.740669250,-0.076114379,-0.127183720,0.956425786
32.031186,0.107498169,2.575912476,-9.687263489,-0.074771605,-0.129258916,0.953129888
32.031811,0.084609985,2.347030640,-9.656745911,-0.075137816,-0.129380986,0.956547856
32.032436,0.458450317,2.408065796,-9.443122864,-0.076724730,-0.132188603,0.951420903
32.033063,0.534744263,2.102890015,-9.656745911,-0.075870238,-0.128648564,0.951298833
32.033689,0.855178833,1.980819702,-9.542304993,-0.078677855,-0.129869267,0.951420903
32.034315,1.183242798,2.118148804,-9.565193176,-0.077945434,-0.128648564,0.955083013
32.034941,1.419754028,1.858749390,-9.435493469,-0.081119262,-0.128038213,0.953740239
32.035568,1.557083130,1.721420288,-9.916145325,-0.083560668,-0.131334111,0.949345708
32.036193,1.938552856,1.675643921,-9.527046204,-0.085513793,-0.131700322,0.951176763
32.036819,2.152175903,1.507797241,-9.641487122,-0.085635863,-0.129991338,0.951420903
32.037445,2.480239868,1.492538452,-9.801704407,-0.087588988,-0.130113408,0.952275395
32.038071,2.655715942,1.332321167,-9.717781067,-0.084903441,-0.128892705,0.953251958
32.038697,2.823562622,1.164474487,-9.557563782,-0.087711059,-0.130723760,0.952885747
32.039324,3.281326294,1.156845093,-9.496528625,-0.088443480,-0.126939580,0.952153325
32.039949,3.617019653,0.882186890,-9.603340149,-0.090640746,-0.126817510,0.953496099
32.040575,3.975601196,0.905075073,-9.725410461,-0.091129027,-0.130113408,0.955205083
32.041202,4.044265747,0.630416870,-9.755928040,-0.092593871,-0.127794072,0.955693364
32.041829,4.494400024,0.538864136,-9.733039856,-0.091006957,-0.133287236,0.954106450
32.042454,4.631729126,0.645675659,-9.672004700,-0.093692504,-0.129869267,0.955937505
32.043080,4.852981567,0.294723511,-9.580451965,-0.094424926,-0.128282353,0.955449224
32.044867,5.562515259,0.042953491,-9.588081360,-0.099796019,-0.130723760,0.957158208
32.045493,5.585403442,0.195541382,-9.794075012,-0.104312621,-0.129014775,0.956914067
32.046119,5.722732544,0.157394409,-9.763557434,-0.104312621,-0.131212041,0.953618169
32.046746,5.989761353,-0.346145630,-9.603340149,-0.106754027,-0.128648564,0.957768559
32.047372,5.821914673,-0.086746216,-9.786445618,-0.105777465,-0.130235478,0.958378911
32.048002,6.088943481,-0.063858032,-9.664375305,-0.110782348,-0.132554814,0.954838872
32.048627,6.142349243,-0.521621704,-9.572822571,-0.110049926,-0.131822392,0.955571294
32.049252,6.157608032,-0.231704712,-9.534675598,-0.110538207,-0.132066533,0.954350591
32.049879,6.447525024,-0.315628052,-9.519416809,-0.113345824,-0.130723760,0.953251958
32.050506,6.256790161,-0.613174438,-9.511787415,-0.109561644,-0.133409306,0.956791997
32.051132,6.485671997,-0.575027466,-9.481269836,-0.111880980,-0.128526494,0.952519536
32.051758,6.401748657,-0.819168091,-9.527046204,-0.113345824,-0.131700322,0.954960942
32.052385,6.470413208,-0.918350220,-9.275276184,-0.115298949,-0.131700322,0.955693364
32.053010,6.447525024,-0.849685669,-9.458381653,-0.116641723,-0.130357549,0.953129888
32.053635,6.378860474,-0.712356567,-9.366828918,-0.115909301,-0.130967900,0.953862309
32.054262,6.203384399,-0.925979614,-9.298164368,-0.117252074,-0.131212041,0.955205083
32.054887,6.188125610,-1.147232056,-9.321052551,-0.117862426,-0.129014775,0.955693364
32.068952,0.466079712,-2.810440063,-7.558662415,-0.131534308,-0.128160283,0.948979497
32.069697,-0.228195190,-3.085098267,-7.459480286,-0.136295050,-0.130357549,0.946049809
32.070323,-0.754623413,-3.352127075,-7.375556946,-0.136172980,-0.128892705,0.944707036
32.070948,-0.937728882,-3.375015259,-7.131416321,-0.140201300,-0.131456181,0.942631841
32.071574,-1.014022827,-3.809890747,-7.139045715,-0.140689582,-0.132432744,0.942631841
32.072199,-1.342086792,-4.008255005,-6.772834778,-0.141177863,-0.130601689,0.944340825
32.072824,-1.708297729,-4.046401978,-6.833869934,-0.142154425,-0.128892705,0.943974614
32.073451,-1.967697144,-4.366836548,-6.734687805,-0.142520636,-0.129136845,0.943730474
32.074078,-2.127914429,-4.458389282,-6.734687805,-0.145328254,-0.130601689,0.941655278
32.074704,-2.242355347,-4.763565063,-6.353218079,-0.145816535,-0.134019658,0.940190434
32.075329,-2.394943237,-5.274734497,-6.757575989,-0.145450324,-0.130967900,0.942875981
32.075955,-2.784042358,-5.297622681,-6.376106262,-0.144351691,-0.129625127,0.943364263
32.076582,-2.669601440,-5.564651489,-6.505805969,-0.145938605,-0.132676885,0.942143559
32.077209,-2.707748413,-5.671463013,-6.337959290,-0.142886847,-0.130601689,0.945683599
32.077835,-2.883224487,-5.831680298,-6.200630188,-0.141788214,-0.127794072,0.948002934
32.078461,-2.913742065,-6.258926392,-6.162483215,-0.143741339,-0.128038213,0.947636724
32.079088,-3.142623901,-6.350479126,-6.170112610,-0.146060675,-0.129991338,0.947514653
32.079713,-3.119735718,-6.518325806,-6.193000793,-0.140445441,-0.128526494,0.953496099
32.080338,-3.196029663,-6.625137329,-5.895454407,-0.138980597,-0.133043095,0.956669927
32.080963,-3.157882690,-6.808242798,-5.834419250,-0.143497199,-0.131822392,0.957890630
32.081590,-3.218917847,-6.869277954,-5.727607727,-0.141177863,-0.128160283,0.962895513
32.082217,-3.112106323,-7.258377075,-5.681831360,-0.142154425,-0.128526494,0.962041020
32.082844,-3.356246948,-7.342300415,-5.597908020,-0.141544074,-0.127183720,0.966557622
32.083470,-3.279953003,-7.334671021,-5.674201965,-0.141788214,-0.129503056,0.969365239
32.084096,-3.127365112,-7.555923462,-5.475837708,-0.138980597,-0.129380986,0.973149419
32.084721,-3.218917847,-7.700881958,-5.582649231,-0.141177863,-0.129258916,0.974370122
32.085346,-2.890853882,-7.830581665,-5.475837708,-0.141910285,-0.128526494,0.977666020
32.085971,-2.982406616,-8.021316528,-5.109626770,-0.140567511,-0.129747197,0.977543950
32.086597,-3.066329956,-7.929763794,-5.285102844,-0.135562629,-0.129503056,0.980717778
32.087224,-2.959518433,-7.998428345,-5.124885559,-0.142764777,-0.129258916,0.987309575
32.088984,-2.684860229,-8.303604126,-4.941780090,-0.138736457,-0.131578252,0.990605474
32.089609,-2.608566284,-8.204421997,-5.025703430,-0.139835089,-0.130113408,0.991826177
32.090235,-2.509384155,-8.303604126,-4.690010071,-0.141788214,-0.131700322,0.991215825
32.090861,-2.333908081,-8.318862915,-4.766304016,-0.140811652,-0.130357549,0.996586919
32.091486,-2.143173218,-8.486709595,-4.667121887,-0.141055793,-0.126207158,0.996586919
32.092111,-1.982955933,-8.433303833,-4.552680969,-0.138370246,-0.129869267,0.996342778
32.092738,-1.982955933,-8.425674438,-4.697639465,-0.138370246,-0.125230595,1.001591802
32.093365,-1.883773804,-8.402786255,-4.430610657,-0.142764777,-0.124620236,1.000371099
32.093990,-1.563339233,-8.280715942,-4.339057922,-0.140079230,-0.127794072,1.004887700
32.094616,-1.723556519,-8.479080200,-4.300910950,-0.139590949,-0.126695439,1.001469731
32.095242,-1.395492554,-8.646926880,-4.270393372,-0.139835089,-0.123155393,1.004277349
32.095867,-1.296310425,-8.456192017,-4.232246399,-0.137881964,-0.122911252,1.005009770
32.096493,-0.983505249,-8.593521118,-3.949958801,-0.134463996,-0.119127072,1.007451177
32.097118,-1.006393433,-8.524856567,-3.995735168,-0.132266730,-0.116319455,1.010380864
32.097744,-0.792770386,-8.570632935,-3.728706360,-0.135684699,-0.114976682,1.008427739
32.098370,-0.853805542,-8.547744751,-3.805000305,-0.131412238,-0.111436643,1.013066411
32.099002,-0.823287964,-8.456192017,-3.629524231,-0.132510871,-0.112657346,1.011479497
32.099627,-0.785140991,-8.410415649,-3.499824524,-0.127994269,-0.108140744,1.015263677
32.113657,-3.752975464,-6.663284302,-2.431709290,-0.082339965,-0.065416135,1.054082036
32.114414,-3.981857300,-6.670913696,-2.614814758,-0.079898559,-0.064195432,1.057011724
32.115039,-4.134445190,-6.106338501,-2.637702942,-0.080630980,-0.065660276,1.059086919
32.115664,-4.294662476,-6.007156372,-2.324897766,-0.079532348,-0.064073361,1.060307622
32.116289,-4.309921265,-5.953750610,-2.454597473,-0.078921996,-0.067735471,1.060185552
32.116915,-4.241256714,-5.785903931,-2.569038391,-0.078799926,-0.067247190,1.061284184
32.117542,-4.187850952,-5.549392700,-2.332527161,-0.077457152,-0.065294065,1.059819341
32.118168,-4.287033081,-5.610427856,-2.408821106,-0.078189574,-0.068467893,1.063725591
32.118795,-4.187850952,-5.129776001,-2.210456848,-0.075137816,-0.068223752,1.066533208
32.119421,-4.149703979,-4.931411743,-2.439338684,-0.070255004,-0.067491330,1.069707036
32.120047,-4.164962769,-4.763565063,-2.424079895,-0.072452269,-0.065171994,1.072270513
32.120674,-3.928451538,-4.626235962,-2.485115051,-0.072452269,-0.065904416,1.069584966
32.121301,-3.669052124,-4.565200806,-2.256233215,-0.067203246,-0.067735471,1.074833989
32.121926,-3.402023315,-4.366836548,-2.363044739,-0.067447387,-0.067369260,1.079106450
32.122552,-3.218917847,-4.076919556,-2.446968079,-0.063419066,-0.066880979,1.076298833
32.123179,-2.921371460,-3.771743774,-2.271492004,-0.064517699,-0.067857541,1.078984380
32.123805,-2.463607788,-3.802261353,-2.416450500,-0.065860473,-0.070298947,1.078496099
32.124432,-2.356796265,-3.558120728,-2.393562317,-0.061343871,-0.069566526,1.080449224
32.125057,-1.929550171,-3.275833130,-2.248603821,-0.058658324,-0.072252072,1.084965825
32.125683,-1.563339233,-3.024063110,-2.401191711,-0.056094848,-0.071031369,1.086308599
32.126309,-1.113204956,-2.703628540,-2.485115051,-0.053287230,-0.072374143,1.088261724
32.126935,-0.701217651,-2.757034302,-2.599555969,-0.051578246,-0.069688596,1.090825200
32.127560,-0.083236694,-2.284011841,-2.485115051,-0.050845824,-0.067125119,1.088627934
32.128185,0.374526978,-2.215347290,-2.736885071,-0.053653441,-0.068345822,1.089970708
32.128812,0.870437622,-1.597366333,-2.683479309,-0.054507934,-0.068223752,1.093999028
32.129437,1.175613403,-1.551589966,-2.805549622,-0.058292113,-0.072007932,1.095952153
32.130063,1.908035278,-1.154861450,-2.843696594,-0.058047973,-0.078111447,1.095219731
32.130689,2.403945923,-0.918350220,-2.897102356,-0.057925902,-0.077501096,1.094487309
32.131314,2.968521118,-0.903091431,-2.912361145,-0.055118285,-0.080430783,1.097783208
32.131940,3.555984497,-0.834426880,-2.866584778,-0.056094848,-0.082750119,1.094975591
32.133751,5.318374634,0.065841675,-3.270942688,-0.053531371,-0.077134885,1.092045903
32.134377,6.226272583,0.309982300,-3.187019348,-0.052310668,-0.078843869,1.092167974
32.135002,6.615371704,0.264205933,-3.232795715,-0.054141723,-0.076036252,1.089116216
32.135628,7.187576294,0.699081421,-3.217536926,-0.051334105,-0.076036252,1.090092778
32.136253,8.057327271,0.836410522,-3.225166321,-0.054385863,-0.079210080,1.089970708
32.136878,8.499832153,1.088180542,-3.255683899,-0.051089965,-0.073472776,1.087773442
32.137503,9.247512817,1.309432983,-3.240425110,-0.052066527,-0.073106565,1.081425786
32.138129,9.575576782,1.614608765,-3.370124817,-0.051944457,-0.074693479,1.085087895
32.138755,10.147781372,1.988449097,-3.331977844,-0.053287230,-0.073106565,1.086552739
32.139381,10.597915649,2.224960327,-3.515083313,-0.055362426,-0.068101682,1.088505864
32.140094,10.903091431,2.499618530,-3.377754211,-0.055240355,-0.064927854,1.087773442
32.140720,11.131973267,2.408065796,-3.522712708,-0.056705199,-0.062608518,1.086674809
32.141346,11.437149048,2.820053101,-3.545600891,-0.055850707,-0.057969850,1.089238286
32.141984,11.559219360,3.064193726,-3.545600891,-0.055972777,-0.055528443,1.086064458
32.142611,11.872024536,3.178634644,-3.499824524,-0.054263793,-0.054063600,1.086674809
32.143237,11.795730591,3.598251343,-3.667671204,-0.056338988,-0.053819459,1.085087895
32.143862,11.933059692,3.888168335,-3.454048157,-0.055484496,-0.047105592,1.086552739
32.158011,0.389785767,8.595504761,-3.331977844,-0.063419066,-0.016099732,1.034062505
32.158775,-0.365524292,8.580245972,-3.225166321,-0.064883910,-0.013414185,1.032231450
32.159401,-0.937728882,8.725204468,-3.270942688,-0.064883910,-0.016221803,1.029423833
32.160026,-1.990585327,8.732833862,-3.164131165,-0.064761840,-0.016099732,1.026860356
32.160652,-2.692489624,8.847274780,-3.087837219,-0.066837035,-0.015245239,1.023198247
32.161278,-3.501205444,8.969345093,-2.996284485,-0.066837035,-0.012193481,1.018681645
32.161904,-4.256515503,8.732833862,-3.034431458,-0.070743285,-0.012071411,1.017216802
32.162529,-4.851608276,8.763351440,-2.912361145,-0.069888793,-0.013658325,1.014897466
32.163155,-5.637435913,8.603134155,-3.019172668,-0.069156371,-0.018052857,1.013066411
32.163780,-6.308822632,8.511581421,-2.805549622,-0.067203246,-0.017930787,1.013432622
32.164406,-6.881027222,8.412399292,-2.965766907,-0.067447387,-0.019517701,1.012456059
32.165031,-7.270126343,8.328475952,-2.813179016,-0.065372191,-0.022447389,1.007939458
32.165657,-7.834701538,8.259811401,-2.736885071,-0.065250121,-0.018785279,1.008305669
32.166282,-8.765487671,8.290328979,-2.698738098,-0.067203246,-0.015855592,1.004277349
32.166907,-9.253768921,8.381881714,-2.637702942,-0.067325316,-0.017076295,1.006474614
32.167532,-10.108261108,8.145370483,-2.591926575,-0.069034301,-0.018296998,1.000737309
32.168157,-10.535507202,7.901229858,-2.797920227,-0.070010863,-0.023423951,1.002324224
32.168783,-11.023788452,8.030929565,-2.439338684,-0.069522582,-0.022081178,1.002690434
32.169408,-11.328964233,8.008041382,-2.683479309,-0.071597777,-0.022325318,0.998540044
32.170034,-11.512069702,7.542648315,-2.553779602,-0.066470824,-0.019151490,1.001103520
32.170660,-12.030868530,7.550277710,-2.271492004,-0.062686644,-0.022813600,1.002568364
32.171286,-12.450485229,7.367172241,-2.599555969,-0.066470824,-0.021104615,0.999760747
32.171911,-12.908248901,7.329025269,-2.454597473,-0.061588012,-0.022203248,1.002080083
32.172537,-13.243942261,7.412948608,-2.355415344,-0.062808715,-0.020982545,1.002934575
32.173164,-13.488082886,7.580795288,-2.408821106,-0.060733519,-0.022935670,1.005498052
32.173791,-13.785629272,7.306137085,-2.485115051,-0.063174926,-0.022935670,1.006230474
32.174416,-14.243392944,7.138290405,-2.347785950,-0.059756957,-0.024156373,1.001958013
32.175043,-14.106063843,7.206954956,-2.309638977,-0.059390746,-0.026353639,1.004887700
32.175669,-14.441757202,7.420578003,-2.202827454,-0.060001098,-0.023423951,1.007939458
32.176295,-14.258651733,6.840744019,-2.363044739,-0.057071410,-0.025987428,1.006718755
32.178129,-15.021591187,7.061996460,-2.286750793,-0.056827269,-0.024766725,1.008671880
32.178754,-14.975814819,7.008590698,-2.286750793,-0.055728637,-0.026109498,1.010991216
32.179380,-14.830856323,7.298507690,-2.256233215,-0.055240355,-0.030259889,1.012456059
32.180005,-14.922409058,6.817855835,-2.157051086,-0.053653441,-0.027452271,1.011113286
32.180630,-15.029220581,6.993331909,-2.210456848,-0.050357543,-0.027818482,1.012944341
32.181256,-14.823226929,6.901779175,-2.424079895,-0.051944457,-0.031602662,1.010136724
32.181882,-14.708786011,6.932296753,-1.996833801,-0.048526488,-0.030381959,1.011723638
32.182508,-14.548568726,6.970443726,-2.294380188,-0.048648559,-0.025010865,1.009282231
32.183133,-14.327316284,6.924667358,-2.279121399,-0.044620238,-0.030015748,1.010258794
32.183759,-13.900070190,7.016220093,-2.385932922,-0.046085082,-0.027940553,1.011479497
32.184384,-13.854293823,6.985702515,-2.508003235,-0.046329223,-0.028184693,1.005620122
32.185011,-13.503341675,6.947555542,-2.210456848,-0.042789184,-0.026475709,1.010747075
32.185637,-13.396530151,7.077255249,-2.500373840,-0.040836059,-0.027208131,1.008671880
32.186263,-13.022689819,6.878890991,-2.431709290,-0.041568480,-0.027574342,1.010625005
32.186889,-12.686996460,7.100143433,-2.469856262,-0.041446410,-0.025743287,1.010991216
32.187516,-12.252120972,6.970443726,-2.385932922,-0.039493285,-0.023423951,1.007939458
32.188141,-11.931686401,6.665267944,-2.500373840,-0.036807738,-0.024522584,1.005009770
32.202219,-4.836349487,6.283798218,-3.881294250,-0.028262818,0.006849487,0.994877934
32.209634,-3.936080933,6.215133667,-5.101997375,-0.024966920,0.016615111,1.001347661
32.210261,-3.783493042,6.405868530,-5.353767395,-0.025333131,0.013441284,1.000004888
32.210888,-3.875045776,6.535568237,-5.491096497,-0.027896607,0.014417847,0.997563481
32.211515,-3.905563354,6.444015503,-5.338508606,-0.026920045,0.013563354,0.996342778
32.212140,-3.806381226,6.642379761,-5.613166809,-0.025577271,0.011244019,0.998417974
32.212767,-4.164962769,6.550827026,-5.704719543,-0.027042115,0.014173706,1.000859380
32.213394,-3.875045776,6.741561890,-5.605537415,-0.026065553,0.009535034,0.999272466
32.214019,-3.722457886,6.711044312,-5.941230774,-0.024722779,0.012098511,0.998540044
32.214646,-3.997116089,6.512680054,-6.002265930,-0.027896607,0.010755737,0.998051763
32.215273,-3.897933960,6.741561890,-6.025154114,-0.029971803,0.009412964,0.996220708
32.215899,-3.859786987,6.848373413,-6.116706848,-0.030338014,0.005628784,0.995122075
32.216525,-4.035263062,6.779708862,-6.200630188,-0.033755980,0.004408081,0.997319341
32.217150,-4.042892456,6.955184937,-6.154853821,-0.030704224,0.006849487,0.994145513
32.217776,-4.149703979,6.779708862,-6.543952942,-0.030582154,0.005140503,0.995366216
32.218402,-3.958969116,6.901779175,-6.475288391,-0.035220824,0.000379761,0.994267583
32.219027,-4.264144897,6.947555542,-6.414253235,-0.032535277,0.001966675,0.996464849
32.219652,-4.149703979,7.237472534,-6.673652649,-0.033511840,0.003065308,0.993535161
32.220278,-4.409103394,6.978073120,-6.849128723,-0.031924926,-0.000840942,0.994511724
32.220904,-4.355697632,7.161178589,-6.879646301,-0.033878051,-0.001939575,0.994023442
32.222729,-4.622726440,7.542648315,-6.971199036,-0.034122191,-0.003404419,0.993413091
32.223354,-4.660873413,7.580795288,-7.146675110,-0.035220824,-0.008531372,0.995366216
32.223979,-4.920272827,7.641830444,-7.016975403,-0.036319457,-0.009752075,0.990361333
32.224604,-4.744796753,7.481613159,-7.177192688,-0.036563598,-0.010484497,0.992070317
32.225231,-5.103378296,7.641830444,-7.200080872,-0.035098754,-0.011216919,0.991826177
32.225857,-4.950790405,8.015670776,-7.253486633,-0.034976684,-0.013536255,0.993413091
32.226483,-5.385665894,7.786788940,-7.238227844,-0.036929809,-0.013414185,0.993168950
32.227109,-5.469589233,7.855453491,-7.268745422,-0.036563598,-0.016710084,0.989262700
32.227735,-5.576400757,7.977523804,-7.390815735,-0.034732543,-0.017076295,0.990727544
32.228361,-5.385665894,7.985153198,-7.436592102,-0.035831176,-0.017808717,0.989873052
32.228986,-5.774765015,8.046188354,-7.512886047,-0.040103637,-0.020250123,0.987187505
32.229611,-5.957870483,8.214035034,-7.497627258,-0.037906371,-0.025255006,0.989262700
32.230236,-6.202011108,8.397140503,-7.467109680,-0.034122191,-0.024888795,0.984379888
32.230862,-6.186752319,8.183517456,-7.268745422,-0.035342894,-0.025987428,0.987065434
32.231488,-6.415634155,8.343734741,-7.406074524,-0.036685668,-0.027818482,0.983891606
32.232113,-6.354598999,8.389511108,-7.329780579,-0.036075316,-0.029283326,0.981572270
32.232739,-6.415634155,8.297958374,-7.444221497,-0.038394652,-0.030137818,0.980961919
32.233364,-6.720809937,8.358993530,-7.390815735,-0.039005004,-0.033555787,0.975590825
32.233990,-6.842880249,8.580245972,-7.581550598,-0.038882934,-0.033311646,0.976445317
32.234617,-7.102279663,8.297958374,-7.390815735,-0.039859496,-0.035142701,0.973637700
32.235243,-7.163314819,8.534469604,-7.444221497,-0.039127074,-0.038804810,0.974370122
32.235870,-7.239608765,8.633651733,-7.375556946,-0.039737426,-0.042833131,0.973637700
32.236495,-7.407455444,8.442916870,-7.413703918,-0.039981566,-0.041124146,0.974980474
32.237120,-7.590560913,8.748092651,-7.337409973,-0.040713988,-0.041856568,0.967045903
32.237746,-7.735519409,8.664169312,-7.360298157,-0.040836059,-0.041124146,0.965947270
32.238373,-8.040695190,8.732833862,-7.352668762,-0.038638793,-0.041368287,0.966435552
32.239002,-8.231430054,8.587875366,-7.032234192,-0.038394652,-0.042222779,0.962041020
32.239628,-8.353500366,8.687057495,-7.261116028,-0.038394652,-0.041978639,0.959721684
32.253775,-18.157272339,6.970443726,-5.468208313,-0.035831176,-0.033311646,0.918339849
32.254571,-18.569259644,6.886520386,-5.376655579,-0.036197387,-0.034044068,0.915166020
32.255198,-19.004135132,6.619491577,-5.239326477,-0.039005004,-0.033433717,0.917729497
32.255823,-19.553451538,6.558456421,-5.239326477,-0.038394652,-0.032823365,0.917607427
32.256450,-19.835739136,6.375350952,-4.941780090,-0.040347777,-0.032701295,0.914189458
32.257076,-20.468978882,6.253280640,-5.140144348,-0.040225707,-0.035264771,0.916508794
32.257703,-20.736007690,6.207504272,-5.124885559,-0.040713988,-0.034410279,0.913945317
32.258328,-21.117477417,6.024398804,-4.995185852,-0.038516723,-0.035997193,0.912358403
32.258953,-21.407394409,5.970993042,-4.751045227,-0.037418090,-0.034410279,0.912724614
32.259578,-21.956710815,5.681076050,-4.720527649,-0.039127074,-0.038316529,0.915043950
32.260203,-22.231369019,5.528488159,-4.720527649,-0.038394652,-0.038926881,0.916020513
32.260829,-22.666244507,5.795516968,-4.735786438,-0.035831176,-0.036729615,0.911259770
32.261454,-22.506027222,5.299606323,-4.262763977,-0.038638793,-0.040757935,0.913823247
32.262080,-22.849349976,5.215682983,-4.522163391,-0.037418090,-0.042711060,0.915288091
32.262705,-23.261337280,5.162277222,-4.377204895,-0.038516723,-0.045396607,0.913212895
32.263330,-23.337631226,5.192794800,-4.316169739,-0.039737426,-0.044420045,0.916508794
32.263957,-23.551254272,4.719772339,-4.354316711,-0.041446410,-0.048570435,0.916264653
32.264582,-23.505477905,4.963912964,-4.346687317,-0.036319457,-0.052232545,0.915288091
32.265209,-23.452072144,4.765548706,-3.972846985,-0.035220824,-0.054918092,0.912968755
32.265835,-23.452072144,4.536666870,-3.995735168,-0.036563598,-0.051255982,0.914433599
32.266461,-23.452072144,4.353561401,-4.003364563,-0.034488402,-0.057603639,0.913579106
32.267087,-23.520736694,4.384078979,-4.003364563,-0.033389769,-0.058824342,0.912724614
32.267712,-23.253707886,4.033126831,-3.606636047,-0.033878051,-0.056016725,0.907597661
32.268338,-22.979049683,3.827133179,-3.743965149,-0.034732543,-0.055406373,0.907597661
32.268965,-22.635726929,3.888168335,-3.805000305,-0.033511840,-0.059190553,0.908330083
32.269590,-22.513656616,3.750839233,-3.400642395,-0.035220824,-0.060289185,0.906499028
32.270215,-22.139816284,3.430404663,-3.713447571,-0.036441527,-0.064561643,0.906254888
32.270842,-21.773605347,3.041305542,-3.576118469,-0.034366332,-0.064073361,0.905888677
32.271469,-21.369247437,3.209152222,-3.469306946,-0.034244262,-0.064805783,0.905156255
32.272094,-20.896224976,2.820053101,-3.537971497,-0.035953246,-0.068101682,0.905156255
32.273897,-19.507675171,2.408065796,-3.118354797,-0.034976684,-0.070909299,0.902958989
32.274523,-18.927841187,2.263107300,-3.148872375,-0.033511840,-0.070421018,0.903203130
32.275148,-18.355636597,1.973190308,-3.324348450,-0.032901488,-0.075547971,0.903447270
32.275774,-17.607955933,1.591720581,-3.095466614,-0.031314574,-0.073228635,0.903203130
32.276401,-16.906051636,1.599349976,-3.202278137,-0.034732543,-0.073594846,0.905522466
32.277027,-16.265182495,1.210250854,-2.874214172,-0.031314574,-0.073594846,0.905034184
32.277652,-15.494613647,0.905075073,-2.851325989,-0.031192506,-0.073716916,0.903691411
32.278279,-14.533309937,0.622787476,-3.026802063,-0.034610473,-0.076036252,0.904667974
32.278905,-13.816146851,0.493087769,-2.889472961,-0.031924926,-0.075914182,0.901372075
32.279530,-12.885360718,0.248947144,-2.775032043,-0.032046996,-0.074449338,0.906621099
32.280156,-12.099533081,0.149765015,-2.752143860,-0.029727662,-0.073838986,0.906254888
32.280782,-11.161117554,-0.147781372,-2.897102356,-0.028873170,-0.078233518,0.904790044
32.281408,-10.146408081,-0.430068970,-2.790290833,-0.030948365,-0.077134885,0.905644536
32.282034,-9.238510132,-0.567398071,-2.912361145,-0.028384889,-0.077623166,0.906254888
32.282660,-8.200912476,-0.781021118,-2.614814758,-0.027164185,-0.075670041,0.907841802
32.283286,-7.239608765,-1.307449341,-2.843696594,-0.027042115,-0.078965940,0.909672856
32.283912,-6.209640503,-1.429519653,-2.698738098,-0.029117310,-0.077745236,0.910039067
32.297933,19.837112427,-7.029495239,-3.270942688,-0.066226684,-0.063096799,0.918461919
32.298690,20.752639771,-7.250747681,-3.629524231,-0.065372191,-0.062974729,0.922490239
32.299317,21.240921021,-7.639846802,-3.415901184,-0.067203246,-0.059312623,0.923100591
32.299942,21.919937134,-7.830581665,-3.660041809,-0.070132934,-0.057847779,0.924565434
32.300567,22.568435669,-7.983169556,-3.560859680,-0.071475707,-0.055772584,0.925175786
32.301192,22.835464478,-8.181533813,-3.408271790,-0.074527465,-0.051988404,0.927250981
32.301817,23.102493286,-8.257827759,-3.461677551,-0.071841918,-0.047960084,0.932500005
32.302443,23.346633911,-8.395156860,-3.454048157,-0.076114379,-0.044175904,0.934941411
32.303068,23.514480591,-8.494338989,-3.789741516,-0.076114379,-0.043931764,0.932866216
32.303695,23.667068481,-8.707962036,-3.393013000,-0.077579223,-0.041002076,0.937871099
32.304320,23.781509399,-8.578262329,-3.499824524,-0.075626098,-0.040025514,0.942509770
32.304946,23.865432739,-8.486709595,-3.560859680,-0.081241332,-0.036973756,0.945073247
32.305571,23.346633911,-9.013137817,-3.446418762,-0.079166137,-0.034410279,0.947880864
32.306197,23.239822388,-8.906326294,-3.316719055,-0.077579223,-0.032823365,0.949589849
32.306822,22.927017212,-8.608779907,-3.370124817,-0.079044066,-0.031968873,0.951787114
32.307448,22.766799927,-8.845291138,-3.331977844,-0.078189574,-0.028672975,0.950200200
32.308075,22.080154419,-8.952102661,-3.164131165,-0.079166137,-0.028917115,0.954106450
32.308701,21.721572876,-8.898696899,-3.270942688,-0.081119262,-0.026475709,0.955449224
32.309327,21.095962524,-8.768997192,-3.248054504,-0.081363402,-0.026231568,0.957524419
32.309954,20.485610962,-8.776626587,-3.118354797,-0.082950316,-0.025132935,0.957768559
32.310579,19.814224243,-8.730850220,-2.912361145,-0.081119262,-0.024522584,0.958867192
32.311205,19.112319946,-8.707962036,-3.057319641,-0.080753051,-0.022325318,0.960087895
32.311830,18.173904419,-8.692703247,-2.813179016,-0.079410277,-0.022935670,0.960576177
32.312455,17.525405884,-8.624038696,-2.713996887,-0.085880004,-0.025743287,0.963872075
32.313081,16.625137329,-8.379898071,-2.775032043,-0.082706176,-0.023301881,0.963383794
32.313707,15.930862427,-8.349380493,-2.668220520,-0.080142699,-0.022203248,0.963750005
32.314334,14.832229614,-8.326492310,-2.408821106,-0.080630980,-0.022935670,0.962773442
32.314960,13.878555298,-8.265457153,-2.271492004,-0.079776488,-0.020250123,0.966801763
32.315586,13.001174927,-8.082351685,-2.408821106,-0.079410277,-0.020860475,0.966801763
32.316211,11.856765747,-8.036575317,-2.279121399,-0.082584105,-0.025132935,0.969487309
32.318021,8.766860962,-7.525405884,-1.653511047,-0.082095824,-0.023423951,0.970219731
32.318646,7.881851196,-7.433853149,-1.607734680,-0.083560668,-0.026963990,0.968388677
32.319273,6.752700806,-7.258377075,-1.424629211,-0.083072387,-0.024888795,0.974980474
32.319898,5.669326782,-7.204971313,-1.424629211,-0.084293090,-0.024522584,0.970952153
32.320523,4.494400024,-6.960830688,-1.172859192,-0.083072387,-0.027940553,0.971806645
32.321148,3.426284790,-6.800613403,-0.936347961,-0.087222777,-0.025010865,0.974492192
32.321773,2.594680786,-6.648025513,-0.913459778,-0.088565551,-0.029283326,0.973393559
32.322398,1.145095825,-6.823501587,-0.760871887,-0.086002074,-0.029893678,0.974614263
32.323024,0.099868774,-6.556472778,-0.409919739,-0.087711059,-0.028428834,0.978520513
32.323650,-0.701217651,-6.358108521,-0.379402161,-0.087955199,-0.026841920,0.974980474
32.324276,-1.792221069,-6.487808228,-0.242073059,-0.087588988,-0.032090943,0.976811528
32.324902,-2.562789917,-5.961380005,-0.181037903,-0.089908324,-0.030748170,0.976201177
32.325528,-3.691940308,-6.113967896,0.032585144,-0.092471801,-0.032213014,0.978398442
32.326154,-4.607467651,-5.999526978,0.162284851,-0.088321410,-0.030015748,0.976811528
32.326779,-5.370407104,-5.892715454,0.459831238,-0.089420043,-0.031724732,0.975346684
32.327405,-6.499557495,-5.793533325,0.673454285,-0.088809691,-0.033677857,0.977177739
32.328031,-7.293014526,-5.534133911,0.658195496,-0.088809691,-0.033677857,0.979497075
32.342086,-12.625961304,-4.214248657,2.947013855,-0.087955199,-0.067369260,0.993413091
32.342867,-12.091903687,-4.153213501,3.061454773,-0.087955199,-0.068956174,0.992314458
32.343493,-11.618881226,-4.130325317,3.137748718,-0.089542113,-0.072862424,0.996586919
32.344165,-11.199264526,-3.962478638,3.008049011,-0.087955199,-0.071397580,0.997197270
32.344791,-10.932235718,-3.794631958,3.114860535,-0.088077269,-0.073350705,0.991826177
32.345416,-9.963302612,-3.886184692,3.488700867,-0.087222777,-0.079698361,0.993779302
32.346041,-9.688644409,-3.817520142,3.259819031,-0.090396605,-0.076768674,0.998051763
32.346666,-8.727340698,-3.428421021,3.343742371,-0.091006957,-0.081041135,0.994633794
32.347292,-8.330612183,-3.748855591,3.336112976,-0.091006957,-0.077256955,0.996098638
32.347918,-7.804183960,-3.779373169,3.679435730,-0.089053832,-0.079576291,0.994145513
32.348544,-7.293014526,-3.680191040,3.755729675,-0.090274535,-0.079210080,0.994511724
32.349171,-6.339340210,-3.619155884,3.656547546,-0.087588988,-0.078355588,0.994877934
32.349797,-5.950241089,-3.535232544,3.580253601,-0.089420043,-0.078599729,0.994755864
32.350423,-5.011825562,-3.504714966,3.809135437,-0.091251098,-0.077623166,0.995854497
32.351050,-4.348068237,-3.558120728,3.862541199,-0.089420043,-0.078233518,0.995122075
32.351676,-3.997116089,-3.237686157,3.862541199,-0.090274535,-0.077867307,0.991826177
32.352301,-3.226547241,-3.207168579,3.854911804,-0.089420043,-0.076280393,0.992436528
32.352926,-2.227096558,-3.237686157,3.976982117,-0.088077269,-0.074937619,0.990849614
32.353551,-1.700668335,-3.115615845,4.038017273,-0.090884887,-0.074083127,0.991215825
32.354176,-1.151351929,-3.153762817,4.198234558,-0.093692504,-0.071641721,0.991948247
32.354801,-0.617294312,-3.039321899,4.221122742,-0.091006957,-0.071153440,0.992192388
32.355426,0.008316040,-3.230056763,4.099052429,-0.091373168,-0.069688596,0.988286138
32.356051,0.641555786,-2.993545532,4.388969421,-0.094180785,-0.065782346,0.990849614
32.356678,1.282424927,-2.947769165,4.259269714,-0.095035277,-0.065538205,0.989873052
32.357303,1.740188599,-3.092727661,4.343193054,-0.095889769,-0.062486451,0.989750981
32.357928,2.136917114,-2.848587036,4.343193054,-0.094669066,-0.060289185,0.990849614
32.358555,2.464981079,-2.802810669,4.388969421,-0.096500121,-0.059678834,0.986943364
32.359180,2.960891724,-2.970657349,4.427116394,-0.097964965,-0.058458131,0.987675786
32.359805,3.334732056,-2.825698853,4.495780945,-0.095279418,-0.058580201,0.987187505
32.360430,3.884048462,-2.917251587,4.625480652,-0.093448363,-0.054185670,0.984624028
32.362221,4.906387329,-2.711257935,4.739921570,-0.091129027,-0.046983521,0.985112309
32.362847,5.188674927,-2.947769165,4.755180359,-0.092960082,-0.048692506,0.984379888
32.363473,5.348892212,-2.581558228,4.770439148,-0.091373168,-0.047349732,0.983403325
32.364099,5.783767700,-2.596817017,4.892509460,-0.091006957,-0.045762818,0.983769536
32.364726,5.852432251,-2.589187622,4.938285828,-0.089542113,-0.046129029,0.981206059
32.365351,6.027908325,-2.573928833,4.991691589,-0.089542113,-0.044786256,0.979741216
32.365977,6.249160767,-2.596817017,5.090873718,-0.089053832,-0.042711060,0.981694341
32.366604,6.317825317,-2.573928833,5.060356140,-0.086002074,-0.041978639,0.978520513
32.367230,6.447525024,-2.612075806,5.075614929,-0.086490355,-0.039415162,0.980229497
32.367855,6.600112915,-2.306900024,5.380790710,-0.086734496,-0.038682740,0.976933599
32.368480,6.645889282,-2.695999146,5.266349792,-0.088809691,-0.041734498,0.976933599
32.369105,6.958694458,-2.673110962,5.457084656,-0.085025512,-0.040147584,0.975590825
32.369731,6.935806274,-2.497634888,5.479972839,-0.087344848,-0.039781373,0.975590825
32.370356,7.149429321,-2.444229126,5.602043152,-0.089786254,-0.040025514,0.973271489
32.370982,7.279129028,-2.497634888,5.548637390,-0.087344848,-0.039293092,0.973515630
32.371608,7.614822388,-2.390823364,5.655448914,-0.086124144,-0.040025514,0.971196294
32.372235,7.599563599,-2.505264282,5.647819519,-0.087466918,-0.042711060,0.973271489
32.372862,7.729263306,-2.695999146,5.792778015,-0.088199340,-0.042833131,0.968144536
32.386868,13.695449829,-4.435501099,6.601493835,-0.106143676,-0.050401490,0.974125981
32.387617,14.176101685,-4.656753540,6.677787781,-0.106754027,-0.049180787,0.971074224
32.388243,14.519424438,-4.801712036,6.677787781,-0.105167113,-0.048692506,0.972416997
32.388869,14.679641724,-4.488906860,6.792228699,-0.108585082,-0.049180787,0.974370122
32.389495,14.946670532,-4.885635376,6.891410828,-0.109073363,-0.052842896,0.975590825
32.390121,15.236587524,-4.847488403,6.792228699,-0.110782348,-0.050889771,0.978886724
32.390746,15.381546021,-5.167922974,6.738822937,-0.111148559,-0.049424928,0.977421880
32.391372,15.801162720,-4.900894165,6.998222351,-0.110538207,-0.049913209,0.979863286
32.392002,15.892715454,-5.091629028,7.112663269,-0.115787230,-0.050645631,0.978154302
32.392629,16.182632446,-5.373916626,6.883781433,-0.112613402,-0.048936646,0.980595708
32.393255,16.319961548,-5.473098755,7.028739929,-0.110171996,-0.048204225,0.977055669
32.393881,16.442031860,-5.190811157,7.021110535,-0.114078246,-0.050157350,0.981083989
32.394506,16.556472778,-5.412063599,7.127922058,-0.114566527,-0.048692506,0.983281255
32.395131,16.785354614,-5.602798462,7.211845398,-0.112857543,-0.045396607,0.983281255
32.395756,16.861648560,-5.572280884,7.196586609,-0.113589965,-0.043321412,0.983159184
32.396381,17.044754028,-5.526504517,7.089775085,-0.115298949,-0.045518678,0.982548833
32.397006,17.090530396,-5.404434204,7.082145691,-0.114932738,-0.044908326,0.985234380
32.397631,17.174453735,-5.770645142,7.265251160,-0.115787230,-0.043443482,0.989018559
32.398256,17.288894653,-5.610427856,7.326286316,-0.112979613,-0.041246217,0.988652349
32.398883,17.388076782,-5.457839966,7.478874207,-0.112491332,-0.042466920,0.989750981
32.399508,17.105789185,-5.557022095,7.562797546,-0.108463012,-0.038682740,0.992436528
32.400133,17.098159790,-5.572280884,7.631462097,-0.110538207,-0.033921998,0.998051763
32.400760,17.327041626,-5.549392700,7.623832703,-0.108951293,-0.035142701,0.998417974
32.401386,17.029495239,-5.480728149,7.631462097,-0.108707152,-0.031358521,0.999638677
32.402013,16.785354614,-5.274734497,7.600944519,-0.110538207,-0.030748170,1.004155278
32.402638,16.632766724,-5.221328735,7.875602722,-0.107608519,-0.031968873,1.006596684
32.403263,16.167373657,-5.167922974,7.875602722,-0.106509887,-0.027574342,1.005253911
32.403888,15.869827271,-4.931411743,7.776420593,-0.107364379,-0.026475709,1.011845708
32.404514,15.976638794,-4.946670532,8.020561218,-0.105167113,-0.023179810,1.013676763
32.405140,15.206069946,-4.565200806,8.257072449,-0.104922973,-0.022569459,1.015141606
32.406966,14.130325317,-4.198989868,8.302848816,-0.103702269,-0.014512817,1.018803716
32.407591,13.741226196,-4.076919556,8.249443054,-0.101138793,-0.011705200,1.018925786
32.408218,13.016433716,-3.825149536,8.302848816,-0.100894652,-0.011461060,1.017460942
32.408843,12.467117310,-3.680191040,8.348625183,-0.102725707,-0.006456177,1.017827153
32.409468,11.948318481,-3.558120728,8.356254578,-0.100894652,-0.002671997,1.018315434
32.410094,11.460037231,-3.291091919,8.691947937,-0.100772582,-0.001451294,1.019291997
32.410719,10.849685669,-3.153762817,8.699577332,-0.101505004,-0.001207153,1.019047856
32.411345,10.185928345,-2.802810669,8.684318542,-0.098819457,0.001966675,1.020512700
32.411971,9.506912231,-2.970657349,8.844535828,-0.098453246,0.003919800,1.022221684
32.412597,8.759231567,-2.306900024,8.669059753,-0.098453246,0.008314331,1.016972661
32.413222,7.942886353,-2.322158813,8.936088562,-0.099185668,0.009901245,1.020024419
32.413848,7.218093872,-2.100906372,8.699577332,-0.094669066,0.010633667,1.017216802
32.414474,6.287307739,-1.734695435,8.920829773,-0.096744262,0.013685425,1.019291997
32.415099,5.806655884,-1.704177856,9.050529480,-0.095279418,0.019178588,1.018315434
32.415726,4.784317017,-1.315078735,8.958976746,-0.094791137,0.020521361,1.019780278
32.416352,4.021377563,-1.017532349,8.958976746,-0.096378051,0.021986205,1.015263677
32.416978,3.288955688,-0.903091431,9.119194031,-0.098697387,0.021864135,1.016484380
32.417605,2.480239868,-0.864944458,9.233634949,-0.095889769,0.023084838,1.015019536
32.431705,-12.007980347,2.285995483,8.913200378,-0.094669066,0.026014525,1.004155278
32.432520,-12.419967651,2.217330933,8.760612488,-0.092838012,0.024915893,1.002446294
32.433146,-12.519149780,2.301254272,9.050529480,-0.092960082,0.021497924,1.005253911
32.433771,-12.603073120,2.499618530,8.554618835,-0.092227660,0.021009643,1.003422856
32.434396,-12.473373413,2.797164917,8.745353699,-0.092715941,0.019300658,1.005253911
32.435023,-12.748031616,2.774276733,8.691947937,-0.089908324,0.013929565,1.002324224
32.435648,-12.534408569,3.094711304,8.531730652,-0.090274535,0.015516479,1.004643559
32.436273,-12.534408569,3.239669800,8.569877625,-0.088565551,0.011488159,1.005009770
32.436900,-12.038497925,3.125228882,8.340995789,-0.088565551,0.009535034,1.003422856
32.437526,-11.847763062,3.399887085,8.394401550,-0.090396605,0.009168823,1.002812505
32.438152,-11.748580933,3.354110718,8.424919128,-0.088809691,0.006971558,0.999760747
32.438778,-11.382369995,3.560104370,8.249443054,-0.090152465,0.004652222,1.000615239
32.439403,-11.077194214,3.918685913,8.043449402,-0.088565551,0.005872925,1.001347661
32.440028,-10.718612671,3.628768921,8.196037292,-0.090030394,0.001478394,1.000126958
32.440654,-9.856491089,3.804244995,7.890861511,-0.092105590,-0.001085083,1.001469731
32.441280,-9.650497437,4.063644409,7.913749695,-0.092593871,-0.002183716,0.998051763
32.441907,-9.246139526,3.834762573,7.784049988,-0.096500121,-0.004747192,0.998173833
32.442533,-8.513717651,4.170455933,7.524650574,-0.094913207,-0.004136841,0.997441411
32.443158,-7.827072144,4.361190796,7.700126648,-0.096622191,-0.007921021,0.995366216
32.443784,-7.399826050,4.284896851,7.517021179,-0.098331176,-0.010118286,0.994145513
32.444410,-6.644515991,4.101791382,7.417839050,-0.102969848,-0.009752075,0.992924809
32.445035,-5.996017456,4.162826538,7.311027527,-0.102481566,-0.011827271,0.987187505
32.445660,-5.522994995,4.376449585,7.242362976,-0.101749144,-0.015733521,0.987309575
32.446287,-4.668502808,4.315414429,7.318656921,-0.101749144,-0.014756958,0.988652349
32.446912,-3.844528198,4.376449585,7.066886902,-0.101627074,-0.017320435,0.985356450
32.447539,-3.096847534,4.551925659,7.112663269,-0.107730590,-0.015245239,0.985844731
32.448166,-2.288131714,3.994979858,7.089775085,-0.108951293,-0.020128053,0.983403325
32.448792,-1.723556519,4.422225952,6.723564148,-0.108585082,-0.020982545,0.978642583
32.449417,-1.021652222,4.399337769,6.876152039,-0.108096801,-0.019883912,0.980717778
32.450042,-0.037460327,4.254379272,6.677787781,-0.110782348,-0.023057740,0.976323247
32.451830,2.022476196,4.162826538,6.303947449,-0.111758910,-0.019029420,0.971074224
32.452455,2.831192017,4.155197144,6.326835632,-0.112247191,-0.023057740,0.970219731
32.459670,9.384841919,3.499069214,6.006401062,-0.111514769,-0.020738404,0.950566411
32.460296,10.193557739,3.552474976,5.777519226,-0.117374144,-0.020738404,0.949833989
32.460921,10.559768677,3.323593140,5.548637390,-0.117252074,-0.019029420,0.949223638
32.461547,10.712356567,3.476181030,5.647819519,-0.119083129,-0.017564576,0.949223638
32.462173,11.025161743,3.346481323,5.609672546,-0.120303832,-0.020128053,0.948857427
32.462798,11.498184204,3.071823120,5.403678894,-0.125674933,-0.020860475,0.945683599
32.463425,11.910171509,3.209152222,5.434196472,-0.130679816,-0.022325318,0.944218755
32.464051,11.963577271,3.041305542,5.594413757,-0.131656379,-0.023546021,0.946538091
32.464677,12.390823364,2.652206421,5.602043152,-0.134463996,-0.025499146,0.941777349
32.465302,12.573928833,2.469100952,5.434196472,-0.135196418,-0.026597779,0.942387700
32.465928,13.008804321,2.476730347,5.495231628,-0.134952277,-0.027452271,0.936528325
32.466553,13.046951294,2.347030640,5.434196472,-0.134097785,-0.027818482,0.933476567
32.467178,13.451309204,2.186813354,5.563896179,-0.133121222,-0.026353639,0.933598638
32.467803,13.512344360,1.851119995,5.541007996,-0.134830207,-0.029405396,0.931767583
32.468428,14.176101685,1.774826050,5.357902527,-0.139102668,-0.026353639,0.929570317
32.469053,14.084548950,1.584091187,5.357902527,-0.137759894,-0.027208131,0.925541997
32.483125,14.595718384,-0.781021118,5.792778015,-0.142276496,-0.026719850,0.931645513
32.483890,14.336318970,-0.872573853,5.815666199,-0.140689582,-0.026841920,0.931523442
32.484517,14.015884399,-1.086196899,5.869071960,-0.138736457,-0.024522584,0.931157231
32.485144,13.931961060,-1.116714478,5.731742859,-0.139224738,-0.024278443,0.930302739
32.485769,13.855667114,-1.185379028,5.975883484,-0.136417121,-0.023790162,0.930791020
32.486396,13.634414673,-1.109085083,5.960624695,-0.134586066,-0.023790162,0.925175786
32.487021,13.092727661,-1.330337524,6.075065613,-0.135806769,-0.021714967,0.929448247
32.487647,12.879104614,-1.299819946,6.105583191,-0.135440558,-0.021348756,0.929570317
32.488272,12.688369751,-1.360855103,6.105583191,-0.133853644,-0.022691529,0.930058599
32.488897,12.070388794,-1.444778442,6.151359558,-0.136783332,-0.019517701,0.929204106
32.489522,12.047500610,-1.559219360,6.204765320,-0.136172980,-0.019761842,0.930424809
32.490148,11.673660278,-1.643142700,6.090324402,-0.131778449,-0.018296998,0.931523442
32.490773,11.200637817,-1.658401489,6.128471375,-0.132388800,-0.016465943,0.932133794
32.491398,10.704727173,-1.757583618,6.136100769,-0.131046027,-0.013414185,0.932500005
32.492024,10.224075317,-1.612625122,6.151359558,-0.128482550,-0.013536255,0.930913091
32.492650,9.857864380,-1.795730591,6.418388367,-0.129214972,-0.010118286,0.933110356
32.493276,9.285659790,-1.894912720,6.212394714,-0.127383918,-0.007432739,0.934453130
32.493902,8.850784302,-1.658401489,6.311576843,-0.127994269,-0.007554810,0.932866216
32.494529,8.240432739,-1.864395142,6.273429871,-0.125552863,-0.010362427,0.931035161
32.495155,7.660598755,-1.810989380,6.426017761,-0.124454223,-0.008165161,0.932011724
32.495781,7.233352661,-1.948318481,6.487052917,-0.122256957,-0.005845825,0.934208989
32.496406,6.745071411,-1.910171509,6.471794128,-0.122379027,-0.007066528,0.932011724
32.497033,6.027908325,-2.131423950,6.487052917,-0.118716918,-0.003892700,0.932500005
32.497658,5.570144653,-2.146682739,6.387870789,-0.122134887,-0.003160278,0.929570317
32.498285,5.005569458,-2.123794556,6.570976257,-0.118472777,-0.001939575,0.930546880
32.498911,4.044265747,-2.207717896,6.517570496,-0.117130004,-0.001817505,0.931523442
32.499536,3.624649048,-2.200088501,6.677787781,-0.115421019,-0.002305786,0.927617192
32.500161,3.060073853,-2.291641235,6.601493835,-0.113345824,-0.000352661,0.925786138
32.500787,2.602310181,-2.299270630,6.555717468,-0.111270629,-0.002061646,0.926518559
32.501412,1.740188599,-2.360305786,6.639640808,-0.110049926,-0.002305786,0.926274419
32.503200,0.359268188,-2.810440063,6.792228699,-0.107730590,0.002332886,0.928227544
32.503825,-0.403671265,-2.741775513,6.746452332,-0.106876098,0.003919800,0.922612309
32.504451,-0.800399780,-2.482376099,6.448905945,-0.107486449,0.000990112,0.922856450
32.505076,-1.471786499,-2.818069458,6.731193542,-0.105899535,-0.000230591,0.922734380
32.505703,-1.815109253,-2.779922485,6.990592957,-0.102969848,0.002454956,0.922001958
32.506328,-2.623825073,-3.008804321,6.662528992,-0.103336059,0.004652222,0.924077153
32.506954,-2.898483276,-3.397903442,6.815116882,-0.102481566,0.001478394,0.919804692
32.507580,-3.653793335,-3.184280396,6.761711121,-0.101138793,0.002454956,0.917729497
32.508205,-3.890304565,-3.443679810,6.555717468,-0.098819457,0.001112183,0.918950200
32.508830,-4.370956421,-3.626785278,6.921928406,-0.097110473,0.000379761,0.917363286
32.509457,-4.874496460,-3.565750122,6.929557800,-0.096500121,0.002088745,0.919316411
32.510082,-5.004196167,-3.695449829,6.609123230,-0.098087035,0.002088745,0.916875005
32.510708,-5.439071655,-4.015884399,6.761711121,-0.096011840,0.003797729,0.917485356
32.511333,-5.904464722,-4.008255005,6.822746277,-0.094302855,0.001966675,0.918706059
32.511958,-6.095199585,-4.404983521,6.685417175,-0.092227660,0.005506714,0.919560552
32.512584,-6.545333862,-4.481277466,6.662528992,-0.093814574,0.001478394,0.916875005
32.513211,-6.598739624,-4.694900513,6.708305359,-0.093448363,0.001844604,0.919072270
32.513838,-6.942062378,-4.809341431,6.616752625,-0.090152465,0.002943237,0.917363286
32.527892,-4.103927612,-9.333572388,4.945915222,-0.081119262,-0.006334106,0.923222661
32.528660,-3.638534546,-9.570083618,4.793327332,-0.081973754,-0.007066528,0.922490239
32.529286,-2.951889038,-9.707412720,4.549186707,-0.082584105,-0.007554810,0.925541997
32.529911,-2.570419312,-9.951553345,4.335563660,-0.083560668,-0.007554810,0.927617192
32.530536,-2.127914429,-10.233840942,4.495780945,-0.086490355,-0.007432739,0.926518559
32.531161,-1.616744995,-10.394058228,4.244010925,-0.085513793,-0.009752075,0.923833013
32.531788,-0.975875854,-10.661087036,4.137199402,-0.085513793,-0.010606567,0.929692388
32.532414,-0.296859741,-10.874710083,3.801506042,-0.090274535,-0.009141724,0.930058599
32.533040,-0.006942749,-11.149368286,3.870170593,-0.086978637,-0.009141724,0.926518559
32.533667,0.900955200,-11.477432251,3.816764832,-0.088687621,-0.013170044,0.928105474
32.534293,1.389236450,-11.630020142,3.496330261,-0.091006957,-0.013170044,0.932011724
32.534919,1.854629517,-11.858901978,3.290336609,-0.092960082,-0.010728638,0.933354497
32.535545,2.632827759,-12.255630493,3.290336609,-0.090030394,-0.012437622,0.932866216
32.536172,3.388137817,-12.370071411,3.053825378,-0.090030394,-0.013536255,0.931523442
32.536798,4.006118774,-12.576065063,2.893608093,-0.094546996,-0.014268677,0.933110356
32.537424,4.814834595,-12.843093872,2.802055359,-0.095523559,-0.011338989,0.934453130
32.538050,5.150527954,-12.911758423,2.641838074,-0.090640746,-0.012681763,0.937749028
32.538677,6.676406860,-13.552627563,2.275627136,-0.093814574,-0.012559692,0.937626958
32.539304,7.187576294,-13.857803345,2.245109558,-0.095767699,-0.011461060,0.939946294
32.539931,7.599563599,-13.941726685,2.031486511,-0.093692504,-0.013047974,0.942387700
32.540557,8.293838501,-14.254531860,1.978080750,-0.096988402,-0.010118286,0.941166997
32.541182,8.660049438,-14.452896118,1.825492859,-0.096133910,-0.013780396,0.943974614
32.541808,9.293289185,-14.529190063,1.428764343,-0.096988402,-0.013292114,0.946538091
32.542433,9.964675903,-14.788589478,1.474540710,-0.095157348,-0.011827271,0.951787114
32.543059,10.170669556,-15.124282837,1.360099792,-0.097354613,-0.013292114,0.951176763
32.543684,10.971755981,-15.307388306,1.283805847,-0.095401488,-0.013292114,0.954594731
32.544309,11.337966919,-15.299758911,1.238029480,-0.098209105,-0.013047974,0.954106450
32.544934,11.574478149,-15.414199829,0.902336121,-0.100040160,-0.014268677,0.952763677
32.545560,12.123794556,-15.780410767,0.765007019,-0.098575316,-0.015977662,0.956914067
32.546185,12.169570923,-15.833816528,0.841300964,-0.098575316,-0.014268677,0.963261724
32.547980,12.795181274,-16.009292603,0.497978210,-0.100650512,-0.016710084,0.968022466
32.548605,13.123245239,-16.192398071,0.543754578,-0.103091918,-0.017808717,0.971196294
32.549231,13.321609497,-16.138992310,0.330131531,-0.105167113,-0.017076295,0.973149419
32.549856,13.352127075,-16.215286255,0.208061218,-0.101749144,-0.020372193,0.972050786
32.550482,13.542861938,-16.451797485,0.139396667,-0.106021605,-0.018174928,0.979741216
32.551108,14.038772583,-16.314468384,-0.066596985,-0.107486449,-0.017686646,0.978154302
32.551733,14.031143188,-16.497573853,-0.188667297,-0.107608519,-0.020005982,0.978886724
32.552360,14.244766235,-16.451797485,-0.120002747,-0.110904418,-0.022447389,0.983647466
32.552986,14.160842896,-16.566238403,-0.287849426,-0.107608519,-0.025987428,0.985356450
32.553612,14.374465942,-16.505203247,-0.287849426,-0.109561644,-0.029893678,0.986699224
32.554239,14.336318970,-16.848526001,-0.364143372,-0.109195434,-0.028672975,0.988530278
32.554864,14.313430786,-16.665420532,-0.524360657,-0.108707152,-0.029039185,0.989995122
32.555491,14.015884399,-16.726455688,-0.364143372,-0.109195434,-0.029405396,0.990727544
32.556117,14.076919556,-16.627273560,-0.509101868,-0.110416137,-0.029771607,0.992314458
32.556744,14.343948364,-16.535720825,-0.646430969,-0.111148559,-0.034532350,0.992680669
32.557371,14.374465942,-16.550979614,-0.570137024,-0.111514769,-0.032945435,0.996464849
32.558002,14.107437134,-16.482315063,-0.394660950,-0.108951293,-0.033433717,0.998295903
32.558627,14.153213501,-16.474685669,-0.554878235,-0.109683715,-0.036607545,0.998417974
32.572647,7.187576294,-15.482864380,0.024955750,-0.099673949,-0.051988404,1.015263677
32.573385,6.508560181,-15.154800415,-0.158149719,-0.101627074,-0.052964967,1.016606450
32.574010,6.127090454,-15.315017700,0.116508484,-0.100528441,-0.050889771,1.021733403
32.574636,5.585403442,-15.131912231,-0.097114563,-0.100772582,-0.051255982,1.022587895
32.575261,5.570144653,-14.986953735,0.002067566,-0.098331176,-0.052842896,1.021123052
32.575887,4.837722778,-15.086135864,0.108879089,-0.097964965,-0.053819459,1.020634770
32.576512,4.349441528,-15.154800415,0.154655457,-0.099551879,-0.055406373,1.024296880
32.577138,3.884048462,-14.986953735,0.253837585,-0.098087035,-0.052842896,1.025395513
32.577765,3.502578735,-15.002212524,0.177543640,-0.096988402,-0.053575318,1.025029302
32.578391,3.220291138,-15.101394653,0.253837585,-0.096011840,-0.054307740,1.022343755
32.579018,2.609939575,-15.055618286,0.345390320,-0.092838012,-0.053941529,1.026250005
32.579643,2.228469849,-14.819107056,0.421684265,-0.094058715,-0.057847779,1.028935552
32.580270,1.763076782,-14.887771606,0.383537292,-0.094424926,-0.057725709,1.028447270
32.580895,1.305313110,-14.719924927,0.436943054,-0.093692504,-0.059556764,1.031743169
32.581521,1.183242798,-14.895401001,0.414054871,-0.092715941,-0.061876100,1.033452153
32.582148,0.694961548,-14.750442505,0.726860046,-0.093082152,-0.061998170,1.033696294
32.582774,0.260086060,-14.811477661,0.650566101,-0.092105590,-0.065660276,1.035649419
32.583399,-0.258712769,-14.529190063,0.688713074,-0.094913207,-0.062242310,1.038823247
32.584026,-0.472335815,-14.475784302,0.795524597,-0.094424926,-0.065049924,1.035527349
32.584651,-0.899581909,-14.422378540,0.887077332,-0.091739379,-0.064927854,1.040410161
32.585277,-1.273422241,-14.574966431,1.009147644,-0.093326293,-0.065294065,1.041752934
32.585904,-1.395492554,-14.529190063,0.917594910,-0.093082152,-0.066148557,1.039921880
32.586530,-1.708297729,-14.513931274,0.848930359,-0.093692504,-0.066758908,1.042241216
32.587155,-2.181320190,-14.430007935,1.016777039,-0.092227660,-0.065049924,1.041264653
32.587782,-2.333908081,-14.292678833,1.169364929,-0.088199340,-0.070176877,1.042729497
32.588408,-2.921371460,-14.361343384,1.253288269,-0.088321410,-0.068101682,1.045292974
32.589033,-3.081588745,-14.246902466,1.360099792,-0.090274535,-0.067857541,1.046147466
32.589660,-3.249435425,-14.155349731,1.497428894,-0.090030394,-0.070665158,1.048100591
32.590285,-3.501205444,-14.063796997,1.573722839,-0.085635863,-0.067735471,1.049687505
32.590911,-3.936080933,-14.147720337,1.596611023,-0.086368285,-0.067735471,1.047856450
32.592759,-4.210739136,-13.964614868,1.741569519,-0.082828246,-0.069444455,1.060917974
32.593384,-4.699020386,-13.361892700,1.779716492,-0.081485473,-0.068712033,1.062260747
32.594011,-4.805831909,-13.529739380,1.695793152,-0.085025512,-0.067735471,1.067143559
32.594637,-5.126266479,-13.293228149,1.840751648,-0.080630980,-0.069444455,1.070317388
32.595263,-5.309371948,-13.010940552,1.871269226,-0.082828246,-0.067003049,1.070073247
32.595889,-5.423812866,-12.949905396,2.023857117,-0.077579223,-0.066270627,1.073125005
32.596515,-5.698471069,-12.682876587,2.016227722,-0.077213012,-0.069810666,1.075932622
32.597142,-6.026535034,-12.469253540,2.115409851,-0.077335082,-0.068467893,1.079960942
32.597767,-5.858688354,-12.476882935,2.123039246,-0.076114379,-0.069322385,1.082158208
32.598392,-5.934982300,-12.080154419,2.222221375,-0.076846801,-0.068223752,1.086064458
32.599017,-6.171493530,-12.118301392,2.046745300,-0.079044066,-0.071153440,1.084355474
32.599643,-5.896835327,-11.759719849,2.397697449,-0.077090941,-0.071397580,1.087651372
32.600268,-6.247787476,-11.500320435,2.519767761,-0.075870238,-0.072862424,1.091191411
32.600894,-6.202011108,-11.424026489,2.412956238,-0.075137816,-0.074815549,1.091191411
32.601520,-6.194381714,-11.179885864,2.519767761,-0.071109496,-0.074571408,1.091191411
32.602145,-6.255416870,-10.676345825,2.412956238,-0.068057738,-0.072740354,1.091923833
32.602770,-5.965499878,-10.600051880,2.466362000,-0.072696410,-0.074937619,1.093999028
32.616908,3.754348755,-6.457290649,2.535026550,-0.055240355,-0.062730588,1.092045903
32.617713,4.143447876,-6.236038208,2.725761414,-0.051944457,-0.062852658,1.093022466
32.618339,4.845352173,-6.060562134,2.504508972,-0.052188598,-0.060411256,1.093632817
32.618964,5.181045532,-6.091079712,2.405326843,-0.052554809,-0.056260865,1.092167974
32.619589,5.348892212,-5.808792114,2.733390808,-0.051212035,-0.052232545,1.091923833
32.620214,6.043167114,-5.953750610,2.466362000,-0.049014769,-0.052842896,1.088261724
32.620839,6.516189575,-5.763015747,2.466362000,-0.045840941,-0.051378053,1.092045903
32.621465,6.828994751,-5.587539673,2.267997742,-0.043765746,-0.048936646,1.088017583
32.622091,7.103652954,-5.503616333,2.412956238,-0.044254027,-0.048936646,1.090214849
32.622716,7.454605103,-5.358657837,2.222221375,-0.041568480,-0.045518678,1.088261724
32.623343,8.110733032,-5.289993286,2.161186218,-0.044376098,-0.044786256,1.089848638
32.623968,8.454055786,-5.114517212,2.054374695,-0.042911254,-0.039659303,1.090092778
32.624594,8.980484009,-5.251846313,1.939933777,-0.042911254,-0.040513795,1.090825200
32.625221,8.972854614,-5.068740845,1.939933777,-0.040591918,-0.041490357,1.089360356
32.625847,9.361953735,-4.755935669,1.985710144,-0.041202269,-0.035875123,1.093144536
32.626472,9.537429810,-4.687271118,1.848381042,-0.039981566,-0.034898560,1.087773442
32.627097,9.728164673,-4.885635376,1.802604675,-0.036563598,-0.034166139,1.087773442
32.627722,10.025711060,-4.687271118,1.711051941,-0.035953246,-0.031968873,1.091435552
32.628347,10.323257446,-4.557571411,1.772087097,-0.038516723,-0.031236451,1.089604497
32.628974,10.414810181,-4.488906860,1.718681335,-0.034366332,-0.028184693,1.088383794
32.629601,10.422439575,-4.298171997,1.558464050,-0.032535277,-0.030381959,1.088872075
32.630226,10.811538696,-4.290542603,1.344841003,-0.033878051,-0.029161256,1.089970708
32.630852,11.177749634,-4.198989868,1.421134949,-0.032413207,-0.027696412,1.086308599
32.631478,11.040420532,-3.962478638,1.398246765,-0.033145629,-0.029649537,1.088750005
32.632105,10.910720825,-3.870925903,1.306694031,-0.032291137,-0.024522584,1.090581059
32.632730,11.345596313,-3.931961060,1.283805847,-0.032901488,-0.028428834,1.089970708
32.633356,11.215896606,-3.764114380,1.169364929,-0.031192506,-0.027696412,1.092412114
32.633983,11.315078735,-3.550491333,1.016777039,-0.030215943,-0.027208131,1.088383794
32.634610,11.246414185,-3.649673462,0.940483093,-0.028751099,-0.026597779,1.089116216
32.635235,11.391372681,-3.565750122,0.887077332,-0.029727662,-0.032945435,1.091679692
32.637071,11.406631470,-3.237686157,0.688713074,-0.033755980,-0.034532350,1.089604497
32.637697,11.490554810,-2.932510376,0.566642761,-0.033878051,-0.031114381,1.092167974
32.638322,11.223526001,-2.749404907,0.528495789,-0.033878051,-0.034776490,1.094487309
32.638948,11.391372681,-2.695999146,0.612419128,-0.037540160,-0.036485475,1.091313481
32.639573,11.276931763,-2.566299438,0.375907898,-0.035342894,-0.037584107,1.089360356
32.640198,11.246414185,-2.436599731,0.421684265,-0.037296019,-0.040757935,1.088750005
32.640824,11.131973267,-2.306900024,0.482719421,-0.034366332,-0.038194459,1.093388677
32.641449,11.170120239,-2.428970337,0.223320007,-0.035464965,-0.038438600,1.090581059
32.642074,10.864944458,-1.887283325,0.467460632,-0.033878051,-0.039537232,1.090703130
32.642701,11.009902954,-2.009353638,0.391166687,-0.032046996,-0.039171021,1.091435552
32.643327,10.559768677,-1.566848755,0.154655457,-0.032535277,-0.047227662,1.090458989
32.643954,10.788650513,-1.604995728,0.223320007,-0.032779418,-0.043443482,1.091191411
32.644581,10.475845337,-1.803359985,0.238578796,-0.031436644,-0.044297975,1.090825200
32.645208,10.307998657,-1.345596313,0.253837585,-0.030215943,-0.043077271,1.090336919
32.645834,10.185928345,-1.399002075,0.192802429,-0.031558715,-0.046006959,1.092412114
32.646459,9.972305298,-1.139602661,0.322502136,-0.026920045,-0.047471803,1.088872075
32.647084,9.804458618,-1.063308716,0.047843933,-0.028506959,-0.047471803,1.087651372
32.647709,9.407730103,-0.849685669,0.246208191,-0.026187623,-0.048692506,1.088017583
32.661723,-2.555160522,1.278915405,0.795524597,-0.031070435,-0.038072389,1.057622075
32.662481,-3.302841187,1.263656616,0.978630066,-0.034000121,-0.037462037,1.056157231
32.663106,-4.020004272,1.393356323,0.948112488,-0.031192506,-0.036973756,1.052250981
32.663731,-4.538803101,1.553573608,1.291435242,-0.029971803,-0.035753053,1.054448247
32.664356,-5.294113159,1.446762085,0.955741882,-0.029971803,-0.039171021,1.054326177
32.664982,-5.950241089,1.256027222,1.009147644,-0.029239381,-0.039781373,1.051396489
32.665608,-6.697921753,1.622238159,1.093070984,-0.029849732,-0.039048951,1.050908208
32.666235,-7.460861206,1.446762085,1.093070984,-0.025211060,-0.037339967,1.050541997
32.666860,-7.811813354,1.393356323,1.100700378,-0.030215943,-0.038438600,1.050053716
32.667485,-8.673934937,1.378097534,1.215141296,-0.025943482,-0.038316529,1.048344731
32.668111,-9.055404663,1.561203003,1.199882507,-0.026920045,-0.038316529,1.047246099
32.668738,-9.887008667,1.339950562,1.154106140,-0.023257935,-0.041612428,1.048344731
32.669363,-10.085372925,1.172103882,1.032035828,-0.025455201,-0.044053834,1.049687505
32.669989,-10.558395386,1.370468140,1.299064636,-0.025943482,-0.042222779,1.048344731
32.670615,-11.260299683,1.370468140,1.321952820,-0.024478639,-0.041856568,1.047734380
32.671241,-11.641769409,1.317062378,1.260917664,-0.024600709,-0.043321412,1.048710942
32.671867,-12.145309448,1.446762085,1.444023132,-0.024112428,-0.042588990,1.047856450
32.672492,-12.526779175,1.240768433,1.360099792,-0.025088990,-0.043199342,1.047612309
32.673119,-13.076095581,1.179733276,1.421134949,-0.023868287,-0.046739381,1.051884770
32.673745,-13.373641968,1.439132690,1.260917664,-0.024112428,-0.043809693,1.051762700
32.674370,-13.694076538,1.378097534,1.123588562,-0.025333131,-0.047105592,1.049809575
32.675000,-13.961105347,1.233139038,1.390617371,-0.025333131,-0.049058717,1.052983403
32.675626,-14.067916870,1.622238159,1.260917664,-0.028262818,-0.048936646,1.052861333
32.676252,-14.289169312,1.400985718,1.421134949,-0.024966920,-0.052110475,1.053105474
32.676878,-14.586715698,1.385726929,1.390617371,-0.027774537,-0.052476685,1.054570317
32.677505,-14.762191772,1.439132690,1.428764343,-0.028751099,-0.051866334,1.053105474
32.678131,-14.807968140,1.584091187,1.230400085,-0.029849732,-0.052110475,1.057988286
32.678756,-14.869003296,1.423873901,1.413505554,-0.030704224,-0.056505006,1.056279302
32.679381,-15.029220581,1.370468140,1.451652527,-0.031802855,-0.054796021,1.056645513
32.680008,-14.861373901,1.652755737,1.276176453,-0.030826295,-0.061998170,1.056279302
32.681846,-14.693527222,1.523056030,1.207511902,-0.031558715,-0.062730588,1.059331059
32.682472,-14.701156616,1.874008179,1.154106140,-0.027164185,-0.061265748,1.056157231
32.683097,-14.472274780,1.591720581,1.321952820,-0.026797974,-0.066270627,1.056279302
32.683724,-14.327316284,1.729049683,1.276176453,-0.025088990,-0.071153440,1.061894536
32.684350,-14.006881714,1.759567261,1.344841003,-0.027408326,-0.067369260,1.059086919
32.684975,-13.739852905,1.919784546,1.314323425,-0.027286256,-0.071763791,1.057377934
32.685601,-13.335494995,1.996078491,1.054924011,-0.030460084,-0.074205197,1.059697270
32.686226,-12.938766479,2.324142456,1.108329773,-0.026920045,-0.074083127,1.060551763
32.686851,-12.748031616,2.240219116,1.146476746,-0.025821412,-0.075303830,1.057866216
32.687476,-12.114791870,2.110519409,0.971000671,-0.026553834,-0.079698361,1.061406255
32.688102,-11.878280640,2.392807007,0.978630066,-0.029727662,-0.080552854,1.061162114
32.688728,-11.176376343,2.560653687,1.009147644,-0.026675904,-0.082994260,1.056157231
32.689353,-11.008529663,2.316513062,1.070182800,-0.030704224,-0.085313596,1.057744145
32.689978,-10.428695679,2.446212769,1.054924011,-0.030093873,-0.086046018,1.055546880
32.690603,-9.764938354,2.514877319,0.856559753,-0.032291137,-0.085191526,1.057377934
32.691228,-9.230880737,2.423324585,1.115959167,-0.028995240,-0.085923947,1.056157231
32.691854,-8.544235229,2.575912476,1.016777039,-0.027408326,-0.089341916,1.054204106
32.712672,4.303665161,1.843490601,0.848930359,-0.047794066,-0.078843869,1.028691411
32.713479,4.227371216,2.308883667,0.848930359,-0.050601684,-0.080308713,1.027104497
32.714105,4.097671509,2.217330933,0.665824890,-0.052066527,-0.076280393,1.026250005
32.714732,4.097671509,2.003707886,0.871818542,-0.053775512,-0.080064572,1.026860356
32.715358,3.830642700,2.369918823,0.765007019,-0.051822387,-0.080919065,1.025761724
32.715984,3.876419067,2.308883667,1.093070984,-0.053897582,-0.077989377,1.025761724
32.716609,3.288955688,2.476730347,0.864189148,-0.053043090,-0.079942502,1.031743169
32.717236,3.365249634,2.369918823,1.154106140,-0.051944457,-0.080064572,1.030644536
32.717862,3.334732056,2.423324585,1.108329773,-0.051578246,-0.082017697,1.028203130
32.718487,2.861709595,2.621688843,0.940483093,-0.056583129,-0.082750119,1.029423833
32.719113,2.876968384,2.728500366,1.100700378,-0.054874144,-0.082505979,1.029057622
32.719740,2.564163208,2.865829468,1.176994324,-0.060001098,-0.082628049,1.024541020
32.720365,2.228469849,2.797164917,1.077812195,-0.061343871,-0.080796994,1.029179692
32.720990,2.045364380,2.820053101,1.283805847,-0.062808715,-0.082261838,1.026494145
32.721615,1.801223755,3.079452515,1.421134949,-0.065250121,-0.083238401,1.029912114
32.722241,1.595230103,3.079452515,1.184623718,-0.066959105,-0.086412229,1.029667974
32.722866,1.198501587,3.087081909,1.299064636,-0.064517699,-0.085801877,1.025517583
32.723491,1.053543091,3.247299194,1.512687683,-0.067081176,-0.090562619,1.026738286
32.724118,0.748367310,3.270187378,1.337211609,-0.067569457,-0.093614377,1.027226567
32.724744,0.656814575,3.361740112,1.764457703,-0.072208129,-0.091295041,1.028813481
32.725369,0.397415161,3.483810425,1.817863464,-0.071597777,-0.095079221,1.024907231
32.726000,0.000686646,3.590621948,1.665275574,-0.071475707,-0.094957151,1.025639653
32.726626,-0.090866089,3.552474976,1.833122253,-0.075748168,-0.098253049,1.027958989
32.727251,-0.235824585,3.636398315,1.947563171,-0.075626098,-0.099473752,1.025029302
32.727876,-0.319747925,3.766098022,1.863639832,-0.078433715,-0.100694455,1.025029302
32.728501,-0.579147339,3.857650757,1.939933777,-0.078921996,-0.101793088,1.025151372
32.729127,-0.586776733,4.078903198,2.222221375,-0.078921996,-0.105211057,1.024418950
32.729752,-0.998764038,3.796615601,2.023857117,-0.080142699,-0.105821408,1.025273442
32.730379,-0.930099487,4.040756226,2.382438660,-0.081363402,-0.105577268,1.025029302
32.731005,-1.021652222,4.185714722,2.321403503,-0.079288207,-0.113389768,1.023442388
32.732811,-1.502304077,4.284896851,2.641838074,-0.079654418,-0.114732541,1.018071294
32.733436,-1.555709839,4.590072632,2.710502625,-0.084781371,-0.117540158,1.018925786
32.734061,-1.502304077,4.651107788,2.702873230,-0.083804809,-0.117173947,1.019169927
32.734686,-1.639633179,4.628219604,2.817314148,-0.085147582,-0.115464963,1.016362309
32.735312,-1.868515015,4.658737183,2.824943542,-0.084048949,-0.121080197,1.016850591
32.735937,-1.662521362,4.704513550,3.046195984,-0.088321410,-0.121446408,1.017094731
32.736563,-1.807479858,4.857101440,3.107231140,-0.088199340,-0.121324338,1.017705083
32.737188,-1.792221069,4.918136597,3.206413269,-0.087344848,-0.122178830,1.015263677
32.737813,-1.769332886,4.826583862,3.221672058,-0.087466918,-0.123399533,1.012456059
32.738438,-1.921920776,4.879989624,3.351371765,-0.087344848,-0.122667111,1.008183599
32.739064,-1.914291382,5.284347534,3.687065125,-0.088687621,-0.124009885,1.010014653
32.739689,-1.921920776,5.024948120,3.687065125,-0.086856566,-0.121446408,1.009526372
32.740314,-2.013473511,5.040206909,3.648918152,-0.089542113,-0.124864377,1.005620122
32.740940,-2.097396851,5.040206909,3.725212097,-0.089786254,-0.125596806,1.008671880
32.741565,-1.998214722,5.208053589,4.068534851,-0.089664184,-0.125474736,1.004643559
32.742190,-2.135543823,5.169906616,4.068534851,-0.093082152,-0.126939580,1.001835942
32.742817,-2.249984741,4.979171753,4.144828796,-0.092838012,-0.128892705,0.998906255
32.743442,-2.303390503,5.055465698,4.388969421,-0.092471801,-0.124986447,0.998540044
32.744068,-2.463607788,5.154647827,4.388969421,-0.096500121,-0.124864377,0.996220708
32.758082,-4.508285522,2.751388550,7.349174500,-0.109561644,-0.121934690,0.974614263
32.758813,-5.027084351,2.514877319,7.433097839,-0.108463012,-0.122422971,0.974370122
32.759438,-5.240707397,2.514877319,7.715385437,-0.106998168,-0.118394651,0.975468755
32.760063,-5.461959839,2.400436401,7.654350281,-0.108463012,-0.120225705,0.978032231
32.760690,-5.622177124,1.996078491,7.875602722,-0.102237426,-0.118028440,0.974980474
32.761317,-5.713729858,2.171554565,8.112113953,-0.106631957,-0.116441526,0.975590825
32.761943,-5.988388062,2.156295776,8.104484558,-0.102847777,-0.113755979,0.979252934
32.762568,-6.125717163,2.217330933,8.417289734,-0.103702269,-0.115587033,0.980961919
32.763194,-6.507186890,1.919784546,8.417289734,-0.102725707,-0.112779416,0.979252934
32.763820,-6.339340210,1.912155151,8.600395203,-0.104922973,-0.112169065,0.979497075
32.764446,-6.903915405,1.668014526,8.981864929,-0.105533324,-0.108751096,0.982792974
32.765073,-7.056503296,1.851119995,9.073417664,-0.102725707,-0.108384885,0.981938481
32.765699,-7.193832397,1.668014526,9.065788269,-0.102237426,-0.107408322,0.981938481
32.766324,-7.285385132,1.683273315,9.241264343,-0.102725707,-0.105577268,0.981206059
32.766949,-7.247238159,1.668014526,9.515922546,-0.101993285,-0.104478635,0.984501958
32.767576,-7.399826050,1.622238159,9.538810730,-0.103702269,-0.107042111,0.985112309
32.768202,-7.308273315,1.561203003,9.767692566,-0.105045043,-0.106553830,0.982548833
32.768827,-7.354049683,1.462020874,9.645622253,-0.103580199,-0.105088986,0.984013677
32.769454,-7.254867554,1.393356323,9.798210144,-0.101993285,-0.104234494,0.984501958
32.770081,-7.231979370,1.324691772,9.988945007,-0.105411254,-0.103257932,0.984257817
32.770706,-7.293014526,1.332321167,9.927909851,-0.102969848,-0.103624143,0.985478520
32.771332,-7.117538452,1.355209351,10.011833191,-0.103091918,-0.103990354,0.985600591
32.771957,-7.094650269,1.164474487,10.034721375,-0.100406371,-0.102769651,0.983891606
32.772582,-6.713180542,1.133956909,10.149162292,-0.101505004,-0.102891721,0.987065434
32.773209,-6.758956909,1.027145386,10.179679871,-0.099918090,-0.102769651,0.986699224
32.773835,-6.438522339,1.065292358,10.339897156,-0.095401488,-0.099229611,0.986821294
32.774461,-6.293563843,1.187362671,10.431449890,-0.102115355,-0.100084104,0.988896489
32.775088,-5.904464722,1.149215698,10.416191101,-0.099185668,-0.098619260,0.990605474
32.775715,-5.667953491,1.057662964,10.431449890,-0.095889769,-0.100328244,0.993657231
32.776342,-5.522994995,1.126327515,10.736625671,-0.096011840,-0.099595822,0.992924809
32.802779,12.703628540,2.903976440,10.103385925,-0.069278441,-0.066026486,1.010502934
32.804856,13.825149536,2.881088257,9.905021667,-0.065250121,-0.066148557,1.008549809
32.805481,14.092178345,3.117599487,9.843986511,-0.070865355,-0.062608518,1.009038091
32.806107,14.221878052,3.117599487,9.882133484,-0.068546019,-0.063585080,1.011357427
32.806734,14.404983521,3.361740112,9.668510437,-0.066470824,-0.059678834,1.009282231
32.807361,14.412612915,3.224411011,9.821098328,-0.071597777,-0.062120240,1.009160161
32.807988,14.961929321,3.323593140,9.737174988,-0.068423949,-0.062486451,1.008061528
32.808613,14.992446899,3.308334351,9.775321960,-0.069888793,-0.058946412,1.010380864
32.809240,15.106887817,3.399887085,9.683769226,-0.073062621,-0.058336060,1.004155278
32.809866,14.931411743,3.666915894,9.737174988,-0.073428832,-0.057115357,1.006352544
32.810491,14.862747192,3.491439819,9.584587097,-0.072330199,-0.053819459,1.007939458
32.811116,14.954299927,3.750839233,9.508293152,-0.070743285,-0.057359498,1.003789067
32.811743,15.007705688,3.727951050,9.714286804,-0.073795043,-0.052110475,1.006596684
32.812369,15.038223267,3.537216187,9.676139832,-0.074283324,-0.055284303,1.000981450
32.813000,15.061111450,3.865280151,9.500663757,-0.074039184,-0.052476685,1.003789067
32.813625,14.893264771,3.735580444,9.752433777,-0.073917113,-0.051500123,1.002324224
32.814251,14.687271118,3.888168335,9.386222839,-0.076358519,-0.051866334,0.998540044
32.814878,14.603347778,3.758468628,9.699028015,-0.076236449,-0.052842896,0.998051763
32.834950,2.266616821,1.957931519,10.767143250,-0.088321410,-0.041612428,0.975834966
32.835710,1.892776489,2.087631226,10.675590515,-0.087222777,-0.040025514,0.974125981
32.836335,1.610488892,1.904525757,11.095207214,-0.087955199,-0.035875123,0.975346684
32.836961,1.351089478,1.767196655,10.858695984,-0.091129027,-0.035142701,0.974125981
32.837587,0.908584595,1.713790894,10.912101746,-0.088199340,-0.035264771,0.977055669
32.838213,0.496597290,1.690902710,10.889213562,-0.090762816,-0.033311646,0.976567388
32.838838,0.138015747,1.523056030,10.942619324,-0.092471801,-0.035508912,0.978032231
32.839464,-0.113754272,1.271286011,10.728996277,-0.093204223,-0.031236451,0.981450200
32.840089,-0.411300659,1.362838745,11.064689636,-0.090518676,-0.032823365,0.982060552
32.840715,-0.739364624,1.164474487,11.179130554,-0.090884887,-0.028550904,0.980839849
32.841341,-1.097946167,1.194992065,11.072319031,-0.092471801,-0.025255006,0.979008794
32.841968,-1.303939819,0.981369019,11.095207214,-0.088321410,-0.027452271,0.981816411
32.842595,-1.822738647,0.958480835,11.224906921,-0.087955199,-0.024888795,0.981816411
32.843221,-2.341537476,0.859298706,11.140983582,-0.083194457,-0.020005982,0.982915044
32.843847,-2.257614136,0.706710815,11.354606628,-0.083682738,-0.017686646,0.987675786
32.844472,-2.761154175,0.729598999,11.095207214,-0.081119262,-0.016099732,0.984501958
32.845099,-2.997665405,0.653305054,11.087577820,-0.077945434,-0.015855592,0.984624028
32.845724,-3.073959351,0.752487183,11.140983582,-0.077579223,-0.013170044,0.986699224
32.846350,-3.318099976,0.775375366,11.064689636,-0.076236449,-0.011949341,0.989628911
32.846976,-3.623275757,0.660934448,10.942619324,-0.076724730,-0.008409302,0.991337895
32.847603,-3.890304565,0.653305054,11.125724792,-0.078067504,-0.006334106,0.993168950
32.848228,-4.172592163,0.706710815,11.072319031,-0.078067504,-0.003892700,0.992680669
32.848855,-4.706649780,0.790634155,11.034172058,-0.076114379,-0.003038208,0.995854497
32.849481,-4.943161011,0.622787476,10.996025085,-0.077335082,0.000868042,0.998906255
32.850107,-5.286483765,0.691452026,10.950248718,-0.078311644,0.001844604,0.999516606
32.850732,-5.469589233,0.668563843,11.240165710,-0.079166137,0.002454956,0.996220708
32.851358,-5.622177124,0.561752319,10.706108093,-0.078555785,0.000501831,0.999516606
32.851984,-6.049423218,0.447311401,10.927360535,-0.075381957,0.002577026,0.998051763
32.852610,-6.194381714,0.645675659,10.851066589,-0.077579223,0.006727417,0.997563481
32.853237,-6.232528687,0.531234741,10.698478699,-0.077457152,0.005262573,1.005131841
32.855058,-6.797103882,0.401535034,10.683219910,-0.071597777,0.005994995,0.998051763
32.855683,-7.018356323,0.538864136,10.683219910,-0.073428832,0.006727417,1.000126958
32.856313,-7.048873901,0.515975952,10.431449890,-0.073062621,0.005994995,0.997807622
32.856940,-7.041244507,0.447311401,10.408561707,-0.075870238,0.005262573,0.997685552
32.857565,-7.087020874,0.416793823,10.347526550,-0.076358519,0.006849487,0.995610356
32.858192,-6.934432983,0.241317749,10.271232605,-0.076358519,0.009168823,0.997929692
32.858819,-6.881027222,0.416793823,10.156791687,-0.074527465,0.012220581,1.002202153
32.859444,-6.751327515,0.317611694,9.889762878,-0.071109496,0.011121948,1.000615239
32.860070,-6.827621460,0.332870483,10.034721375,-0.076114379,0.009168823,1.002080083
32.860696,-6.545333862,0.142135620,9.920280457,-0.070132934,0.012342651,0.999882817
32.861321,-6.415634155,0.317611694,9.752433777,-0.072940551,0.009657104,1.003300786
32.861948,-6.415634155,0.180282593,9.821098328,-0.069644652,0.007093628,1.004521489
32.862573,-5.988388062,0.287094116,9.691398621,-0.067447387,0.010755737,1.008793950
32.863198,-6.018905640,0.111618042,9.363334656,-0.069156371,0.008680542,1.007939458
32.863825,-5.713729858,0.317611694,9.424369812,-0.065250121,0.011610229,1.006840825
32.864451,-5.584030151,0.271835327,9.226005554,-0.065860473,0.010511597,1.011723638
32.865078,-5.454330444,0.195541382,9.142082214,-0.061710082,0.013319214,1.014165044
32.865703,-4.988937378,0.195541382,9.126823425,-0.060367309,0.012586792,1.012456059
32.880120,1.694412231,1.606979370,5.983512878,-0.047794066,0.023695190,1.022587895
32.880888,1.854629517,1.339950562,5.876701355,-0.047794066,0.027235229,1.021855474
32.881515,2.144546509,1.523056030,5.785148621,-0.044742309,0.025892455,1.022709966
32.882141,2.640457153,1.713790894,5.617301941,-0.045963012,0.023328979,1.026372075
32.882767,2.770156860,1.713790894,5.426567078,-0.048404418,0.025160033,1.025761724
32.883392,2.876968384,1.668014526,5.403678894,-0.047794066,0.027479369,1.025517583
32.884018,3.082962036,1.797714233,5.113761902,-0.049014769,0.022962768,1.025273442
32.884645,3.411026001,1.950302124,5.174797058,-0.047794066,0.028700072,1.026372075
32.885271,3.792495728,2.087631226,4.976432800,-0.047183715,0.025892455,1.026738286
32.885898,4.044265747,2.263107300,4.808586121,-0.048892699,0.026746947,1.029790044
32.886523,4.250259399,2.202072144,4.701774597,-0.046329223,0.028700072,1.028569341
32.887149,4.608840942,2.438583374,4.709403992,-0.046573363,0.027601440,1.029790044
32.887774,4.471511841,2.606430054,4.472892761,-0.049258910,0.025770385,1.028447270
32.888400,4.807205200,2.621688843,4.205863953,-0.048038207,0.025770385,1.029057622
32.889027,5.005569458,2.743759155,4.060905457,-0.048648559,0.020887572,1.030034184
32.889653,5.173416138,2.942123413,4.045646667,-0.051212035,0.022962768,1.028813481
32.890280,5.440444946,2.812423706,3.992240906,-0.050723754,0.021986205,1.031499028
32.890907,5.509109497,3.354110718,3.725212097,-0.051334105,0.023817260,1.029912114
32.891533,5.791397095,3.193893433,3.770988464,-0.055240355,0.020277221,1.032719731
32.892158,5.974502563,3.560104370,3.481071472,-0.054507934,0.020399291,1.032353520
32.892784,6.111831665,3.361740112,3.267448425,-0.056094848,0.021009643,1.034184575
32.893409,6.226272583,3.750839233,3.549736023,-0.052188598,0.023206908,1.031987309
32.894036,6.195755005,3.834762573,3.114860535,-0.058414184,0.019422729,1.032231450
32.894662,6.287307739,3.888168335,3.084342957,-0.056461059,0.018568236,1.031743169
32.895288,6.432266235,4.056015015,3.099601746,-0.056705199,0.020399291,1.032719731
32.895914,6.699295044,4.239120483,2.771537781,-0.056705199,0.019666869,1.029179692
32.896540,6.752700806,4.185714722,2.824943542,-0.057559691,0.016248900,1.025639653
32.897165,6.691665649,4.445114136,2.733390808,-0.057803832,0.020277221,1.023442388
32.897790,6.653518677,4.658737183,2.649467468,-0.058292113,0.016493041,1.024296880
32.898417,6.920547485,4.544296265,2.565544128,-0.059146605,0.018568236,1.021855474
32.900255,6.897659302,4.941024780,2.199333191,-0.061710082,0.018324096,1.019414067
32.900880,6.851882935,5.154647827,2.184074402,-0.066714965,0.017713744,1.016484380
32.901505,6.844253540,5.276718140,2.130668640,-0.061954223,0.019911010,1.013798833
32.902130,6.813735962,5.124130249,1.840751648,-0.062442504,0.018934447,1.010502934
32.902755,6.943435669,5.200424194,1.871269226,-0.067691527,0.017835815,1.006474614
32.903380,6.668777466,5.429306030,1.848381042,-0.068179809,0.015638549,1.006108403
32.904005,6.615371704,5.345382690,1.772087097,-0.069766723,0.013685425,1.002446294
32.904631,6.500930786,5.101242065,1.924674988,-0.070255004,0.017713744,1.000493169
32.905258,6.371231079,5.391159058,1.512687683,-0.073184691,0.014417847,1.004887700
32.905885,6.211013794,5.299606323,1.482170105,-0.072696410,0.020399291,0.997075200
32.906511,5.814285278,5.108871460,1.604240417,-0.074527465,0.016126830,0.993779302
32.907137,6.043167114,5.391159058,1.413505554,-0.079288207,0.017103393,0.995610356
32.907763,5.585403442,5.223312378,1.276176453,-0.077945434,0.018568236,0.994511724
32.908389,5.364151001,4.979171753,1.321952820,-0.081485473,0.016981322,0.989628911
32.909015,5.280227661,5.055465698,1.100700378,-0.082217894,0.014539917,0.989140630
32.909640,5.249710083,5.032577515,1.085441589,-0.082584105,0.017469604,0.988164067
32.910266,4.761428833,4.796066284,1.009147644,-0.087588988,0.015638549,0.986699224
32.910891,4.440994263,4.635848999,1.054924011,-0.087222777,0.016615111,0.984746099
32.911517,4.189224243,4.803695679,0.940483093,-0.088199340,0.019300658,0.984501958
32.925562,-5.118637085,2.926864624,-0.020820618,-0.095889769,0.034071166,0.979252934
32.926314,-5.461959839,3.193893433,0.009696960,-0.096011840,0.031385619,0.980351567
32.926939,-6.011276245,2.858200073,-0.066596985,-0.096500121,0.031629760,0.979252934
32.927564,-6.514816284,2.903976440,-0.234443665,-0.095279418,0.031995971,0.980717778
32.928189,-6.903915405,2.926864624,-0.280220032,-0.099185668,0.029798705,0.980229497
32.928816,-7.285385132,3.132858276,-0.196296692,-0.099918090,0.034315307,0.980961919
32.929441,-7.827072144,2.621688843,-0.287849426,-0.098941527,0.031507690,0.981450200
32.930066,-8.193283081,2.835311890,-0.387031555,-0.099307738,0.030164916,0.980351567
32.930691,-8.384017944,2.873458862,-0.509101868,-0.097598754,0.031751830,0.982915044
32.931316,-8.872299194,2.751388550,-0.562507629,-0.097354613,0.031629760,0.983525395
32.931941,-9.093551636,2.491989136,-0.531990051,-0.098087035,0.031629760,0.984501958
32.932566,-9.383468628,2.591171265,-0.646430969,-0.097476684,0.030286986,0.981816411
32.933191,-9.696273804,2.751388550,-0.593025208,-0.099063598,0.030531127,0.984624028
32.933818,-9.825973511,2.415695190,-0.997383118,-0.095523559,0.025892455,0.983525395
32.934444,-9.955673218,2.331771851,-0.882942200,-0.099063598,0.026014525,0.985844731
32.935070,-10.138778687,2.369918823,-0.951606750,-0.097110473,0.021742065,0.981816411
32.935697,-10.497360229,2.270736694,-0.966865540,-0.096622191,0.024183471,0.984746099
32.936322,-10.260848999,2.324142456,-1.081306458,-0.094669066,0.022840697,0.987431645
32.936947,-10.382919312,2.110519409,-1.211006165,-0.091983519,0.019056518,0.984135747
32.937572,-10.199813843,2.072372437,-1.325447083,-0.092593871,0.019300658,0.985844731
32.938197,-10.215072632,2.125778198,-1.279670715,-0.094546996,0.017713744,0.986088872
32.938823,-10.367660522,2.057113647,-1.409370422,-0.092715941,0.015394409,0.984624028
32.939449,-10.039596558,1.965560913,-1.432258606,-0.093814574,0.011732300,0.986821294
32.940074,-9.948043823,1.950302124,-1.653511047,-0.089542113,0.009901245,0.989018559
32.940699,-9.681015015,1.904525757,-1.790840149,-0.090518676,0.011121948,0.990239263
32.941326,-9.307174683,1.942672729,-1.691658020,-0.087588988,0.010755737,0.991215825
32.941951,-9.368209839,1.889266968,-1.844245911,-0.087588988,0.008802612,0.991826177
32.942577,-8.956222534,1.912155151,-2.057868958,-0.086490355,0.006727417,0.992436528
32.943204,-8.750228882,1.851119995,-2.141792297,-0.086612426,0.006239136,0.993779302
32.943831,-8.338241577,1.957931519,-2.370674133,-0.085025512,0.009535034,0.995732427
32.945625,-7.323532104,1.835861206,-2.508003235,-0.081119262,0.007215698,0.997929692
32.946252,-7.300643921,1.759567261,-2.660591125,-0.081241332,0.006849487,0.999028325
32.946877,-6.690292358,1.721420288,-2.981025696,-0.080020629,0.004408081,1.000859380
32.947504,-6.324081421,1.950302124,-2.889472961,-0.080997191,0.004774292,1.004643559
32.948130,-6.095199585,1.851119995,-2.958137512,-0.078189574,0.009657104,1.000737309
32.948756,-5.645065308,1.973190308,-3.217536926,-0.074893676,0.007093628,1.002690434
32.949382,-5.431442261,2.018966675,-3.255683899,-0.075259887,0.005628784,1.005253911
32.950007,-5.118637085,1.858749390,-3.248054504,-0.076724730,0.005628784,1.005009770
32.950633,-4.874496460,1.729049683,-3.461677551,-0.075137816,0.007826050,1.004521489
32.951260,-4.431991577,2.034225464,-3.454048157,-0.075870238,0.007581909,1.002446294
32.951886,-4.241256714,1.942672729,-3.896553040,-0.077335082,0.007703979,1.004521489
32.952511,-3.752975464,1.919784546,-3.660041809,-0.075748168,0.007826050,1.002690434
32.953136,-3.310470581,1.942672729,-4.102546692,-0.075504027,0.006361206,1.003789067
32.953761,-3.157882690,2.011337280,-4.148323059,-0.071353637,0.005994995,1.003666997
32.954386,-2.860336304,1.988449097,-4.178840637,-0.074649535,0.006971558,1.006230474
32.961651,0.076980591,2.209701538,-5.575019836,-0.068301879,0.004163940,0.998051763
32.962278,0.115127563,2.339401245,-5.628425598,-0.068057738,0.003187378,1.002080083
32.962904,0.420303345,2.171554565,-5.781013489,-0.067081176,0.003187378,0.998906255
32.963531,0.267715454,2.293624878,-5.727607727,-0.065738402,0.002332886,1.000004888
32.977625,1.419754028,3.521957397,-7.444221497,-0.070987426,-0.033311646,1.002446294
32.978414,1.579971313,3.544845581,-7.421333313,-0.066348754,-0.037339967,1.005864263
32.979040,1.297683716,3.842391968,-7.291633606,-0.069400512,-0.040635865,1.001958013
32.979666,1.427383423,3.819503784,-7.291633606,-0.071597777,-0.038682740,1.003789067
32.980292,1.358718872,3.972091675,-7.367927551,-0.068546019,-0.042711060,1.002080083
32.980917,1.679153442,4.208602905,-7.352668762,-0.069156371,-0.046129029,1.004277349
32.981544,1.389236450,4.300155640,-7.306892395,-0.075137816,-0.046373170,1.002202153
32.982170,1.282424927,3.865280151,-7.428962708,-0.076114379,-0.049669068,1.001103520
32.982796,1.137466431,4.246749878,-7.352668762,-0.074283324,-0.049791139,1.004155278
32.983421,1.244277954,4.437484741,-7.314521790,-0.078555785,-0.050889771,1.000004888
32.984046,1.335830688,4.231491089,-7.245857239,-0.074649535,-0.052476685,1.000493169
32.984671,1.045913696,4.635848999,-7.276374817,-0.074283324,-0.053941529,1.000126958
32.985296,1.045913696,4.651107788,-7.352668762,-0.078677855,-0.054307740,0.997197270
32.985922,0.702590942,4.803695679,-7.276374817,-0.079654418,-0.056382935,1.001591802
32.986548,0.786514282,4.735031128,-7.123786926,-0.077701293,-0.055284303,0.998906255
32.987174,0.580520630,5.093612671,-7.406074524,-0.080753051,-0.058824342,0.998051763
32.987799,0.473709106,4.971542358,-7.154304504,-0.078067504,-0.059556764,0.999638677
32.988424,0.397415161,5.047836304,-7.169563293,-0.079166137,-0.059556764,0.997929692
32.989049,0.183792114,5.215682983,-6.856758118,-0.079898559,-0.057725709,0.995732427
32.989674,0.000686646,5.169906616,-7.024604797,-0.079166137,-0.062364381,0.997685552
32.990301,-0.174789429,5.261459351,-6.872016907,-0.079776488,-0.062974729,0.998051763
32.990927,-0.190048218,5.536117554,-6.955940247,-0.078189574,-0.060777467,0.994145513
32.991553,-0.602035522,5.681076050,-6.948310852,-0.080142699,-0.063463010,0.996098638
32.992179,-0.678329468,5.398788452,-6.803352356,-0.079776488,-0.062974729,0.994511724
32.992990,-0.838546753,5.642929077,-6.818611145,-0.078067504,-0.064561643,0.992192388
32.993831,-0.968246460,5.795516968,-6.673652649,-0.080753051,-0.065049924,0.989873052
32.994457,-1.342086792,5.642929077,-6.849128723,-0.083560668,-0.066758908,0.988774419
32.995082,-1.410751343,5.810775757,-6.742317200,-0.081607543,-0.067491330,0.988286138
32.995707,-1.685409546,5.932846069,-6.543952942,-0.082339965,-0.065904416,0.986455083
32.997617,-2.143173218,6.093063354,-6.368476868,-0.084903441,-0.071031369,0.980961919
32.998242,-2.394943237,5.993881226,-6.223518372,-0.086734496,-0.074937619,0.981083989
32.998868,-2.600936890,6.054916382,-6.269294739,-0.087833129,-0.071519651,0.977788091
32.999493,-2.349166870,6.032028198,-6.284553528,-0.089175902,-0.072740354,0.975712895
33.000119,-2.875595093,6.077804565,-6.093818665,-0.089053832,-0.074815549,0.975590825
33.000744,-2.753524780,5.681076050,-5.987007141,-0.092471801,-0.074815549,0.971440434
33.001371,-3.066329956,5.864181519,-6.215888977,-0.092838012,-0.078355588,0.972539067
33.002000,-2.845077515,5.848922729,-5.842048645,-0.093936644,-0.076768674,0.967778325
33.002626,-3.188400269,5.673446655,-5.712348938,-0.093814574,-0.079698361,0.965825200
33.003252,-3.249435425,5.780258179,-5.918342590,-0.094913207,-0.078721799,0.965336919
33.003879,-3.295211792,5.650558472,-5.811531067,-0.093448363,-0.079332151,0.965214849
33.004504,-3.302841187,5.322494507,-5.712348938,-0.097110473,-0.080430783,0.964604497
33.005131,-3.287582397,5.513229370,-5.788642883,-0.093326293,-0.083238401,0.963017583
33.005757,-3.279953003,5.559005737,-5.491096497,-0.094424926,-0.084092893,0.961064458
33.006384,-3.356246948,5.246200562,-5.338508606,-0.095523559,-0.085923947,0.961308599
33.007010,-3.402023315,5.398788452,-5.628425598,-0.095401488,-0.084337033,0.963139653
33.007636,-3.455429077,5.200424194,-5.521614075,-0.093814574,-0.083726682,0.965092778
33.008261,-3.440170288,5.032577515,-5.292732239,-0.096133910,-0.087388791,0.958500981
33.022344,-2.349166870,4.231491089,-3.949958801,-0.094058715,-0.088853635,0.957036138
33.023113,-2.341537476,4.178085327,-3.583747864,-0.095157348,-0.086656369,0.958134770
33.023738,-2.501754761,4.200973511,-3.499824524,-0.095523559,-0.085557736,0.954350591
33.024363,-2.356796265,4.132308960,-3.522712708,-0.095035277,-0.086656369,0.953129888
33.024988,-1.944808960,4.048385620,-3.400642395,-0.092715941,-0.086412229,0.954716802
33.025613,-1.929550171,3.827133179,-3.293830872,-0.094058715,-0.087388791,0.952153325
33.026240,-1.967697144,3.911056519,-3.263313293,-0.092471801,-0.086046018,0.951542974
33.026865,-2.021102905,3.827133179,-3.431159973,-0.093326293,-0.086290158,0.950322270
33.027492,-1.593856812,3.674545288,-3.286201477,-0.091861449,-0.085069455,0.948491216
33.028119,-1.746444702,3.582992554,-3.133613586,-0.093326293,-0.085679807,0.952153325
33.028745,-1.624374390,3.537216187,-3.042060852,-0.092349730,-0.084337033,0.951054692
33.029370,-1.616744995,3.323593140,-3.103096008,-0.092349730,-0.081895627,0.950566411
33.030000,-1.487045288,3.239669800,-3.072578430,-0.094180785,-0.081529416,0.943730474
33.030627,-1.387863159,3.354110718,-3.194648743,-0.092715941,-0.079332151,0.947758794
33.031254,-1.151351929,3.064193726,-2.927619934,-0.092471801,-0.078355588,0.947636724
33.031880,-1.204757690,2.942123413,-3.232795715,-0.090030394,-0.078965940,0.945805669
33.032505,-1.464157104,3.041305542,-3.026802063,-0.094424926,-0.076646604,0.950322270
33.033130,-0.891952515,2.690353394,-3.049690247,-0.092471801,-0.077012815,0.946171880
33.033756,-0.861434937,2.545394897,-2.958137512,-0.092593871,-0.077623166,0.949345708
33.034381,-0.792770386,2.522506714,-2.919990540,-0.089664184,-0.077256955,0.947880864
33.035008,-0.754623413,2.583541870,-2.767402649,-0.090152465,-0.075181760,0.948857427
33.035634,-0.754623413,2.491989136,-3.011543274,-0.091006957,-0.076158322,0.948491216
33.036261,-0.609664917,2.141036987,-2.828437805,-0.088687621,-0.074449338,0.946049809
33.036888,-0.426559448,2.095260620,-2.752143860,-0.092715941,-0.072374143,0.950932622
33.037513,-0.365524292,2.339401245,-2.912361145,-0.088443480,-0.073350705,0.950688481
33.038140,-0.312118530,1.950302124,-2.790290833,-0.089175902,-0.072130002,0.952275395
33.038767,-0.335006714,1.744308472,-2.889472961,-0.087466918,-0.072496213,0.951542974
33.039392,-0.273971558,1.790084839,-2.897102356,-0.089175902,-0.073228635,0.953251958
33.040019,-0.167160034,1.622238159,-2.698738098,-0.089175902,-0.073228635,0.952641606
33.040645,0.122756958,1.584091187,-2.782661438,-0.087100707,-0.071641721,0.953251958
33.042435,0.199050903,1.378097534,-2.889472961,-0.082339965,-0.071153440,0.956425786
33.043060,0.641555786,1.408615112,-2.981025696,-0.082706176,-0.070543088,0.960576177
33.043686,0.763626099,1.385726929,-2.973396301,-0.081729613,-0.070787229,0.959477544
33.044312,0.557632446,1.263656616,-2.713996887,-0.080508910,-0.070665158,0.960576177
33.044938,0.710220337,1.103439331,-2.713996887,-0.079898559,-0.069322385,0.960942388
33.045563,0.939102173,1.408615112,-2.919990540,-0.077823363,-0.072862424,0.962285161
33.046188,0.916213989,0.866928101,-2.637702942,-0.075870238,-0.069932736,0.961796880
33.046813,1.091690063,1.164474487,-2.858955383,-0.075626098,-0.070665158,0.959477544
33.047438,1.129837036,1.301803589,-2.904731750,-0.073795043,-0.070909299,0.965092778
33.048063,1.122207642,1.004257202,-2.607185364,-0.073062621,-0.068712033,0.964238286
33.048690,1.076431274,1.271286011,-2.851325989,-0.070865355,-0.072374143,0.962407231
33.049316,1.030654907,1.027145386,-2.622444153,-0.069522582,-0.069078244,0.965092778
33.049943,1.290054321,0.912704468,-2.858955383,-0.070255004,-0.070543088,0.966801763
33.050570,1.259536743,1.256027222,-2.843696594,-0.074771605,-0.066880979,0.964238286
33.051195,1.160354614,1.027145386,-2.775032043,-0.071841918,-0.071885861,0.962773442
33.051821,1.175613403,1.202621460,-2.660591125,-0.072330199,-0.068223752,0.966435552
33.052446,1.251907349,1.194992065,-2.782661438,-0.072330199,-0.069810666,0.967167974
33.053071,1.236648560,1.133956909,-2.698738098,-0.073672973,-0.070909299,0.968999028
33.067086,1.023025513,1.271286011,-2.408821106,-0.078677855,-0.083604611,0.972172856
33.067814,1.160354614,1.164474487,-2.370674133,-0.076236449,-0.088121213,0.974003911
33.068441,0.900955200,1.057662964,-2.370674133,-0.077579223,-0.086412229,0.970952153
33.069066,1.122207642,1.111068726,-2.164680481,-0.080753051,-0.092271604,0.973393559
33.069691,1.152725220,1.019515991,-2.271492004,-0.080997191,-0.088365354,0.976079106
33.070316,1.328201294,1.149215698,-2.233345032,-0.082095824,-0.087999143,0.973759770
33.070943,1.335830688,1.103439331,-2.179939270,-0.081119262,-0.089830197,0.974614263
33.071569,1.419754028,1.065292358,-2.157051086,-0.080020629,-0.090196408,0.976079106
33.072195,1.267166138,1.111068726,-2.057868958,-0.080753051,-0.087144651,0.978032231
33.072822,1.496047974,1.111068726,-1.958686829,-0.081729613,-0.090074338,0.977177739
33.073448,1.190872192,0.912704468,-1.935798645,-0.079410277,-0.088853635,0.978276372
33.074073,1.480789185,1.248397827,-1.836616516,-0.080630980,-0.087999143,0.980595708
33.074699,1.251907349,1.072921753,-1.874763489,-0.081729613,-0.089219846,0.981206059
33.075324,1.068801880,1.126327515,-1.821357727,-0.079532348,-0.090318479,0.979619145
33.075950,1.099319458,1.370468140,-1.798469543,-0.079776488,-0.086900510,0.978642583
33.076576,0.946731567,1.133956909,-1.775581360,-0.078067504,-0.086778440,0.979741216
33.077201,0.771255493,1.263656616,-1.767951965,-0.077335082,-0.083238401,0.980107427
33.077826,0.679702759,1.431503296,-1.722175598,-0.078311644,-0.084092893,0.981572270
33.078452,0.939102173,1.538314819,-1.531440735,-0.078799926,-0.083238401,0.979863286
33.079077,0.466079712,1.599349976,-1.592475891,-0.078799926,-0.080552854,0.980717778
33.079702,0.214309692,1.629867554,-1.371223450,-0.080875121,-0.078843869,0.977299809
33.080328,0.336380005,1.721420288,-1.455146790,-0.077090941,-0.080919065,0.978642583
33.080953,-0.151901245,1.767196655,-1.333076477,-0.079044066,-0.077989377,0.980229497
33.081580,-0.556259155,1.942672729,-1.157600403,-0.077945434,-0.076768674,0.981206059
33.082206,-0.533370972,1.782455444,-1.020271301,-0.075870238,-0.077745236,0.979985356
33.082833,-0.876693726,2.034225464,-1.104194641,-0.077579223,-0.072374143,0.982915044
33.083459,-1.380233765,2.202072144,-1.043159485,-0.075381957,-0.072618283,0.981206059
33.084085,-1.555709839,2.240219116,-0.974494934,-0.074283324,-0.070543088,0.983281255
33.084710,-1.837997437,2.385177612,-0.974494934,-0.076114379,-0.069200315,0.983403325
33.085335,-2.135543823,2.354660034,-0.829536438,-0.078311644,-0.065049924,0.982915044
33.087111,-3.394393921,2.934494019,-0.615913391,-0.077090941,-0.064561643,0.985112309
33.087736,-3.752975464,2.949752808,-0.509101868,-0.077945434,-0.061631959,0.980595708
33.088362,-4.187850952,3.026046753,-0.440437317,-0.077335082,-0.059922975,0.984501958
33.088989,-4.340438843,3.125228882,-0.501472473,-0.075748168,-0.059434693,0.982060552
33.089614,-4.737167358,3.232040405,-0.432807922,-0.076724730,-0.061754029,0.982060552
33.090240,-5.065231323,3.262557983,-0.310737610,-0.081241332,-0.056749146,0.979375005
33.090867,-5.492477417,3.560104370,-0.356513977,-0.076968871,-0.054307740,0.980961919
33.091492,-5.736618042,3.590621948,-0.272590637,-0.077579223,-0.059556764,0.977543950
33.092117,-5.973129272,3.399887085,-0.264961243,-0.078799926,-0.058824342,0.978032231
33.092743,-6.499557495,3.850021362,-0.295478821,-0.075626098,-0.057359498,0.977055669
33.093368,-6.575851440,3.903427124,-0.104743958,-0.078921996,-0.059556764,0.976201177
33.094002,-6.903915405,3.720321655,-0.226814270,-0.081363402,-0.056749146,0.974248052
33.094627,-6.911544800,3.720321655,-0.020820618,-0.081363402,-0.059556764,0.973515630
33.095252,-7.132797241,4.132308960,-0.181037903,-0.079166137,-0.058580201,0.976079106
33.095879,-7.392196655,3.941574097,-0.028450012,-0.076846801,-0.057359498,0.973271489
33.096506,-7.636337280,4.170455933,-0.074226379,-0.078677855,-0.059434693,0.969487309
33.097131,-7.468490601,3.956832886,-0.066596985,-0.081363402,-0.061143678,0.970952153
33.097756,-7.392196655,4.071273804,0.131767273,-0.083194457,-0.060411256,0.971440434
33.112614,-2.593307495,2.827682495,-0.058967590,-0.085025512,-0.059678834,0.953007817
33.113366,-2.593307495,3.048934937,0.139396667,-0.086612426,-0.056138795,0.950322270
33.114000,-1.998214722,2.697982788,0.055473328,-0.088443480,-0.052842896,0.957036138
33.114625,-1.937179565,2.812423706,-0.142890930,-0.085025512,-0.051011842,0.954350591
33.115252,-1.540451050,2.888717651,-0.158149719,-0.086246215,-0.051378053,0.952153325
33.115878,-1.586227417,2.789535522,-0.181037903,-0.084903441,-0.049546998,0.949101567
33.116505,-1.364974976,2.629318237,-0.173408508,-0.085147582,-0.048082154,0.949467778
33.117132,-1.220016479,2.629318237,-0.165779114,-0.088321410,-0.046739381,0.948857427
33.117759,-1.044540405,2.430953979,-0.287849426,-0.085391723,-0.045884889,0.946904302
33.118384,-0.876693726,2.553024292,-0.318367004,-0.090152465,-0.041978639,0.945073247
33.119011,-0.563888550,2.644577026,-0.387031555,-0.088321410,-0.040391725,0.947026372
33.119638,-0.510482788,2.354660034,-0.364143372,-0.088077269,-0.040147584,0.942998052
33.120263,-0.396041870,2.415695190,-0.318367004,-0.090396605,-0.039415162,0.942387700
33.120889,-0.396041870,2.278366089,-0.554878235,-0.089297973,-0.039903443,0.942753911
33.121514,-0.144271851,2.133407593,-0.325996399,-0.089053832,-0.037950318,0.939702153
33.122141,-0.075607300,2.263107300,-0.272590637,-0.092838012,-0.041612428,0.938725591
33.122768,0.084609985,1.996078491,-0.455696106,-0.090640746,-0.035997193,0.935917974
33.123393,0.138015747,2.041854858,-0.417549133,-0.090884887,-0.033433717,0.934331059
33.124019,0.160903931,1.683273315,-0.547248840,-0.094669066,-0.033433717,0.931035161
33.124646,0.206680298,1.797714233,-0.631172180,-0.091861449,-0.036119264,0.932988286
33.125273,0.397415161,1.561203003,-0.448066711,-0.095035277,-0.035386842,0.930424809
33.125898,0.412673950,1.576461792,-0.516731262,-0.092471801,-0.034166139,0.927739263
33.126523,0.435562134,1.240768433,-0.554878235,-0.094669066,-0.029283326,0.926884770
33.127149,0.412673950,1.256027222,-0.608283997,-0.094058715,-0.027696412,0.926884770
33.127774,0.366897583,1.019515991,-0.806648254,-0.092593871,-0.031602662,0.924687505
33.128401,0.755996704,0.760116577,-0.661689758,-0.092227660,-0.028672975,0.923588872
33.129027,1.038284302,0.607528687,-0.722724915,-0.094791137,-0.028917115,0.922490239
33.129652,0.595779419,0.393905640,-0.623542786,-0.092960082,-0.027818482,0.920415044
33.130278,0.862808228,0.012435913,-0.951606750,-0.093692504,-0.030137818,0.922001958
33.130903,0.611038208,0.126876831,-0.913459778,-0.094302855,-0.030015748,0.920292974
33.132644,0.885696411,-0.651321411,-1.073677063,-0.092471801,-0.027330201,0.915898442
33.133269,1.045913696,-1.025161743,-0.852424622,-0.093448363,-0.021104615,0.916630864
33.133894,1.084060669,-1.261672974,-1.066047668,-0.095279418,-0.024888795,0.917363286
33.134519,1.030654907,-1.521072388,-1.104194641,-0.094058715,-0.026353639,0.917119145
33.135145,1.160354614,-1.749954224,-0.921089172,-0.097232543,-0.023912232,0.919072270
33.135771,1.122207642,-1.810989380,-1.203376770,-0.099185668,-0.025377076,0.919682622
33.136397,1.122207642,-2.177200317,-1.111824036,-0.096988402,-0.022691529,0.920292974
33.137023,1.190872192,-2.421340942,-1.287300110,-0.096744262,-0.022935670,0.919194341
33.137650,1.099319458,-2.558670044,-1.172859192,-0.096866332,-0.022447389,0.919316411
33.138276,1.366348267,-2.840957642,-1.134712219,-0.097232543,-0.024766725,0.920903325
33.138903,1.068801880,-2.848587036,-1.256782532,-0.098697387,-0.022081178,0.922978520
33.139528,1.335830688,-3.298721313,-1.531440735,-0.099063598,-0.026475709,0.922978520
33.140154,1.274795532,-3.313980103,-1.386482239,-0.098453246,-0.024156373,0.926884770
33.140780,1.114578247,-3.466567993,-1.416999817,-0.100406371,-0.023668092,0.927861333
33.141405,1.091690063,-3.741226196,-1.645881653,-0.098575316,-0.019029420,0.931523442
33.142032,1.084060669,-3.954849243,-1.508552551,-0.097598754,-0.019639771,0.935063481
33.142657,1.068801880,-3.962478638,-1.485664368,-0.099063598,-0.016710084,0.937382817
33.143284,1.106948853,-4.229507446,-1.821357727,-0.101138793,-0.017930787,0.937749028
33.157305,-1.281051636,-4.397354126,-2.713996887,-0.089420043,-0.020250123,0.970219731
33.158044,-1.380233765,-4.198989868,-2.660591125,-0.091617309,-0.019151490,0.970341802
33.158670,-1.601486206,-4.397354126,-2.775032043,-0.091861449,-0.016954225,0.969609380
33.159296,-1.677780151,-4.168472290,-2.927619934,-0.091129027,-0.017442506,0.971684575
33.159923,-1.876144409,-4.252395630,-2.965766907,-0.094302855,-0.021226685,0.973149419
33.160549,-1.799850464,-4.267654419,-2.874214172,-0.094302855,-0.023546021,0.973027349
33.161174,-1.876144409,-4.122695923,-2.973396301,-0.092838012,-0.020372193,0.971318364
33.161801,-2.158432007,-4.115066528,-2.973396301,-0.094058715,-0.022935670,0.972783208
33.162426,-2.272872925,-4.145584106,-3.118354797,-0.094913207,-0.019761842,0.975102544
33.163052,-2.349166870,-3.977737427,-3.057319641,-0.094546996,-0.018541139,0.974858403
33.163677,-2.608566284,-4.305801392,-3.194648743,-0.095157348,-0.020860475,0.972783208
33.164303,-2.761154175,-4.160842896,-2.958137512,-0.091129027,-0.022691529,0.974492192
33.164930,-3.134994507,-4.137954712,-3.301460266,-0.091617309,-0.021348756,0.972783208
33.165555,-3.218917847,-4.084548950,-3.316719055,-0.092471801,-0.019883912,0.972539067
33.166180,-3.455429077,-4.443130493,-3.194648743,-0.087955199,-0.017198365,0.971806645
33.166805,-3.577499390,-3.909072876,-3.331977844,-0.088565551,-0.020128053,0.972172856
33.167430,-3.615646362,-3.901443481,-3.293830872,-0.091006957,-0.017930787,0.971928716
33.168057,-3.730087280,-4.321060181,-3.599006653,-0.091495238,-0.020982545,0.975590825
33.168684,-4.004745483,-3.893814087,-3.446418762,-0.091373168,-0.020616334,0.976689458
33.169311,-4.073410034,-4.031143188,-3.530342102,-0.091495238,-0.022569459,0.977299809
33.169936,-4.279403687,-4.122695923,-3.370124817,-0.092349730,-0.018419068,0.979375005
33.170562,-4.302291870,-4.046401978,-3.438789368,-0.089542113,-0.024278443,0.977788091
33.171187,-4.699020386,-4.046401978,-3.484565735,-0.092105590,-0.022691529,0.979497075
33.171813,-4.874496460,-3.916702271,-3.438789368,-0.091861449,-0.022325318,0.982792974
33.172438,-5.111007690,-3.992996216,-3.591377258,-0.093936644,-0.024034303,0.982060552
33.173064,-5.271224976,-3.802261353,-3.637153625,-0.094302855,-0.022813600,0.982670903
33.173690,-5.500106812,-3.817520142,-3.782112122,-0.094546996,-0.026231568,0.985844731
33.174317,-5.728988647,-3.878555298,-3.667671204,-0.091861449,-0.020250123,0.985112309
33.174942,-5.927352905,-3.840408325,-3.644783020,-0.092593871,-0.024644654,0.986577153
33.175568,-6.003646851,-3.901443481,-3.782112122,-0.092960082,-0.026597779,0.986088872
33.177359,-6.652145386,-3.397903442,-3.805000305,-0.091861449,-0.032457154,0.985112309
33.177985,-6.743698120,-3.657302856,-3.858406067,-0.093570434,-0.033311646,0.989384770
33.178611,-6.987838745,-3.565750122,-3.911811829,-0.097720824,-0.036119264,0.989140630
33.179236,-7.064132690,-3.245315552,-3.988105774,-0.096378051,-0.035386842,0.986821294
33.179863,-7.102279663,-3.535232544,-4.056770325,-0.096378051,-0.039781373,0.987431645
33.180488,-7.239608765,-3.497085571,-4.010993958,-0.098087035,-0.039415162,0.991093755
33.181113,-7.132797241,-3.382644653,-3.995735168,-0.098453246,-0.038926881,0.985356450
33.181739,-7.323532104,-3.130874634,-4.010993958,-0.098697387,-0.043443482,0.988041997
33.182364,-7.109909058,-3.336868286,-3.965217590,-0.095889769,-0.044297975,0.990239263
33.182991,-7.331161499,-3.085098267,-4.171211243,-0.098575316,-0.043931764,0.989873052
33.183617,-7.468490601,-2.985916138,-4.049140930,-0.097598754,-0.048448365,0.986943364
33.184243,-7.491378784,-2.924880981,-3.942329407,-0.097476684,-0.045884889,0.992070317
33.184868,-7.376937866,-2.818069458,-3.995735168,-0.099918090,-0.042100709,0.992924809
33.185493,-7.293014526,-2.856216431,-3.888923645,-0.095401488,-0.043687623,0.988530278
33.186119,-7.422714233,-2.711257935,-3.957588196,-0.092715941,-0.044053834,0.992070317
33.186746,-7.842330933,-2.367935181,-4.148323059,-0.096988402,-0.042222779,0.994389653
33.187372,-7.781295776,-2.482376099,-3.850776672,-0.096255980,-0.045518678,0.995732427
33.201461,-13.259201050,-0.361404419,-3.148872375,-0.105167113,-0.024522584,0.965092778
33.202254,-13.495712280,-0.239334106,-2.988655090,-0.105899535,-0.022081178,0.961674809
33.202881,-13.640670776,-0.430068970,-3.011543274,-0.104312621,-0.023790162,0.962895513
33.203507,-13.816146851,-0.361404419,-2.797920227,-0.104434691,-0.021714967,0.960698247
33.204132,-14.327316284,-0.391921997,-2.858955383,-0.101260863,-0.022081178,0.956914067
33.204758,-14.556198120,-0.430068970,-2.767402649,-0.101627074,-0.020005982,0.956669927
33.211985,-14.189987183,-2.131423950,-3.042060852,-0.099673949,-0.020005982,0.944951177
33.212610,-14.029769897,-2.604446411,-3.309089661,-0.101016723,-0.015977662,0.945317388
33.213235,-13.831405640,-2.711257935,-3.095466614,-0.098453246,-0.016710084,0.948735356
33.213862,-13.434677124,-2.779922485,-3.331977844,-0.099429809,-0.016710084,0.946416020
33.214488,-12.999801636,-2.985916138,-3.377754211,-0.098697387,-0.016099732,0.948979497
33.215115,-12.793807983,-3.222427368,-3.507453918,-0.098697387,-0.019151490,0.947758794
33.215741,-12.305526733,-3.428421021,-3.446418762,-0.099307738,-0.020128053,0.951176763
33.216366,-11.855392456,-3.619155884,-3.682929993,-0.099429809,-0.019273560,0.951665044
33.216991,-11.405258179,-4.099807739,-3.827888489,-0.097232543,-0.024278443,0.953374028
33.217617,-10.604171753,-3.878555298,-3.713447571,-0.095523559,-0.023179810,0.953740239
33.218243,-10.100631714,-4.160842896,-3.873664856,-0.096988402,-0.025499146,0.957646489
33.218869,-9.421615601,-4.305801392,-4.049140930,-0.096133910,-0.026719850,0.958867192
33.219495,-8.620529175,-4.244766235,-4.049140930,-0.095401488,-0.028062623,0.962407231
33.220120,-7.865219116,-4.580459595,-4.247505188,-0.096133910,-0.029405396,0.965092778
33.221940,-5.698471069,-5.091629028,-4.682380676,-0.095523559,-0.033555787,0.966679692
33.222566,-4.851608276,-5.381546021,-4.644233704,-0.093936644,-0.035753053,0.968266606
33.223191,-4.088668823,-5.389175415,-4.972297668,-0.094180785,-0.039415162,0.972416997
33.223817,-3.089218140,-5.511245728,-4.873115540,-0.096255980,-0.039537232,0.972905278
33.224443,-2.356796265,-5.518875122,-4.949409485,-0.095035277,-0.042222779,0.976567388
33.225068,-1.158981323,-5.488357544,-5.079109192,-0.095889769,-0.042222779,0.976323247
33.225694,-0.388412476,-5.701980591,-5.353767395,-0.094180785,-0.047471803,0.978764653
33.226320,0.488967896,-5.747756958,-5.315620422,-0.095157348,-0.045518678,0.978154302
33.226947,1.656265259,-5.946121216,-5.590278625,-0.091983519,-0.049180787,0.982182622
33.227573,2.571792603,-5.984268188,-5.689460754,-0.093692504,-0.051988404,0.985356450
33.228198,3.334732056,-5.984268188,-5.651313782,-0.098697387,-0.050523560,0.984379888
33.228824,4.196853638,-6.113967896,-5.735237122,-0.096378051,-0.050889771,0.984501958
33.229449,5.158157349,-6.167373657,-6.002265930,-0.096866332,-0.050645631,0.987431645
33.230075,6.066055298,-6.037673950,-6.063301086,-0.096866332,-0.050035279,0.988408208
33.230701,6.981582642,-6.228408813,-6.048042297,-0.098575316,-0.050767701,0.991337895
33.231328,7.607192993,-6.075820923,-6.109077454,-0.093936644,-0.053575318,0.992436528
33.231955,8.400650024,-6.068191528,-6.353218079,-0.097110473,-0.048448365,0.992924809
33.232580,8.980484009,-5.991897583,-6.292182922,-0.098819457,-0.047105592,0.992558599
33.233206,9.644241333,-6.121597290,-6.444770813,-0.098941527,-0.043077271,0.996708989
33.233833,10.338516235,-6.129226685,-6.513435364,-0.099673949,-0.044908326,0.994877934
33.234459,10.651321411,-5.915603638,-6.719429016,-0.096988402,-0.043077271,0.997685552
33.235086,11.261672974,-5.724868774,-6.627876282,-0.096378051,-0.042222779,0.997563481
33.235713,11.543960571,-5.854568481,-6.643135071,-0.098453246,-0.041002076,0.998906255
33.236338,11.986465454,-5.671463013,-6.765205383,-0.100406371,-0.037095826,1.000249028
33.236965,11.978836060,-5.335769653,-6.917793274,-0.100406371,-0.037584107,0.997441411
33.237590,12.299270630,-5.518875122,-6.971199036,-0.099429809,-0.035264771,0.997319341
33.238215,12.535781860,-5.228958130,-7.009346008,-0.101993285,-0.033555787,1.001713872
33.252330,-0.762252808,-3.947219849,-6.856758118,-0.099429809,-0.010728638,0.979252934
33.253090,-1.540451050,-4.023513794,-6.521064758,-0.099796019,-0.010728638,0.981083989
33.253715,-2.616195679,-3.787002563,-6.681282043,-0.099063598,-0.013780396,0.979985356
33.254342,-3.325729370,-3.794631958,-6.551582336,-0.101016723,-0.015489380,0.978154302
33.254968,-4.096298218,-3.535232544,-6.467658997,-0.103458129,-0.019151490,0.978764653
33.255593,-4.950790405,-3.886184692,-6.574470520,-0.103458129,-0.021837037,0.977177739
33.256219,-5.706100464,-3.817520142,-6.536323547,-0.104678832,-0.022447389,0.982182622
33.256845,-6.537704468,-3.703079224,-6.322700500,-0.101627074,-0.025987428,0.982670903
33.257471,-7.209091187,-3.787002563,-6.337959290,-0.101505004,-0.027452271,0.983647466
33.258096,-8.178024292,-3.817520142,-6.406623840,-0.107486449,-0.028184693,0.982426763
33.258722,-8.681564331,-3.710708618,-6.368476868,-0.105777465,-0.029893678,0.983281255
33.259348,-9.032516479,-3.748855591,-6.360847473,-0.104434691,-0.038194459,0.986210942
33.259974,-9.810714722,-3.878555298,-6.231147766,-0.108463012,-0.042100709,0.984746099
33.260601,-10.474472046,-3.588638306,-5.956489563,-0.105289184,-0.044542115,0.986577153
33.261228,-10.749130249,-3.642044067,-6.048042297,-0.109561644,-0.049302857,0.986943364
33.261853,-11.069564819,-3.916702271,-5.987007141,-0.106998168,-0.051500123,0.988408208
33.262478,-11.626510620,-3.787002563,-6.109077454,-0.107486449,-0.055284303,0.989628911
33.263104,-11.840133667,-3.565750122,-5.994636536,-0.110538207,-0.060777467,0.991826177
33.263729,-12.114791870,-3.870925903,-6.063301086,-0.109195434,-0.063463010,0.990605474
33.264356,-12.137680054,-3.603897095,-5.658943176,-0.107486449,-0.066148557,0.991337895
33.264982,-12.313156128,-3.489456177,-5.636054993,-0.110538207,-0.071641721,0.993046880
33.265608,-12.328414917,-3.504714966,-5.918342590,-0.107852660,-0.074449338,0.992802739
33.266277,-12.404708862,-3.466567993,-5.727607727,-0.107852660,-0.077867307,0.995610356
33.266903,-12.351303101,-3.397903442,-5.681831360,-0.109683715,-0.080919065,0.995976567
33.267528,-12.290267944,-3.283462524,-5.590278625,-0.112125121,-0.080064572,0.998417974
33.268154,-12.137680054,-3.298721313,-5.704719543,-0.110416137,-0.084703244,0.997929692
33.268780,-11.901168823,-3.397903442,-5.414802551,-0.108585082,-0.090440549,0.997075200
33.269405,-11.946945190,-3.169021606,-5.407173157,-0.109683715,-0.092027463,0.998540044
33.270031,-11.641769409,-3.230056763,-5.285102844,-0.110416137,-0.091905393,0.998784184
33.270656,-11.260299683,-3.100357056,-5.353767395,-0.110538207,-0.095445432,0.995488286
33.272466,-10.512619019,-2.955398560,-5.216438293,-0.114688598,-0.100084104,1.000126958
33.273093,-10.176925659,-2.833328247,-5.071479797,-0.111636840,-0.099717893,0.999638677
33.273718,-9.902267456,-3.039321899,-4.911262512,-0.115054809,-0.101793088,0.996586919
33.274343,-9.719161987,-2.894363403,-4.758674622,-0.112369262,-0.102159299,1.000126958
33.274969,-9.352951050,-2.894363403,-4.766304016,-0.114200316,-0.105088986,0.997319341
33.275595,-9.024887085,-2.726516724,-4.804450989,-0.112125121,-0.102525510,0.996586919
33.276222,-8.498458862,-2.909622192,-4.598457336,-0.114322387,-0.099473752,0.995122075
33.276848,-8.139877319,-2.978286743,-4.621345520,-0.111758910,-0.099962033,0.990483403
33.277474,-7.949142456,-2.726516724,-4.476387024,-0.110904418,-0.099351682,0.990849614
33.278099,-7.888107300,-3.100357056,-4.667121887,-0.112613402,-0.097032346,0.990971684
33.278725,-7.468490601,-2.848587036,-4.339057922,-0.111514769,-0.097154416,0.992436528
33.279351,-7.193832397,-3.115615845,-4.163581848,-0.107364379,-0.093614377,0.989384770
33.279978,-6.911544800,-3.123245239,-4.117805481,-0.106265746,-0.093858518,0.985112309
33.280604,-6.644515991,-3.016433716,-4.133064270,-0.106387816,-0.088487424,0.983403325
33.281230,-6.446151733,-2.993545532,-4.056770325,-0.104434691,-0.087877072,0.983403325
33.281855,-6.301193237,-3.092727661,-3.972846985,-0.104922973,-0.086656369,0.981206059
33.282482,-6.255416870,-3.222427368,-4.079658508,-0.105777465,-0.082505979,0.980107427
33.296599,-8.750228882,-6.182632446,-2.591926575,-0.090640746,-0.031602662,0.965581059
33.297363,-8.811264038,-6.472549438,-2.706367493,-0.087955199,-0.032213014,0.967534184
33.297989,-8.963851929,-6.510696411,-2.469856262,-0.085880004,-0.030381959,0.969121099
33.298616,-9.146957397,-6.770095825,-2.431709290,-0.087955199,-0.030748170,0.969487309
33.299242,-9.185104370,-6.800613403,-2.546150208,-0.086978637,-0.030381959,0.973393559
33.299868,-9.146957397,-7.044754028,-2.683479309,-0.084537230,-0.032457154,0.972539067
33.300494,-9.291915894,-7.258377075,-2.485115051,-0.087100707,-0.030748170,0.975712895
33.301119,-9.024887085,-7.395706177,-2.538520813,-0.086612426,-0.031358521,0.974492192
33.301744,-9.154586792,-7.288894653,-2.614814758,-0.082950316,-0.033067506,0.976567388
33.302369,-8.910446167,-7.586441040,-2.637702942,-0.082828246,-0.035142701,0.978764653
33.303000,-8.780746460,-7.677993774,-2.691108704,-0.083926879,-0.036607545,0.980961919
33.303626,-8.429794312,-7.479629517,-2.561408997,-0.083560668,-0.035508912,0.982304692
33.304251,-8.055953979,-7.708511353,-2.607185364,-0.083926879,-0.038194459,0.984746099
33.304877,-7.811813354,-8.135757446,-2.561408997,-0.080020629,-0.039659303,0.985356450
33.305504,-7.445602417,-8.097610474,-2.927619934,-0.081729613,-0.042955201,0.986943364
33.306129,-7.025985718,-8.295974731,-2.637702942,-0.081851684,-0.043931764,0.986699224
33.306754,-6.591110229,-8.318862915,-2.897102356,-0.081485473,-0.046861451,0.992192388
33.307381,-5.873947144,-8.341751099,-2.683479309,-0.083316527,-0.045152467,0.993535161
33.308007,-5.522994995,-8.471450806,-2.813179016,-0.081241332,-0.048692506,0.995000005
33.308633,-4.782943726,-8.517227173,-2.942878723,-0.079410277,-0.049424928,0.995610356
33.309258,-4.050521851,-8.547744751,-2.996284485,-0.080264769,-0.051011842,0.998662114
33.309884,-3.295211792,-8.646926880,-2.889472961,-0.080142699,-0.051866334,1.001347661
33.310511,-2.700119019,-8.860549927,-3.003913879,-0.079654418,-0.054185670,1.004887700
33.311136,-1.944808960,-8.814773560,-3.133613586,-0.078433715,-0.052964967,1.005375981
33.311762,-1.174240112,-8.990249634,-3.019172668,-0.078433715,-0.056260865,1.009282231
33.312387,-0.464706421,-8.936843872,-2.996284485,-0.077823363,-0.056382935,1.007451177
33.313012,0.366897583,-9.097061157,-3.286201477,-0.080264769,-0.053819459,1.009770513
33.313637,1.122207642,-9.043655396,-3.400642395,-0.079898559,-0.055406373,1.010136724
33.314263,1.862258911,-9.219131470,-3.446418762,-0.078677855,-0.052110475,1.014409184
33.314888,2.747268677,-9.165725708,-3.133613586,-0.078189574,-0.055894654,1.012822270
33.316712,5.074234009,-9.440383911,-3.667671204,-0.076114379,-0.049424928,1.015751958
33.317338,5.799026489,-9.013137817,-3.545600891,-0.075015746,-0.050889771,1.019536138
33.317964,6.417007446,-9.364089966,-3.614265442,-0.076846801,-0.044542115,1.018681645
33.318590,6.935806274,-9.348831177,-3.866035461,-0.078433715,-0.047960084,1.015996099
33.319215,7.927627563,-9.417495728,-3.858406067,-0.074283324,-0.049791139,1.021855474
33.319842,8.560867310,-9.196243286,-3.667671204,-0.079166137,-0.041734498,1.022832036
33.320467,9.110183716,-9.425125122,-3.888923645,-0.076236449,-0.038316529,1.023686528
33.321093,9.743423462,-9.219131470,-3.850776672,-0.078067504,-0.036241334,1.022954106
33.321718,10.132522583,-9.226760864,-3.934700012,-0.080142699,-0.036485475,1.025395513
33.322345,10.323257446,-9.394607544,-4.072029114,-0.079166137,-0.031968873,1.025761724
33.322971,10.834426880,-9.325942993,-3.980476379,-0.078799926,-0.030992310,1.027958989
33.323596,11.193008423,-9.112319946,-4.148323059,-0.079288207,-0.029527467,1.027714849
33.324223,11.551589966,-9.180984497,-4.079658508,-0.078311644,-0.026719850,1.028569341
33.324849,11.612625122,-9.097061157,-4.194099426,-0.080142699,-0.025987428,1.030766606
33.325474,11.940689087,-9.135208130,-4.148323059,-0.079410277,-0.017320435,1.032231450
33.326100,11.879653931,-8.959732056,-4.270393372,-0.078677855,-0.017686646,1.030034184
33.326727,11.971206665,-8.913955688,-4.407722473,-0.080264769,-0.015001099,1.033330083
33.340790,-0.205307007,-5.839309692,-4.583198547,-0.082095824,0.006727417,1.035893559
33.341543,-0.952987671,-5.785903931,-4.987556458,-0.083194457,0.006605347,1.033452153
33.342170,-1.548080444,-5.564651489,-4.827339172,-0.081119262,0.004163940,1.035527349
33.342796,-2.249984741,-5.511245728,-5.002815247,-0.084171019,-0.001329224,1.031376958
33.343421,-2.753524780,-5.450210571,-4.934150696,-0.084171019,-0.000474731,1.033696294
33.344047,-3.112106323,-5.244216919,-5.170661926,-0.085025512,-0.004380981,1.033208013
33.344672,-3.737716675,-5.167922974,-5.010444641,-0.087955199,-0.005967896,1.032597661
33.345298,-4.065780640,-5.267105103,-4.812080383,-0.087222777,-0.009141724,1.032475591
33.345924,-4.485397339,-5.145034790,-4.880744934,-0.086978637,-0.010484497,1.030766606
33.346550,-4.668502808,-5.091629028,-5.025703430,-0.091617309,-0.015245239,1.030888677
33.347176,-5.400924683,-5.183181763,-4.865486145,-0.094302855,-0.019151490,1.030400395
33.347801,-5.538253784,-5.167922974,-4.865486145,-0.094058715,-0.022081178,1.029667974
33.348427,-5.690841675,-5.106887817,-5.033332825,-0.091495238,-0.025255006,1.031743169
33.349054,-5.988388062,-4.931411743,-5.063850403,-0.094058715,-0.027208131,1.029179692
33.349679,-6.110458374,-5.312881470,-5.170661926,-0.091495238,-0.027940553,1.030156255
33.350305,-6.270675659,-5.106887817,-5.216438293,-0.093814574,-0.032213014,1.027592778
33.350930,-6.324081421,-5.083999634,-5.101997375,-0.096011840,-0.037462037,1.027226567
33.351556,-6.301193237,-5.160293579,-5.040962219,-0.094058715,-0.036851685,1.029912114
33.352181,-6.224899292,-5.267105103,-5.071479797,-0.098331176,-0.040147584,1.027348638
33.352807,-5.973129272,-5.099258423,-5.163032532,-0.096622191,-0.042222779,1.029179692
33.353434,-6.018905640,-5.022964478,-5.163032532,-0.096622191,-0.046006959,1.029301763
33.354059,-6.179122925,-5.312881470,-5.033332825,-0.095645629,-0.048082154,1.030278325
33.354685,-5.873947144,-5.412063599,-5.254585266,-0.097842894,-0.047593873,1.030400395
33.355312,-5.896835327,-5.091629028,-5.079109192,-0.095279418,-0.052354615,1.032963872
33.355938,-5.393295288,-5.137405396,-5.056221008,-0.093814574,-0.049302857,1.031254888
33.356563,-5.347518921,-5.289993286,-5.239326477,-0.094913207,-0.053453248,1.032475591
33.357188,-5.027084351,-5.442581177,-5.109626770,-0.096744262,-0.053819459,1.034916997
33.357814,-4.973678589,-5.175552368,-5.002815247,-0.095889769,-0.054551881,1.035649419
33.358440,-4.805831909,-5.305252075,-5.201179504,-0.095767699,-0.058458131,1.036992192
33.359065,-4.508285522,-5.343399048,-5.277473450,-0.096988402,-0.052354615,1.038090825
33.360888,-3.928451538,-5.053482056,-4.926521301,-0.100650512,-0.053941529,1.039921880
33.361514,-3.859786987,-5.259475708,-5.140144348,-0.100162230,-0.056749146,1.038212895
33.362140,-3.669052124,-5.076370239,-4.949409485,-0.103336059,-0.054918092,1.039921880
33.362765,-3.463058472,-5.289993286,-5.079109192,-0.099429809,-0.052476685,1.041142583
33.363391,-3.371505737,-5.160293579,-5.101997375,-0.099063598,-0.052476685,1.036992192
33.364016,-3.600387573,-5.358657837,-4.857856750,-0.098331176,-0.050523560,1.037358403
33.364642,-3.623275757,-5.511245728,-4.995185852,-0.099796019,-0.053087037,1.035405278
33.365269,-3.447799683,-5.343399048,-4.873115540,-0.095767699,-0.050523560,1.032597661
33.365895,-3.669052124,-5.083999634,-4.865486145,-0.095157348,-0.048082154,1.036625981
33.366520,-3.676681519,-5.068740845,-5.048591614,-0.099063598,-0.043321412,1.038090825
33.367146,-3.554611206,-4.824600220,-4.896003723,-0.100162230,-0.045274537,1.035893559
33.367771,-3.684310913,-4.794082642,-4.880744934,-0.101627074,-0.045762818,1.037480474
33.368466,-3.501205444,-4.855117798,-4.827339172,-0.100528441,-0.044053834,1.035039067
