time,gyro x,gyro y,gyro z,accel x,accel y,accel z
16.059130,3.395767212,3.644027710,2.542655945,-0.218204230,-0.225084111,0.870854497
16.068926,5.531997681,-1.078567505,6.715934753,-0.214786261,-0.254258901,0.897343755
16.069551,5.417556763,-1.299819946,6.921928406,-0.203677863,-0.223253056,0.906621099
16.070176,5.165786743,-1.810989380,7.616203308,-0.200137824,-0.200670049,0.919072270
16.070801,5.036087036,-2.299270630,8.279960632,-0.222232550,-0.192491338,0.922734380
16.071426,4.860610962,-3.252944946,8.791130066,-0.260318488,-0.209214970,0.940434575
16.072052,5.211563110,-4.900894165,8.836906433,-0.278506964,-0.215440556,0.934208989
16.072679,5.661697388,-6.411514282,9.134452820,-0.296085089,-0.244615361,0.952641606
16.073306,7.515640259,-8.555374146,9.462516785,-0.299869269,-0.248033330,0.976567388
16.073931,9.247512817,-11.034927368,10.080497742,-0.290836066,-0.235582158,0.978520513
16.074556,9.659500122,-12.583694458,10.225456238,-0.249576300,-0.187486455,0.950322270
16.075183,8.957595825,-12.415847778,10.278862000,-0.231265754,-0.160753056,0.941166997
16.075809,8.293838501,-11.836013794,10.355155945,-0.216495246,-0.154649541,0.924443364
16.076436,8.042068481,-11.111221313,10.370414734,-0.207828254,-0.166978642,0.903447270
16.077061,7.157058716,-10.241470337,10.713737488,-0.185977668,-0.146104619,0.867192388
16.077686,5.676956177,-7.838211060,10.782402039,-0.181827277,-0.145250127,0.832646489
16.078313,5.463333130,-5.930862427,10.736625671,-0.215640754,-0.164659306,0.831547856
16.078940,5.890579224,-4.954299927,10.996025085,-0.238834113,-0.183580205,0.825444341
16.079567,6.905288696,-4.900894165,11.125724792,-0.277164191,-0.202134892,0.835576177
16.080193,8.484573364,-5.793533325,11.537712097,-0.310977668,-0.198350713,0.857426763
16.080818,10.025711060,-6.846389771,11.636894226,-0.338199347,-0.186021611,0.889042974
16.081443,11.467666626,-8.654556274,11.873405457,-0.350406379,-0.161119267,0.908940434
16.082068,11.482925415,-10.165176392,11.881034851,-0.324893683,-0.116807736,0.898320317
16.082695,10.491104126,-10.043106079,11.583488464,-0.295230597,-0.094224729,0.881596684
16.083321,9.491653442,-10.134658813,11.835258484,-0.296451300,-0.093858518,0.890874028
16.083946,9.606094360,-11.195144653,12.209098816,-0.314883918,-0.110215940,0.901616216
16.084571,10.529251099,-12.698135376,12.880485535,-0.330997199,-0.115342893,0.906254888
16.085197,10.384292603,-13.728103638,12.750785828,-0.315005988,-0.087266721,0.877202153
16.085822,8.980484009,-12.911758423,12.422721863,-0.297061652,-0.070176877,0.864873052
16.086449,8.026809692,-11.912307739,11.705558777,-0.288516730,-0.076036252,0.868291020
16.087075,7.927627563,-12.362442017,12.178581238,-0.295596808,-0.099107541,0.885869145
16.088859,11.574478149,-16.558609009,12.750785828,-0.349429816,-0.082261838,0.927373052
16.089484,10.468215942,-16.459426880,12.224357605,-0.309756964,-0.041612428,0.912724614
16.090109,9.316177368,-15.345535278,11.736076355,-0.272403449,-0.020738404,0.908085942
16.090735,7.431716919,-14.094314575,11.499565125,-0.222354621,0.001966675,0.882451177
16.091361,6.455154419,-12.713394165,11.842887878,-0.244693488,-0.022813600,0.900151372
16.091988,7.515640259,-13.224563599,12.529533386,-0.306705207,-0.059068482,0.945317388
16.092615,8.286209106,-14.742813110,12.582939148,-0.342960089,-0.071153440,0.945683599
16.093240,8.187026978,-15.147171021,12.109916687,-0.341617316,-0.058213990,0.941899419
16.093866,7.508010864,-15.208206177,11.446159363,-0.330386847,-0.050035279,0.954350591
16.094493,7.836074829,-15.940628052,11.194389343,-0.312076300,-0.042955201,0.975468755
16.095119,8.255691528,-17.275772095,11.453788757,-0.293399543,-0.042222779,0.986455083
16.095744,9.163589478,-18.176040649,11.606376648,-0.305240363,-0.034288209,0.988041997
16.096369,8.545608521,-19.144973755,11.873405457,-0.311343879,-0.014756958,0.987187505
16.097000,7.607192993,-18.671951294,11.263053894,-0.305728644,-0.011338989,0.991826177
16.097627,6.928176880,-18.908462524,10.820549011,-0.301578254,-0.023423951,1.004521489
16.098253,7.034988403,-19.511184692,10.820549011,-0.293155402,-0.039415162,1.024663091
16.098879,8.492202759,-21.174392700,11.194389343,-0.310001105,-0.064805783,1.056767583
16.113339,1.709671021,-17.092666626,5.556266785,-0.258487433,-0.040391725,0.974370122
16.114106,0.702590942,-16.756973267,5.632560730,-0.229556769,-0.055528443,0.949956059
16.114731,-0.067977905,-15.864334106,5.418937683,-0.229922980,-0.064317502,0.927861333
16.115357,-0.174789429,-15.383682251,5.502861023,-0.263980597,-0.089219846,0.947758794
16.115982,0.694961548,-16.184768677,5.357902527,-0.273013800,-0.120225705,0.964482427
16.116608,1.518936157,-16.764602661,5.312126160,-0.274600714,-0.116075315,0.978520513
16.117233,2.220840454,-17.619094849,5.159538269,-0.284244269,-0.116807736,1.000981450
16.117859,2.892227173,-18.435440063,4.961174011,-0.256534308,-0.087022580,1.006230474
16.118486,0.923843384,-17.397842407,4.343193054,-0.189029425,-0.059068482,0.952397466
16.119112,0.069351196,-15.208206177,4.083793640,-0.217960089,-0.095567502,0.982182622
16.119738,0.740737915,-15.971145630,4.655998230,-0.235660285,-0.116197385,1.015996099
16.120364,2.136917114,-16.917190552,5.220573425,-0.249820441,-0.139512822,1.019658208
16.120990,2.419204712,-17.092666626,4.648368835,-0.251285285,-0.149034306,0.996220708
16.121615,2.625198364,-16.871414185,4.182975769,-0.257388800,-0.140489385,1.003666997
16.122242,4.303665161,-17.336807251,3.961723328,-0.259341925,-0.187608525,1.032841802
16.122867,8.072586060,-20.205459595,4.694145203,-0.326236457,-0.247667119,1.112309575
16.123493,12.383193970,-24.569473267,5.602043152,-0.309268683,-0.195909306,1.114506841
16.124120,12.238235474,-25.385818481,4.869621277,-0.254459113,-0.111314572,1.096684575
16.124746,10.552139282,-23.982009888,3.740470886,-0.206729621,-0.027452271,1.104252934
16.125371,8.576126099,-22.921524048,3.786247253,-0.139468879,-0.027452271,1.119023442
16.126001,6.325454712,-20.831069946,4.366081238,-0.064639769,0.000623901,1.068608403
16.126628,2.945632935,-16.940078735,4.839103699,-0.125308722,-0.051255982,1.062260747
16.127253,3.304214478,-16.077957153,4.930656433,-0.211246222,-0.091905393,1.089848638
16.127879,2.938003540,-16.047439575,4.778068542,-0.230655402,-0.135972783,1.063481450
16.128505,3.472061157,-15.421829224,4.594963074,-0.260440558,-0.148912236,1.046757817
16.129132,3.960342407,-15.643081665,3.748100281,-0.234317511,-0.138170049,1.037480474
16.129758,4.128189087,-14.979324341,3.870170593,-0.190982550,-0.124864377,1.010625005
16.130383,4.311294556,-13.728103638,4.160087585,-0.192447394,-0.144395635,1.002690434
16.131010,5.905838013,-13.956985474,4.480522156,-0.249576300,-0.180894658,1.022832036
16.131635,7.408828735,-14.796218872,4.732292175,-0.249088019,-0.160508916,1.005375981
16.133451,5.638809204,-14.208755493,3.481071472,-0.189395636,-0.093858518,0.947026372
16.134076,5.425186157,-12.133560181,3.496330261,-0.220401496,-0.142564580,0.971196294
16.134702,7.523269653,-13.262710571,4.327934265,-0.263126105,-0.213121220,1.004887700
16.135328,10.742874146,-16.016921997,5.418937683,-0.284244269,-0.187120244,0.992436528
16.135954,10.353775024,-16.322097778,4.724662781,-0.275455207,-0.139634892,0.940800786
16.136579,9.484024048,-14.971694946,3.679435730,-0.243228644,-0.111436643,0.928471684
16.137205,8.515090942,-13.590774536,3.313224792,-0.193912238,-0.157457158,0.902104497
16.137830,8.927078247,-12.789688110,4.106681824,-0.203677863,-0.182237431,0.911137700
16.138456,11.223526001,-14.040908813,4.953544617,-0.258609504,-0.191880986,0.935917974
16.139081,12.757034302,-15.185317993,5.335014343,-0.291690558,-0.201280400,0.952031255
16.139708,13.298721313,-16.032180786,4.511039734,-0.286807746,-0.187120244,0.970097661
16.140334,13.848037720,-17.107925415,4.457633972,-0.284122199,-0.157457158,1.004033208
16.140961,13.107986450,-18.031082153,4.556816101,-0.233707160,-0.113878049,0.989750981
16.141587,13.046951294,-18.313369751,4.884880066,-0.225894660,-0.116319455,1.017094731
16.142214,13.344497681,-19.000015259,5.266349792,-0.230533332,-0.148057744,1.016850591
16.142840,13.519973755,-19.564590454,5.060356140,-0.231509894,-0.165269658,1.006840825
16.143467,13.237686157,-19.274673462,4.800956726,-0.233829230,-0.156236455,0.983769536
16.159160,10.559768677,-20.113906860,5.815666199,-0.205875129,-0.008409302,0.914677739
16.159899,8.164138794,-18.237075806,5.434196472,-0.226871222,-0.047471803,0.968144536
16.160525,6.653518677,-18.954238892,5.952995300,-0.234195441,-0.100694455,0.942021489
16.161150,7.446975708,-19.907913208,6.334465027,-0.294254035,-0.175035283,0.983769536
16.161775,9.392471313,-22.028884888,6.342094421,-0.320255011,-0.182481572,0.983159184
16.162401,10.590286255,-23.875198364,5.403678894,-0.304263800,-0.149034306,1.001835942
16.163026,10.315628052,-23.905715942,4.968803406,-0.147403449,0.068494998,0.934941411
16.163652,-16.234664917,-6.838760376,2.977531433,0.750057518,1.212538004,0.110112309
16.164278,-45.531539917,25.975265503,-0.608283997,0.439266473,0.337537974,0.397221684
16.164903,-45.821456909,29.316940308,4.068534851,-0.229678839,-0.330796987,0.552128911
16.165528,-35.186080933,17.254867554,10.698478699,-0.716861427,-0.700792134,0.606083989
16.166153,-21.178512573,3.285446167,8.531730652,-1.102603674,-0.610826313,0.566166997
16.166778,-14.220504761,-13.865432739,3.420036316,-1.062320471,-0.376207143,0.507451177
16.167403,-10.154037476,-25.668106079,1.085441589,-0.561954200,-0.221910283,0.453740239
16.168029,-8.689193726,-29.505691528,1.505058289,-0.201724738,-0.107652463,0.399663091
16.168656,-8.879928589,-29.635391235,3.839653015,-0.139224738,-0.098375119,0.413090825
16.169282,-10.253219604,-29.253921509,4.953544617,-0.260806769,-0.171251103,0.484135747
16.169909,-10.901718140,-31.344375610,4.869621277,-0.360904425,-0.236924931,0.552495122
16.170534,-10.276107788,-34.556350708,3.969352722,-0.360904425,-0.246446416,0.596074224
16.171160,-9.856491089,-37.455520630,3.481071472,-0.277164191,-0.238023564,0.619389653
16.171785,-8.216171265,-39.210281372,3.275077820,-0.187198371,-0.236192510,0.659916997
16.172410,-6.942062378,-39.393386841,3.313224792,-0.143130988,-0.219590947,0.713994145
16.173037,-6.438522339,-39.065322876,2.969902039,-0.146915168,-0.189683720,0.772832036
16.173662,-7.361679077,-39.500198364,3.305595398,-0.165591925,-0.175645635,0.829960942
16.174287,-8.651046753,-40.049514771,3.168266296,-0.177554816,-0.172471806,0.882939458
16.174912,-10.077743530,-40.209732056,2.977531433,-0.168277472,-0.150621220,0.930302739
16.175538,-11.611251831,-40.560684204,2.741020203,-0.151675910,-0.115709104,0.952031255
16.176165,-13.579635620,-40.507278442,2.618949890,-0.126651496,-0.099839963,0.956425786
16.176790,-15.532760620,-39.805374146,2.267997742,-0.133121222,-0.110704221,0.964116216
16.177417,-17.127304077,-39.416275024,1.970451355,-0.159732550,-0.131334111,0.969243169
16.179193,-19.034652710,-39.874038696,1.970451355,-0.170108527,-0.152086064,0.951787114
16.179819,-19.080429077,-39.736709595,1.657646179,-0.168033332,-0.136949345,0.951176763
16.180446,-19.316940308,-39.683303833,1.680534363,-0.185855597,-0.110338010,0.959965825
16.181072,-20.217208862,-39.431533813,1.314323425,-0.186465949,-0.093736447,0.963627934
16.181698,-21.338729858,-39.309463501,1.260917664,-0.207095832,-0.080552854,0.964970708
16.182325,-22.391586304,-39.561233521,1.207511902,-0.221378058,-0.073106565,0.968510747
16.182951,-23.879318237,-39.889297485,0.948112488,-0.226138800,-0.063218869,0.964848638
16.183578,-25.130538940,-40.270767212,0.536125183,-0.226749152,-0.075181760,0.958012700
16.184205,-26.061325073,-40.492019653,0.627677917,-0.234073371,-0.084947385,0.946049809
16.184830,-26.557235718,-40.682754517,0.391166687,-0.244449347,-0.088731565,0.943120122
16.185455,-26.747970581,-41.087112427,0.116508484,-0.259586066,-0.089952268,0.933720708
16.186080,-27.175216675,-41.621170044,-0.196296692,-0.266666144,-0.084337033,0.930424809
16.186705,-27.968673706,-42.147598267,-0.455696106,-0.279849738,-0.082750119,0.926884770
16.187331,-28.540878296,-42.780838013,-0.722724915,-0.287051886,-0.080186643,0.925664067
16.187958,-29.219894409,-43.314895630,-0.913459778,-0.294009894,-0.081651486,0.924443364
16.188584,-29.891281128,-44.070205688,-1.096565247,-0.299991339,-0.075059690,0.920537114
16.189211,-30.555038452,-44.787368774,-1.500923157,-0.307315558,-0.084581174,0.919438481
16.203531,-25.885848999,-65.195999146,-5.910713196,-0.245303839,-0.181138799,0.846196294
16.204266,-25.023727417,-66.119155884,-6.238777161,-0.235782355,-0.186998174,0.845097661
16.204891,-24.306564331,-66.729507446,-6.017524719,-0.222232550,-0.188340947,0.843388677
16.205517,-23.612289429,-67.355117798,-6.292182922,-0.212466925,-0.184678838,0.846196294
16.206143,-23.093490601,-68.057022095,-6.299812317,-0.205753058,-0.178819463,0.842656255
16.206769,-22.460250854,-68.522415161,-6.475288391,-0.201724738,-0.181016728,0.842167974
16.207395,-22.193222046,-68.972549438,-6.490547180,-0.197208136,-0.184678838,0.836186528
16.208020,-21.788864136,-69.621047974,-6.536323547,-0.194766730,-0.189317510,0.842045903
16.208646,-21.003036499,-70.254287720,-6.582099915,-0.185855597,-0.198350713,0.840336919
16.209273,-20.262985229,-70.574722290,-6.505805969,-0.178287238,-0.197007939,0.836918950
16.209899,-19.660263062,-70.727310181,-6.727058411,-0.173526496,-0.189561650,0.823735356
16.210525,-18.851547241,-71.169815063,-6.482917786,-0.179385871,-0.176988408,0.812504888
16.211150,-18.462448120,-71.902236938,-6.574470520,-0.188174933,-0.176255986,0.803471684
16.211776,-17.913131714,-72.482070923,-6.887275696,-0.183780402,-0.187974736,0.797856450
16.212401,-17.134933472,-73.245010376,-6.810981750,-0.165836066,-0.194200322,0.796025395
16.213028,-16.326217651,-73.634109497,-6.597358704,-0.162418097,-0.187974736,0.784428716
16.213654,-15.441207886,-73.832473755,-6.788093567,-0.159854621,-0.181382939,0.780400395
16.214281,-14.899520874,-74.274978638,-6.643135071,-0.170596808,-0.174669072,0.773564458
16.214906,-14.289169312,-74.992141724,-6.475288391,-0.170108527,-0.170396611,0.767949224
16.215533,-13.816146851,-75.571975708,-6.742317200,-0.162418097,-0.168809697,0.758183599
16.216158,-13.411788940,-76.342544556,-6.795722961,-0.161197394,-0.164293095,0.752812505
16.216784,-12.290267944,-76.868972778,-6.727058411,-0.151920050,-0.166124150,0.748662114
16.217410,-11.801986694,-77.464065552,-6.643135071,-0.151797980,-0.158189580,0.746464849
16.218035,-11.321334839,-77.990493774,-6.833869934,-0.156924933,-0.158311650,0.745732427
16.218660,-10.756759644,-78.631362915,-6.841499329,-0.152896613,-0.159532353,0.752324224
16.219285,-10.100631714,-79.241714478,-6.620246887,-0.142886847,-0.160508916,0.759892583
16.219910,-9.520797729,-79.684219360,-6.727058411,-0.138980597,-0.140855595,0.756474614
16.220535,-8.895187378,-79.997024536,-6.719429016,-0.146182746,-0.127672002,0.757207036
16.221160,-8.422164917,-80.645523071,-6.788093567,-0.149356574,-0.124131955,0.751591802
16.221786,-8.040695190,-81.278762817,-7.024604797,-0.144717902,-0.122667111,0.747929692
16.223578,-7.132797241,-83.437881470,-6.627876282,-0.158389777,-0.107896604,0.741337895
16.224203,-6.850509644,-84.223709106,-6.879646301,-0.146182746,-0.108384885,0.743046880
16.224829,-6.316452026,-84.422073364,-6.810981750,-0.152042121,-0.097276486,0.747685552
16.225454,-6.133346558,-85.078201294,-6.749946594,-0.165347785,-0.089830197,0.745244145
16.226081,-6.293563843,-85.947952271,-6.986457825,-0.166202277,-0.087999143,0.747685552
16.226708,-6.331710815,-86.626968384,-6.872016907,-0.160587043,-0.087999143,0.747807622
16.227335,-6.057052612,-87.183914185,-7.001716614,-0.160587043,-0.082994260,0.745366216
16.227960,-6.095199585,-87.840042114,-6.940681458,-0.157047004,-0.067247190,0.738896489
16.228585,-6.217269897,-88.511428833,-7.169563293,-0.168643683,-0.057725709,0.724125981
16.229212,-6.789474487,-89.381179810,-7.078010559,-0.186954230,-0.067003049,0.726445317
16.229839,-6.911544800,-90.472183228,-7.612068176,-0.168521613,-0.075059690,0.729497075
16.230465,-7.109909058,-90.693435669,-7.558662415,-0.156314582,-0.064073361,0.721440434
16.231091,-7.308273315,-91.822586060,-7.810432434,-0.170230597,-0.064805783,0.724736333
16.231717,-7.476119995,-92.410049438,-7.818061829,-0.168033332,-0.069322385,0.734746099
16.232344,-7.514266968,-93.066177368,-8.336860657,-0.157413214,-0.066880979,0.735844731
16.232970,-8.033065796,-93.760452271,-8.420783997,-0.159732550,-0.059190553,0.738041997
16.246945,-13.137130737,-85.329971313,-13.906318665,0.024959838,-0.290025502,1.121831059
16.247734,-7.788925171,-75.686416626,-12.784797668,0.074642457,-0.144395635,1.276372075
16.248359,-7.293014526,-71.848831177,-13.189155579,0.078914918,-0.003282349,1.396123052
16.248985,-10.794906616,-67.934951782,-13.318855286,0.131038934,0.155531123,1.538457036
16.249610,-19.194869995,-63.105545044,-13.082344055,0.186214715,0.236219600,1.655888677
16.250236,-28.540878296,-58.215103149,-12.571174622,0.190731317,0.174452022,1.717656255
16.250863,-36.483078003,-53.698501587,-12.426216125,0.215267450,0.092298709,1.746098638
16.251489,-42.968063354,-49.105606079,-12.113410950,0.260189325,0.010755737,1.717534184
16.252114,-48.384933472,-44.070205688,-11.228401184,0.272640496,-0.042466920,1.623906255
16.252740,-52.428512573,-40.141067505,-10.282356262,0.179256707,-0.158433720,1.493413091
16.253365,-54.389266968,-37.363967896,-9.939033508,0.121029176,-0.284532338,1.375371099
16.253990,-53.832321167,-35.098037720,-9.191352844,0.115047731,-0.342759877,1.327641606
16.254616,-52.939682007,-31.947097778,-8.626777649,0.123836793,-0.357774526,1.346562505
16.255241,-51.963119507,-28.727493286,-7.886726379,0.127498895,-0.329088002,1.361943364
16.255866,-51.673202515,-24.981460571,-7.261116028,0.076595582,-0.275865346,1.365483403
16.256491,-52.626876831,-22.646865845,-6.749946594,-0.010196412,-0.258043081,1.360966802
16.257117,-53.679733276,-21.204910278,-6.627876282,-0.023257935,-0.256944448,1.323613286
16.257742,-54.755477905,-19.015274048,-6.345588684,0.001034057,-0.275132924,1.260869145
16.258369,-54.267196655,-16.695938110,-6.025154114,-0.023257935,-0.319810659,1.184697270
16.259003,-52.199630737,-14.826736450,-5.941230774,-0.070010863,-0.371934682,1.110234380
16.259630,-48.087387085,-13.735733032,-6.696540833,-0.107486449,-0.335923940,1.059575200
16.260257,-44.783859253,-12.484512329,-7.093269348,-0.130069464,-0.294175893,1.036748052
16.260882,-41.411666870,-11.691055298,-7.825691223,-0.161319464,-0.277208120,0.993413091
16.261507,-38.161544800,-11.286697388,-8.794624329,-0.203311652,-0.284532338,0.950810552
16.262133,-34.255294800,-11.530838013,-9.603340149,-0.220767707,-0.287950307,0.913945317
16.262759,-30.661849976,-11.469802856,-10.488349915,-0.207828254,-0.288316518,0.883916020
16.263385,-26.412277222,-11.256179810,-11.319953918,-0.211124152,-0.285753042,0.864995122
16.264010,-22.704391479,-11.393508911,-12.021858215,-0.230045050,-0.276231557,0.854741216
16.264636,-19.561080933,-11.736831665,-12.624580383,-0.241153449,-0.266221792,0.852788091
16.265261,-16.768722534,-12.026748657,-13.288337708,-0.232730597,-0.262803823,0.869389653
16.267085,-9.780197144,-12.789688110,-14.097053528,-0.225650519,-0.292711049,0.919438481
16.267710,-7.094650269,-13.163528442,-14.356452942,-0.216373175,-0.310411245,0.936650395
16.268337,-4.699020386,-13.491592407,-14.135200500,-0.202213019,-0.324571401,0.955449224
16.268963,-2.280502319,-13.422927856,-13.936836243,-0.203433722,-0.346421987,0.973271489
16.269588,0.092239380,-13.636550903,-13.830024719,-0.207217902,-0.362535268,0.994633794
16.270214,2.609939575,-14.086685181,-13.189155579,-0.202945441,-0.373277456,1.024541020
16.270839,4.860610962,-14.208755493,-12.975532532,-0.187442511,-0.366441518,1.059819341
16.271466,6.195755005,-14.002761841,-12.494880676,-0.177066535,-0.357408315,1.099492192
16.272091,7.515640259,-13.895950317,-11.709053040,-0.172794074,-0.359361440,1.131108403
16.272717,8.331985474,-13.598403931,-11.136848450,-0.173526496,-0.356187612,1.157719731
16.273342,9.102554321,-13.117752075,-10.450202942,-0.171207160,-0.351671010,1.178105474
16.273967,9.659500122,-12.705764771,-9.458381653,-0.165836066,-0.359971792,1.192875981
16.274592,10.590286255,-12.080154419,-8.840400696,-0.162173957,-0.376573354,1.203374028
16.275218,11.963577271,-11.424026489,-8.107978821,-0.156070441,-0.383775502,1.213872075
16.275845,13.397903442,-10.592422485,-7.345039368,-0.151675910,-0.379014760,1.215581059
16.276472,15.099258423,-10.020217896,-6.963569641,-0.146304816,-0.368760854,1.215458989
16.277099,16.403884888,-9.005508423,-6.223518372,-0.148135871,-0.365220815,1.222416997
16.291017,57.312698364,6.886520386,-1.523811340,-0.104190551,-0.308213979,0.940556645
16.291747,59.189529419,7.145919800,-1.218635559,-0.103946410,-0.300279409,0.930424809
16.292372,60.646743774,7.245101929,-1.127082825,-0.104068480,-0.293687612,0.930058599
16.293000,62.020034790,7.351913452,-0.806648254,-0.105533324,-0.278428823,0.921757817
16.293625,63.446731567,7.260360718,-0.646430969,-0.104190551,-0.271592885,0.913823247
16.294251,64.560623169,7.435836792,-0.127632141,-0.106265746,-0.261094838,0.908696294
16.294876,65.567703247,7.481613159,-0.142890930,-0.107852660,-0.253404409,0.905278325
16.295503,66.658706665,7.283248901,0.047843933,-0.104312621,-0.243394658,0.901616216
16.296128,67.497940063,7.206954956,0.551383972,-0.104800902,-0.226915166,0.901982427
16.296754,68.299026489,7.237472534,0.688713074,-0.103213988,-0.230943486,0.912968755
16.297380,68.886489868,7.115402222,0.772636414,-0.098575316,-0.219590947,0.902714849
16.298005,69.771499634,7.008590698,1.283805847,-0.100650512,-0.222520635,0.904057622
16.298631,70.809097290,7.191696167,1.306694031,-0.099551879,-0.191514775,0.904667974
16.299256,71.121902466,6.726303101,1.474540710,-0.100894652,-0.178453252,0.918095708
16.299882,71.480484009,6.596603394,1.588981628,-0.103702269,-0.166490361,0.923466802
16.300508,71.404190063,6.413497925,1.642387390,-0.102847777,-0.156236455,0.931035161
16.301133,71.419448853,6.161727905,1.939933777,-0.101505004,-0.145738408,0.932011724
16.301760,71.594924927,5.871810913,2.084892273,-0.100528441,-0.145372197,0.936040044
16.302386,71.671218872,6.047286987,1.939933777,-0.104678832,-0.136216924,0.942509770
16.303013,71.663589478,5.597152710,2.000968933,-0.110660277,-0.129014775,0.948979497
16.303638,71.800918579,5.551376343,2.153556824,-0.113834105,-0.123277463,0.953007817
16.304263,71.602554321,5.291976929,2.191703796,-0.117374144,-0.115098752,0.957280278
16.304889,71.541519165,5.429306030,1.810234070,-0.122745238,-0.109727658,0.961552739
16.305516,71.312637329,5.078353882,1.939933777,-0.126163214,-0.113389768,0.966435552
16.306143,71.449966431,4.910507202,1.878898621,-0.132388800,-0.114610471,0.967900395
16.306768,71.205825806,4.788436890,1.703422546,-0.137881964,-0.116929807,0.969609380
16.307395,71.190567017,4.719772339,1.749198914,-0.142764777,-0.118272580,0.973149419
16.308021,71.282119751,4.391708374,1.672904968,-0.147403449,-0.117662229,0.976811528
16.308646,71.091384888,4.307785034,1.512687683,-0.150088996,-0.117784299,0.982792974
16.309271,71.121902466,4.429855347,1.337211609,-0.147525519,-0.117418088,0.987309575
16.311063,71.320266724,4.193344116,1.238029480,-0.177798957,-0.125108525,0.994755864
16.318305,71.068496704,2.965011597,1.260917664,-0.132755011,-0.155381963,1.036748052
16.318932,70.786209106,3.087081909,1.680534363,-0.126407355,-0.154527470,1.036137700
16.319557,70.954055786,2.766647339,1.650016785,-0.125186652,-0.157090947,1.039677739
16.320182,71.068496704,3.018417358,1.749198914,-0.119327269,-0.165025517,1.039311528
16.320807,71.465225220,3.132858276,1.726310730,-0.117984496,-0.169420049,1.039189458
16.321432,71.709365845,3.117599487,2.168815613,-0.110660277,-0.169908330,1.040410161
16.322058,71.907730103,3.331222534,2.000968933,-0.106021605,-0.169175908,1.041752934
16.322684,72.327346802,3.369369507,2.206962585,-0.102969848,-0.165880010,1.047368169
16.323310,72.701187134,3.712692261,2.123039246,-0.104312621,-0.160386845,1.051152349
16.323936,72.815628052,3.735580444,2.367179871,-0.104678832,-0.153795049,1.051274419
16.324563,72.731704712,3.903427124,2.489250183,-0.108096801,-0.147447392,1.053837895
16.325190,72.777481079,4.353561401,2.679985046,-0.106876098,-0.140123174,1.052861333
16.325815,72.525711060,4.033126831,2.741020203,-0.106509887,-0.134630010,1.054204106
16.326440,72.312088013,4.170455933,2.840202332,-0.103213988,-0.132310674,1.051396489
16.327065,71.816177368,4.551925659,2.863090515,-0.103702269,-0.128892705,1.053959966
16.327691,71.701736450,4.826583862,3.175895691,-0.107364379,-0.133897588,1.045659184
16.328318,71.343154907,5.124130249,3.168266296,-0.109561644,-0.140123174,1.041875005
16.342358,65.163345337,5.368270874,4.778068542,-0.155460089,-0.115098752,0.974614263
16.343143,64.972610474,5.681076050,4.694145203,-0.147281379,-0.119127072,0.971196294
16.343770,64.598770142,5.436935425,4.907768250,-0.158755988,-0.117296018,0.968754888
16.344396,64.087600708,5.246200562,4.938285828,-0.166690558,-0.107286252,0.967167974
16.345021,63.683242798,5.009689331,4.984062195,-0.168521613,-0.108384885,0.969975591
16.345646,63.408584595,4.712142944,4.961174011,-0.159610480,-0.102647580,0.972050786
16.346272,62.912673950,4.574813843,5.075614929,-0.154483527,-0.103502072,0.970585942
16.346898,62.485427856,4.735031128,5.190055847,-0.156924933,-0.098619260,0.967900395
16.347523,61.875076294,4.567184448,5.350273132,-0.165225714,-0.096177854,0.967900395
16.348149,61.073989868,4.277267456,5.464714050,-0.168399543,-0.096788205,0.969243169
16.348774,60.547561646,4.048385620,5.716484070,-0.168033332,-0.099473752,0.972661138
16.349399,59.899063110,4.185714722,5.640190125,-0.162296027,-0.094102658,0.971928716
16.350026,59.136123657,3.994979858,5.808036804,-0.164371222,-0.082994260,0.973637700
16.350653,58.037490845,3.804244995,6.044548035,-0.170718879,-0.074693479,0.974125981
16.351278,56.832046509,3.964462280,6.319206238,-0.159366339,-0.072374143,0.960332036
16.351904,56.168289185,3.537216187,6.303947449,-0.186710089,-0.076646604,0.951909184
16.352531,55.184097290,3.239669800,6.227653503,-0.181461066,-0.078111447,0.971806645
16.353157,53.986282349,3.262557983,6.639640808,-0.159732550,-0.084214963,0.959965825
16.353783,53.215713501,3.018417358,6.601493835,-0.173404425,-0.091905393,0.944340825
16.354408,52.468032837,3.041305542,6.700675964,-0.170963019,-0.077745236,0.957524419
16.355034,51.453323364,2.911605835,7.005851746,-0.165713996,-0.075181760,0.960942388
16.355660,50.820083618,2.987899780,7.204216003,-0.167911261,-0.071641721,0.956181645
16.356285,49.523086548,2.621688843,7.005851746,-0.174625129,-0.065782346,0.959477544
16.356910,48.348159790,2.553024292,7.242362976,-0.173648566,-0.067979611,0.963994145
16.357536,47.348709106,2.499618530,7.364433289,-0.174014777,-0.067125119,0.957890630
16.358161,46.349258423,2.354660034,7.356803894,-0.165591925,-0.066392697,0.956791997
16.358787,45.098037720,2.377548218,7.616203308,-0.168155402,-0.061998170,0.953862309
16.359412,43.808670044,2.148666382,7.654350281,-0.173038214,-0.059678834,0.953618169
16.360039,42.610855103,1.919784546,7.768791199,-0.174869269,-0.063585080,0.954594731
16.360664,41.474075317,1.950302124,7.822196960,-0.173526496,-0.063218869,0.951176763
16.362481,38.300247192,1.027145386,8.249443054,-0.169620246,-0.064683713,0.950688481
16.363107,36.576004028,1.172103882,8.180778503,-0.168277472,-0.052842896,0.949101567
16.363732,35.195083618,1.217880249,8.485954285,-0.166812629,-0.054551881,0.952275395
16.364359,33.928604126,1.141586304,8.577507019,-0.164371222,-0.053575318,0.957402349
16.364986,32.204360962,1.278915405,8.714836121,-0.159000129,-0.024522584,0.960698247
16.365613,29.915542603,1.309432983,8.600395203,-0.150333136,0.010999878,0.977543950
16.366239,26.772232056,1.584091187,9.203117371,-0.153629035,0.034193236,0.993291020
16.366866,23.918838501,1.439132690,9.256523132,-0.169498175,0.016004760,1.000737309
16.367492,21.752090454,0.988998413,9.584587097,-0.185977668,-0.018907350,0.988774419
16.368119,20.600051880,-0.063858032,9.462516785,-0.182681769,-0.060411256,0.965336919
16.368745,20.172805786,-0.246963501,9.241264343,-0.165591925,-0.070665158,0.933110356
16.369372,20.218582153,-0.048599243,9.218376160,-0.151553839,-0.071641721,0.921269536
16.370003,19.882888794,0.332870483,9.332817078,-0.149478644,-0.067491330,0.919926763
16.370683,19.943923950,0.515975952,9.332817078,-0.161563605,-0.051500123,0.931157231
16.371309,19.036026001,0.393905640,9.393852234,-0.168887824,-0.037584107,0.952153325
16.371934,17.906875610,0.317611694,9.271781921,-0.177310675,-0.018907350,0.966557622
16.372561,16.571731567,0.065841675,9.431999207,-0.177310675,-0.006944458,0.977666020
16.373187,14.839859009,-0.323257446,9.515922546,-0.170352668,0.002088745,0.984379888
16.388208,-2.677230835,-2.558670044,9.081047058,-0.155460089,-0.069444455,0.950078130
16.388937,-2.677230835,-2.787551880,8.630912781,-0.149478644,-0.071031369,0.948125005
16.389563,-2.723007202,-2.787551880,8.569877625,-0.149234504,-0.070421018,0.952885747
16.390188,-2.890853882,-2.749404907,8.463066101,-0.151553839,-0.064317502,0.954838872
16.390814,-3.234176636,-2.856216431,8.623283386,-0.135196418,-0.061876100,0.947148442
16.391441,-3.173141479,-2.909622192,8.592765808,-0.138736457,-0.064683713,0.942143559
16.392068,-3.600387573,-2.963027954,8.508842468,-0.134952277,-0.072496213,0.947392583
16.392693,-3.623275757,-2.932510376,8.630912781,-0.134341925,-0.077501096,0.948491216
16.393318,-3.379135132,-3.115615845,8.249443054,-0.129947394,-0.082383908,0.947392583
16.393943,-3.035812378,-3.153762817,8.279960632,-0.127628058,-0.083848752,0.948613286
16.394570,-2.997665405,-3.146133423,8.287590027,-0.130069464,-0.078477658,0.951298833
16.395197,-3.134994507,-2.978286743,8.043449402,-0.128726691,-0.076524533,0.946416020
16.395823,-2.913742065,-3.397903442,8.150260925,-0.127994269,-0.072007932,0.946538091
16.396448,-3.234176636,-3.535232544,7.913749695,-0.129825324,-0.072374143,0.950078130
16.397073,-3.226547241,-3.657302856,7.959526062,-0.124332152,-0.078843869,0.955083013
16.397699,-3.173141479,-3.909072876,7.951896667,-0.119083129,-0.081041135,0.946904302
16.398325,-3.058700562,-3.558120728,7.852714539,-0.116763793,-0.080430783,0.946049809
16.398951,-2.967147827,-3.565750122,7.768791199,-0.114078246,-0.082383908,0.941166997
16.399577,-2.623825073,-3.420791626,7.814567566,-0.115665160,-0.082261838,0.941533208
16.400204,-2.425460815,-3.481826782,7.814567566,-0.115909301,-0.084703244,0.943120122
16.400829,-2.509384155,-3.458938599,7.852714539,-0.119327269,-0.080919065,0.942631841
16.401454,-2.112655640,-3.603897095,7.921379089,-0.121768676,-0.082139768,0.940190434
16.402079,-2.166061401,-3.382644653,8.043449402,-0.120303832,-0.084092893,0.943486333
16.402706,-2.051620483,-3.535232544,7.791679382,-0.121036254,-0.084825315,0.944584966
16.403332,-2.097396851,-3.550491333,7.761161804,-0.120914184,-0.085557736,0.942998052
16.403957,-1.784591675,-3.428421021,7.806938171,-0.122867309,-0.085313596,0.947270513
16.404582,-1.761703491,-3.367385864,7.929008484,-0.120670043,-0.084947385,0.950078130
16.405207,-2.021102905,-3.428421021,7.883232117,-0.126895636,-0.086412229,0.952641606
16.405833,-2.013473511,-3.207168579,7.929008484,-0.124332152,-0.087388791,0.950322270
16.406458,-1.944808960,-3.138504028,8.081596375,-0.125674933,-0.092881955,0.954594731
16.408251,-2.105026245,-3.077468872,8.279960632,-0.133121222,-0.097642697,0.955937505
16.408877,-2.082138062,-2.940139771,8.524101257,-0.136050910,-0.098985471,0.953984380
16.409503,-2.188949585,-2.703628540,8.485954285,-0.130801886,-0.102281369,0.956425786
16.410129,-2.364425659,-2.619705200,8.623283386,-0.133487433,-0.104478635,0.953984380
16.410756,-2.402572632,-2.428970337,8.630912781,-0.133975714,-0.113389768,0.954838872
16.411381,-2.448348999,-2.604446411,8.775871277,-0.135928839,-0.118028440,0.953740239
16.412006,-2.555160522,-2.238235474,9.027641296,-0.138736457,-0.121446408,0.954960942
16.412631,-2.463607788,-2.055130005,9.248893738,-0.139957160,-0.126451299,0.951298833
16.413256,-2.242355347,-2.337417603,9.416740417,-0.138248175,-0.128526494,0.951787114
16.413881,-2.326278687,-2.131423950,9.493034363,-0.139713019,-0.129136845,0.950688481
16.414507,-2.517013550,-2.161941528,9.805839539,-0.141788214,-0.129503056,0.952397466
16.415132,-2.448348999,-2.184829712,9.950798035,-0.136905402,-0.133043095,0.958012700
16.415758,-2.570419312,-2.047500610,10.133903503,-0.134708136,-0.139268681,0.957524419
16.416383,-2.501754761,-1.955947876,10.423820496,-0.138248175,-0.146104619,0.957768559
16.417010,-2.509384155,-1.803359985,10.606925964,-0.139468879,-0.151109502,0.958500981
16.417636,-2.570419312,-2.139053345,10.812919617,-0.139957160,-0.152330205,0.956181645
16.418262,-2.578048706,-1.879653931,11.209648132,-0.135806769,-0.155504033,0.951909184
16.432215,-0.495223999,-1.833877563,16.504447937,-0.101749144,-0.179551885,0.959721684
16.432967,-0.312118530,-2.001724243,17.160575867,-0.100650512,-0.176622197,0.962041020
16.433592,-0.029830933,-1.864395142,17.358940125,-0.098575316,-0.175645635,0.968022466
16.434219,0.115127563,-1.658401489,17.648857117,-0.098697387,-0.174791142,0.965825200
16.434845,0.199050903,-1.727066040,17.801445007,-0.099918090,-0.173692510,0.970463872
16.435471,0.351638794,-1.826248169,18.060844421,-0.111270629,-0.174913213,0.978154302
16.436096,1.259536743,-2.505264282,18.549125671,-0.154849738,-0.185045049,1.012700200
16.436721,1.435012817,-3.420791626,18.976371765,-0.126773566,-0.143297002,0.984990239
16.437347,0.382156372,-2.741775513,18.678825378,-0.096988402,-0.149522588,0.974736333
16.437974,-0.159530640,-1.772842407,18.587272644,-0.083560668,-0.165635869,0.968632817
16.438599,0.282974243,-1.452407837,19.365470886,-0.078799926,-0.191026494,0.963872075
16.439226,2.068252563,-2.139053345,20.364921570,-0.169376105,-0.193101689,0.994267583
16.439851,2.823562622,-3.306350708,20.715873718,-0.139346808,-0.162095830,0.969487309
16.440478,2.083511353,-2.726516724,19.449394226,-0.135928839,-0.157213017,0.969609380
16.441103,1.785964966,-1.482925415,19.403617859,-0.110416137,-0.159776494,0.974980474
16.441730,1.892776489,-1.154861450,19.838493347,-0.076114379,-0.161851689,0.974003911
16.442355,2.564163208,-0.658950806,20.563285828,-0.078921996,-0.164415166,0.979375005
16.442981,3.052444458,-0.254592896,21.036308289,-0.117862426,-0.169175908,0.990239263
16.443608,3.113479614,-0.071487427,21.234672546,-0.154727668,-0.166856572,1.007451177
16.444235,3.624649048,-0.307998657,20.837944031,-0.171939582,-0.163682744,1.020146489
16.444860,4.181594849,-1.200637817,21.372001648,-0.181705207,-0.161485478,1.037236333
16.445486,4.959793091,-2.413711548,21.059196472,-0.176822394,-0.158311650,1.052250981
16.446111,5.684585571,-3.161392212,21.333854675,-0.157413214,-0.155626103,1.063237309
16.446737,6.043167114,-3.573379517,21.722953796,-0.157047004,-0.144395635,1.077397466
16.447362,5.394668579,-3.535232544,21.440666199,-0.118961059,-0.110826291,1.061162114
16.447987,3.891677856,-2.268753052,21.639030457,-0.100528441,-0.097886838,1.056645513
16.448614,3.143997192,-1.078567505,22.188346863,-0.091129027,-0.109849729,1.062016606
16.449240,2.793045044,-0.208816528,22.234123230,-0.108218871,-0.134630010,1.060185552
16.449865,2.899856567,0.622787476,22.569816589,-0.132755011,-0.156114385,1.073369145
16.450492,3.540725708,0.668563843,22.493522644,-0.152652472,-0.155015752,1.074345708
16.452324,3.830642700,1.439132690,22.432487488,-0.129459113,-0.132188603,1.085942388
16.452949,3.823013306,1.767196655,22.813957214,-0.118350707,-0.121690549,1.090825200
16.453574,3.510208130,2.690353394,22.974174500,-0.112247191,-0.120469846,1.099248052
16.454200,3.388137817,3.582992554,23.042839050,-0.135318488,-0.133653447,1.121464849
16.454826,4.158706665,3.048934937,23.264091492,-0.194644660,-0.178331181,1.165288091
16.455453,7.340164185,0.409164429,23.996513367,-0.273990363,-0.237169072,1.240605474
16.456080,11.048049927,-3.352127075,24.377983093,-0.309390754,-0.153062627,1.240849614
16.456705,10.193557739,-5.732498169,23.058097839,-0.226382941,-0.066514768,1.218754888
16.457330,6.394119263,-4.160842896,22.577445984,-0.067691527,-0.032213014,1.191655278
16.457956,3.090591431,-0.575027466,22.348564148,0.037166871,-0.014390747,1.173344731
16.458582,1.312942505,2.629318237,23.233573914,0.067684449,-0.078965940,1.150395513
16.459209,0.755996704,5.658187866,24.347465515,0.035335816,-0.160875127,1.115727544
16.459834,3.113479614,6.909408569,24.927299500,-0.204166144,-0.325425893,1.213872075
16.460460,13.252944946,-0.056228638,26.148002625,-0.475650519,-0.395616323,1.379887700
16.461086,20.600051880,-8.974990845,25.354545593,-0.507877052,-0.298814565,1.370610356
16.461711,21.767349243,-12.721023560,22.638481140,-0.336612433,-0.137681767,1.311406255
16.462338,17.716140747,-10.691604614,20.586174011,-0.072574340,-0.034044068,1.261723638
16.462963,13.649673462,-6.228408813,20.502250671,0.160946161,-0.002916138,1.208378911
16.476908,41.466445923,16.217269897,21.585624695,-0.136661261,-0.172715947,1.111821294
16.477672,41.626663208,16.079940796,21.776359558,-0.124454223,-0.182359502,1.111943364
16.478299,40.207595825,17.674484253,21.753471375,-0.016666139,-0.088487424,1.030156255
16.478925,37.483901978,20.733871460,21.700065613,-0.038028441,-0.111436643,1.064335942
16.479550,37.552566528,22.130050659,22.424858093,-0.093326293,-0.166368291,1.075810552
16.480176,38.696975708,21.534957886,22.806327820,-0.154605597,-0.223497197,1.085332036
16.480802,40.268630981,20.367660522,22.974174500,-0.205630988,-0.252061635,1.090825200
16.481429,41.832656860,18.818893433,22.966545105,-0.195987433,-0.270738393,1.100834966
16.482055,43.518753052,17.949142456,22.646110535,-0.168887824,-0.272203237,1.103276372
16.482681,44.953079224,17.003097534,22.760551453,-0.137271613,-0.250474721,1.088627934
16.483308,46.158523560,16.324081421,23.241203308,-0.097842894,-0.232774541,1.080327153
16.483933,46.974868774,16.568222046,23.515861511,-0.070499144,-0.220689580,1.076909184
16.484558,47.615737915,17.094650269,24.233024597,-0.069400512,-0.230211064,1.074101567
16.485183,48.058242798,17.827072144,24.591606140,-0.071963988,-0.251085073,1.073857427
16.485808,48.447341919,18.689193726,24.614494324,-0.105533324,-0.308702260,1.065312505
16.486435,52.506179810,15.431442261,26.735466003,-0.121402465,-0.372545034,1.009282231
16.487060,56.137771606,13.478317261,26.933830261,-0.126895636,-0.351182729,1.044438481
16.487685,58.228225708,15.561141968,25.659721375,-0.129092902,-0.281602651,1.071293950
16.488312,57.869644165,17.827072144,24.263542175,-0.063296996,-0.268541127,1.091923833
16.488938,58.029861450,20.199813843,24.355094910,0.030819213,-0.321763784,1.240361333
16.489563,64.339370728,23.671188354,24.133842468,0.150203973,-0.207017705,1.387089849
16.490189,62.828750610,23.259201050,25.377433777,-0.017032349,-0.138292119,1.372441411
16.490816,62.454910278,18.925704956,29.939811707,-0.269229621,-0.174791142,1.655156255
16.491443,62.340469360,11.563339233,30.267875671,-0.246158332,0.057508666,1.703984380
16.492068,55.138320923,10.304489136,27.910392761,-0.153629035,0.159925655,1.664067388
16.492693,44.228286743,16.377487183,25.407951355,0.102352418,0.203016475,1.606083989
16.493319,32.082290649,24.029769897,23.317497253,0.318905145,0.196058467,1.501835942
16.493945,24.491043091,33.200302124,24.194877625,0.658138573,-0.116319455,1.391362309
16.494571,26.383132935,44.621505737,25.278251648,0.496517450,-0.270616323,1.240849614
16.495198,29.633255005,49.939193726,29.726188660,-0.028384889,-0.238755986,1.124760747
16.497030,44.678421021,36.664047241,24.469535828,-0.345767707,-0.121934690,1.097416997
16.497655,47.531814575,34.771957397,21.402519226,-0.043277465,-0.139024541,1.111943364
16.498280,49.843521118,37.724533081,22.104423523,0.169369012,-0.166246220,1.118901372
16.498907,51.186294556,42.317428589,23.569267273,0.247860223,-0.144395635,1.106694341
16.499534,50.499649048,47.101058960,24.469535828,0.141536981,-0.075425901,1.095097661
16.500160,47.928543091,51.129379272,25.186698914,-0.016544068,0.005506714,1.090947270
16.500785,45.326919556,53.326644897,24.233024597,-0.119693480,0.043592650,1.079838872
16.501411,43.427200317,53.967514038,22.936027527,-0.199771613,0.040785033,1.082646489
16.502036,42.908401489,52.487411499,22.592704773,-0.228824347,0.011854370,1.097050786
16.502661,43.648452759,48.733749390,22.714775085,-0.235538214,-0.043199342,1.110356450
16.503288,45.304031372,45.086898804,22.905509949,-0.221378058,-0.104112424,1.111455083
16.503915,47.226638794,43.141403198,22.882621765,-0.184756964,-0.136705205,1.094121099
16.504540,47.966690063,42.462387085,22.173088074,-0.141666144,-0.126817510,1.065922856
16.505165,47.951431274,42.996444702,21.577995300,-0.091983519,-0.094590940,1.023930669
16.505791,47.371597290,44.659652710,21.463554382,-0.050967894,-0.067735471,0.978032231
16.506417,47.211380005,46.536483765,21.303337097,-0.037540160,-0.070909299,0.932011724
16.507044,47.608108521,48.367538452,21.486442566,-0.068301879,-0.093858518,0.906743169
16.521006,31.929702759,53.677597046,16.855400085,-0.111880980,-0.042222779,0.961430669
16.521778,32.250137329,54.120101929,16.634147644,-0.109805785,-0.045152467,0.956181645
16.522405,33.501358032,54.524459839,16.351860046,-0.101993285,-0.043687623,0.955693364
16.523031,33.798904419,55.134811401,16.031425476,-0.095523559,-0.036607545,0.963261724
16.523657,34.073562622,55.645980835,15.802543640,-0.086612426,-0.032701295,0.970097661
16.524284,34.096450806,56.477584839,15.665214539,-0.083316527,-0.031968873,0.987309575
16.524909,34.058303833,57.217636108,15.390556335,-0.085147582,-0.028672975,1.004155278
16.525535,33.989639282,57.927169800,15.062492371,-0.093692504,-0.031236451,1.016362309
16.526162,33.844680786,58.522262573,15.123527527,-0.104068480,-0.030992310,1.021489263
16.526788,33.714981079,58.644332886,14.955680847,-0.118961059,-0.025621217,1.025151372
16.527414,33.097000122,58.751144409,14.681022644,-0.129581183,-0.024034303,1.027470708
16.528039,33.104629517,58.613815308,14.581840515,-0.140811652,-0.025499146,1.024296880
16.528666,32.715530396,58.499374390,14.314811707,-0.137759894,-0.030504029,1.019047856
16.529292,32.448501587,58.255233765,14.383476257,-0.131412238,-0.032701295,1.013798833
16.529919,32.334060669,58.301010132,13.971488953,-0.127750129,-0.037828248,1.009404302
16.530545,32.280654907,58.949508667,13.826530457,-0.124088012,-0.043321412,1.003422856
16.531171,32.211990356,59.079208374,13.559501648,-0.122989379,-0.046983521,0.989750981
16.531797,32.044143677,59.231796265,13.521354675,-0.126773566,-0.052110475,0.977788091
16.532423,32.150955200,59.781112671,13.361137390,-0.136905402,-0.053453248,0.968632817
16.533050,32.395095825,60.055770874,13.033073425,-0.148624152,-0.052598756,0.951909184
16.533675,32.669754028,59.956588745,12.933891296,-0.151065558,-0.048814576,0.944707036
16.534301,32.929153442,60.261764526,12.567680359,-0.161319464,-0.047838014,0.930180669
16.534927,33.280105591,60.231246948,12.247245789,-0.158389777,-0.045152467,0.918828130
16.535554,33.577651978,60.254135132,12.041252136,-0.161807746,-0.043687623,0.913823247
16.536179,33.737869263,60.360946655,11.949699402,-0.162662238,-0.043931764,0.907597661
16.536804,33.936233521,60.551681519,11.804740906,-0.167667121,-0.042955201,0.903691411
16.537430,34.249038696,60.658493042,11.697929382,-0.169864386,-0.042344850,0.897954106
16.538056,34.226150513,60.620346069,11.484306335,-0.175601691,-0.040391725,0.888920903
16.538681,34.310073853,60.727157593,11.308830261,-0.187808722,-0.036485475,0.884282231
16.539308,34.371109009,60.704269409,11.202018738,-0.193668097,-0.037217896,0.873662114
16.541119,34.584732056,59.666671753,10.706108093,-0.210757941,-0.036363404,0.851933599
16.541744,34.584732056,59.071578979,10.774772644,-0.210269660,-0.034410279,0.844487309
16.542371,34.523696899,58.980026245,10.500114441,-0.211856574,-0.035020631,0.834965825
16.543002,33.989639282,58.522262573,10.202568054,-0.210513800,-0.031724732,0.830815434
16.543628,34.180374146,58.445968628,10.309379578,-0.215518683,-0.035630982,0.828618169
16.544253,33.814163208,57.873764038,10.164421082,-0.215762824,-0.036119264,0.821416020
16.544878,33.859939575,57.637252808,10.111015320,-0.218692511,-0.039048951,0.817875981
16.545504,33.547134399,57.629623413,10.111015320,-0.222842902,-0.039415162,0.815068364
16.546130,33.440322876,57.156600952,9.966056824,-0.225162238,-0.040513795,0.812993169
16.546755,33.104629517,56.920089722,10.034721375,-0.227603644,-0.040269654,0.806401372
16.547381,32.883377075,56.263961792,10.034721375,-0.229068488,-0.042100709,0.804936528
16.548007,32.608718872,55.958786011,9.805839539,-0.231754035,-0.041734498,0.801152349
16.548633,32.227249146,55.554428101,9.958427429,-0.232974738,-0.043931764,0.801152349
16.549258,32.189102173,55.142440796,9.798210144,-0.232608527,-0.045640748,0.799809575
16.549883,31.738967896,54.844894409,9.607475281,-0.230899543,-0.049302857,0.800786138
16.550508,31.273574829,54.638900757,9.935539246,-0.229190558,-0.048082154,0.803227544
16.551134,30.716629028,54.234542847,9.996574402,-0.231387824,-0.045396607,0.799565434
16.571759,-9.963302612,46.185531616,16.817253113,-0.268375129,-0.086046018,0.830693364
16.572524,-11.817245483,45.727767944,17.061393738,-0.265933722,-0.090074338,0.828496099
16.573150,-13.411788940,45.651473999,17.625968933,-0.266055793,-0.099229611,0.826298833
16.573775,-14.884262085,45.697250366,17.709892273,-0.266544074,-0.107164182,0.828496099
16.574400,-16.265182495,45.590438843,18.228691101,-0.265811652,-0.114366330,0.825078130
16.575027,-17.401962280,45.125045776,18.755119324,-0.263980597,-0.119493283,0.826298833
16.575652,-18.409042358,45.102157593,18.808525085,-0.264346808,-0.126817510,0.823491216
16.576278,-19.980697632,44.865646362,19.472282410,-0.267154425,-0.133409306,0.822636724
16.576904,-20.667343140,44.659652710,19.777458191,-0.268863410,-0.140855595,0.825932622
16.577530,-21.849899292,44.232406616,20.105522156,-0.269351691,-0.144883916,0.825566411
16.578155,-22.589950562,43.988265991,20.403068542,-0.268741339,-0.152940556,0.820561528
16.578780,-23.207931519,43.782272339,20.807426453,-0.271060675,-0.162706181,0.822026372
16.579407,-23.940353394,43.499984741,21.120231628,-0.268130988,-0.168077275,0.825444341
16.580034,-24.451522827,43.278732300,21.608512878,-0.263370246,-0.175523564,0.827153325
16.580660,-24.794845581,42.782821655,21.867912292,-0.266788214,-0.182847783,0.830571294
16.581285,-25.107650757,42.553939819,22.264640808,-0.264102668,-0.191148564,0.832158208
16.581912,-25.130538940,42.233505249,22.607963562,-0.265323371,-0.195176885,0.832890630
16.582539,-25.290756226,42.119064331,23.004692078,-0.265811652,-0.204820439,0.837529302
16.583165,-25.389938354,41.791000366,23.325126648,-0.265811652,-0.206041142,0.838383794
16.583792,-25.283126831,41.302719116,23.637931824,-0.265933722,-0.212144658,0.842167974
16.584417,-24.802474976,41.188278198,23.904960632,-0.263492316,-0.216905400,0.846928716
16.585042,-24.657516479,40.883102417,24.370353699,-0.260440558,-0.224351689,0.851689458
16.585667,-24.054794312,40.516891479,24.576347351,-0.256656379,-0.226671025,0.854130864
16.586292,-23.566513062,40.127792358,24.843376160,-0.256534308,-0.230088994,0.862065434
16.586917,-22.979049683,39.914169312,25.354545593,-0.255069464,-0.234117314,0.862187505
16.587542,-22.277145386,39.753952026,25.499504089,-0.250797004,-0.236680791,0.867314458
16.588168,-21.277694702,39.502182007,25.926750183,-0.249698371,-0.238878056,0.875981450
16.588795,-20.522384644,39.349594116,26.186149597,-0.248965949,-0.236802861,0.882084966
16.589420,-19.858627319,39.036788940,26.575248718,-0.249698371,-0.238267705,0.885136724
16.590046,-19.080429077,38.991012573,26.804130554,-0.247134894,-0.231797978,0.887700200
16.591818,-16.082077026,38.373031616,27.925651550,-0.240665168,-0.222154424,0.901860356
16.592444,-15.235214233,38.350143433,28.177421570,-0.237613410,-0.218858525,0.906987309
16.593070,-14.457015991,38.220443726,28.444450378,-0.237125129,-0.218004033,0.911259770
16.593697,-13.488082886,38.029708862,28.787773132,-0.231021613,-0.215928838,0.918706059
16.594323,-12.610702515,38.174667358,29.123466492,-0.220035285,-0.225084111,0.924687505
16.594949,-11.229782104,38.075485229,29.382865906,-0.219424933,-0.227525517,0.930302739
16.595575,-10.588912964,38.167037964,29.985588074,-0.225406379,-0.217027470,0.934208989
16.596201,-9.757308960,38.029708862,30.122917175,-0.228213996,-0.198228642,0.930668950
16.596826,-9.085922241,37.846603394,30.519645691,-0.231021613,-0.181505010,0.929448247
16.597451,-8.353500366,37.991561890,30.962150574,-0.232242316,-0.166490361,0.929570317
16.598076,-7.888107300,37.724533081,31.053703308,-0.234927863,-0.166246220,0.928105474
16.598701,-7.354049683,37.701644897,31.206291199,-0.231265754,-0.175035283,0.931889653
16.599327,-6.507186890,37.510910034,31.618278503,-0.226260871,-0.182847783,0.941777349
16.599954,-6.026535034,37.678756714,31.786125183,-0.224673957,-0.186754033,0.948125005
16.600579,-5.111007690,37.755050659,32.030265808,-0.226138800,-0.188096806,0.955571294
16.601204,-4.348068237,37.785568237,32.457511902,-0.226138800,-0.186265752,0.960698247
16.601831,-3.714828491,37.625350952,32.686393738,-0.228213996,-0.176622197,0.957280278
16.615868,20.363540649,35.985031128,36.203544617,-0.252505988,-0.107286252,0.999882817
16.616637,21.385879517,36.221542358,36.165397644,-0.258975714,-0.105577268,1.003789067
16.617263,22.431106567,35.985031128,36.249320984,-0.256900519,-0.100328244,1.007695317
16.617888,23.331375122,36.122360229,36.432426453,-0.257999152,-0.099839963,1.012944341
16.618513,24.552078247,36.221542358,36.287467957,-0.262027472,-0.095445432,1.016484380
16.619139,25.429458618,36.091842651,36.424797058,-0.262393683,-0.093736447,1.019780278
16.619765,26.489944458,36.168136597,36.546867371,-0.261172980,-0.089097776,1.023564458
16.620391,27.382583618,36.229171753,36.516349792,-0.261172980,-0.088243283,1.027714849
16.621017,28.427810669,36.709823608,36.401908875,-0.259463996,-0.085801877,1.032475591
16.621642,29.350967407,36.740341187,36.546867371,-0.261539191,-0.087510861,1.033940434
16.622269,29.961318970,36.854782104,36.585014343,-0.261783332,-0.087999143,1.036015630
16.622894,30.876846313,37.037887573,36.607902527,-0.262027472,-0.091783322,1.037236333
16.623519,31.975479126,36.992111206,36.676567078,-0.261661261,-0.088243283,1.040898442
16.624146,32.753677368,37.289657593,36.646049500,-0.255313605,-0.089341916,1.039067388
16.624771,33.730239868,37.274398804,36.508720398,-0.256046027,-0.088609494,1.040043950
16.625396,34.577102661,37.686386108,36.737602234,-0.251773566,-0.089463986,1.037602544
16.626021,35.202713013,37.732162476,36.707084656,-0.249820441,-0.087877072,1.036992192
16.626647,36.064834595,37.747421265,36.882560730,-0.246036261,-0.085801877,1.034794927
16.627272,37.018508911,38.090744019,36.897819519,-0.244449347,-0.086046018,1.033818364
16.627898,38.056106567,38.296737671,36.752861023,-0.239322394,-0.088731565,1.033818364
16.628523,38.735122681,38.739242554,37.096183777,-0.234927863,-0.086900510,1.029423833
16.629148,39.612503052,38.617172241,37.012260437,-0.230655402,-0.090806760,1.027104497
16.629774,40.238113403,38.868942261,37.286918640,-0.230411261,-0.087022580,1.024418950
16.630401,41.092605591,39.395370483,37.279289246,-0.225772589,-0.090928830,1.019658208
16.631026,41.832656860,39.204635620,37.485282898,-0.218326300,-0.085313596,1.013310552
16.631652,42.557449341,39.319076538,37.500541687,-0.215396613,-0.085923947,1.012333989
16.632277,43.282241821,39.906539917,37.698905945,-0.208804816,-0.086412229,1.009892583
16.632902,43.808670044,39.784469604,37.851493835,-0.208438605,-0.084459104,1.001591802
16.633528,44.350357056,40.028610229,37.813346863,-0.204288214,-0.083604611,1.000126958
16.634154,45.098037720,40.425338745,38.187187195,-0.205630988,-0.078965940,0.997075200
16.635954,46.471328735,41.142501831,38.416069031,-0.195010871,-0.077012815,0.986333013
16.636581,46.875686646,41.264572144,38.744132996,-0.195377082,-0.076036252,0.982548833
16.637206,47.157974243,41.409530640,38.835685730,-0.184512824,-0.081407346,0.980473638
16.637832,47.737808228,41.424789429,39.003532410,-0.165469855,-0.102769651,0.984624028
16.638457,48.760147095,42.271652222,39.385002136,-0.143985480,-0.135362431,0.992558599
16.639084,49.912185669,42.523422241,39.674919128,-0.143375129,-0.152330205,0.996464849
16.639711,50.301284790,42.737045288,40.224235535,-0.155582160,-0.139024541,0.996342778
16.640337,50.255508423,42.691268921,40.811698914,-0.172672004,-0.100328244,0.983769536
16.640962,49.965591431,42.958297729,41.155021667,-0.187564582,-0.048082154,0.962651372
16.641588,49.477310181,43.438949585,40.987174988,-0.196841925,-0.007676880,0.945073247
16.642214,49.004287720,43.782272339,41.185539246,-0.196841925,0.012342651,0.932500005
16.642840,48.348159790,43.774642944,41.574638367,-0.196719855,0.015516479,0.929570317
16.643465,47.737808228,44.156112671,41.681449890,-0.194644660,0.002943237,0.933964849
16.644092,46.883316040,45.056381226,41.978996277,-0.207095832,-0.017686646,0.944462895
16.644718,46.364517212,45.430221558,42.337577820,-0.211246222,-0.036973756,0.959111333
16.645343,45.296401978,45.826950073,42.452018738,-0.217960089,-0.040269654,0.972905278
16.645969,44.579238892,46.010055542,43.069999695,-0.226749152,-0.029405396,0.978032231
16.659894,36.522598267,46.490707397,50.607841492,-0.262881964,-0.043199342,0.940068364
16.660643,36.705703735,46.734848022,51.241081238,-0.269717902,-0.047593873,0.948979497
16.661268,36.736221313,46.887435913,51.187675476,-0.273868293,-0.042466920,0.957646489
16.661895,37.056655884,46.490707397,51.881950378,-0.273624152,-0.048448365,0.962041020
16.662520,37.140579224,46.765365601,51.950614929,-0.269962043,-0.046251100,0.970708013
16.663145,37.224502563,46.544113159,52.622001648,-0.264102668,-0.043565553,0.977666020
16.663770,37.125320435,46.841659546,52.988212585,-0.268863410,-0.042222779,0.987431645
16.664397,37.491531372,47.032394409,53.194206238,-0.263614386,-0.037706178,0.988896489
16.665023,37.422866821,46.994247437,53.728263855,-0.265201300,-0.035386842,0.993901372
16.665648,37.491531372,47.200241089,54.094474792,-0.263614386,-0.036973756,0.999150395
16.666274,37.399978638,47.520675659,54.407279968,-0.268741339,-0.038560670,1.003056645
16.666900,37.354202271,47.482528687,54.895561218,-0.268863410,-0.040391725,1.006230474
16.667526,37.636489868,47.612228394,55.177848816,-0.275455207,-0.042100709,1.006474614
16.668152,37.544937134,47.612228394,55.452507019,-0.277652472,-0.043199342,1.009404302
16.668778,37.857742310,47.482528687,55.864494324,-0.275211066,-0.047349732,1.012822270
16.669404,38.101882935,47.467269897,56.223075867,-0.272403449,-0.052232545,1.015385747
16.670031,38.628311157,47.482528687,56.596916199,-0.272647589,-0.055894654,1.016118169
16.670657,39.108963013,47.688522339,56.787651062,-0.266788214,-0.062486451,1.018071294
16.671282,39.528579712,47.741928101,57.169120789,-0.268863410,-0.067491330,1.020512700
16.671907,40.550918579,47.925033569,57.344596863,-0.265689582,-0.072130002,1.020512700
16.672532,41.443557739,48.008956909,58.023612976,-0.268253058,-0.076158322,1.021977544
16.673157,42.214126587,48.108139038,57.825248718,-0.272891730,-0.083482541,1.026738286
16.673783,43.488235474,48.039474487,58.458488464,-0.274966925,-0.087144651,1.027348638
16.674408,44.655532837,47.940292358,58.565299988,-0.279117316,-0.086900510,1.027714849
16.675035,46.044082642,47.856369019,58.710258484,-0.277408332,-0.091050901,1.029179692
16.675661,47.440261841,47.810592651,59.007804871,-0.276675910,-0.094224729,1.027348638
16.676287,49.256057739,47.780075073,59.160392761,-0.276431769,-0.099839963,1.030522466
16.676949,50.713272095,47.635116577,59.412162781,-0.276431769,-0.101060666,1.028813481
16.677574,52.536697388,47.612228394,59.786003113,-0.280215949,-0.099595822,1.028569341
16.678199,54.337234497,47.658004761,59.801261902,-0.280582160,-0.099595822,1.028447270
16.680059,60.288162231,47.551193237,60.152214050,-0.293155402,-0.101060666,1.029545903
16.680684,62.142105103,47.505416870,60.487907410,-0.298038214,-0.089463986,1.031743169
16.681309,64.141006470,47.574081421,60.327690125,-0.298282355,-0.078721799,1.035039067
16.681934,65.827102661,47.551193237,60.739677429,-0.298038214,-0.074937619,1.031499028
16.682560,67.360610962,47.513046265,60.838859558,-0.296085089,-0.069688596,1.036625981
16.683185,69.382400513,47.375717163,60.732048035,-0.300967902,-0.068834104,1.038334966
16.683810,71.076126099,47.764816284,61.136405945,-0.305606574,-0.068834104,1.034672856
16.684437,73.212356567,47.352828979,61.105888367,-0.312808722,-0.065416135,1.032109380
16.685062,75.173110962,47.345199585,61.304252625,-0.318057746,-0.056749146,1.033085942
16.685687,77.057571411,47.284164429,61.250846863,-0.318790168,-0.052110475,1.028447270
16.686312,78.507156372,47.413864136,61.510246277,-0.319644660,-0.046006959,1.029423833
16.686937,80.261917114,47.085800171,61.121147156,-0.323184699,-0.037584107,1.025029302
16.687563,82.138748169,47.101058960,61.472099304,-0.320743293,-0.035020631,1.024541020
16.688188,83.824844360,47.108688354,61.609428406,-0.323428839,-0.028306764,1.018193364
16.688813,85.320205688,46.994247437,61.716239929,-0.322940558,-0.023423951,1.015874028
16.689439,86.685867310,46.834030151,61.800163269,-0.330264777,-0.015367310,1.013066411
16.690065,88.265151978,46.948471069,61.884086609,-0.334415168,-0.012925903,1.010258794
16.704087,107.186050415,44.186630249,63.669364929,-0.338565558,0.050916869,0.927983403
16.704861,107.537002563,43.866195679,63.554924011,-0.328677863,0.054212768,0.919316411
16.705486,107.529373169,43.850936890,63.997428894,-0.325504035,0.061659057,0.917241216
16.706112,107.613296509,43.690719604,63.844841003,-0.324771613,0.061659057,0.914311528
16.706738,107.422561646,43.782272339,63.997428894,-0.320865363,0.066419803,0.912114263
16.707365,107.361526489,43.400802612,64.264457703,-0.316104621,0.068372928,0.911015630
16.707991,106.949539185,43.530502319,64.096611023,-0.313052863,0.074842654,0.906743169
16.708618,106.415481567,43.637313843,64.249198914,-0.307803839,0.078138553,0.905034184
16.709244,106.163711548,43.370285034,64.546745300,-0.303165168,0.083997928,0.898930669
16.709870,105.339736938,43.171920776,64.470451355,-0.301212043,0.084852420,0.899541020
16.710497,104.904861450,43.126144409,64.775627136,-0.296817511,0.089491092,0.895024419
16.711122,104.057998657,43.026962280,64.821403503,-0.290591925,0.092909060,0.890751958
16.711748,103.104324341,42.721786499,64.813774109,-0.288760871,0.098524295,0.885869145
16.712374,102.181167603,42.950668335,65.088432312,-0.285953254,0.101576053,0.881230474
16.713002,101.074905396,42.798080444,65.012138367,-0.279727668,0.103895389,0.877934575
16.713627,99.961013794,42.721786499,65.225761414,-0.278873175,0.108045779,0.874028325
16.714254,98.641128540,42.569198608,65.477531433,-0.271915168,0.111341678,0.874760747
16.714879,97.161026001,42.561569214,65.370719910,-0.266910285,0.119398318,0.868413091
16.715504,95.925064087,42.393722534,65.614860535,-0.264713019,0.118299685,0.866215825
16.716131,94.040603638,42.355575562,65.965812683,-0.263858527,0.122328006,0.861455083
16.716757,92.552871704,42.332687378,66.141288757,-0.261050910,0.125868037,0.855595708
16.717382,91.149063110,42.378463745,66.057365417,-0.260440558,0.128553584,0.853398442
16.718008,89.234085083,42.103805542,66.339653015,-0.254459113,0.135633662,0.848759770
16.718633,87.364883423,42.050399780,66.423576355,-0.254703254,0.137708858,0.845219731
16.719260,85.640640259,42.035140991,66.415946960,-0.257388800,0.136854365,0.835942388
16.719885,83.374710083,41.745223999,66.873710632,-0.252872199,0.143202022,0.835820317
16.720510,81.734390259,41.867294312,66.759269714,-0.253970832,0.145765498,0.831059575
16.721136,79.415054321,41.859664917,66.744010925,-0.253726691,0.146131709,0.825322270
16.721762,77.309341431,41.653671265,67.003410339,-0.253116339,0.148451045,0.823369145
16.722387,75.241775513,41.455307007,67.117851257,-0.259097785,0.152845576,0.817631841
16.724152,71.022720337,41.119613647,67.476432800,-0.260684699,0.157972530,0.808110356
16.724778,68.825454712,40.967025757,67.430656433,-0.266544074,0.163343623,0.800053716
16.725404,66.399307251,41.089096069,67.438285828,-0.265811652,0.165540889,0.797490239
16.726029,64.537734985,40.883102417,67.720573425,-0.270206183,0.168958858,0.791997075
16.726654,62.241287231,40.593185425,67.590873718,-0.270938605,0.171522334,0.789433599
16.727280,60.082168579,40.516891479,67.781608582,-0.273257941,0.173719600,0.791630864
16.727906,57.724685669,40.211715698,67.888420105,-0.275577277,0.173475459,0.787236333
16.728533,55.756301880,40.043869019,67.804496765,-0.283023566,0.176649287,0.783208013
16.729160,53.337783813,39.723434448,67.796867371,-0.286197394,0.181043819,0.778691411
16.729786,51.277847290,39.631881714,67.857902527,-0.289371222,0.187025264,0.777958989
16.730413,49.111099243,39.265670776,67.865531921,-0.293643683,0.189222530,0.775517583
16.731039,46.791763306,39.067306519,67.995231628,-0.302310675,0.196424678,0.774785161
16.731664,42.381973267,38.540878296,68.002861023,-0.311099738,0.202650264,0.775761724
16.732290,40.261001587,38.128890991,67.957084656,-0.314395636,0.207777217,0.776127934
16.732916,37.979812622,37.907638550,67.842643738,-0.319888800,0.214369014,0.778081059
16.733542,35.759658813,37.510910034,68.002861023,-0.327090949,0.221204951,0.778813481
16.734167,33.585281372,37.175216675,67.804496765,-0.333072394,0.224500850,0.777470708
16.734792,31.326980591,36.847152710,67.842643738,-0.337711066,0.226698115,0.782597661
16.748683,-4.561691284,28.866806030,65.431755066,-0.402774543,0.259901255,0.881474614
16.749399,-5.317001343,28.462448120,65.324943542,-0.401187629,0.263319224,0.892460942
16.750026,-6.293563843,28.241195679,65.042655945,-0.403873175,0.259901255,0.895390630
16.750653,-6.980209351,27.905502319,64.996879578,-0.406314582,0.260877818,0.900029302
16.751279,-7.407455444,27.623214722,64.851921082,-0.405338019,0.260511607,0.906621099
16.751904,-7.796554565,27.356185913,64.714591980,-0.406558722,0.258314341,0.913212895
16.752529,-8.300094604,26.936569214,64.562004089,-0.407413214,0.255628794,0.919560552
16.753156,-8.651046753,26.722946167,64.348381042,-0.407413214,0.255872935,0.922001958
16.753782,-8.734970093,26.547470093,64.127128601,-0.406924933,0.252821177,0.929204106
16.754407,-8.673934937,26.196517944,63.936393738,-0.402774543,0.255384654,0.936772466
16.755032,-8.460311890,25.738754272,63.837211609,-0.407291144,0.249891475,0.940068364
16.755657,-8.284835815,25.685348511,63.562553406,-0.405460089,0.248792842,0.945561528
16.756282,-8.109359741,25.448837280,63.455741882,-0.405215949,0.247083858,0.949589849
16.756907,-7.659225464,25.006332397,63.272636414,-0.402896613,0.247450069,0.952275395
16.757534,-7.003097534,24.830856323,63.188713074,-0.403018683,0.245496944,0.957158208
16.758160,-6.270675659,24.487533569,62.891166687,-0.402652472,0.243543819,0.961796880
16.758786,-5.507736206,24.113693237,62.936943054,-0.397769660,0.238050655,0.963505864
16.759411,-4.859237671,23.793258667,62.883537292,-0.397037238,0.237562373,0.967656255
16.760037,-3.707199097,23.404159546,62.509696960,-0.394351691,0.238050655,0.972050786
16.760663,-2.806930542,23.282089233,62.379997253,-0.396548957,0.234266475,0.970830083
16.761290,-1.502304077,22.740402222,62.196891785,-0.393619269,0.235120967,0.972905278
16.761916,-0.075607300,22.595443726,61.975639343,-0.390689582,0.236829951,0.972783208
16.762542,1.259536743,22.343673706,61.998527527,-0.388370246,0.235731319,0.975957036
16.763167,2.579421997,21.840133667,61.746757507,-0.386050910,0.232557490,0.975590825
16.763793,4.013748169,21.870651245,61.678092957,-0.383243293,0.234876826,0.980473638
16.764420,5.890579224,21.389999390,61.556022644,-0.383243293,0.235975459,0.977910161
16.765046,7.454605103,20.970382690,61.494987488,-0.380435675,0.237074092,0.979497075
16.765672,9.140701294,21.046676636,61.227958679,-0.381534308,0.235243037,0.981572270
16.766297,11.109085083,20.619430542,61.128776550,-0.380191535,0.245496944,0.982792974
16.766924,12.840957642,20.215072632,60.999076843,-0.378238410,0.236707881,0.979008794
16.768694,18.021316528,19.696273804,60.403984070,-0.361392707,0.252699107,0.976811528
16.769320,19.890518188,19.932785034,60.655754089,-0.362369269,0.256483287,0.981572270
16.769946,21.652908325,19.619979858,60.236137390,-0.362857550,0.260633677,0.981450200
16.770572,23.583145142,19.345321655,60.197990417,-0.363834113,0.258314341,0.984257817
16.771197,25.253982544,19.482650757,60.014884949,-0.363467902,0.261610240,0.983769536
16.771823,26.863784790,19.116439819,59.953849792,-0.366885871,0.256849498,0.984624028
16.772449,28.763504028,19.085922241,59.915702820,-0.363467902,0.256971568,0.987919927
16.773076,30.800552368,18.925704956,59.991996765,-0.361636847,0.259412974,0.991582036
16.773702,32.547683716,18.948593140,59.786003113,-0.360904425,0.260267466,0.992070317
16.774327,34.409255981,18.895187378,59.663932800,-0.365543097,0.267591685,0.992680669
16.774953,36.339492798,18.643417358,59.755485535,-0.360538214,0.268690318,0.993779302
16.775578,37.987442017,18.445053101,59.786003113,-0.358951300,0.272596568,0.994755864
16.776203,39.711685181,18.193283081,59.480827332,-0.362003058,0.274183482,0.990483403
16.776828,41.435928345,18.109359741,59.503715515,-0.360049933,0.273695201,0.987431645
16.777453,43.175430298,17.865219116,59.320610046,-0.359439582,0.273939341,0.986821294
16.778078,44.724197388,18.071212769,59.351127625,-0.351016730,0.273084849,0.983525395
16.778703,46.524734497,17.979660034,59.343498230,-0.352603644,0.273573130,0.986210942
16.779329,48.027725220,17.605819702,59.175651550,-0.349551886,0.276258677,0.983281255
16.793396,72.922439575,18.376388550,61.182182312,-0.315372199,0.252577037,0.948002934
16.794159,73.425979614,18.574752808,61.311882019,-0.313419074,0.250379771,0.941411138
16.794786,73.425979614,18.712081909,61.296623230,-0.315738410,0.254286021,0.942021489
16.795411,74.036331177,18.918075562,61.578910828,-0.317447394,0.255140513,0.940800786
16.796037,73.967666626,19.238510132,61.746757507,-0.316837043,0.250623912,0.942387700
16.796664,74.173660278,19.505538940,61.807792664,-0.318546027,0.255750865,0.940190434
16.797291,74.280471802,19.803085327,61.853569031,-0.321597785,0.256605357,0.935551763
16.797918,74.127883911,20.001449585,62.189262390,-0.323062629,0.254408091,0.933842778
16.798545,74.265213013,20.009078979,62.296073914,-0.324771613,0.255262583,0.930668950
16.799170,74.433059692,20.207443237,62.418144226,-0.326480597,0.259901255,0.929814458
16.799796,74.227066040,20.459213257,62.517326355,-0.326358527,0.261488169,0.925175786
16.800423,73.899002075,20.436325073,62.715690613,-0.327213019,0.259535044,0.926030278
16.801048,73.837966919,20.726242065,62.822502136,-0.329898566,0.262098521,0.922001958
16.801674,73.494644165,20.825424194,63.074272156,-0.329898566,0.260267466,0.917973638
16.802299,73.258132935,21.061935425,63.158195496,-0.331363410,0.263441294,0.917363286
16.802925,73.250503540,21.107711792,63.142936707,-0.334659308,0.258436412,0.917851567
16.803550,72.731704712,21.283187866,63.318412781,-0.334903449,0.257093638,0.914311528
16.804176,72.380752563,21.374740601,63.425224304,-0.338321418,0.257459849,0.914189458
16.804801,72.014541626,21.458663940,63.562553406,-0.341495246,0.258314341,0.916508794
16.805427,71.701736450,21.718063354,63.707511902,-0.341129035,0.257093638,0.912480474
16.806052,71.396560669,21.466293335,63.837211609,-0.340518683,0.255262583,0.911381841
16.806677,70.938796997,21.519699097,63.913505554,-0.346866339,0.256483287,0.911015630
16.807303,70.709915161,21.992721558,64.104240417,-0.349307746,0.254286021,0.911625981
16.807928,70.221633911,21.916427612,63.944023132,-0.349307746,0.256117076,0.915898442
16.808555,69.733352661,21.939315796,64.111869812,-0.353458136,0.250990123,0.910649419
16.809180,69.077224731,21.954574585,64.417045593,-0.353458136,0.254652232,0.912480474
16.809805,68.970413208,22.015609741,64.409416199,-0.357608527,0.251112193,0.912602544
16.810430,68.299026489,22.183456421,64.516227722,-0.358340949,0.253675669,0.913090825
16.811057,67.833633423,22.282638550,64.523857117,-0.362003058,0.250379771,0.915410161
16.811684,67.467422485,22.252120972,64.600151062,-0.363467902,0.252699107,0.919682622
16.813457,66.025466919,22.481002808,64.691703796,-0.370059699,0.253065318,0.921147466
16.820669,59.738845825,23.793258667,64.729850769,-0.387149543,0.271131724,0.950322270
16.821295,58.930130005,23.777999878,64.989250183,-0.393375129,0.275282115,0.951909184
16.821920,58.258743286,24.029769897,64.676445007,-0.394473761,0.278944224,0.957524419
16.822545,57.747573853,24.334945679,64.859550476,-0.393253058,0.279676646,0.959965825
16.823170,56.862564087,24.411239624,65.035026550,-0.397647589,0.283949107,0.964360356
16.823796,56.320877075,24.647750854,64.905326843,-0.397159308,0.286268443,0.966313481
16.824423,55.649490356,24.807968140,64.928215027,-0.398380011,0.283704966,0.972905278
16.825048,54.833145142,24.968185425,64.912956238,-0.404117316,0.289442271,0.972294927
16.825673,53.925247192,24.991073608,64.935844421,-0.408633918,0.292982310,0.975957036
16.826298,53.360671997,25.326766968,64.767997742,-0.408023566,0.292982310,0.978276372
16.826924,52.704544067,25.754013062,64.897697449,-0.407291144,0.296278208,0.982060552
16.827549,52.223892212,25.624313354,64.897697449,-0.408511847,0.296888560,0.984135747
16.828175,51.377029419,25.807418823,64.668815613,-0.411685675,0.297743052,0.983769536
16.828800,50.446243286,25.967636108,64.653556824,-0.416080207,0.298231333,0.985356450
16.829427,49.988479614,26.288070679,64.584892273,-0.416812629,0.297620982,0.990727544
16.830052,49.477310181,26.295700073,64.783256531,-0.416690558,0.296278208,0.993413091
16.844011,57.663650513,29.606857300,63.699882507,-0.363712043,0.244764522,1.015019536
16.844743,59.181900024,29.484786987,63.852470398,-0.361636847,0.243055537,1.014897466
16.845368,60.440750122,29.782333374,63.753288269,-0.354678839,0.243177608,1.012333989
16.846002,61.562271118,29.828109741,63.738029480,-0.349673957,0.244398311,1.011235356
16.846627,63.088150024,30.255355835,63.783805847,-0.345767707,0.246839717,1.008671880
16.847252,64.545364380,30.369796753,63.425224304,-0.343326300,0.247450069,1.006962895
16.847878,65.956802368,30.644454956,63.661735535,-0.337100714,0.249403194,1.009282231
16.848504,67.536087036,30.644454956,63.379447937,-0.331485480,0.252088755,1.005009770
16.849129,68.611831665,30.949630737,63.394706726,-0.327823371,0.257581919,1.000859380
16.849755,70.206375122,31.224288940,63.532035828,-0.326358527,0.262830943,0.998051763
16.850381,71.610183716,31.338729858,63.585441589,-0.323917121,0.261244029,0.995366216
16.851008,72.716445923,31.605758667,63.539665222,-0.317569464,0.266981333,0.991337895
16.851635,73.944778442,31.918563843,63.493888855,-0.313541144,0.265638560,0.988652349
16.852260,75.241775513,32.162704468,63.432853699,-0.312564582,0.270033091,0.979985356
16.852886,76.287002563,32.475509644,63.600700378,-0.308780402,0.271742076,0.976201177
16.853512,77.423782349,32.826461792,63.478630066,-0.303409308,0.273939341,0.977666020
16.854139,78.583450317,33.116378784,63.524406433,-0.301334113,0.277357310,0.970341802
16.854765,79.445571899,33.162155151,63.661735535,-0.302310675,0.281751841,0.964970708
16.855392,80.361099243,33.635177612,63.684623718,-0.296695441,0.285413951,0.958500981
16.856018,81.131668091,33.803024292,63.684623718,-0.295230597,0.289808482,0.957158208
16.856643,81.536026001,34.001388550,63.814323425,-0.293521613,0.293714732,0.953007817
16.857269,82.092971802,34.337081909,63.959281921,-0.291568488,0.291517466,0.949101567
16.857894,82.611770630,34.794845581,64.134757996,-0.292056769,0.292982310,0.944462895
16.858519,82.901687622,34.840621948,64.142387390,-0.292178839,0.298719615,0.935307622
16.859146,83.183975220,35.031356812,64.088981628,-0.290469855,0.297743052,0.926762700
16.859771,83.466262817,35.450973511,64.401786804,-0.292667121,0.297132701,0.918828130
16.860397,83.718032837,35.718002319,64.371269226,-0.291080207,0.299940318,0.918339849
16.861024,83.901138306,35.992660522,64.356010437,-0.292789191,0.298841685,0.910527349
16.861651,84.038467407,35.969772339,64.500968933,-0.293643683,0.300916880,0.899907231
16.862276,84.297866821,36.183395386,64.607780457,-0.292300910,0.301649302,0.892827153
16.864056,83.702774048,36.564865112,65.157096863,-0.295108527,0.310316294,0.867436528
16.864681,83.656997681,36.984481812,64.684074402,-0.297427863,0.310682505,0.861699224
16.865307,83.252639771,37.159957886,64.981620789,-0.296085089,0.313245982,0.855961919
16.865932,82.924575806,37.144699097,65.134208679,-0.299258918,0.314344615,0.848759770
16.866558,82.810134888,37.343063354,65.126579285,-0.296817511,0.317274302,0.839848638
16.867183,82.512588501,37.472763062,65.035026550,-0.300479621,0.316908091,0.832402349
16.867808,82.298965454,37.564315796,65.172355652,-0.300113410,0.319593638,0.826176763
16.868433,81.856460571,37.533798218,65.195243835,-0.299503058,0.320203990,0.819462895
16.869060,81.314773560,37.922897339,65.241020203,-0.297794074,0.321668833,0.815434575
16.869687,80.849380493,37.724533081,65.431755066,-0.297794074,0.324354380,0.810795903
16.870313,80.292434692,38.037338257,65.431755066,-0.298770636,0.326063365,0.805668950
16.870940,79.773635864,37.938156128,65.363090515,-0.300723761,0.325697154,0.796147466
16.871567,79.086990356,37.793197632,65.591972351,-0.300723761,0.330702037,0.795659184
16.872194,78.423233032,38.159408569,65.202873230,-0.299014777,0.331800669,0.786870122
16.872820,77.736587524,38.189926147,65.355461121,-0.300723761,0.332411021,0.784916997
16.873445,76.973648071,37.983932495,65.508049011,-0.298282355,0.336439341,0.780278325
16.874071,76.225967407,38.067855835,65.408866882,-0.301456183,0.339979380,0.775883794
16.874698,75.539321899,38.090744019,65.385978699,-0.300479621,0.342664927,0.767705083
16.888641,52.849502563,36.671676636,62.967460632,-0.338321418,0.420179576,0.792607427
16.889394,51.796646118,37.106552124,62.875907898,-0.339420050,0.424452037,0.795903325
16.890020,51.094741821,36.656417847,62.341850281,-0.343814582,0.429823130,0.799565434
16.890647,50.209732056,36.702194214,62.494438171,-0.345401496,0.427625865,0.802373052
16.891273,49.263687134,36.793746948,61.975639343,-0.346988410,0.433363169,0.806889653
16.891898,48.622817993,36.671676636,61.792533875,-0.348209113,0.436292857,0.812016606
16.892523,48.020095825,36.557235718,61.601799011,-0.355533332,0.438245982,0.816899419
16.893148,47.630996704,36.526718140,61.327140808,-0.353946418,0.441297740,0.818120122
16.893774,46.845169067,36.435165405,61.159294128,-0.352603644,0.444593638,0.823857427
16.894400,46.539993286,36.526718140,60.793083191,-0.356876105,0.450697154,0.827519536
16.895026,45.876235962,36.404647827,60.426872253,-0.360049933,0.451673716,0.830571294
16.895651,45.609207153,36.473312378,60.236137390,-0.360660285,0.456312388,0.839604497
16.896277,45.265884399,36.282577515,59.999626160,-0.366641730,0.461561412,0.842534184
16.896902,44.945449829,36.129989624,59.770744324,-0.367007941,0.467664927,0.845341802
16.897529,44.480056763,36.122360229,59.335868835,-0.369449347,0.470838755,0.850102544
16.898155,44.274063110,36.084213257,59.084098816,-0.369937629,0.478407115,0.854863286
16.898780,44.327468872,36.206283569,58.733146667,-0.372867316,0.478773326,0.855595708
16.899407,43.747634888,35.855331421,58.328788757,-0.372256964,0.486952037,0.861577153
16.900032,43.488235474,35.916366577,58.305900574,-0.377994269,0.492933482,0.868901372
16.900658,43.244094849,35.885848999,57.832878113,-0.379703254,0.498426646,0.875737309
16.901284,43.114395142,35.626449585,57.443778992,-0.384463996,0.505018413,0.876835942
16.901910,42.572708130,35.679855347,57.459037781,-0.386905402,0.510389507,0.882573247
16.902535,42.481155396,35.397567749,56.993644714,-0.390201300,0.515516460,0.885380864
16.903161,42.168350220,35.290756226,56.841056824,-0.391666144,0.521253765,0.891118169
16.903786,41.962356567,35.237350464,56.528251648,-0.395206183,0.525526226,0.895390630
16.904413,41.458816528,35.191574097,55.948417664,-0.396793097,0.525404155,0.901372075
16.905039,41.214675903,34.993209839,55.856864929,-0.399966925,0.526991069,0.902104497
16.905664,40.901870728,34.649887085,55.627983093,-0.404239386,0.530531108,0.907353520
16.906290,40.764541626,34.695663452,55.238883972,-0.404605597,0.530897319,0.912724614
16.906915,40.688247681,34.359970093,54.826896667,-0.407291144,0.529188335,0.917485356
16.908694,40.558547974,33.947982788,53.957145691,-0.416934699,0.532362163,0.931279302
16.909319,40.581436157,33.986129761,53.812187195,-0.419131964,0.531751812,0.932377934
16.909946,40.741653442,33.917465210,53.552787781,-0.422183722,0.532118022,0.940434575
16.910573,40.749282837,33.787765503,53.224723816,-0.423770636,0.531629741,0.943608403
16.911199,41.016311646,33.459701538,52.774589539,-0.427676886,0.531019390,0.948002934
16.911825,41.397781372,33.528366089,52.446525574,-0.429263800,0.532728374,0.951420903
16.912450,41.542739868,33.452072144,52.164237976,-0.434268683,0.529188335,0.956669927
16.913077,41.908950806,33.398666382,52.011650085,-0.435001105,0.526746929,0.960576177
16.913702,42.473526001,33.207931519,51.752250671,-0.432559699,0.528822124,0.964848638
16.914329,42.885513306,33.360519409,51.500480652,-0.433414191,0.529676616,0.971928716
16.914954,43.289871216,33.040084839,51.248710632,-0.434756964,0.526746929,0.971806645
16.915580,43.846817017,33.139266968,51.103752136,-0.437320441,0.527235210,0.979130864
16.916205,44.419021606,33.238449097,50.401847839,-0.434879035,0.526991069,0.985844731
16.916831,45.120925903,33.055343628,50.409477234,-0.434024543,0.525037944,0.989995122
16.917457,45.532913208,33.001937866,50.211112976,-0.437930793,0.524793804,0.993779302
16.918083,46.318740845,32.971420288,49.829643250,-0.435367316,0.522840679,0.999150395
16.918709,46.997756958,32.979049683,49.562614441,-0.435245246,0.520521343,1.001591802
16.932951,74.860305786,36.747970581,45.686882019,-0.357730597,0.382215708,1.148808599
16.933696,76.233596802,37.098922729,45.656364441,-0.352115363,0.370008677,1.151616216
16.934321,77.858657837,37.381210327,45.679252625,-0.351138800,0.354261607,1.152958989
16.934947,79.636306763,37.724533081,45.549552917,-0.350650519,0.347059458,1.157719731
16.935572,81.658096313,38.106002808,45.587699890,-0.347720832,0.337782115,1.157353520
16.936199,83.069534302,38.533248901,45.580070496,-0.345523566,0.337049693,1.155888677
16.936825,84.587783813,38.731613159,45.381706238,-0.330753058,0.329969615,1.156621099
16.937452,86.342544556,39.227523804,45.549552917,-0.325137824,0.325697154,1.155522466
16.938079,87.975234985,39.692916870,45.404594421,-0.316470832,0.323988169,1.156865239
16.938706,89.066238403,40.219345093,45.458000183,-0.309390754,0.323499888,1.154057622
16.939332,90.126724243,40.936508179,45.953910828,-0.304996222,0.321058482,1.153447270
16.939957,91.095657349,41.607894897,45.793693542,-0.300235480,0.321058482,1.150395513
16.940584,91.957778931,41.905441284,45.702140808,-0.297427863,0.320081919,1.149907231
16.941209,92.644424438,42.759933472,45.976799011,-0.292667121,0.319837779,1.144291997
16.941835,93.254776001,43.652572632,46.075981140,-0.287784308,0.317274302,1.144780278
16.942461,93.651504517,44.102706909,46.289604187,-0.286319464,0.316908091,1.140263677
16.943087,93.857498169,44.606246948,46.350639343,-0.282169074,0.316786021,1.136967778
16.943713,94.010086060,45.506515503,46.671073914,-0.278384894,0.318983287,1.133671880
16.944339,93.521804810,46.910324097,47.098320007,-0.274478644,0.327772349,1.121098638
16.944964,93.064041138,47.734298706,47.502677917,-0.273135871,0.332655162,1.114018559
16.945590,92.293472290,48.451461792,47.868888855,-0.273746222,0.330091685,1.108159184
16.946217,91.423721313,49.031295776,48.181694031,-0.276797980,0.332288951,1.101323247
16.946843,90.691299438,49.351730347,48.425834656,-0.276797980,0.330579966,1.097172856
16.947469,89.852066040,50.236740112,48.746269226,-0.277286261,0.333753794,1.088017583
16.948096,88.730545044,50.915756226,48.784416199,-0.277408332,0.341200083,1.085576177
16.948722,87.174148560,51.419296265,49.348991394,-0.280704230,0.343885630,1.080937505
16.949348,85.655899048,52.235641479,49.600761414,-0.284488410,0.350233287,1.073613286
16.949973,84.084243774,52.746810913,50.058525085,-0.287418097,0.352918833,1.070683599
16.950599,82.504959106,53.494491577,50.707023621,-0.286685675,0.354871958,1.064213872
16.951224,80.536575317,53.868331909,50.874870300,-0.298038214,0.357801646,1.064091802
16.953031,76.592178345,54.944076538,51.584403992,-0.308658332,0.356458873,1.049443364
16.953657,74.524612427,55.501022339,51.996391296,-0.315005988,0.352796763,1.046269536
16.954283,72.266311646,56.134262085,52.301567078,-0.318668097,0.347913951,1.041264653
16.954908,70.267410278,56.492843628,52.667778015,-0.321597785,0.346937388,1.038701177
16.955535,68.192214966,56.828536987,53.072135925,-0.323795050,0.343275279,1.036381841
16.956161,66.391677856,57.469406128,53.453605652,-0.326724738,0.345472544,1.031499028
16.956786,64.247817993,57.972946167,53.781669617,-0.336856574,0.347913951,1.027226567
16.957411,61.867446899,58.407821655,53.987663269,-0.344058722,0.346327037,1.021245122
16.958037,59.570999146,59.002914429,54.559867859,-0.345035285,0.344129771,1.016240239
16.958664,57.602615356,59.247055054,54.758232117,-0.351993293,0.335218638,1.011723638
16.959291,55.535049438,60.002365112,55.223625183,-0.353458136,0.331678599,1.008305669
16.959916,53.650588989,60.063400269,55.391471863,-0.359317511,0.326429576,1.007451177
16.960543,51.811904907,60.376205444,55.895011902,-0.362247199,0.320936412,1.002202153
16.961170,49.957962036,60.940780640,56.123893738,-0.363345832,0.321546763,0.998173833
16.961795,48.035354614,61.017074585,56.383293152,-0.372379035,0.319471568,0.993291020
16.962422,46.364517212,61.772384644,56.512992859,-0.373233527,0.319593638,0.990727544
16.963048,42.954177856,62.375106812,57.184379578,-0.370059699,0.312635630,0.990727544
16.963674,41.306228638,62.840499878,57.390373230,-0.368350714,0.309828013,0.987553716
16.977618,20.249099731,70.706405640,54.277580261,-0.301212043,0.565199077,0.919438481
16.978370,21.454544067,71.293869019,52.545707703,-0.280460089,0.574842632,0.918095708
16.979001,22.881240845,71.965255737,50.172966003,-0.261539191,0.588636577,0.929570317
16.979628,24.010391235,72.445907593,47.990959167,-0.250308722,0.635145366,0.932866216
16.980253,25.246353149,73.010482788,45.602958679,-0.265323371,0.718275249,0.929204106
16.980880,25.200576782,73.300399780,43.375175476,-0.311465949,0.809950054,0.930180669
16.981505,24.513931274,73.781051636,41.193168640,-0.339175910,0.854261577,0.932011724
16.982132,23.369522095,73.765792847,38.591545105,-0.342105597,0.865614116,0.949223638
16.982758,22.087783813,73.086776733,35.608451843,-0.324161261,0.870985210,0.953862309
16.983384,21.134109497,72.796859741,32.983940125,-0.317691535,0.932142437,0.947758794
16.984009,19.768447876,71.850814819,30.885856628,-0.331119269,1.021620035,0.929082036
16.984635,18.112869263,71.606674194,28.375785828,-0.364688605,1.081190348,0.912358403
16.985262,16.014785767,71.621932983,25.751274109,-0.384219855,1.072401285,0.909428716
16.985888,13.046951294,72.178878784,23.203056335,-0.363712043,1.015760660,0.916020513
16.986513,10.010452271,72.316207886,20.342033386,-0.338565558,0.990980327,0.912480474
16.987138,6.485671997,72.247543335,18.304985046,-0.313052863,1.038099527,0.893681645
16.987764,3.082962036,71.927108765,16.199272156,-0.320621222,1.133924723,0.861699224
16.988389,-0.296859741,71.995773315,14.337699890,-0.348087043,1.208631754,0.835209966
16.989016,-3.157882690,72.598495483,11.758964539,-0.371768683,1.215589762,0.823491216
16.989643,-6.736068726,73.338546753,8.714836121,-0.376529425,1.170179605,0.830693364
16.990268,-10.741500854,73.742904663,6.410758972,-0.364078254,1.097425699,0.842412114
16.990893,-14.388351440,73.803939819,4.533927917,-0.353702277,1.045789957,0.848637700
16.991519,-18.233566284,74.086227417,3.015678406,-0.349673957,1.031507730,0.845585942
16.992145,-21.666793823,74.162521362,1.810234070,-0.375308722,1.048231363,0.836064458
16.992771,-25.145797729,73.956527710,0.337760925,-0.399600714,1.059583902,0.821660161
16.993397,-28.861312866,74.009933472,-1.401741028,-0.417422980,1.055799723,0.807133794
16.994023,-32.538681030,73.803939819,-3.019172668,-0.416690558,1.023329020,0.798344731
16.994649,-35.575180054,73.559799194,-4.735786438,-0.407169074,0.978895366,0.795537114
16.995275,-38.642196655,73.544540405,-5.704719543,-0.395328254,0.928480327,0.786992192
16.995900,-41.030197144,73.117294312,-6.444770813,-0.384708136,0.888197124,0.782231450
16.997679,-46.241073608,72.728195190,-9.450752258,-0.395694464,0.846327007,0.758549809
16.998305,-47.034530640,72.743453979,-10.587532043,-0.396304816,0.827039897,0.746831059
16.998931,-48.064498901,72.392501831,-11.457283020,-0.402774543,0.810438335,0.748417974
16.999556,-48.880844116,71.705856323,-12.113410950,-0.395938605,0.779310405,0.751103520
17.000182,-49.369125366,71.484603882,-12.487251282,-0.384830207,0.732069194,0.739628911
17.000809,-49.720077515,70.744552612,-13.326484680,-0.382266730,0.690321147,0.738164067
17.001436,-48.987655640,70.393600464,-14.165718079,-0.378726691,0.661878765,0.740239263
17.002063,-47.957687378,69.912948608,-14.615852356,-0.366519660,0.632703960,0.735478520
17.002688,-46.637802124,69.401779175,-15.394050598,-0.362735480,0.609388530,0.722416997
17.003315,-44.638900757,68.676986694,-15.706855774,-0.358096808,0.595716655,0.711064458
17.003940,-42.182235718,68.242111206,-16.408760071,-0.357486457,0.578016460,0.705083013
17.004567,-40.152816772,67.402877808,-17.164070129,-0.348941535,0.566297710,0.718632817
17.005192,-37.619857788,67.067184448,-17.835456848,-0.339420050,0.547620952,0.674809575
17.005818,-34.827499390,66.784896851,-18.491584778,-0.335757941,0.508070171,0.680913091
17.006444,-32.340316772,66.830673218,-18.766242981,-0.324771613,0.490614146,0.700322270
17.007069,-30.020980835,66.235580444,-18.804389954,-0.314517707,0.428358287,0.711430669
17.007695,-27.022628784,66.426315308,-19.132453918,-0.305850714,0.403700083,0.706669927
17.021603,19.074172974,59.689559937,-10.221321106,-0.323672980,0.205946162,0.541508794
17.022321,20.020217896,59.231796265,-9.595710754,-0.327823371,0.204603389,0.526127934
17.022946,20.836563110,58.850326538,-8.771736145,-0.330630988,0.191297725,0.514287114
17.023572,21.591873169,58.400192261,-8.008796692,-0.330142707,0.180677608,0.504643559
17.024199,22.804946899,57.599105835,-7.055122375,-0.333926886,0.165296748,0.494511724
17.024825,23.834915161,57.377853394,-6.292182922,-0.332584113,0.134901240,0.488774419
17.025450,24.590225220,57.629623413,-5.132514954,-0.326846808,0.128431514,0.457646489
17.026075,24.933547974,56.653060913,-4.422981262,-0.343082160,0.118787967,0.400761724
17.026701,25.025100708,56.378402710,-3.499824524,-0.370181769,0.114271365,0.365117192
17.027326,25.986404419,56.241073608,-2.767402649,-0.385806769,0.112318240,0.376713872
17.027952,27.146072388,55.439987183,-2.210456848,-0.392398566,0.084608279,0.388920903
17.028577,28.877944946,54.486312866,-1.699287415,-0.404239386,0.050550658,0.390751958
17.029202,30.113906860,53.051986694,-0.516731262,-0.400699347,0.040907104,0.402104497
17.029828,31.006546021,51.243820190,0.887077332,-0.380435675,0.055921752,0.429692388
17.030453,32.097549438,49.817123413,2.023857117,-0.389835089,0.069227420,0.434575200
17.031079,32.784194946,48.932113647,2.809684753,-0.446475714,0.103895389,0.410893559
17.031704,31.548233032,47.322311401,3.503959656,-0.477969855,0.113050662,0.404301763
17.032329,30.388565063,46.139755249,3.587882996,-0.472354621,0.096082889,0.400883794
17.032954,29.534072876,44.964828491,4.366081238,-0.446475714,0.074232303,0.398808599
17.033580,29.228897095,43.713607788,5.312126160,-0.427188605,0.040296752,0.396733403
17.034206,29.633255005,42.065658569,6.799858093,-0.425845832,0.024793822,0.380986333
17.034833,29.854507446,40.631332397,7.822196960,-0.429507941,0.007337769,0.367802739
17.035459,30.037612915,39.593734741,8.821647644,-0.441959113,-0.005723755,0.361821294
17.036086,30.152053833,39.044418335,9.515922546,-0.451846808,-0.007310669,0.354008794
17.036711,30.770034790,37.945785522,10.202568054,-0.456607550,-0.016710084,0.340214849
17.037338,31.494827271,36.831893921,10.927360535,-0.444156379,-0.033555787,0.339726567
17.037963,32.318801880,36.007919312,11.804740906,-0.434146613,-0.035753053,0.345341802
17.038588,32.913894653,35.084762573,12.956779480,-0.438174933,-0.039781373,0.354619145
17.039213,33.196182251,34.153976440,13.994377136,-0.442691535,-0.036363404,0.362553716
17.039839,33.081741333,33.223190308,14.795463562,-0.444278449,-0.032945435,0.375493169
17.041641,32.379837036,31.308212280,17.427604675,-0.450381964,-0.027940553,0.422490239
17.042268,31.784744263,30.324020386,18.648307800,-0.452701300,-0.024034303,0.434819341
17.042894,30.914993286,29.416122437,19.731681824,-0.454044074,-0.016343873,0.454350591
17.043521,30.075759888,28.569259644,20.776908875,-0.458804816,-0.010240356,0.469609380
17.044147,29.007644653,27.661361694,21.516960144,-0.460391730,-0.006944458,0.480473638
17.044772,27.970046997,26.707687378,22.936027527,-0.459293097,-0.001817505,0.490849614
17.045397,26.329727173,25.860824585,23.958366394,-0.459903449,0.010877808,0.500126958
17.046024,24.788589478,24.762191772,24.828117371,-0.468082160,0.030531127,0.503422856
17.046651,22.652359009,23.869552612,25.934379578,-0.472720832,0.046034057,0.509892583
17.047276,20.661087036,22.709884644,26.910942078,-0.482974738,0.056410033,0.505498052
17.047901,18.837661743,21.977462769,27.933280945,-0.478702277,0.054090697,0.510991216
17.048528,17.426223755,21.199264526,28.513114929,-0.473819464,0.049329955,0.513920903
17.049154,15.869827271,20.588912964,29.649894714,-0.471622199,0.041029174,0.519169927
17.049781,14.572830200,19.986190796,30.702751160,-0.467715949,0.048109252,0.531254888
17.050407,13.138504028,19.276657104,31.328361511,-0.471255988,0.063734256,0.533940434
17.051033,11.482925415,18.948593140,32.213371277,-0.467960089,0.077284060,0.542241216
17.051658,10.002822876,18.605270386,32.808464050,-0.469669074,0.094495974,0.549077153
17.052283,8.255691528,18.361129761,33.785026550,-0.470401496,0.105970584,0.560063481
17.072927,-23.581771851,3.376998901,57.497184753,-0.481754035,0.239393428,0.758549809
17.073704,-24.413375854,3.163375854,58.572929382,-0.478213996,0.214246944,0.769536138
17.074330,-24.596481323,2.743759155,59.465568542,-0.474063605,0.202284053,0.771489263
17.074957,-25.130538940,2.293624878,60.480278015,-0.473331183,0.206312373,0.761479497
17.075582,-25.061874390,1.790084839,61.403434753,-0.478213996,0.219129756,0.745244145
17.076208,-24.787216187,1.530685425,62.395256042,-0.483218879,0.226942256,0.731694341
17.076835,-23.993759155,1.004257202,62.982719421,-0.490665168,0.217420772,0.722539067
17.077461,-23.375778198,0.409164429,63.745658875,-0.497867316,0.203382686,0.723637700
17.078087,-22.559432983,-0.269851685,64.348381042,-0.495181769,0.179456905,0.735356450
17.078713,-21.514205933,-0.445327759,65.309684753,-0.488712043,0.167371944,0.745610356
17.079340,-20.446090698,-0.933609009,66.278617859,-0.486270636,0.166395381,0.749394536
17.079965,-19.370346069,-1.681289673,67.285697937,-0.483463019,0.172010615,0.749882817
17.080591,-18.500595093,-2.230606079,68.185966492,-0.486270636,0.184827998,0.742924809
17.081218,-17.447738647,-2.352676392,69.345634460,-0.493228644,0.194105342,0.740117192
17.081845,-16.402511597,-3.161392212,70.055168152,-0.498477668,0.200697139,0.732792974
17.082471,-15.189437866,-3.489456177,70.497673035,-0.499576300,0.203626826,0.732304692
17.083096,-14.090805054,-4.130325317,71.031730652,-0.493228644,0.200941280,0.735966802
17.083722,-12.870101929,-4.542312622,71.764152527,-0.491519660,0.193983272,0.741215825
17.084347,-11.458663940,-5.122146606,72.618644714,-0.484683722,0.193250850,0.749272466
17.084972,-10.085372925,-5.892715454,73.587577820,-0.477115363,0.194715694,0.753544927
17.085597,-8.956222534,-6.449661255,74.121635437,-0.472354621,0.202772334,0.759770513
17.086223,-7.659225464,-6.754837036,74.686210632,-0.469547004,0.212660030,0.756352544
17.086849,-6.881027222,-6.998977661,75.166862488,-0.467715949,0.217786983,0.758305669
17.087475,-5.317001343,-7.479629517,75.761955261,-0.462466925,0.222059444,0.757207036
17.088100,-3.875045776,-7.838211060,76.364677429,-0.453799933,0.220472530,0.762456059
17.088725,-2.700119019,-8.120498657,77.020805359,-0.450748175,0.226820186,0.764042974
17.089351,-1.609115601,-8.471450806,77.440422058,-0.439761847,0.229261592,0.771489263
17.089978,-0.243453979,-8.669815063,78.012626648,-0.432803839,0.238050655,0.775517583
17.090603,0.572891235,-8.967361450,78.539054871,-0.420474738,0.244276240,0.777470708
17.091228,1.442642212,-8.761367798,79.004447937,-0.413028449,0.250135630,0.782963872
17.093025,4.173965454,-8.990249634,80.293815613,-0.399844855,0.269911021,0.792119145
17.093650,4.746170044,-8.906326294,80.705802917,-0.396182746,0.277113169,0.797734380
17.094276,5.577774048,-8.875808716,81.079643250,-0.385440558,0.282606333,0.796391606
17.094901,6.088943481,-9.173355103,81.445854187,-0.381534308,0.285291880,0.800541997
17.095527,6.706924438,-8.952102661,81.758659363,-0.372256964,0.290418833,0.802495122
17.096152,7.073135376,-8.768997192,82.323234558,-0.369205207,0.292371958,0.806401372
17.096778,7.744522095,-8.936843872,82.521598816,-0.363467902,0.295545787,0.799931645
17.097403,8.080215454,-8.753738403,82.773368835,-0.358218879,0.297376841,0.798833013
17.098028,8.751602173,-8.685073853,83.101432800,-0.355167121,0.295789927,0.794926763
17.098655,9.148330688,-8.616409302,83.513420105,-0.348209113,0.302503794,0.791752934
17.099280,9.728164673,-8.547744751,83.681266785,-0.344302863,0.301161021,0.786381841
17.099907,10.048599243,-8.746109009,83.795707703,-0.340030402,0.303602427,0.783330083
17.100532,10.689468384,-8.486709595,84.398429871,-0.336368293,0.300306529,0.777470708
17.101157,11.215896606,-8.585891724,84.634941101,-0.332706183,0.297132701,0.772099614
17.101782,12.070388794,-8.326492310,84.589164734,-0.326724738,0.301283091,0.766362309
17.102408,12.650222778,-8.524856567,85.046928406,-0.327335089,0.300916880,0.756962895
17.103033,13.283462524,-8.639297485,85.092704773,-0.324893683,0.306043833,0.749882817
17.116964,26.436538696,-12.911758423,90.891044617,-0.358707160,0.348402232,0.582402349
17.117687,26.558609009,-13.255081177,90.959709167,-0.366885871,0.366956919,0.559331059
17.118314,26.169509888,-13.689956665,91.264884949,-0.372867316,0.387830943,0.546269536
17.118939,26.177139282,-13.766250610,90.852897644,-0.378970832,0.407484263,0.547612309
17.119566,25.826187134,-14.132461548,90.700309753,-0.375919074,0.425550669,0.565800786
17.120193,25.086135864,-13.941726685,90.677421570,-0.364322394,0.446180552,0.586796880
17.120820,24.376602173,-14.315567017,90.540092468,-0.353458136,0.468153208,0.612187505
17.121445,23.270339966,-14.178237915,90.463798523,-0.346011847,0.501478374,0.636113286
17.122070,21.744461060,-14.071426392,90.326469421,-0.344791144,0.534071147,0.653203130
17.122697,19.600601196,-14.155349731,90.074699402,-0.347476691,0.569227397,0.658818364
17.123323,17.288894653,-14.117202759,89.815299988,-0.352847785,0.594495952,0.654667974
17.123948,15.106887817,-13.934097290,89.151542664,-0.355655402,0.613172710,0.658085942
17.124573,12.886734009,-14.170608521,88.411491394,-0.354800910,0.615369976,0.663212895
17.125199,10.460586548,-13.880691528,87.824028015,-0.350040168,0.618787944,0.673100591
17.125825,8.415908813,-14.033279419,87.145011902,-0.339664191,0.619398296,0.687504888
17.126451,4.402847290,-13.789138794,85.870903015,-0.322086066,0.624403179,0.712041020
17.127076,2.457351685,-13.354263306,85.275810242,-0.320621222,0.628187358,0.724125981
17.127701,0.336380005,-13.499221802,84.421318054,-0.316226691,0.631239116,0.729741216
17.128327,-1.448898315,-12.972793579,83.643119812,-0.310855597,0.623426616,0.737553716
17.128953,-3.333358765,-12.820205688,82.857292175,-0.307559699,0.618787944,0.743779302
17.129580,-5.019454956,-12.385330200,82.292716980,-0.303409308,0.601576030,0.755498052
17.130207,-6.232528687,-12.179336548,81.560295105,-0.289005011,0.588392437,0.766606450
17.130832,-7.384567261,-11.752090454,80.942314148,-0.285098761,0.568861187,0.773198247
17.131457,-8.567123413,-11.469802856,80.484550476,-0.277408332,0.556043804,0.781254888
17.132083,-9.459762573,-11.103591919,80.209892273,-0.273380011,0.539198101,0.785771489
17.132708,-9.917526245,-10.592422485,79.469841003,-0.271671027,0.527845562,0.789067388
17.133335,-10.337142944,-9.966812134,79.286735535,-0.270816535,0.518812358,0.796757817
17.133960,-10.703353882,-9.760818481,78.584831238,-0.267276496,0.508924663,0.800419927
17.134586,-10.733871460,-9.394607544,78.355949402,-0.268130988,0.500623882,0.799565434
17.135211,-10.390548706,-8.898696899,77.943962097,-0.263126105,0.495863169,0.805302739
17.136988,-10.047225952,-8.387527466,77.371757507,-0.264713019,0.493299693,0.803349614
17.137614,-9.902267456,-7.868728638,77.058952332,-0.267520636,0.488050669,0.812016606
17.138239,-9.764938354,-7.571182251,76.700370789,-0.265445441,0.475721568,0.822636724
17.138865,-9.482650757,-7.098159790,76.494377136,-0.264102668,0.465223521,0.829716802
17.139490,-8.940963745,-6.915054321,76.387565613,-0.263492316,0.462171763,0.837895513
17.140117,-8.956222534,-6.594619751,76.357048035,-0.266299933,0.463026255,0.841191411
17.140744,-8.742599487,-6.518325806,76.410453796,-0.267764777,0.465223521,0.840092778
17.141369,-8.666305542,-6.144485474,76.173942566,-0.272525519,0.466810435,0.836796880
17.142002,-8.612899780,-5.961380005,76.395195007,-0.278506964,0.464002818,0.829228520
17.142627,-8.658676147,-5.503616333,76.364677429,-0.277042121,0.457411021,0.833012700
17.143252,-8.483200073,-5.434951782,76.181571960,-0.276065558,0.456312388,0.830571294
17.143878,-8.399276733,-5.083999634,76.082389832,-0.277896613,0.451063365,0.829106450
17.144505,-8.292465210,-4.961929321,76.090019226,-0.280948371,0.455702037,0.827763677
17.145130,-7.956771851,-4.778823853,76.227348328,-0.286319464,0.457166880,0.824711919
17.145755,-7.865219116,-4.641494751,76.204460144,-0.290591925,0.460462779,0.819584966
17.146381,-8.116989136,-4.404983521,76.303642273,-0.289005011,0.462171763,0.820927739
17.147008,-8.361129761,-4.382095337,76.166313171,-0.289981574,0.466688365,0.823002934
17.147633,-8.170394897,-4.389724731,76.082389832,-0.287784308,0.467664927,0.820439458
17.161597,-15.448837280,-2.535781860,77.211540222,-0.309512824,0.457166880,0.808720708
17.162348,-15.784530640,-2.467117310,77.493827820,-0.310245246,0.459486216,0.815312505
17.162973,-16.333847046,-2.467117310,77.570121765,-0.311221808,0.462537974,0.820439458
17.163599,-16.417770386,-2.482376099,77.478569031,-0.308536261,0.461561412,0.825566411
17.164224,-16.921310425,-2.345046997,77.989738464,-0.303287238,0.465345591,0.829228520
17.164849,-17.714767456,-2.284011841,77.951591492,-0.298404425,0.468275279,0.832890630
17.165474,-18.386154175,-2.505264282,78.325431824,-0.298160285,0.470960826,0.840703130
17.166101,-19.278793335,-2.299270630,78.523796082,-0.297794074,0.474622935,0.846928716
17.166728,-20.179061890,-2.032241821,78.806083679,-0.294376105,0.477918833,0.854985356
17.167353,-21.064071655,-2.062759399,78.981559753,-0.295230597,0.472303599,0.858281255
17.167980,-22.063522339,-2.016983032,79.233329773,-0.293033332,0.472303599,0.863896489
17.168606,-23.383407593,-1.940689087,79.630058289,-0.294254035,0.471082896,0.864750981
17.169233,-24.260787964,-1.955947876,80.026786804,-0.292667121,0.469740123,0.870854497
17.169858,-25.359420776,-1.559219360,80.217521667,-0.289615363,0.470960826,0.875004888
17.170485,-26.465682983,-1.269302368,80.400627136,-0.282169074,0.476087779,0.877080083
17.171110,-27.282028198,-1.009902954,80.965202332,-0.279971808,0.479017466,0.882695317
17.171735,-28.472213745,-0.781021118,81.041496277,-0.285953254,0.477918833,0.882695317
17.172362,-29.700546265,-0.033340454,81.407707214,-0.289981574,0.471937388,0.883427739
17.172987,-30.715255737,0.401535034,81.819694519,-0.295230597,0.464002818,0.890507817
17.173613,-31.386642456,0.592269897,81.949394226,-0.299625129,0.459974498,0.890996099
17.174239,-32.233505249,0.958480835,82.109611511,-0.302188605,0.456190318,0.885625005
17.174864,-33.210067749,1.240768433,82.552116394,-0.303165168,0.455335826,0.892460942
17.175491,-33.934860229,1.759567261,82.849662781,-0.307071418,0.450453013,0.892460942
17.176116,-34.499435425,1.866378784,83.231132507,-0.311465949,0.451795787,0.890874028
17.176741,-35.369186401,2.095260620,83.360832214,-0.316470832,0.452894419,0.890263677
17.177366,-36.093978882,2.141036987,83.696525574,-0.315128058,0.455702037,0.891850591
17.178000,-36.925582886,2.911605835,83.620231628,-0.321353644,0.451795787,0.894536138
17.178626,-37.406234741,3.163375854,84.093254089,-0.323550910,0.452039927,0.897343755
17.179252,-38.306503296,3.468551636,84.482353210,-0.323672980,0.452894419,0.896611333
17.179878,-39.160995483,3.544845581,84.566276550,-0.331485480,0.447889537,0.895878911
17.181665,-41.175155640,3.956832886,85.489433289,-0.341373175,0.438001841,0.886601567
17.182291,-41.777877808,4.323043823,85.909049988,-0.347964972,0.438612193,0.882817388
17.182916,-42.250900269,4.429855347,86.099784851,-0.345889777,0.438978404,0.877812505
17.183542,-42.739181519,4.475631714,86.275260925,-0.351138800,0.439588755,0.876835942
17.184167,-42.983322144,4.643478394,86.633842468,-0.355289191,0.438612193,0.870122075
17.184794,-43.715744019,4.551925659,87.000053406,-0.354678839,0.433607310,0.863286138
17.185419,-43.975143433,4.788436890,87.297599792,-0.356265754,0.434583873,0.864384770
17.186046,-44.539718628,4.872360229,87.564628601,-0.353213996,0.431654185,0.860966802
17.186671,-44.913558960,4.796066284,88.014762878,-0.354190558,0.431654185,0.858647466
17.187298,-45.325546265,5.063095093,88.060539246,-0.353824347,0.430799693,0.854741216
17.187923,-45.844345093,5.169906616,88.457267761,-0.354556769,0.434461802,0.850346684
17.188549,-46.241073608,5.185165405,88.899772644,-0.357852668,0.435438365,0.845585942
17.189175,-46.355514526,5.253829956,89.037101746,-0.359805793,0.434950083,0.839604497
17.189823,-46.668319702,5.307235718,89.044731140,-0.361392707,0.432752818,0.838017583
17.190449,-46.538619995,5.368270874,89.410942078,-0.359439582,0.432386607,0.836796880
17.191075,-46.660690308,5.208053589,89.754264832,-0.358340949,0.437879771,0.833256841
17.191700,-46.469955444,5.078353882,89.853446960,-0.359317511,0.437635630,0.831303716
17.205611,-46.492843628,6.230392456,93.073051453,-0.258609504,0.475843638,0.876591802
17.206334,-46.645431519,6.810226440,93.553703308,-0.255679816,0.473036021,0.882451177
17.206961,-46.607284546,7.077255249,93.538444519,-0.255069464,0.475233287,0.883916020
17.207588,-47.225265503,7.054367065,93.675773621,-0.247134894,0.476820201,0.886357427
17.208213,-47.499923706,7.603683472,94.141166687,-0.241885871,0.478407115,0.890874028
17.208839,-47.835617065,8.069076538,93.927543640,-0.231754035,0.486097544,0.898442388
17.209464,-48.262863159,8.648910522,94.164054871,-0.222598761,0.494154185,0.905156255
17.210091,-48.720626831,9.312667847,94.286125183,-0.217593879,0.500257671,0.909672856
17.210718,-49.201278687,9.793319702,94.644706726,-0.211856574,0.498426646,0.913334966
17.211344,-49.330978394,10.136642456,94.560783386,-0.207339972,0.500745952,0.912236333
17.211969,-49.903182983,10.785140991,94.827812195,-0.201480597,0.502577007,0.911015630
17.212595,-50.139694214,11.357345581,94.644706726,-0.198428839,0.513197124,0.906499028
17.213220,-50.368576050,12.097396851,94.637077332,-0.193668097,0.528455913,0.907353520
17.213845,-50.582199097,12.379684448,94.812553406,-0.190494269,0.540296733,0.905644536
17.214470,-51.085739136,12.906112671,94.637077332,-0.179263800,0.538587749,0.904423833
17.215095,-51.398544312,13.455429077,94.560783386,-0.175479621,0.537000835,0.902348638
17.215720,-51.932601929,14.096298218,94.461601257,-0.167300910,0.542127788,0.902226567
17.216345,-51.879196167,14.668502808,94.423454285,-0.163760871,0.553480327,0.898076177
17.216970,-52.214889526,15.286483765,93.889396667,-0.164127082,0.583387554,0.887089849
17.217595,-52.481918335,15.561141968,93.698661804,-0.171817511,0.597425640,0.877080083
17.218220,-53.244857788,16.148605347,93.485038757,-0.173892707,0.583631694,0.874028325
17.218846,-53.374557495,16.613998413,92.813652039,-0.165713996,0.569837749,0.880742192
17.219471,-53.397445679,16.629257202,92.447441101,-0.157169074,0.564710796,0.879033208
17.220096,-53.328781128,17.071762085,92.165153503,-0.135806769,0.580579937,0.870366216
17.220721,-53.305892944,17.285385132,91.959159851,-0.128360480,0.607435405,0.855107427
17.221348,-53.679733276,17.285385132,91.699760437,-0.124698363,0.632703960,0.842290044
17.221974,-54.564743042,17.582931519,91.425102234,-0.130679816,0.634168804,0.837773442
17.222599,-55.457382202,18.239059448,91.005485535,-0.132144660,0.613783062,0.838383794
17.223225,-56.090621948,18.681564331,90.707939148,-0.119815551,0.578870952,0.846684575
17.223850,-56.334762573,19.314804077,90.257804871,-0.109561644,0.569715679,0.853154302
17.225629,-57.013778687,19.558944702,89.883964539,-0.127505988,0.633314312,0.813481450
17.226255,-58.059005737,19.375839233,89.479606628,-0.124454223,0.610731304,0.813969731
17.226881,-58.577804565,19.726791382,89.067619324,-0.119815551,0.582533062,0.816777349
17.227507,-58.806686401,19.940414429,88.449638367,-0.101627074,0.575819194,0.828129888
17.228133,-58.898239136,20.085372925,88.327568054,-0.088443480,0.576673687,0.829716802
17.228759,-59.142379761,20.047225952,88.464897156,-0.075137816,0.573621929,0.824833989
17.229384,-59.264450073,19.871749878,88.579338074,-0.080020629,0.585218608,0.829350591
17.230011,-59.813766479,20.291366577,88.709037781,-0.096988402,0.596449077,0.826787114
17.230638,-60.660629272,20.428695679,88.480155945,-0.097354613,0.586317241,0.819829106
17.231265,-61.904220581,20.306625366,88.525932312,-0.087955199,0.556410015,0.819951177
17.231892,-62.270431519,20.207443237,88.487785339,-0.072574340,0.543470562,0.829350591
17.232517,-61.858444214,20.451583862,87.885063171,-0.064883910,0.565931499,0.844609380
17.233142,-61.400680542,20.810165405,88.068168640,-0.073672973,0.592909038,0.840825200
17.233767,-61.736373901,20.649948120,88.152091980,-0.084048949,0.601698101,0.832402349
17.234394,-62.545089722,20.726242065,88.091056824,-0.099918090,0.583997905,0.837285161
17.235021,-62.896041870,20.962753296,87.633293152,-0.101871215,0.561048687,0.847661138
17.235646,-63.041000366,21.229782104,87.145011902,-0.098697387,0.564588726,0.853886724
17.249621,-82.145004272,25.532760620,84.573905945,-0.165591925,0.604627788,0.944340825
17.250379,-84.021835327,25.769271851,84.581535339,-0.179385871,0.608167827,0.945195317
17.251004,-85.646896362,26.166000366,84.680717468,-0.202335089,0.599012554,0.941655278
17.251629,-87.470321655,26.242294312,84.741752625,-0.213931769,0.590589702,0.941044927
17.252255,-89.141159058,26.013412476,84.665458679,-0.216739386,0.580824077,0.942387700
17.252880,-90.537338257,26.158370972,84.665458679,-0.216373175,0.581556499,0.939091802
17.253507,-92.147140503,25.830307007,84.673088074,-0.223209113,0.589124858,0.932622075
17.254132,-93.367843628,25.754013062,84.856193542,-0.240176886,0.593519390,0.919072270
17.254759,-94.962387085,25.586166382,84.726493835,-0.256412238,0.585096538,0.914433599
17.255384,-96.381454468,25.189437866,84.528129578,-0.268253058,0.577650249,0.909062505
17.256010,-98.548202515,24.739303589,84.390800476,-0.285587043,0.578626812,0.893925786
17.256637,-100.737838745,24.418869019,84.673088074,-0.279971808,0.565931499,0.888432622
17.257263,-101.966171265,23.999252319,84.650199890,-0.271548957,0.548231304,0.900029302
17.257889,-103.263168335,23.953475952,84.566276550,-0.267886847,0.536268413,0.914433599
17.258515,-104.865341187,23.747482300,84.879081726,-0.266177863,0.528700054,0.924199224
17.259140,-106.574325562,23.411788940,84.833305359,-0.266299933,0.532972515,0.927250981
17.259765,-108.542709351,23.526229858,85.222404480,-0.272525519,0.521375835,0.930302739
17.260390,-110.366134644,23.709335327,85.207145691,-0.280826300,0.510999858,0.935917974
17.261015,-112.044601440,23.350753784,85.535209656,-0.289005011,0.498304576,0.939946294
17.261641,-113.433151245,23.137130737,85.855644226,-0.286197394,0.488905162,0.943730474
17.262266,-115.126876831,22.740402222,85.992973328,-0.286319464,0.482923716,0.944218755
17.262891,-116.606979370,22.488632202,86.290519714,-0.288150519,0.476576060,0.949833989
17.263518,-118.407516479,22.099533081,86.977165222,-0.287418097,0.459852427,0.955693364
17.264144,-120.261459351,22.183456421,87.145011902,-0.278873175,0.434583873,0.962163091
17.264770,-121.772079468,21.893539429,87.564628601,-0.270328254,0.412122935,0.969365239
17.265397,-123.297958374,21.863021851,88.312309265,-0.261050910,0.402357310,0.969121099
17.266024,-125.037460327,21.618881226,88.815849304,-0.254825324,0.396864146,0.974858403
17.266651,-127.021102905,21.618881226,89.639823914,-0.254703254,0.392835826,0.975224614
17.267278,-128.905563354,21.451034546,90.509574890,-0.249454230,0.387708873,0.971684575
17.267903,-130.797653198,21.481552124,91.295402527,-0.245425910,0.378553599,0.972050786
17.269700,-136.351852417,21.199264526,93.355339050,-0.242252082,0.355482310,0.975224614
17.270326,-137.763290405,21.298446655,93.660514832,-0.243350714,0.349256724,0.977421880
17.270951,-139.144210815,21.466293335,94.598930359,-0.239322394,0.333753794,0.980595708
17.271576,-140.700607300,21.588363647,95.247428894,-0.236514777,0.326795787,0.989628911
17.272201,-142.272262573,21.634140015,95.644157410,-0.232608527,0.330702037,0.999638677
17.272828,-143.691329956,21.809616089,96.353691101,-0.229434699,0.343031138,1.006474614
17.273455,-145.873336792,22.015609741,97.093742371,-0.222476691,0.347791880,1.020634770
17.274080,-147.956161499,22.069015503,97.711723328,-0.219669074,0.348768443,1.028813481
17.274706,-150.267868042,22.168197632,98.611991882,-0.219913214,0.344495982,1.034672856
17.275331,-152.640609741,22.366561890,99.275749207,-0.211856574,0.332533091,1.039067388
17.275956,-155.486373901,22.397079468,100.038688660,-0.203311652,0.319837779,1.047368169
17.276581,-157.882003784,22.305526733,100.946586609,-0.202213019,0.316297740,1.046879888
17.277206,-160.155563354,22.320785522,101.587455750,-0.195377082,0.313490123,1.048222661
17.277831,-162.642745972,22.603073120,102.335136414,-0.193057746,0.310438365,1.045415044
17.278456,-165.267257690,22.702255249,103.326957703,-0.184512824,0.302747935,1.043339849
17.279081,-167.670516968,22.519149780,104.578178406,-0.184146613,0.291151255,1.041020513
17.279706,-170.348434448,22.770919800,105.081718445,-0.171695441,0.269911021,1.041630864
17.293636,-198.401718140,21.016159058,119.524162292,-0.148502082,0.173353389,0.868168950
17.294348,-198.119430542,20.939865112,119.867485046,-0.158755988,0.187635615,0.851933599
17.294974,-197.387008667,20.688095093,120.020072937,-0.187808722,0.201307490,0.824711919
17.295599,-196.540145874,20.138778687,120.165031433,-0.209171027,0.188490108,0.794682622
17.296224,-195.815353394,19.711532593,120.668571472,-0.229068488,0.158094600,0.780888677
17.296850,-194.869308472,19.436874390,120.996635437,-0.234683722,0.114637576,0.786015630
17.297477,-193.572311401,19.154586792,121.210258484,-0.223575324,0.085706912,0.786381841
17.298104,-191.642074585,18.788375854,121.408622742,-0.212222785,0.084119998,0.784916997
17.298730,-189.994125366,18.109359741,122.095268250,-0.208682746,0.104994021,0.774907231
17.299356,-188.765792847,17.468490601,122.377555847,-0.226138800,0.130018428,0.764897466
17.299981,-187.957077026,16.514816284,123.262565613,-0.246036261,0.136121944,0.737919927
17.300608,-187.606124878,15.484848022,123.872917175,-0.242252082,0.111219607,0.722416997
17.301233,-186.515121460,14.874496460,123.872917175,-0.234195441,0.100721560,0.714848638
17.301858,-184.767990112,14.058151245,123.941581726,-0.238345832,0.111829959,0.704716802
17.302484,-183.036117554,12.974777222,124.468009949,-0.236148566,0.111219607,0.683720708
17.303109,-180.785446167,12.539901733,124.788444519,-0.252261847,0.099989139,0.663090825
17.303734,-178.061752319,11.456527710,125.139396667,-0.279361457,0.080946170,0.651494145
17.304359,-176.017074585,10.090866089,125.497978210,-0.291690558,0.054456908,0.647709966
17.304984,-173.674850464,9.175338745,125.772636414,-0.289493293,0.044447143,0.637578130
17.305610,-171.057968140,7.893600464,125.879447937,-0.279849738,0.055799682,0.630009770
17.306236,-167.777328491,6.825485229,126.444023132,-0.268619269,0.071302615,0.629277349
17.306862,-164.382247925,6.039657593,126.756828308,-0.269107550,0.092420779,0.616948247
17.307488,-160.292892456,5.032577515,126.314323425,-0.293155402,0.122083865,0.603032231
17.308113,-156.943588257,3.911056519,126.283805847,-0.322330207,0.153700069,0.577397466
17.308740,-153.167037964,2.713241577,125.925224304,-0.336978644,0.184827998,0.561284184
17.309366,-149.436264038,1.812973022,125.200431824,-0.347232550,0.209486201,0.552739263
17.309991,-145.026473999,0.393905640,124.498527527,-0.352847785,0.242689326,0.546635747
17.310618,-141.242294312,-1.307449341,123.987358093,-0.360172004,0.279188365,0.527592778
17.311243,-138.449935913,-3.008804321,123.583000183,-0.375064582,0.304578990,0.516240239
17.311870,-135.688095093,-4.710159302,122.919242859,-0.385562629,0.318372935,0.513676763
17.313653,-126.815109253,-8.494338989,120.340507507,-0.388004035,0.328626841,0.513676763
17.314280,-122.618942261,-10.073623657,119.859855652,-0.391422004,0.326917857,0.508671880
17.314905,-118.315963745,-11.416397095,119.203727722,-0.396182746,0.315809458,0.512700200
17.322128,-68.129806519,-25.935134888,108.759086609,-0.412784308,0.577039897,0.527836919
17.322755,-63.735275269,-27.117691040,107.744377136,-0.417545050,0.557264507,0.546269536
17.323380,-58.684616089,-27.903518677,106.088798523,-0.403995246,0.568128765,0.571049809
17.324006,-53.313522339,-29.093704224,104.623954773,-0.387393683,0.619276226,0.581914067
17.324633,-48.781661987,-30.466995239,103.281181335,-0.389957160,0.683118999,0.577519536
17.325258,-45.180587769,-32.038650513,102.838676453,-0.392154425,0.724378765,0.571660161
17.325883,-41.701583862,-33.686599731,101.625602722,-0.387881964,0.729627788,0.575078130
17.326509,-37.299423218,-34.762344360,99.802177429,-0.393253058,0.755384624,0.587529302
17.327136,-33.339767456,-36.082229614,98.047416687,-0.385684699,0.802992046,0.597661138
17.327762,-29.860763550,-37.814102173,96.452873230,-0.367618293,0.843885601,0.586308599
17.328389,-27.266769409,-39.126358032,95.224540710,-0.370792121,0.860365093,0.587895513
17.329015,-25.153427124,-40.545425415,94.324272156,-0.365054816,0.843641460,0.607426763
17.329641,-22.681503296,-41.460952759,92.844169617,-0.345035285,0.816663921,0.636723638
17.343671,-14.800338745,-46.870193481,61.594169617,-0.136783332,0.958631694,1.085942388
17.344449,-14.418869019,-46.030960083,60.320060730,-0.123599730,0.927137554,1.131474614
17.345076,-14.174728394,-45.039138794,59.328239441,-0.109439574,0.928968608,1.176762700
17.345702,-13.617782593,-44.062576294,58.382194519,-0.094546996,0.972059429,1.211674809
17.346327,-13.312606812,-43.169937134,56.894462585,-0.087466918,1.046156168,1.240971684
17.346952,-13.922958374,-41.567764282,56.116264343,-0.092593871,1.105360270,1.245488286
17.347578,-15.708236694,-40.759048462,55.299919128,-0.097110473,1.111463785,1.235478520
17.348205,-18.271713257,-39.126358032,54.483573914,-0.114200316,1.047621012,1.228886724
17.348832,-20.293502808,-37.547073364,53.499382019,-0.126651496,0.963148296,1.234868169
17.349459,-21.323471069,-36.288223267,52.385490417,-0.133243293,0.894300640,1.229619145
17.350084,-21.201400757,-35.090408325,51.523368835,-0.130923957,0.851331890,1.224370122
17.350710,-20.346908569,-33.770523071,50.844352722,-0.129947394,0.835462749,1.215703130
17.351336,-18.981246948,-32.641372681,49.852531433,-0.141422004,0.823011577,1.210942388
17.351963,-17.035751343,-31.397781372,48.982780457,-0.163882941,0.810560405,1.210087895
17.352589,-14.640121460,-30.558547974,48.006217957,-0.180240363,0.795911968,1.217900395
17.353214,-11.969833374,-29.040298462,46.968620300,-0.185733527,0.774183452,1.219121099
17.353841,-9.719161987,-28.017959595,45.969169617,-0.188785285,0.742445171,1.242558599
17.354466,-7.705001831,-27.018508911,45.480888367,-0.186221808,0.715955913,1.257207036
17.355092,-5.263595581,-25.690994263,44.778984070,-0.182071418,0.669935405,1.261113286
17.355717,-2.410202026,-24.424514771,44.397514343,-0.167667121,0.639173687,1.267827153
17.356342,0.305862427,-22.898635864,43.741386414,-0.158755988,0.626478374,1.267216802
17.356967,3.380508423,-21.182022095,43.344657898,-0.155582160,0.628797710,1.251835942
17.357592,5.737991333,-19.274673462,42.932670593,-0.161563605,0.651136577,1.248051763
17.358217,7.721633911,-17.497024536,42.535942078,-0.163516730,0.658216655,1.237187505
17.358843,9.781570435,-16.024551392,42.139213562,-0.178653449,0.646131694,1.224125981
17.359468,11.505813599,-14.307937622,41.803520203,-0.192569464,0.620008647,1.216679692
17.360094,13.230056763,-13.346633911,41.322868347,-0.203555793,0.593275249,1.209965825
17.360719,15.564651489,-12.286148071,40.880363464,-0.209903449,0.569593608,1.205205083
17.361345,18.143386841,-11.424026489,40.437858582,-0.208926886,0.562391460,1.197148442
17.361970,21.126480103,-11.057815552,39.804618835,-0.210880011,0.565321147,1.178471684
17.363798,28.778762817,-8.768997192,38.576286316,-0.214664191,0.568494976,1.151494145
17.364423,31.166763306,-7.914505005,37.805717468,-0.201724738,0.563612163,1.148686528
17.365049,33.211441040,-6.907424927,37.241142273,-0.197696418,0.561536968,1.146855474
17.365674,35.027236938,-5.808792114,37.058036804,-0.191226691,0.555433452,1.146733403
17.366300,37.071914673,-4.702529907,36.798637390,-0.189273566,0.549452007,1.153447270
17.366925,38.559646606,-3.649673462,36.401908875,-0.195010871,0.539442241,1.160649419
17.367551,39.925308228,-2.665481567,36.188285828,-0.200381964,0.536878765,1.160161138
17.368176,40.840835571,-2.055130005,35.982292175,-0.207217902,0.535658062,1.157231450
17.368801,41.580886841,-1.353225708,36.012809753,-0.208804816,0.532850444,1.157109380
17.369427,42.336196899,-0.979385376,35.799186707,-0.209781379,0.531019390,1.148930669
17.370052,43.007583618,-0.552139282,35.631340027,-0.206119269,0.524793804,1.139287114
17.370678,43.518753052,-0.025711060,35.555046082,-0.204288214,0.515516460,1.130253911
17.371305,44.014663696,0.165023804,35.547416687,-0.200137824,0.498792857,1.121220708
17.371931,44.769973755,0.988998413,35.646598816,-0.199039191,0.481458873,1.113774419
17.372556,45.365066528,1.332321167,35.417716980,-0.197208136,0.465589732,1.103154302
17.373182,46.234817505,1.904525757,35.272758484,-0.194888800,0.461317271,1.091069341
17.373807,46.883316040,2.751388550,35.524528503,-0.195255011,0.458631724,1.078251958
17.387749,75.195999146,10.472335815,34.349601746,-0.192081183,0.443250865,0.925541997
17.388490,76.042861938,10.579147339,34.044425964,-0.190372199,0.441053599,0.920903325
17.389115,77.507705688,10.853805542,33.907096863,-0.188907355,0.441053599,0.917973638
17.389742,78.636856079,10.968246460,33.975761414,-0.192203254,0.458875865,0.907231450
17.390369,79.331130981,11.227645874,33.777397156,-0.193668097,0.474745005,0.902958989
17.391000,80.055923462,11.082687378,33.723991394,-0.192203254,0.487928599,0.895756841
17.391625,80.353469849,11.151351929,33.579032898,-0.184512824,0.495008677,0.890263677
17.392252,80.902786255,11.281051636,33.357780457,-0.170108527,0.488661021,0.887700200
17.392877,81.490249634,11.654891968,33.159416199,-0.157413214,0.483167857,0.887456059
17.393503,82.039566040,11.899032593,33.060234070,-0.157413214,0.476087779,0.884526372
17.394128,82.756729126,12.311019897,33.052604675,-0.163272589,0.477918833,0.888554692
17.394754,83.222122192,12.623825073,32.671134949,-0.155826300,0.465833873,0.883427739
17.395381,84.107131958,12.600936890,32.709281921,-0.163394660,0.453748912,0.879521489
