Timestamp(us)	AccelX(g)	AccelY(g)	AccelZ(g)	GyroX(dps)	GyroY(dps)	GyroZ(dps)
2510893	-0.0122	0.0049	1.0088	0.7935	-0.6714	-0.061
2754113	-0.0117	0.0078	1.0088	0.7935	-0.7324	-0.061
3036016	-0.0137	0.0088	1.0044	0.9155	-0.6714	-0.2441
3176038	-0.0186	0.0073	1.0098	0.7935	-0.6714	-0.3662
3186020	-0.0112	0.0083	1.0073	0.8545	-0.6714	-0.1221
3196043	-0.0137	0.0073	1.0063	0.7935	-0.7324	-0.061
3206016	-0.0098	0.0068	1.0078	0.7324	-0.5493	-0.2441
3216051	-0.0117	0.0049	1.0083	0.8545	-0.6714	-0.2441
3226016	-0.0151	0.0054	1.0073	0.6714	-0.7324	-0.1221
3238038	-0.0137	0.0054	1.0039	0.6714	-0.7324	-0.1221
3248016	-0.0161	0.0078	1.0059	0.8545	-0.6714	-0.1221
3258043	-0.0137	0.0049	1.0063	0.8545	-0.6714	-0.1221
3268020	-0.0166	0.0044	1.0098	0.6104	-0.6714	-0.3052
3278038	-0.0132	0.0054	1.0039	0.6104	-0.5493	-0.1831
3288016	-0.0122	0.0049	1.0073	0.6714	-0.8545	-0.061
3298038	-0.0156	0.0039	1.0083	0.7324	-0.7324	0.061
3308020	-0.0117	0.0044	1.0068	0.7324	-0.8545	-0.1831
3318038	-0.0112	0.0068	1.0054	0.7324	-0.7935	-0.1831
3330016	-0.0137	0.0049	1.0063	0.7935	-0.8545	-0.1831
3340043	-0.0142	0.0088	1.0059	0.7935	-0.8545	-0.2441
3350035	-0.0132	0.0044	1.0093	0.7324	-0.9155	-0.2441
3360038	-0.0132	0.0054	1.0078	0.7324	-0.9155	-0.2441
3370016	-0.0117	0.0063	1.0054	0.8545	-0.6104	-0.1831
3380043	-0.0142	0.0073	1.0088	0.9155	-0.9766	-0.3052
3390020	-0.0146	0.0059	1.0093	0.6714	-0.9155	0.061
3400038	-0.0127	0.0088	1.0049	0.7324	-0.9155	-0.2441
3410016	-0.0146	0.0054	1.0054	0.7935	-0.6714	-0.1831
3420038	-0.0151	0.0059	1.0063	0.6714	-0.7324	-0.1221
3432016	-0.0161	0.0029	1.0068	0.6714	-0.7935	-0.1221
3442038	-0.0112	0.0049	1.0078	0.6714	-0.6714	-0.061
3452020	-0.0132	0.0029	1.0083	1.0376	-0.8545	-0.1831
3462043	-0.0122	0.0054	1.0088	0.7935	-0.8545	-0.3052
3473016	-0.0156	0.0088	1.0039	0.7935	-0.8545	-0.2441
3483038	-0.0146	0.0044	1.0049	0.6104	-0.6104	-0.061
3493016	-0.0151	0.0083	1.0093	0.7324	-0.7324	0
3503043	-0.0142	0.001	1.0098	0.7935	-0.7935	-0.2441
3513016	-0.0112	0.0093	1.0063	0.8545	-0.6714	-0.061
3523038	-0.0132	0.0063	1.0063	0.9155	-0.9155	-0.2441
3535020	-0.0146	0.0049	1.0073	0.6714	-0.6104	-0.1221
3545043	-0.0137	0.0034	1.0059	0.8545	-0.7324	0
3555016	-0.0146	0.0063	1.0059	0.6714	-0.6104	-0.2441
3565038	-0.0132	0.0039	1.0073	0.7324	-0.5493	-0.1221
3575020	-0.0103	0.0049	1.0083	0.6714	-0.7935	-0.1221
3585043	-0.0137	0.0054	1.0044	0.7935	-0.8545	-0.061
3595016	-0.0137	0.0059	1.0068	0.6714	-0.4883	-0.1831
3605038	-0.0137	0.0063	1.0068	0.7324	-0.6714	-0.1831
3615016	-0.0132	0.0054	1.0044	0.6714	-0.7935	-0.1221
3627029	-0.0142	0.0039	1.0073	0.6104	-0.6714	-0.3052
3637020	-0.0132	0.0078	1.0107	0.7324	-0.7324	0.1221
3647038	-0.0107	0.0063	1.0098	0.7324	-0.7324	-0.1221
3657031	-0.0137	0.0063	1.0054	0.8545	-0.6714	-0.1221
3667029	-0.0137	0.0054	1.0073	0.8545	-0.7324	0
3677020	-0.0132	0.0034	1.0088	0.6714	-0.6714	-0.3052
3687029	-0.0142	0.0063	1.0059	0.7935	-0.6104	-0.1831
3697031	-0.0151	0.0044	1.0073	0.7935	-0.6104	0
3707029	-0.0142	0.0068	1.0044	0.8545	-0.7324	-0.061
3717020	-0.0146	0.0068	1.0039	0.6714	-0.7324	-0.1221
3729038	-0.0117	0.0073	1.002	0.7935	-0.6104	-0.1831
3739031	-0.0117	0.0059	1.0015	0.7935	-0.7324	-0.1221
3749029	-0.0127	0.002	1.0063	0.7935	-0.9155	-0.3662
3759020	-0.0122	0.0063	1.0088	0.9155	-0.6714	-0.1221
3769038	-0.0142	0.0049	1.0073	0.6714	-0.7935	-0.1221
3779031	-0.0142	0.0059	1.0103	0.6714	-0.6714	-0.1221
3789029	-0.0146	0.0063	1.0015	0.7324	-0.6714	-0.1221
3799020	-0.0146	0.0039	1.0083	0.7324	-0.8545	-0.1221
3809029	-0.0122	0.0054	1.0088	0.7324	-0.7324	0
3819031	-0.0146	0.0078	1.0063	0.6104	-0.6714	-0.1221
3831038	-0.0151	0.0054	1.0034	0.7324	-0.6104	-0.1221
3841031	-0.0166	0.0063	1.0063	0.7324	-0.8545	-0.1221
3851043	-0.0132	0.0039	1.0073	0.7324	-0.7324	0
3861031	-0.0166	0.0034	1.0063	0.6714	-0.4883	-0.061
3871038	-0.0122	0.0068	1.0044	0.7935	-0.6714	-0.1221
3881031	-0.0166	0.0044	1.0044	0.8545	-0.7324	-0.061
3891043	-0.0146	0.0015	1.0068	0.9155	-0.7935	-0.2441
3901031	-0.0161	0.0034	1.0083	0.8545	-0.7935	0.061
3911029	-0.0117	0.0068	1.0068	0.7324	-0.7935	-0.2441
3919593	-0.0132	0.0049	1.0063	0.7935	-0.6714	-0.3052
3929040	-0.0127	0.0059	1.0054	0.7935	-0.6714	0
3939012	-0.0122	0.0073	1.0059	0.7935	-0.8545	-0.061
3949043	-0.0142	0.0029	1.0068	0.8545	-0.7324	-0.3052
3959016	-0.0146	0.0059	1.0073	0.6714	-0.6104	-0.1221
3969025	-0.0112	0.0054	1.0083	0.8545	-0.6714	-0.061
3979012	-0.0132	0.0044	1.0054	0.7935	-0.6104	-0.3662
3989021	-0.0117	0.0078	1.0083	0.6714	-0.7324	-0.3052
3999016	-0.0146	0.0039	1.0059	0.9155	-0.7935	-0.061
4009025	-0.0107	0.0073	1.0059	0.6714	-0.7935	-0.061
4021060	-0.0112	0.0059	1.0098	0.7935	-0.6714	0.061
4031021	-0.0142	0.0088	1.0049	0.7935	-0.8545	-0.1221
4041016	-0.0137	0.0059	1.0107	0.8545	-0.7935	-0.061
4051021	-0.0112	0.0044	1.0083	0.7324	-0.4883	-0.1831
4061012	-0.0098	0.0044	1.0059	0.6714	-0.7935	-0.2441
4071021	-0.0166	0.0024	1.0049	0.8545	-0.7935	-0.2441
4081016	-0.0156	0.0063	1.0098	0.6104	-0.7324	-0.061
4091025	-0.0156	0.0054	1.0088	0.7324	-0.9155	-0.2441
4101012	-0.0103	0.0073	1.0068	0.7935	-0.7324	-0.2441
4111025	-0.0122	0.0044	1.0093	0.7935	-0.6714	-0.1831
4123086	-0.0151	0.001	1.0039	0.7935	-0.7935	-0.1831
4133017	-0.0146	0.0034	1.0073	0.7935	-0.5493	-0.1221
4143008	-0.0151	0.0024	1.0068	0.7935	-0.6714	-0.2441
4153021	-0.0127	0.0078	1.0063	0.8545	-0.6714	-0.1221
4163024	-0.0112	0.0039	1.0059	0.7324	-0.7324	0
4173017	-0.0142	0.0088	1.0122	0.6714	-0.9766	-0.061
4183008	-0.0132	0.0078	1.0083	0.6714	-0.7935	-0.1221
4193021	-0.0142	0.0049	1.0083	0.6714	-0.7324	-0.1831
4203012	-0.0112	0.0088	1.0083	0.7324	-0.6714	-0.061
4213017	-0.0156	0.0044	1.0029	0.7324	-0.6714	-0.2441
4225058	-0.0142	0.0059	1.0049	0.5493	-0.7935	-0.1831
4235021	-0.0127	0.0054	1.0098	0.6714	-0.7324	-0.2441
4245008	-0.0132	0.001	1.0088	0.6104	-0.7324	0.061
4255017	-0.0127	0.0073	1.0073	0.4883	-0.6714	0
4265008	-0.0112	0.0054	1.0063	0.8545	-0.7324	-0.1831
4275021	-0.0137	0.0039	1.0083	0.8545	-0.6104	-0.2441
4285012	-0.0132	0.0088	1.0059	0.7935	-0.6714	0
4295013	-0.0166	0.0044	1.0083	0.7324	-0.5493	-0.3662
4305012	-0.0137	0.0073	1.0029	0.7324	-0.6714	0.061
4317013	-0.0137	0.0068	1.0054	0.8545	-0.7935	0
4327039	-0.0156	0.0093	1.0049	0.8545	-0.6714	-0.2441
4337013	-0.0137	0.0049	1.0068	0.8545	-0.7324	-0.1831
4347016	-0.0176	0.0059	1.0088	1.0376	-0.7935	-0.1221
4357017	-0.0142	0.0039	1.0073	0.6714	-0.7324	-0.061
4367012	-0.0132	0.0049	1.0078	0.8545	-0.6104	-0.061
4378013	-0.0161	0.0049	1.0059	0.8545	-0.7935	-0.3052
4388016	-0.0156	0.0029	1.0068	0.8545	-0.9155	-0.1221
4398017	-0.0122	0.0059	1.0049	0.8545	-0.7324	-0.1221
4408012	-0.0142	0.0068	1.0098	0.7935	-0.8545	-0.2441
4420013	-0.0146	0.0039	1.0029	0.7324	-0.7324	-0.1831
4430067	-0.0112	0.0063	1.0049	0.6104	-0.8545	-0.1831
4440013	-0.0098	0.0112	1.0093	0.7935	-0.7324	-0.061
4450012	-0.0156	0.0068	1.0049	0.9155	-0.7324	0
4460013	-0.0117	0.0093	1.0088	0.7324	-0.8545	0.061
4470016	-0.0156	0.0049	1.0054	1.0376	-0.7324	-0.1831
4480017	-0.0137	0.0024	1.0063	0.6714	-0.9155	0
4490012	-0.0146	0.0083	1.0054	0.8545	-0.8545	-0.1831
4500013	-0.0142	0.0073	1.0088	0.6714	-0.7935	-0.061
4510016	-0.0132	0.0054	1.0059	0.8545	-0.6104	-0.2441
4522013	-0.0127	0.0073	1.0029	0.6714	-0.7324	0
4532068	-0.0137	0.0068	1.0068	1.0376	-0.6104	-0.1831
4542017	-0.0112	0.0063	1.0078	0.9766	-0.8545	-0.1221
4552016	-0.0083	0.0073	1.0044	0.6104	-0.7324	-0.1221
4562013	-0.0142	0.0039	1.0059	0.7935	-0.7935	-0.1221
4572012	-0.0146	0.0073	1.0073	0.7324	-0.6104	-0.1221
4582017	-0.0137	0.0063	1.0093	0.7935	-0.8545	-0.061
4592016	-0.0132	0.0068	1.0088	0.5493	-0.8545	-0.061
4602013	-0.0137	0.0049	1.0088	0.5493	-0.7324	-0.061
4612331	-0.0146	0.0029	1.0112	0.8545	-0.8545	-0.1831
4622017	-0.0127	0.0083	1.002	0.7324	-0.7935	-0.1221
4632016	-0.0127	0.0054	1.0142	0.7935	-0.6714	-0.061
4642013	-0.0166	0.0093	1.0029	0.9155	-0.6714	-0.1221
4652012	-0.0166	0.0049	1.0073	0.7324	-0.7324	-0.2441
4662017	-0.0122	0.0063	1.0112	0.6714	-0.8545	-0.1221
4672016	-0.0151	0.0073	0.9976	0.8545	-0.7324	-0.061
4682004	-0.0137	0.0063	1.0122	0.7935	-0.9155	0
4692012	-0.0117	0.0112	0.9966	0.7324	-0.5493	-0.1221
4702004	-0.0146	0.0054	1.0112	0.7324	-0.6714	-0.1831
4725887	-0.0122	0.0068	1.0078	0.6104	-0.6714	0
4738433	-0.0132	0.0068	1.0024	0.9155	-0.6714	-0.3052
4750403	-0.0166	0.0049	1.0107	0.6714	-0.8545	-0.3052
4762399	-0.0112	0.0068	1.0049	0.6714	-0.6714	-0.061
4774399	-0.0146	0.0044	1.0098	0.5493	-0.7324	-0.061
4786411	-0.0146	0.0068	1.0073	0.8545	-0.7935	-0.1221
4798403	-0.0176	0.0039	1.0107	0.7935	-0.7935	-0.061
4810399	-0.0156	0.0054	1.0059	0.7324	-0.6714	-0.1221
4822399	-0.0146	0.0078	1.0054	0.6104	-0.7324	-0.1221
4834403	-0.0132	0.0015	1.0024	0.8545	-0.7935	-0.1831
4848399	-0.0122	0.0054	1.0054	0.9766	-0.7935	0
4860399	-0.0112	0.0029	1.0073	0.6714	-0.7324	-0.1221
4872414	-0.0112	0.0078	1.0073	0.9155	-0.8545	0.061
4884403	-0.0127	0.0073	1.0088	0.7324	-0.7935	-0.1221
4896399	-0.0156	0.0039	1.0044	0.6714	-0.8545	-0.1831
4908399	-0.0146	0.0054	1.0088	0.9155	-0.7324	-0.1831
4920403	-0.0171	0.0044	1.0117	0.7324	-0.9155	-0.061
4932403	-0.0166	0.0054	1.0093	0.7935	-0.6714	-0.2441
4944487	-0.0127	0.0049	1.0088	0.7935	-0.8545	-0.061
4958399	-0.0146	0.0054	1.0073	0.6104	-0.5493	-0.061
4970403	-0.0146	0.0049	1.0068	0.6104	-0.7935	-0.1831
4982403	-0.0127	0.0063	1.0088	0.7935	-0.7324	0
4994399	-0.0117	0.0063	1.0063	0.5493	-0.6104	-0.061
5006399	-0.0088	0.0063	1.0098	0.7324	-0.9766	-0.061
5018399	-0.0112	0.0044	1.0093	0.6714	-0.6104	-0.061
5031529	-0.0161	0.0024	1.0049	0.7935	-0.7935	-0.1221
5044478	-0.0151	0.0049	1.0063	0.6104	-0.9766	-0.1221
5057404	-0.0132	0.0088	1.0029	0.7324	-0.7324	-0.1221
5069408	-0.0127	0.0024	1.0093	0.6714	-0.7935	0.1831
5083404	-0.0122	0.0068	1.0093	0.8545	-0.6714	-0.1831
5095409	-0.0137	0.0024	1.0044	0.6104	-0.8545	0
5107399	-0.0151	0.0049	1.0039	0.6714	-0.7324	-0.2441
5119408	-0.0132	0.0063	1.0054	0.8545	-0.8545	-0.1221
5131399	-0.0132	0.0059	1.0088	0.4883	-0.6104	0.061
5143404	-0.0132	0.0063	1.0088	0.7324	-0.8545	-0.1831
5155408	-0.0107	0.0078	1.0059	0.6104	-0.8545	-0.061
5167408	-0.0122	0.0034	1.0098	0.8545	-0.7324	-0.1221
5179404	-0.0132	0.0073	1.0063	0.9766	-0.6714	-0.1221
5191404	-0.0166	0.0039	1.0068	0.7935	-0.7935	0.061
5205408	-0.0142	0.0073	1.0029	0.6104	-0.6714	0.061
5217408	-0.0142	0.0059	1.0083	0.6104	-0.7935	-0.061
5229404	-0.0161	0.0034	1.0098	0.7324	-0.8545	-0.1221
5241404	-0.0161	0.001	1.0112	0.7324	-0.6714	0
5253408	-0.0107	0.0044	1.0049	0.6714	-0.6714	-0.061
5265408	-0.0107	0.0093	1.0029	0.8545	-0.6104	-0.1221
5277399	-0.0142	0.0078	1.0098	0.7935	-0.8545	-0.2441
5289404	-0.0112	0.0093	1.0034	0.7935	-0.6104	0
5301403	-0.0151	0.0078	1.0083	0.6714	-0.8545	-0.061
5313408	-0.0156	0.0054	1.0068	0.7324	-0.7935	-0.061
5327404	-0.0146	0.0049	1.0039	0.6104	-0.7935	-0.1831
5339404	-0.0137	0.0083	1.0059	0.7935	-0.8545	-0.1831
5351464	-0.0151	0.0049	1.0083	0.6104	-0.9155	-0.061
5363399	-0.0112	0.0049	1.0068	0.7935	-0.7324	-0.1221
5375404	-0.0142	0.0039	1.0068	0.6714	-0.6714	-0.1831
5387408	-0.0122	0.0068	1.0083	0.7935	-0.7935	-0.1831
5400533	-0.0117	0.0054	1.0078	0.9766	-0.7935	0.061
5413404	-0.0132	0.0088	1.0068	0.6714	-0.6714	-0.2441
5425404	-0.0117	0.0059	1.0073	0.7324	-0.7935	-0.1831
5439408	-0.0142	0.0044	1.0078	0.7324	-0.7324	-0.2441
5451403	-0.0151	0.0054	1.0083	0.7324	-0.8545	0.061
5463404	-0.0151	0.0088	1.0073	0.6104	-0.6714	0
5475404	-0.0195	0.0044	1.0068	0.7935	-0.6104	-0.1221
5487408	-0.0132	0.0083	1.0049	0.8545	-0.6714	-0.1221
5499408	-0.0137	0.0073	1.0049	0.4883	-0.6104	-0.1221
5511404	-0.0107	0.0093	1.0068	0.7935	-0.8545	-0.2441
5523404	-0.0117	0.0068	1.0068	0.6714	-0.7324	-0.1221
5535399	-0.0098	0.0039	1.0083	0.7324	-0.8545	-0.061
5547408	-0.0176	0.0068	1.0083	0.7324	-0.6104	0.061
5561404	-0.0181	0.0029	1.0068	0.7324	-0.7935	-0.2441
5573408	-0.0151	0.0024	1.0088	0.6714	-0.7935	0
5585408	-0.0107	0.0059	1.0063	0.9766	-0.9155	-0.2441
5597404	-0.0117	0.0078	1.0088	0.8545	-0.7324	-0.1831
5609404	-0.0112	0.0088	1.0039	0.6714	-0.7324	-0.1831
5621399	-0.0132	0.0078	1.0059	0.7324	-0.7324	-0.1221
5633408	-0.0122	0.0093	1.0005	0.7935	-0.8545	-0.061
5645404	-0.0117	0.0083	1.0083	0.6714	-0.6714	-0.2441
5657407	-0.0156	0.0107	1.0073	0.7324	-0.6714	0
5669408	-0.0137	0.0068	1.0068	0.7324	-0.7935	-0.3662
5683525	-0.0151	0.0049	1.0083	0.9155	-0.5493	-0.2441
5695408	-0.0117	0.0063	1.0107	0.6714	-0.7935	-0.1221
5707399	-0.0146	0.0063	1.0034	0.6714	-0.6104	-0.2441
5719408	-0.0146	0.0049	1.0078	0.6104	-0.6714	-0.061
5731408	-0.0127	0.0039	1.0127	0.6104	-0.7324	-0.1221
5743404	-0.0156	0.002	1.0171	0.6104	-0.7324	-0.061
5755408	-0.0142	0.0059	1.0049	0.6104	-0.6714	-0.1221
5768525	-0.0156	0.0044	1.0059	0.8545	-0.8545	-0.2441
5780412	-0.0146	0.0098	1.0068	0.7324	-0.7324	-0.1831
5794404	-0.0156	0.0073	1.0117	0.7324	-0.7935	-0.1221
5806408	-0.0112	0.0049	1.0034	0.9155	-0.9155	0
5818408	-0.0146	0.0098	1.0093	0.8545	-0.7935	-0.061
5830408	-0.0151	0.0088	1.0068	0.8545	-0.7324	-0.1221
5842404	-0.0156	0.0098	1.0137	0.7324	-0.9155	-0.1831
5854399	-0.0142	0.0063	1.0093	0.8545	-0.6714	-0.061
5866453	-0.0151	0.0098	1.0063	0.7324	-0.7935	-0.061
5878399	-0.0093	0.0059	1.0088	0.7935	-0.7935	0.061
5890408	-0.0146	0.0044	1.0044	0.7935	-0.7324	-0.061
5902408	-0.0146	0.0049	1.0078	0.7935	-0.5493	-0.1831
5916404	-0.0161	0.0049	1.001	0.7935	-0.9155	-0.2441
5928404	-0.0132	0.0063	1.0044	0.7935	-0.7324	-0.061
5940403	-0.0117	0.0049	1.0063	0.7324	-0.7935	-0.1831
5952408	-0.0137	0.0054	1.0059	0.7935	-0.7935	0.061
5964408	-0.0142	0.0068	1.0117	0.7935	-0.6714	-0.061
5976404	-0.0156	0.0078	1.0054	0.6104	-0.6104	-0.061
5988404	-0.0127	0.0098	0.9995	0.6104	-0.8545	-0.2441
6000392	-0.0117	0.0103	1.0073	0.6714	-0.8545	-0.1831
6012408	-0.0132	0.0059	1.0024	0.7935	-0.5493	-0.1831
6024404	-0.0063	0.0088	1.0063	0.7324	-0.6714	-0.1221
6038408	-0.0083	0.0039	1.0137	0.7935	-0.7935	-0.2441
6050433	-0.0112	0.0059	1.0088	0.6714	-0.8545	-0.061
6062404	-0.0156	0.0044	1.0098	0.7935	-0.7935	-0.1831
6074404	-0.0166	0.0054	1.0054	0.9766	-0.7935	-0.1831
6086404	-0.0156	-0.0005	1.0132	0.7324	-0.6714	-0.3662
6098408	-0.0122	0.0068	1.0034	0.6714	-0.6104	-0.061
6110399	-0.0093	0.0049	1.0068	0.7935	-0.9155	0.1221
6123525	-0.0156	0.0073	0.999	0.6104	-0.7324	-0.1221
6135394	-0.0137	0.0093	1.0063	0.9766	-0.5493	-0.061
6149408	-0.0161	0.0063	1.0078	0.8545	-0.7935	-0.061
6161404	-0.0142	0.0083	1.0029	0.8545	-1.0986	-0.061
6173404	-0.0132	0.0107	1.0093	0.6714	-0.9155	0
6185408	-0.0161	0.0049	0.9995	0.6714	-0.7324	0.061
6197388	-0.0122	0.0059	1.0146	0.7935	-0.7324	-0.1221
6209404	-0.0146	0.0083	1.0029	1.0376	-0.8545	-0.061
6221404	-0.0151	0.0049	1.0151	0.7324	-0.6104	-0.1221
6233408	-0.0117	0.0073	1.0049	0.8545	-0.7324	-0.1831
6245408	-0.0171	0.0054	1.0103	0.6104	-0.6714	-0.1221
6257404	-0.0093	0.0059	1.0078	0.6104	-0.7935	-0.1831
6271408	-0.0151	0.0049	1.0049	0.6714	-0.6714	-0.1221
6283403	-0.0161	0.0063	1	0.5493	-0.6104	-0.1221
6295404	-0.0137	0.0063	1.001	0.9155	-0.7935	-0.1831
6307404	-0.0146	0.0044	1.0083	0.7324	-0.7324	-0.061
6319408	-0.0107	0.0093	1.0078	0.6714	-0.6714	-0.1221
6331408	-0.0098	0.0083	1.0059	0.6714	-0.6104	-0.1221
6343404	-0.0122	0.0068	1.0029	0.9766	-0.7324	-0.2441
6355404	-0.0078	0.0112	1.0063	0.7324	-0.7935	-0.1221
6367399	-0.0117	0.0068	1.0034	0.9155	-0.6714	-0.061
6379408	-0.0127	0.0083	1.0044	0.9155	-0.6104	-0.2441
6393404	-0.0166	0.0044	1.0083	0.6714	-0.7935	-0.1831
6405404	-0.0166	0.0098	1.0107	0.7324	-0.7324	-0.1831
6417408	-0.0137	0.0068	1.0083	0.5493	-0.9155	-0.2441
6429399	-0.0093	0.0112	1.0044	0.7324	-0.6714	-0.1221
6441404	-0.0083	0.002	1.0005	0.6104	-0.8545	-0.1831
6453399	-0.0112	0	1.0063	0.6714	-0.7935	-0.1831
6465408	-0.0176	0.001	1.0151	0.8545	-0.7935	-0.3662
6477483	-0.0171	0.0068	1.0083	0.7935	-0.7935	-0.1221
6490525	-0.0176	0.0093	1.0078	0.7935	-0.5493	0
6504408	-0.0156	0.0063	1.0068	0.7324	-0.7935	-0.1831
6516399	-0.0103	0.0054	1.0117	0.7324	-0.8545	-0.2441
6528404	-0.0083	0.0059	1.0044	0.6714	-0.6714	0
6540404	-0.0093	0.0063	1.0049	0.6714	-0.6714	-0.2441
6552408	-0.0161	0.0034	1.02	0.8545	-0.7935	-0.1221
6564408	-0.0166	0.0059	1.0073	0.6714	-0.7935	-0.061
6576434	-0.0181	0.0044	0.9995	0.9155	-0.7324	0
6588388	-0.0142	0.0024	1.0112	0.7935	-0.7324	-0.3052
6600404	-0.0142	0.0029	1.0034	0.8545	-0.9155	-0.1221
6612408	-0.0112	0.0044	1.0117	0.7324	-0.8545	0.061
6634884	-0.0132	0.0068	1.0078	0.7935	-0.7324	0
6647409	-0.021	0.0049	1.0059	0.6104	-0.6714	-0.1831
6659404	-0.0166	0.0093	1.0054	0.8545	-0.8545	-0.2441
6671409	-0.02	0.0063	1.0166	0.8545	-0.7324	-0.061
6683453	-0.0083	0.0107	1.0054	0.6104	-0.9155	-0.4272
6695409	-0.0107	0.0103	1.0156	0.6714	-0.8545	-0.1831
6707400	-0.0132	0.0068	1	0.7935	-0.6714	-0.1831
6719400	-0.0132	0.0059	1.0127	0.9155	-0.7324	-0.061
6731404	-0.0181	0.002	1.0127	0.6714	-0.7324	0
6743404	-0.0132	0.0015	1.0059	0.6714	-0.6104	-0.1221
6757400	-0.0156	0.0005	1.0103	0.6104	-0.7935	-0.061
6769400	-0.0137	0.0024	1.0024	0.7324	-0.5493	0
6781404	-0.0137	0.0024	1.0137	0.8545	-0.6104	-0.1221
6793404	-0.0103	0.0073	1.001	1.0376	-0.7935	-0.2441
6805400	-0.0122	0.0093	0.9966	0.8545	-0.8545	-0.1221
6817384	-0.0103	0.0078	1.0078	0.7324	-0.9155	-0.1831
6829404	-0.0098	0.0044	1.0034	0.7935	-0.6104	0
6842530	-0.0132	-0.0015	1.0098	0.4272	-0.7935	-0.1831
6855400	-0.0117	0.0098	0.9907	0.9766	-0.6714	-0.1221
6869392	-0.0127	0.0044	1.0161	0.9766	-0.7935	-0.061
6881409	-0.0137	0.002	1.0127	0.5493	-0.6104	-0.3662
6893404	-0.0181	0.0063	1.0151	0.6104	-0.6714	-0.1831
6905409	-0.0195	0.0068	1.0005	0.6104	-0.6104	-0.1221
6917404	-0.0151	0.0044	1.0122	0.7324	-0.7324	-0.061
6929409	-0.0103	0.0063	1.0093	0.6104	-0.7935	-0.1221
6941412	-0.0103	0.0059	1.0034	0.6714	-0.6714	-0.3662
6953409	-0.0103	0.0063	1.0059	0.8545	-0.7324	-0.3052
6965409	-0.0146	0.0039	1.0059	0.7935	-0.4883	-0.1831
6977409	-0.0137	0.0049	1.0073	0.6104	-0.7324	0
6991417	-0.0137	0.0063	1.0034	0.6104	-0.7324	-0.1831
7003400	-0.0122	0.0034	1.0103	0.4883	-0.6714	-0.1831
7015409	-0.0137	0.0068	1.0044	1.0376	-0.9155	-0.1221
7027404	-0.0151	0.0083	1.0068	0.8545	-0.9155	-0.1221
7039404	-0.0122	0.0044	1.0059	0.7935	-0.6714	-0.061
7051409	-0.0161	0.0034	1.0059	0.6714	-0.6104	-0.3052
7063409	-0.0132	0.0083	1.0093	0.6714	-0.7935	-0.061
7075409	-0.0146	0.0068	1.0059	0.7935	-0.7935	-0.1221
7087404	-0.0112	0.0068	1.0063	0.7324	-0.7324	-0.1221
7100409	-0.0122	0.0068	1.0098	0.8545	-0.8545	-0.1221
7114409	-0.0161	0.0063	1.0029	0.7935	-0.6104	-0.061
7126404	-0.0142	0.0078	1.0098	0.6714	-0.6104	-0.061
7138409	-0.0127	0.0044	1.0059	0.7324	-0.5493	-0.1221
7150409	-0.0137	0.0059	1.0073	0.7935	-0.7324	0.061
7162409	-0.0132	0.0044	1.0103	0.7935	-0.8545	-0.1831
7174404	-0.019	0.0049	1.0112	0.8545	-0.6714	-0.3662
7186404	-0.0137	0.0088	1.0112	0.8545	-0.9155	0
7198400	-0.0122	0.0088	1.0044	0.5493	-0.6714	-0.1221
7211530	-0.0093	0.0059	1.0088	0.6714	-0.5493	-0.1831
7223045	-0.0137	0.0054	1.0078	0.7935	-0.7935	-0.1831
7235401	-0.0142	0.0073	1.0078	0.5493	-0.8545	-0.1221
7247405	-0.0122	0.0073	1.0068	0.7324	-0.7935	-0.1831
7259405	-0.0142	0.0044	1.0117	0.7935	-0.7324	0
7271401	-0.0161	0.0049	1.0098	0.6104	-0.5493	-0.1221
7283401	-0.0127	0.0039	1.0039	0.8545	-0.8545	0.061
7295405	-0.0098	0.0068	1.0083	0.8545	-0.4883	-0.1221
7307396	-0.0112	0.0044	1.0044	0.7935	-0.7935	-0.2441
7319401	-0.0137	0.0068	1.0078	0.7324	-0.7324	-0.3052
7331396	-0.0117	0.002	1.0078	0.7935	-0.6104	-0.3662
7345405	-0.0083	0.0068	1.0059	0.6104	-0.7935	-0.1831
7357405	-0.0127	0.0059	1.002	0.9155	-0.8545	-0.3052
7369401	-0.0166	0.002	1.0063	0.5493	-0.6104	-0.1831
7381401	-0.0146	0.0078	1.0078	0.7324	-0.7324	0.061
7393396	-0.0103	0.0063	1.0054	0.4272	-0.8545	-0.061
7405405	-0.0151	0.0059	1.0098	0.6714	-0.4272	0.061
7417401	-0.0181	0.0068	1.0127	0.5493	-0.9155	-0.1221
7429401	-0.0156	0.0059	1.0078	0.6714	-0.7324	0.1221
7441405	-0.0151	0.0059	1.001	0.6714	-0.7935	-0.061
7453405	-0.0112	0.0078	1.0073	0.7935	-0.6104	-0.1221
7467401	-0.0117	0.0068	1.0117	0.7935	-0.7324	-0.1831
7479400	-0.0142	0.0044	1.0059	0.8545	-0.6104	-0.1221
7491405	-0.0117	0.0039	1.0078	0.6714	-0.8545	-0.2441
7503433	-0.0103	0.0078	1.0054	1.0376	-0.8545	-0.2441
7515401	-0.0088	0.0054	1.0083	0.5493	-0.7324	-0.2441
7527405	-0.0117	0.0034	1.0078	0.8545	-0.8545	-0.1831
7539401	-0.0127	0.0054	1	0.9155	-0.6714	-0.061
7551401	-0.0181	0.0039	1.0063	0.7324	-0.6714	-0.061
7563396	-0.0176	0.0044	1.0107	1.0376	-0.4883	-0.061
7576526	-0.0146	0.0083	1.0059	0.7935	-0.6714	0.061
7590526	-0.0117	0.0088	1.0078	0.6104	-0.8545	0
7602401	-0.0073	0.0068	1.0098	0.4883	-0.7324	-0.061
7614401	-0.0112	0.002	1.02	0.6104	-0.6104	-0.1221
7626396	-0.0137	0.0044	1.0078	0.9155	-0.7935	-0.1221
7638405	-0.0156	0.0044	1.0034	0.7324	-0.7324	-0.1831
7650396	-0.0142	0.0024	1.002	0.8545	-0.6714	-0.061
7662405	-0.0137	0.0049	1.0073	0.7935	-0.7324	-0.1221
7674405	-0.0161	0.0068	1.0059	0.6714	-0.7935	-0.1831
7686405	-0.0088	0.0068	1.0112	0.7935	-0.6714	-0.1221
7700401	-0.0151	0.0054	1.0117	0.9766	-0.7324	-0.061
7712396	-0.0127	0.0068	1.0151	0.8545	-0.7324	-0.2441
7724405	-0.0181	0.0083	1.0112	0.6714	-0.7324	-0.061
7736401	-0.0171	0.0098	1.0093	0.5493	-0.9155	-0.2441
7748401	-0.0146	0.0049	1.0078	0.5493	-0.9155	-0.061
7760405	-0.0137	0.0034	1.0098	0.6104	-0.7935	0
7772405	-0.0122	0.0098	1.0059	0.6714	-0.9155	-0.1831
7784401	-0.0166	0.0073	1.0078	0.9766	-0.6714	-0.1221
7796401	-0.0156	0.0044	1.0049	0.7935	-0.6714	-0.1221
7808438	-0.0176	0.002	1.0059	0.7324	-0.6714	-0.2441
7822409	-0.0127	0.0068	1.0078	0.9155	-0.7324	-0.061
7834405	-0.0132	0.002	1.0073	0.8545	-0.8545	-0.1221
7846409	-0.0112	0.0078	1.0151	0.6714	-0.7324	-0.061
7858405	-0.0146	0.0049	1.0083	0.7935	-0.8545	-0.1221
7870413	-0.0176	0.0054	1.0054	0.6104	-0.7935	-0.1831
7882400	-0.0122	0.0103	1.0049	0.7935	-0.7935	-0.3662
7894409	-0.0117	0.0039	1.0127	0.7324	-0.7324	-0.061
7906404	-0.0107	0.0073	1.0093	0.7324	-0.9155	-0.061
7918409	-0.0151	0.0059	1.0098	0.7935	-0.8545	-0.3052
7930409	-0.0161	0.0054	1.0063	0.8545	-0.6714	-0.3662
7945526	-0.0146	0.0059	1.0059	0.7935	-0.7935	-0.1221
7958409	-0.0156	0.0054	1.0063	0.7935	-0.8545	-0.1831
7970404	-0.0127	0.0073	1.0054	0.7324	-0.6714	-0.1831
7982405	-0.0122	0.0083	1.0127	0.6714	-0.6104	-0.3662
7994409	-0.0107	0.0078	1.0044	0.9766	-0.7324	0.061
8006409	-0.0103	0.0073	1.0073	0.7324	-0.7324	0.1831
8018405	-0.0137	0.0063	1.0156	0.9766	-0.7324	-0.1221
8030409	-0.0156	0.0054	1.0098	0.6104	-0.6714	-0.061
8042409	-0.0176	0.0049	1.0039	0.5493	-0.7935	-0.061
8056404	-0.0132	0.0059	1.0073	0.8545	-0.6104	0
8068405	-0.0103	0.0088	1.0024	0.4883	-0.7935	0.061
8080409	-0.0137	0.0063	1.0093	0.9155	-0.6104	0
8092409	-0.0103	0.0049	1.0049	0.7324	-0.7324	-0.2441
8104409	-0.0151	0.0078	1.0039	0.7324	-0.7935	-0.1221
8116486	-0.0122	0.0005	1.0083	0.6714	-0.7324	0
8128405	-0.0161	0.0073	1.0068	0.6104	-0.6104	-0.1221
8140404	-0.0151	0.0068	1.0078	0.7935	-0.6104	-0.3662
8152409	-0.0151	0.0127	1.0039	0.5493	-0.7935	-0.3052
8164405	-0.0156	0.0059	1.0078	0.7324	-0.9766	-0.061
8178409	-0.0107	0.0049	1.0127	0.6714	-0.7324	-0.1221
8190413	-0.0122	0.0068	1.0059	0.6714	-0.8545	-0.2441
8202400	-0.0137	0.0059	1.0093	0.8545	-0.7935	0.061
8214405	-0.0166	0.0078	1.0068	0.7324	-0.7935	-0.2441
8225720	-0.0146	0.0049	1.0063	0.6714	-0.6714	-0.2441
8238409	-0.0146	0.0073	1.0073	0.8545	-0.6714	-0.061
8250409	-0.0122	0.0073	1.0044	0.6714	-0.6714	-0.1831
8262405	-0.0098	0.0073	1.0098	0.7324	-0.9155	0
8274409	-0.0146	0.0034	1.0063	0.6714	-0.7324	-0.3052
8286409	-0.0127	0.0073	1.0083	0.8545	-0.7935	-0.2441
8301526	-0.0161	0.0049	1.0137	0.6714	-0.7935	-0.1831
8314405	-0.0122	0.0078	1.002	0.7935	-0.8545	-0.2441
8326409	-0.0137	0.0073	1.0098	0.6104	-0.6714	-0.061
8338409	-0.0093	0.0063	1.0029	0.7324	-0.6714	0
8350409	-0.0137	0.0068	1.0088	0.8545	-0.7935	-0.3662
8362405	-0.0107	0.0049	1.0088	0.7324	-0.7324	-0.1831
8374405	-0.0146	0.0093	1.0088	1.0986	-0.7324	-0.1221
8386409	-0.0161	0.0068	1.0127	0.6104	-0.8545	-0.061
8398400	-0.019	0.0068	1.0015	0.7324	-0.6104	-0.2441
8412409	-0.0161	0.0054	1.0088	0.6714	-0.7935	-0.061
8424441	-0.0112	0.0073	1.0088	0.7935	-0.7324	0
8436405	-0.0098	0.0083	1.0068	0.7324	-0.6714	-0.061
8448405	-0.0112	0.0024	1.0068	0.6714	-0.7324	-0.2441
8460400	-0.0127	0.0059	1.0044	1.0376	-0.9155	-0.1221
8472409	-0.0122	0.002	1.0049	0.6714	-0.6714	0.061
8484400	-0.0176	0.0068	1.0044	0.7935	-0.6714	-0.1831
8496405	-0.0137	0.0063	1.0107	0.8545	-0.8545	-0.061
8508409	-0.0122	0.0039	1	0.7935	-0.6714	-0.061
8520409	-0.021	0.0054	1.0103	0.9155	-0.9155	-0.061
8542877	-0.0151	0.0049	1.0049	0.8545	-0.7324	-0.1221
8555405	-0.0103	0.0063	1.0039	0.6714	-0.5493	-0.1831
8567397	-0.0127	0.0073	1.002	0.6714	-0.7935	-0.1221
8579405	-0.0103	0.0049	1.0063	0.7935	-0.6104	-0.061
8591405	-0.0103	0.0083	1.0098	0.7324	-0.7324	-0.1831
8603405	-0.0117	0.0054	1.0059	0.8545	-0.6104	-0.1831
8615401	-0.0146	0.0063	1.0083	0.7324	-0.7935	-0.061
8627397	-0.0117	0.0078	1.0049	0.6714	-0.6104	-0.061
8639401	-0.0127	0.0059	1.0103	0.6714	-0.7324	-0.061
8651401	-0.0142	0.0054	1.0059	0.9155	-0.7324	0.061
8799523	-0.0068	0.0063	1.0049	0.6714	-0.7935	0
8812401	-0.0093	0.0083	1.0103	0.9155	-0.7935	0.061
8824405	-0.0127	0.0044	1.0059	0.6714	-0.7324	-0.2441
8836401	-0.0156	0.0039	1.0039	0.6104	-0.8545	-0.1831
8848401	-0.0244	0.0088	1.0005	0.6714	-0.8545	-0.2441
8860401	-0.0151	0.0054	1.0049	0.7324	-0.6104	-0.061
8872405	-0.0151	0.0054	1.0068	0.7324	-0.6104	0
8884405	-0.0103	0.0068	1	0.7935	-0.7935	-0.061
8897401	-0.0073	0.002	1.0142	0.8545	-0.8545	-0.3052
8909401	-0.0132	0.0044	1.0005	0.7935	-0.7324	-0.1221
8923401	-0.0151	0.0034	1.0068	0.8545	-0.6104	-0.1221
8935474	-0.0161	0.0044	1.0137	0.7935	-0.7324	-0.061
8946715	-0.0161	0.002	1.0054	0.9766	-0.6714	-0.1831
8959405	-0.0156	0.0098	1.0161	0.6714	-0.5493	-0.1221
8971405	-0.0024	0.0039	1.002	0.7324	-0.6104	0
8983401	-0.0073	0.001	1.0239	0.8545	-0.9155	0.061
8995401	-0.0122	0.0063	1.002	0.6104	-0.8545	-0.3052
9007397	-0.0151	0.0029	1.0117	0.9766	-0.7935	-0.2441
9019405	-0.0195	0.0078	1.0093	0.4883	-0.9155	0
9033430	-0.0181	0.0093	0.9976	0.9155	-0.7324	0.061
9045397	-0.0146	0.0054	1.0117	0.8545	-0.9155	-0.061
9057405	-0.0093	0.0054	1.001	0.7935	-0.6714	-0.1831
9069397	-0.0098	0.0039	1.0142	0.5493	-0.6714	0.061
9081401	-0.0073	0.0049	1.0005	0.7324	-0.5493	0
9093397	-0.0137	0.0034	1.0161	0.7935	-0.8545	-0.061
9105405	-0.0171	0.0049	0.9971	0.7935	-0.6104	0
9117391	-0.019	0.0088	1.0117	0.7324	-0.6104	-0.1221
9129405	-0.0166	0.002	1.0063	0.6714	-0.7935	-0.1831
9141453	-0.0127	0.0083	1.0063	0.6104	-0.6714	-0.061
9155401	-0.0146	0.0068	1.0122	0.7935	-0.7935	-0.061
9168519	-0.0132	0.0068	1.0029	0.7324	-0.6714	-0.1831
9179730	-0.0137	0.0078	1.0117	0.7324	-0.7324	0.1831
9192401	-0.0127	0.0049	1.0024	0.9155	-0.6714	-0.3662
9204409	-0.0127	0.0068	1.0078	0.6714	-0.7324	-0.1221
9216397	-0.0127	0.0049	1.0059	0.4883	-0.5493	-0.1221
9228405	-0.0098	0.0049	1.0112	0.7935	-0.6714	-0.1831
9240397	-0.0103	0.0059	1.0088	0.8545	-0.7324	0
9252409	-0.0132	0.0034	1.0107	0.6714	-0.7935	-0.1831
9264387	-0.0156	0.0044	1.0078	0.8545	-0.8545	-0.1221
9278405	-0.019	0.0059	1.001	0.7324	-0.7324	0
9290401	-0.0137	0.0059	1.0054	0.6714	-0.6714	-0.1221
9302405	-0.0142	0.0059	1.0078	0.5493	-0.7324	-0.1831
9314401	-0.0103	0.0059	1.0059	0.9766	-0.8545	-0.1831
9326397	-0.0142	0.0068	1.0112	0.7935	-0.6104	-0.1831
9338405	-0.0122	0.0063	1.0083	0.9766	-0.7935	-0.1221
9350401	-0.0117	0.0059	1.002	0.9155	-0.7324	-0.1221
9362401	-0.0146	0.0083	1.0044	0.7324	-0.9155	-0.1831
9374401	-0.0171	0.0088	1.0068	0.8545	-0.5493	-0.1221
9388413	-0.0146	0.0068	1.0088	0.7324	-0.7324	-0.1831
9400401	-0.0156	0.0063	1.0063	0.7935	-0.7324	-0.1221
9412397	-0.0103	0.0049	1.0073	0.8545	-0.6714	-0.061
9424405	-0.0127	0.0073	1.0078	0.6104	-0.6714	-0.1831
9436405	-0.0112	0.0068	1.0073	0.5493	-0.6104	-0.061
9448413	-0.0156	0.0044	1.0083	0.8545	-0.7324	-0.1831
9460401	-0.0137	0.0039	1.0103	0.7324	-0.7324	-0.061
9472405	-0.0161	0.0059	1.0068	0.6104	-0.7935	-0.1831
9484405	-0.0137	0.0068	1.0078	0.7935	-0.6714	-0.061
9496401	-0.0146	0.0088	1.0044	0.7324	-0.6104	-0.1221
9510401	-0.0127	0.0073	1.0063	0.7324	-0.7935	0
9532700	-0.0142	0.0054	1.0078	0.6714	-0.7324	0
9613656	-0.0103	0.001	1.0078	0.7935	-0.5493	-0.1831
9692651	-0.0137	0.0083	1.0146	0.8545	-0.7324	-0.2441
9732523	-0.0122	0.0063	1.0054	0.6714	-0.6714	-0.3662
9744405	-0.0122	0.0039	1.0073	0.7324	-0.6104	-0.1831
9756421	-0.0132	0.0049	1.0039	0.5493	-0.7324	-0.3662
9768401	-0.0151	0.0029	1.0039	0.8545	-0.6714	-0.1831
9780401	-0.0132	0.0039	1.0083	0.8545	-0.8545	-0.2441
9792405	-0.0146	0.0054	1.0063	0.8545	-0.9155	-0.1831
9806523	-0.0117	0.0039	1.0122	0.7935	-0.8545	-0.1831
9818401	-0.0127	0.0073	1.0063	0.7324	-0.6104	-0.1221
9830405	-0.0156	0.0093	1.0078	0.7935	-0.8545	0
9842405	-0.0122	0.0093	1.0093	0.6104	-0.7324	-0.061
9854417	-0.0146	0.0083	1.0059	0.7935	-0.6714	-0.061
9866401	-0.0103	0.0068	1.0068	0.6714	-0.5493	-0.1221
9878401	-0.0127	0.0088	1.0039	0.7935	-0.6104	-0.2441
9890405	-0.0146	0.0024	1.0078	0.9155	-0.3662	-0.1831
9902397	-0.0176	0.0044	1.0098	0.6104	-0.6714	-0.1221
9916405	-0.0146	0.0063	1.0059	0.7935	-0.8545	-0.1221
9928405	-0.0117	0.0044	1.0103	0.9155	-0.9155	0
9940405	-0.0122	0.0054	1.0034	0.6714	-0.6714	-0.1221
9952401	-0.0132	0.0039	1.0063	0.7324	-0.7324	-0.061
9964397	-0.0112	0.0044	1.0107	0.6714	-0.6714	-0.1221
9976405	-0.0137	0.0083	1.0059	0.9155	-0.6714	0
9988401	-0.0137	0.0054	1.0122	0.7935	-0.7324	-0.061
10000401	-0.0186	0.0068	1.0083	0.7935	-0.8545	-0.1831
10012401	-0.0161	0.0063	1.0054	0.7324	-0.7935	-0.1221
10024405	-0.0156	0.0083	1.0059	0.7935	-0.7324	-0.1221
10038401	-0.0137	0.0083	1.0068	0.6104	-0.6104	-0.2441
10050397	-0.0137	0.0068	1.0088	0.7935	-0.7324	-0.061
10062587	-0.0112	0.0059	1.0093	0.9155	-0.7935	-0.1221
10075405	-0.0103	0.0073	1.0049	0.7324	-0.6714	-0.061
10087401	-0.0107	0.0059	1.0044	0.7935	-0.4272	-0.2441
10100523	-0.0093	0.0044	1.0083	0.6714	-0.8545	-0.1221
10113405	-0.0151	0.0049	1.0059	0.9766	-0.6714	-0.3052
10125405	-0.0151	0.0093	1.0039	0.8545	-0.7935	-0.1221
10137401	-0.0151	0.0063	1.0068	0.6104	-0.9155	0
10149401	-0.0117	0.0068	1.0073	0.8545	-0.7324	-0.061
10163421	-0.0137	0.0098	1.0093	0.6104	-0.6104	-0.1221
10175401	-0.0161	0.0078	1.0063	0.7324	-0.7324	0
10187406	-0.0132	0.0029	1.0088	0.7324	-0.5493	-0.1831
10199397	-0.0103	0.0063	1.0093	0.7324	-0.8545	-0.2441
10211409	-0.0127	0.0073	1.0103	0.7935	-0.7324	-0.1221
10223387	-0.0122	0.0049	1.0068	0.9155	-0.8545	-0.1221
10235406	-0.0132	0.0063	1.0088	0.7935	-0.8545	-0.1831
10247397	-0.0161	0.0024	1.0044	0.6714	-0.7935	0
10259409	-0.0151	0.0034	1.0132	0.7324	-0.7324	-0.1221
10273397	-0.0176	0.0039	1.0073	0.6714	-0.4883	-0.1221
10285413	-0.0127	0.0078	1.0049	0.7935	-0.6104	-0.1221
10297401	-0.0117	0.0073	1.0059	0.7935	-0.7324	-0.3052
10309405	-0.0127	0.0078	1.0073	0.6714	-0.7324	-0.1221
10321397	-0.0127	0.0068	1.0073	0.7935	-0.6714	-0.1831
10333406	-0.0112	0.0093	1.0068	0.7324	-0.9766	-0.1831
10345401	-0.0112	0.0063	1.0063	0.7935	-0.9155	-0.1831
10357409	-0.0122	0.0063	1.0073	0.8545	-0.7324	-0.1221
10369417	-0.0156	0.0044	1.0063	0.7935	-0.8545	-0.061
10381406	-0.0166	0.0054	1.0068	0.7935	-0.8545	-0.1831
10395401	-0.0137	0.0054	1.0098	0.6714	-0.6714	0
10407405	-0.0127	0.0054	1.0093	0.6104	-0.6714	-0.1831
10419401	-0.0127	0.0088	1.0073	0.7935	-0.7935	-0.3052
10431401	-0.0127	0.0063	1.0078	0.8545	-0.6714	-0.1221
10443405	-0.0122	0.0068	1.0063	0.6714	-0.9155	-0.2441
10455401	-0.0103	0.0029	1.0088	0.7935	-0.7324	-0.061
10468523	-0.0146	0.0068	1.0039	0.7324	-0.9155	-0.1831
10481397	-0.0146	0.0034	1.0093	0.7324	-0.7324	-0.1221
10493405	-0.0132	0.0054	1.0078	0.7324	-0.6714	-0.1831
10507401	-0.0146	0.0068	1.0059	0.6714	-0.6104	0
10519401	-0.0161	0.0073	1.0088	0.7935	-0.8545	-0.1221
10531405	-0.0161	0.0068	1.0049	0.6714	-0.5493	-0.061
10543397	-0.0146	0.0049	1.0059	0.7324	-0.7324	0.061
10555401	-0.0137	0.0068	1.0044	0.6714	-0.6714	-0.2441
10567397	-0.0103	0.0063	1.0049	0.7324	-0.7935	-0.061
10579405	-0.0137	0.0063	1.0054	0.7324	-0.7324	-0.1221
10591405	-0.0127	0.0073	1.0039	0.6714	-0.4883	-0.1831
10603401	-0.0132	0.0049	1.0088	0.6714	-0.4883	-0.061
10615401	-0.0137	0.0049	1.0068	0.7935	-0.7935	-0.061
10629397	-0.0161	0.0078	1.0039	0.7935	-0.7935	-0.061
10641405	-0.0142	0.0063	1.0034	0.6104	-0.8545	-0.1221
10653401	-0.0166	0.0107	1.0054	0.7935	-0.9155	-0.2441
10665401	-0.0127	0.0059	1.0103	0.7324	-0.8545	-0.1221
10677437	-0.0127	0.0034	1.0049	0.7324	-0.7324	0
10689405	-0.0166	0.0063	1.0088	0.6714	-0.8545	-0.1831
10701401	-0.0137	0.0078	1.0024	0.7324	-0.6104	-0.1221
10713401	-0.0142	0.0083	1.0088	0.7324	-0.6104	-0.1831
10725405	-0.0132	0.0063	1.0068	0.6104	-0.9155	-0.061
10747878	-0.0146	0.0068	1.0107	0.6714	-0.7935	-0.061
10760401	-0.0122	0.0088	1.0059	0.9155	-0.6104	-0.1221
10772397	-0.0176	0.0044	1.001	0.8545	-0.7935	-0.1221
10784397	-0.0132	0.0044	1.0093	0.7324	-0.4883	-0.1831
10796397	-0.0127	0.0029	1.0039	0.7324	-0.7324	-0.1221
10808401	-0.0122	0.0044	1.0103	0.7324	-0.7324	0
10821406	-0.0117	0.0054	1.0044	0.6714	-0.6104	-0.1831
10833402	-0.0151	0.0029	1.0107	0.8545	-0.7935	-0.061
10845402	-0.0151	0.0093	1.0039	0.7324	-0.6714	-0.2441
10857406	-0.0166	0.0073	1.0078	0.9155	-0.6714	0
10871402	-0.0156	0.0083	1.0044	0.6714	-0.7935	0
10883418	-0.0103	0.0083	1.0039	0.6714	-0.5493	0
10895406	-0.0093	0.0068	1.0049	0.6714	-0.7935	-0.2441
10907406	-0.0103	0.0078	1.0068	0.4883	-0.7935	-0.061
10919402	-0.0161	0.0073	1.0024	0.8545	-0.5493	-0.1221
10931402	-0.0171	0.0063	1.0034	0.6714	-0.8545	-0.1221
10943402	-0.0156	0.0063	1.0088	0.7324	-0.7324	-0.1831
10955406	-0.019	0.0059	1.0015	0.8545	-0.7935	-0.1831
10967397	-0.0093	0.0054	1.0059	0.7324	-0.7935	-0.061
10981405	-0.0107	0.0049	1.0044	0.4883	-0.7324	0.061
10993406	-0.0112	0.0039	1.0083	0.7935	-0.8545	0
11005406	-0.0137	0.0049	1.0132	0.7935	-0.7324	-0.061
11017402	-0.0166	0.0049	1.0063	0.6714	-0.6104	-0.061
11029402	-0.02	0.0068	1.0117	0.6104	-0.8545	-0.1831
11041406	-0.0181	0.0063	1.0107	0.7935	-0.8545	0
11053401	-0.0156	0.0059	1.0127	0.7935	-0.7935	0.1221
11065402	-0.0151	0.0112	1.0103	0.7324	-0.7324	-0.1831
11077402	-0.0112	0.0093	1.0103	0.7324	-0.7324	0
11090406	-0.0112	0.0063	1.0103	0.6714	-0.7935	-0.1221
11104402	-0.0142	0.0078	1.0083	0.7324	-0.8545	-0.1221
11116397	-0.0166	0.0063	1.0112	0.6104	-0.6714	-0.1831
11128406	-0.0137	0.0068	1.0063	0.6714	-0.7324	-0.1831
11140401	-0.0107	0.0049	1.0034	0.6104	-0.8545	-0.1221
11152402	-0.0132	0.0088	1.0059	0.5493	-0.6714	-0.1221
11164402	-0.0117	0.0073	1.0063	0.5493	-0.5493	-0.061
11176406	-0.0132	0.0015	1.0049	0.7935	-0.7935	-0.2441
11189532	-0.0132	0.0078	1.0015	0.7935	-0.6104	0
11202402	-0.0103	0.0049	1.0078	0.7935	-0.7324	0
11216402	-0.0103	0.0103	1.0151	0.7935	-0.7324	0
11228406	-0.0093	0.0039	1.0073	0.6104	-0.9155	-0.061
11240406	-0.0122	0.0073	1.0112	0.5493	-0.7324	-0.1221
11252402	-0.0151	0.0059	0.9985	0.7324	-0.7935	-0.061
11264397	-0.0166	0.0093	1.0059	0.7324	-0.7935	-0.1221
11276406	-0.0205	0.0039	1.001	0.8545	-0.7324	-0.1831
11288398	-0.0171	0.0049	1.0122	0.7935	-0.7324	-0.061
11300402	-0.0156	0.0078	1.0103	0.7324	-0.6714	-0.3052
11312397	-0.0132	0.0083	1.0044	0.7324	-0.7935	-0.1221
11324406	-0.0078	0.0063	1.0093	0.7324	-0.7324	-0.2441
11338402	-0.0103	0.0068	1.0054	0.6104	-0.6104	-0.1221
11350402	-0.0127	0.0059	1.0098	0.7935	-0.7935	-0.1221
11362401	-0.0161	0.0049	1.0078	0.7324	-0.8545	-0.1831
11374402	-0.0146	0.0059	1.0073	0.9155	-0.7324	-0.2441
11386397	-0.019	0.0049	1.0083	0.6714	-0.7324	-0.2441
11398406	-0.0142	0.0054	1.0083	0.7935	-0.8545	-0.2441
11410401	-0.0112	0.0073	1.002	0.6714	-0.7324	-0.061
11422410	-0.0107	0.0039	1.0083	0.6714	-0.6104	-0.1221
11434397	-0.0112	0.0117	1.0044	0.7324	-0.7324	0.061
11448406	-0.0137	0.0029	1.0068	0.8545	-0.8545	-0.1831
11460392	-0.0142	0.0083	1.0024	0.7324	-0.6714	-0.1831
11472410	-0.0161	0.0093	1.0039	0.7935	-0.7935	-0.2441
11484397	-0.0122	0.0088	1.0078	0.5493	-0.7935	0
11496406	-0.0137	0.0063	1.0078	0.6104	-0.5493	-0.061
11508401	-0.0151	0.0039	1.0044	1.0376	-0.9766	-0.1221
11520410	-0.0127	0.0063	1.0088	0.4272	-0.7935	-0.1221
11532405	-0.0156	0.0034	1.0073	0.8545	-0.6714	0.061
11545523	-0.0122	0.0093	1.0083	0.8545	-0.7935	-0.1831
11558401	-0.0103	0.0063	1.0063	0.6714	-0.6104	-0.1221
11572406	-0.0112	0.0059	1.0088	0.7324	-0.7324	0
11584397	-0.0166	0.0049	1.0112	0.7935	-0.8545	-0.061
11596453	-0.0122	0.0078	1.0068	0.7324	-0.6714	-0.2441
11608397	-0.0156	0.0078	1.0054	0.6714	-0.7935	0
11620406	-0.0156	0.0078	1.0083	0.7324	-0.7324	-0.1221
11632388	-0.0151	0.0054	1.0059	0.7324	-0.7935	-0.1221
11644410	-0.0186	0.0049	1.0103	0.6104	-0.7935	-0.1831
11656401	-0.0171	0.0073	1.001	0.6714	-0.7324	-0.1221
11668406	-0.0127	0.0093	0.9976	0.9155	-0.7935	-0.061
11682516	-0.0117	0.0107	1.001	0.7324	-0.8545	0
11694414	-0.0137	0.0073	1.0059	0.7935	-0.6714	-0.061
11706401	-0.0107	0.0088	1.0078	0.6104	-0.6104	-0.1831
11718402	-0.0122	0.0039	1.0063	0.5493	-0.8545	0.061
11730397	-0.0166	0.0083	1.002	0.9155	-0.7324	0.1221
11742410	-0.0166	0.0059	1.0137	0.7935	-0.7935	-0.1221
11754401	-0.019	0.0044	1.0029	0.9155	-0.7935	-0.1831
11766406	-0.0156	0.0068	1.0078	0.7324	-0.6714	-0.1221
11778397	-0.0103	0.0068	1.0093	0.7935	-0.7324	-0.3052
11790410	-0.0107	0.0063	1.0015	0.7935	-0.6104	-0.2441
11804435	-0.0132	0.0063	1.0088	0.6714	-0.7324	-0.1221
11816406	-0.0112	0.0078	1.0024	0.5493	-0.6104	-0.1221
11828401	-0.0088	0.0093	1.0103	0.7324	-0.6104	0
11840410	-0.0156	0.0083	1.0059	0.7324	-0.7935	0
11852397	-0.0151	0.0029	1.0156	0.6714	-0.8545	-0.1831
11864402	-0.0137	0.0054	1.0063	0.7935	-0.7324	0
11876401	-0.0142	0.0044	1.0088	0.7935	-0.6104	0
11888401	-0.0156	0.0073	1.0068	0.9155	-0.7324	-0.1831
11900402	-0.0142	0.0068	1.0039	0.4883	-0.8545	-0.1221
11915523	-0.0142	0.0078	1.0044	0.6104	-0.7324	-0.1221
11928402	-0.0132	0.0088	1.0063	0.6714	-0.6104	-0.2441
11940406	-0.0098	0.0049	1.0132	0.7935	-0.7935	-0.1221
11952388	-0.0142	0.0034	0.999	0.7324	-0.6104	-0.1221
11964402	-0.0127	0.0059	1.0049	0.8545	-0.9766	-0.1221
11976401	-0.0151	0.0073	1.0015	0.6714	-0.6104	-0.1831
11988410	-0.0171	0.0034	1.0039	0.7324	-0.7324	-0.1221
12000397	-0.0112	0.0078	1.0083	0.7324	-0.7935	-0.2441
12012406	-0.0107	0.0063	1.0039	0.7935	-0.7324	-0.1831
12024401	-0.0146	0.0063	1.0073	0.6104	-0.6714	-0.1831
12038402	-0.0151	0.0063	1.0107	0.7324	-0.7935	-0.2441
12050397	-0.0127	0.0054	1.0083	0.9155	-0.9766	-0.1831
12062410	-0.0156	0.0039	1.0039	0.7324	-0.9766	-0.1831
12074401	-0.0122	0.0068	1.0049	0.8545	-0.7324	0.061
12086406	-0.0127	0.0015	1.0088	0.6714	-0.6714	-0.2441
12098397	-0.0112	0.0049	1.0078	0.7935	-0.7935	-0.061
12110450	-0.0127	0.0107	1.0166	0.9155	-0.7935	-0.2441
12122388	-0.0156	0.0039	1.0088	0.5493	-0.9155	-0.1831
12134406	-0.0151	0.0029	1.0107	0.6714	-0.7935	-0.061
12148397	-0.0166	0.0015	1.0054	0.7935	-0.6104	-0.1221
12160410	-0.0146	0.0059	1.0034	0.8545	-0.9155	-0.061
12172401	-0.0151	0.0107	1.001	0.7935	-0.8545	-0.1221
12184406	-0.0132	0.0024	1.0117	0.7324	-0.6714	0
12196397	-0.0103	0.0049	1	0.7324	-0.5493	-0.1831
12208402	-0.0078	0.0063	1.0088	0.7324	-0.6104	0
12220401	-0.0063	0.0073	1.0098	0.9766	-0.6104	-0.1221
12232406	-0.0151	0.0029	1.0088	0.8545	-0.6104	-0.061
12244397	-0.0151	0.0068	1.0103	0.7324	-0.7935	0
12256410	-0.0117	0.0005	1.0059	0.8545	-0.6104	-0.1221
12271516	-0.0176	0.0063	1.0142	0.6714	-0.7324	-0.1221
12284406	-0.0161	0.0078	0.999	0.8545	-0.7324	-0.2441
12296388	-0.0156	0.0034	1.0107	0.4883	-0.8545	-0.061
12308410	-0.0146	0.0073	1.0059	0.6714	-0.4272	-0.2441
12320397	-0.0098	0.0112	1.0049	0.8545	-0.6104	-0.2441
12332410	-0.0127	0.0039	1.0103	0.7324	-0.7935	-0.1221
12344401	-0.0117	0.0088	1.0015	0.9155	-0.7935	-0.2441
12356406	-0.0127	0.0054	1.0132	0.7935	-0.6714	0
12368397	-0.0166	0.002	1.0063	0.7324	-0.9766	-0.3662
12382406	-0.0146	0.0054	1.0093	0.7935	-0.7935	-0.061
12394401	-0.0146	0.0039	1.0103	0.7324	-0.9155	-0.061
12406410	-0.0142	0.0054	1.0098	0.6104	-0.7324	-0.061
12419423	-0.0161	0.0039	1.0093	0.7324	-0.8545	0.061
12431406	-0.0132	0.0059	1.0093	0.7935	-0.7324	-0.1221
12443388	-0.0078	0.0054	1.0078	0.5493	-0.7935	-0.2441
12455410	-0.0122	0.0078	1.0103	0.7935	-0.6104	-0.2441
12467388	-0.0161	0.0049	1.0073	0.6714	-0.9155	0
12479406	-0.0146	0.0073	1.0093	0.6104	-0.7935	-0.1221
12491401	-0.0142	0.0063	1.0073	0.7935	-0.6714	-0.1221
12505406	-0.0156	0.0068	1.0073	0.8545	-0.7935	-0.1831
12517400	-0.0186	0.0059	1.0107	0.8545	-0.7324	-0.1221
12529402	-0.0156	0.0044	1.0068	0.7324	-0.7324	0.061
12541401	-0.0161	0.0015	1.0107	0.6714	-0.7935	-0.061
12553406	-0.0122	0.0088	1.0122	0.6104	-0.8545	-0.2441
12565397	-0.0122	0.0083	1.0103	0.6714	-0.8545	-0.2441
12577410	-0.0117	0.0049	1.0127	0.6714	-0.7324	-0.061
12589401	-0.0103	0.0044	1.0083	0.7935	-0.4883	-0.1831
12601406	-0.0112	0.0054	1.0137	0.6104	-0.7935	-0.1221
12624028	-0.0142	0.0078	1.0098	0.7324	-0.7324	-0.1221
12637537	-0.0205	0.0073	1.0098	0.6714	-0.6104	-0.1221
12649402	-0.0146	0.0073	0.999	0.9766	-0.6104	-0.2441
12661411	-0.0112	0.0088	1.0059	0.7935	-0.7935	0.061
12673402	-0.0137	0.0088	1.0068	0.7935	-0.9155	-0.1221
12685411	-0.0107	0.0044	1.0078	0.9155	-0.9155	-0.1831
12697402	-0.0137	0.0068	1.0068	0.6714	-0.7324	-0.2441
12709415	-0.0151	0.0044	1.0073	0.7935	-0.7935	0
12721406	-0.0103	0.0044	1.0063	0.7935	-0.5493	0
12733411	-0.0142	0.0039	1.0107	0.7935	-0.6714	-0.2441
12747402	-0.0161	0.0039	1.0059	0.8545	-0.6714	-0.1221
12759411	-0.0176	0.0068	1.0088	0.6714	-0.7935	-0.1221
12771406	-0.0151	0.0044	1.0083	0.6714	-0.6104	-0.1221
12783411	-0.0137	0.0083	1.0103	0.7935	-0.6714	-0.3052
12795402	-0.0142	0.0059	1.0122	0.7324	-0.9155	-0.3052
12807415	-0.0132	0.0078	1.0088	0.7935	-0.7935	-0.1831
12819406	-0.0112	0.0083	1.0088	0.7324	-0.7324	-0.1221
12831411	-0.0088	0.0039	1.0044	0.7324	-0.7324	-0.1831
12843402	-0.0098	0.0078	1.0073	0.9155	-0.7324	-0.3052
12857415	-0.0171	0.0029	1.0176	0.6714	-0.6104	-0.1221
12869402	-0.0161	0.0098	0.999	0.6104	-0.7324	0
12881407	-0.0151	0.0059	1.0059	0.6104	-0.8545	0
12893406	-0.0117	0.0039	1.0078	0.7935	-0.7324	-0.061
12905415	-0.0156	0.0049	1.0024	0.6104	-0.7324	-0.2441
12917402	-0.0112	0.0024	1.0083	0.6714	-0.7935	-0.061
12929482	-0.0103	0.0083	1.0073	0.6104	-0.6104	0.061
12942406	-0.0142	0.0054	1.0034	0.6104	-0.6104	-0.061
12954411	-0.0112	0.0073	1.0103	0.5493	-0.5493	0
12966402	-0.0161	0.0078	1.001	0.8545	-0.7935	-0.1221
12980411	-0.0122	0.0044	1.0132	0.6104	-0.6714	-0.1221
12993532	-0.0098	0.0054	1.0054	0.6714	-0.8545	-0.061
13006415	-0.0117	0.0029	1.0078	0.7935	-0.6104	-0.1831
13018402	-0.0146	0.0034	1.0073	0.7324	-0.7935	-0.061
13030453	-0.021	0.0039	1.0137	0.6714	-0.6104	0
13042406	-0.0171	0.0073	1.0161	0.7324	-0.7935	-0.2441
13054415	-0.0151	0.0059	1.0044	0.6714	-0.6714	-0.061
13066402	-0.0098	0.0059	1.0103	0.6104	-0.6714	0
13078407	-0.0132	0.0073	1.0127	0.6104	-0.6714	0
13092411	-0.0132	0.0054	1.0083	0.7935	-0.6104	-0.1831
13104407	-0.0161	0.0059	1.0146	0.7935	-0.6714	0.1221
13116407	-0.0137	0.0103	1.001	0.6714	-0.7324	-0.1221
13128411	-0.0166	0.0098	1.0059	0.6714	-0.7324	-0.061
13140411	-0.0142	0.0103	1.0059	0.7324	-0.6714	-0.1221
13152407	-0.0146	0.0078	1.0073	0.7324	-0.6714	-0.061
13164407	-0.0161	0.0063	1.0117	0.9155	-0.8545	-0.3052
13176411	-0.0098	0.0068	1.0049	0.7324	-0.7935	-0.1221
13188407	-0.0142	0.0044	1.0063	0.6714	-0.7324	-0.1221
13200407	-0.0142	0.0078	1.0093	0.6714	-0.5493	-0.061
13214407	-0.0151	0.0034	1.0093	0.7935	-0.9766	-0.1221
13226411	-0.0132	0.0068	1.0088	0.6714	-0.7935	-0.3052
13238451	-0.0142	0.0049	1.0122	0.7935	-0.6714	-0.2441
13250407	-0.0156	0.0049	1.0151	0.9155	-0.6714	-0.1221
13262407	-0.0146	0.0029	1.0161	0.7324	-0.8545	-0.1221
13274423	-0.0127	0.0112	1.0073	0.5493	-0.7935	-0.061
13286411	-0.0122	0.0083	1.0093	0.8545	-0.8545	-0.3052
13298415	-0.0156	0.0063	1.0078	0.6714	-0.7324	-0.1831
13310407	-0.0132	0.0063	1.0127	0.8545	-0.7935	-0.1221
13324411	-0.0151	0.0068	1.0083	0.7324	-0.6714	-0.1221
13336410	-0.0156	0.0034	1.0127	0.6714	-0.8545	-0.2441
13348407	-0.0166	0.0029	1.019	0.7935	-0.7324	-0.2441
13361407	-0.0142	0.0054	1.0093	0.8545	-0.8545	-0.1221
13373411	-0.0156	0.0029	1.0132	0.6104	-0.7324	-0.061
13385407	-0.0098	0.0039	1.0088	0.5493	-0.7324	0
13397407	-0.0083	0.0034	1.0059	0.6104	-0.7935	-0.061
13409411	-0.0132	0.0093	1.0083	0.7324	-0.7324	-0.1221
13421411	-0.0117	0.0073	1.0059	0.7324	-0.8545	-0.1221
13433407	-0.0161	0.0029	1.0122	0.6104	-0.6104	-0.2441
13447407	-0.0122	0.0088	1.0029	0.9766	-0.6714	-0.2441
13459411	-0.0146	0.0044	1.0083	0.6714	-0.7935	-0.061
13471411	-0.0117	0.0083	1.0063	0.7935	-0.7324	-0.1831
13483407	-0.0176	0.0059	1.0112	0.4883	-0.6714	-0.3052
13495411	-0.0142	0.0059	1.0083	0.9155	-0.6714	0
13507407	-0.0132	0.0078	1.0088	0.6714	-0.7324	-0.1831
13519411	-0.0137	0.0098	1.0088	0.4272	-0.7935	-0.1831
13531407	-0.0117	0.0049	1.0117	0.7324	-0.7324	-0.1221
13543464	-0.0117	0.0103	1.0107	0.7324	-0.9766	-0.1831
13557536	-0.0117	0.0078	1.0039	0.7324	-0.6714	-0.1221
13569407	-0.0117	0.0034	1.0083	0.8545	-0.8545	0
13581407	-0.0137	0.0107	1.0039	0.6714	-0.6104	0
13593407	-0.0151	0.0059	1.0034	0.7324	-0.6714	-0.2441
13605415	-0.0132	0.0029	1.0073	0.7935	-0.7324	0
13617407	-0.0146	0.0049	1.0029	0.6104	-0.8545	-0.1221
13629407	-0.0122	0.0083	1.0137	0.6714	-0.6104	-0.061
13641411	-0.0151	0.0078	1.0083	0.7935	-0.8545	-0.3052
13653411	-0.0132	0.0039	1.0181	0.6714	-0.9155	0.061
13665411	-0.0137	0.0054	1.0039	0.6714	-0.8545	-0.1831
13679407	-0.0098	0.0073	1.0039	0.7935	-0.7935	-0.2441
13691411	-0.0098	0.0068	1.0083	0.5493	-0.6714	-0.061
13703411	-0.0103	0.0059	1.0044	0.6714	-0.7324	-0.1831
13715411	-0.0112	0.0073	1.0088	0.7324	-0.8545	-0.1831
13728532	-0.0151	0.0078	1.0073	0.7324	-0.8545	-0.061
13741411	-0.0137	0.0063	1.0112	0.7324	-0.7324	-0.061
13753411	-0.0176	0.0044	1.0088	0.8545	-0.8545	-0.061
13765407	-0.0171	0.0059	1.0034	0.8545	-0.7324	-0.061
13777407	-0.0103	0.0049	1.0059	0.7324	-0.7324	-0.061
13791411	-0.0088	0.0093	1.0044	0.7324	-0.7324	-0.1221
13803407	-0.0088	0.0054	1.0137	0.6104	-0.7935	-0.1831
13815411	-0.0088	0.0059	1.0063	0.6104	-0.7935	-0.3052
13827407	-0.0132	0.0049	1.0103	0.7935	-0.7324	-0.1221
13839411	-0.0117	0.0063	1.0088	0.6714	-0.5493	-0.1831
13851507	-0.0171	0.0068	1.0093	0.6714	-0.5493	-0.2441
13864407	-0.0146	0.0063	1.0073	0.9155	-0.6714	0.061
13876411	-0.0151	0.0039	1.0088	0.6104	-0.6714	0
13888411	-0.0151	0.0029	1.0117	0.8545	-0.5493	0.061
13900407	-0.0156	0.0049	1.0088	0.7324	-0.7324	0
13914407	-0.0146	0.0078	1.0005	0.6104	-0.8545	0.061
13926411	-0.0088	0.0083	1.0107	0.7324	-0.6104	-0.1221
13938411	-0.0107	0.0068	1.0024	0.7935	-0.6104	-0.2441
13950408	-0.0132	0.0088	1.0078	0.6714	-0.9155	-0.2441
13962407	-0.0151	0.0044	1.0068	0.7935	-0.6714	-0.061
13974411	-0.019	0.0034	1.001	0.7324	-0.8545	0.061
13986411	-0.0166	0.0049	1.0088	0.6104	-0.6714	-0.061
13998407	-0.0176	0.0059	1.0049	0.7935	-0.6104	0
14010407	-0.0127	0.0005	1.0093	0.7935	-0.7935	-0.061
14022407	-0.0107	0.0024	1.0063	0.6714	-0.7324	0
14036407	-0.0088	0.0063	1.0054	0.7324	-0.4883	-0.1831
14048411	-0.0098	0.0039	1.0063	0.8545	-0.7935	0.061
14060411	-0.0103	0.0078	1.0029	0.7935	-0.6104	0
14072411	-0.0137	0.0034	1.0093	0.7324	-0.9155	-0.3052
14085532	-0.0151	0.0044	1.0068	0.6714	-0.9155	-0.1831
14098407	-0.0181	0.0054	1.0068	0.9766	-0.9155	0
14110407	-0.0161	0.0054	1.0059	0.8545	-0.3662	-0.1831
14122411	-0.0181	0.0088	1.0073	0.7935	-0.7935	-0.1221
14134407	-0.0151	0.0093	1.0054	0.7324	-0.7935	-0.061
14148407	-0.0142	0.0059	1.0063	0.7324	-0.7935	-0.1221
14160411	-0.0117	0.0083	1.0083	0.7935	-0.8545	-0.2441
14172407	-0.0127	0.0088	1.0088	0.6714	-0.8545	-0.3052
14184407	-0.0122	0.0083	1.0068	0.6104	-0.7324	-0.1831
14196407	-0.0161	0.0068	1.0117	0.8545	-0.7935	-0.1831
14208411	-0.0161	0.0049	1.0044	0.7935	-0.8545	-0.061
14220411	-0.0156	0.002	1.0103	0.8545	-0.7324	-0.1831
14232407	-0.0122	0.0073	1.0078	0.8545	-0.6104	-0.1831
14244407	-0.0166	0.001	1.0088	0.7324	-0.6714	-0.2441
14256443	-0.0146	0.001	1.0054	0.8545	-0.5493	-0.2441
14270407	-0.0132	0.0054	1.0083	0.8545	-0.6714	-0.1831
14282407	-0.0132	0.0083	1.0059	0.7324	-0.7324	-0.1221
14294411	-0.0117	0.0078	1.0088	0.6104	-0.6714	-0.061
14306411	-0.0142	0.0049	1.0088	0.7935	-0.8545	-0.1831
14318407	-0.0112	0.0059	1.0083	0.7935	-0.6714	-0.061
14330407	-0.0132	0.0073	1.0063	0.7935	-0.7324	-0.2441
14342407	-0.019	0.0063	1.0078	0.6714	-0.5493	-0.1831
14354411	-0.0132	0.0049	1.0063	0.7324	-0.7935	-0.1221
14366407	-0.0176	0.0068	1.0068	0.8545	-0.7324	-0.061
14380407	-0.0151	0.0029	1.0083	0.9766	-0.7935	-0.1831
14392411	-0.0146	0.0054	1.0049	0.6714	-0.7935	-0.061
14404407	-0.0112	0.0054	1.0078	0.7935	-0.7324	-0.4272
14416407	-0.0083	0.0078	1.0083	0.7935	-0.7935	-0.2441
14428407	-0.0142	0.0063	1.0063	0.7324	-0.9155	0
14440411	-0.0137	0.0049	1.0068	0.6104	-0.7324	-0.061
14453532	-0.0171	0.0078	1.0063	0.6714	-0.7324	-0.1831
14465440	-0.0142	0.0063	1.0073	0.7324	-0.9155	-0.1221
14477407	-0.0142	0.0044	1.0059	0.6714	-0.7935	-0.1221
14489406	-0.0176	0.0078	1.0083	0.6714	-0.7324	-0.2441
14511888	-0.0142	0.0049	1.0083	0.6714	-0.8545	-0.061
14524397	-0.0112	0.0073	1.0054	0.5493	-0.7324	0.061
14536412	-0.0146	0.0073	1.0098	0.5493	-0.6104	-0.061
14548393	-0.0176	0.0088	1.0029	0.6104	-0.6714	0
14560408	-0.0132	0.0068	1.0059	0.8545	-0.9155	-0.1831
14572397	-0.0117	0.0068	1.0078	0.7324	-0.9766	-0.1221
14584412	-0.0122	0.0054	1.0049	0.9155	-0.6714	-0.1831
14596393	-0.0122	0.0078	1.0059	0.9155	-0.6714	-0.1221
14608408	-0.0117	0.0093	1.0112	0.7324	-0.6714	-0.1221
14622646	-0.0156	0.0068	1.0083	0.7324	-0.7324	-0.1831
14635408	-0.0176	0.0059	1.0078	0.7324	-0.6104	0
14647393	-0.0146	0.0063	1.0073	0.6714	-0.7935	-0.2441
14659408	-0.0171	0.0039	1.0034	0.7324	-0.4883	0
14671456	-0.0132	0.0049	1.0063	0.7935	-0.6104	-0.1831
14683408	-0.0117	0.0063	1.0073	0.7324	-0.8545	-0.1831
14695393	-0.0156	0.0039	1.0098	0.9155	-0.6714	-0.061
14707412	-0.0161	0.0054	1.0078	0.6714	-0.9155	-0.061
14719397	-0.0156	0.0044	1.0034	0.7324	-0.7324	-0.1831
14731408	-0.0142	0.0044	1.0044	0.6104	-0.6714	-0.1221
14745401	-0.0127	0.0039	1.0098	0.7324	-0.7935	-0.1221
14757412	-0.0103	0.0063	1.0068	0.6104	-0.7935	0.061
14769435	-0.0137	0.0088	1.0093	0.4883	-0.5493	0
14780718	-0.0107	0.0103	1.0054	0.7935	-0.7935	-0.1221
14793393	-0.0137	0.0063	1.0127	0.6714	-0.7935	0.1221
14806537	-0.0186	0.0039	1.0068	0.5493	-0.7324	-0.1831
14819407	-0.0127	0.0073	1.0098	0.6714	-0.7324	-0.061
14831412	-0.0156	0.0117	1.0059	0.5493	-0.6714	-0.1221
14843403	-0.0107	0.0068	1.0093	0.6714	-0.7935	-0.061
14857424	-0.0137	0.0044	1.0059	0.6104	-0.8545	-0.1831
14869419	-0.0151	0.0059	1.0093	0.8545	-0.7935	-0.061
14881412	-0.0151	0.0063	1.0083	0.6714	-0.6104	-0.1221
14893407	-0.0161	0.0044	1.0088	0.7324	-0.7324	-0.1221
14905416	-0.0161	0.0059	1.0078	0.6104	-0.9155	-0.061
15044698	-0.0195	0.0073	1.0078	0.7324	-0.6104	-0.1831
15079645	-0.0122	0.0054	1.0083	0.6104	-0.7324	-0.1221
15092407	-0.0093	0.0044	1.0068	0.7935	-0.9155	-0.2441
15104416	-0.0112	0.0049	1.0127	0.6714	-0.7324	0.061
15116464	-0.0156	0.0029	1.0083	0.5493	-1.0986	-0.061
15130412	-0.0181	0.0063	1.0068	0.7935	-0.7324	-0.1221
15142393	-0.0151	0.0068	1	0.3662	-0.4883	-0.3052
15154416	-0.0127	0.0093	1.0059	0.9766	-0.8545	0
15167403	-0.0132	0.0059	1.0049	0.7935	-0.6714	-0.1221
15179408	-0.0122	0.0029	1.0098	0.9766	-0.6714	-0.1831
15191428	-0.0146	0.0063	1.0107	0.6714	-0.7935	-0.1831
15202728	-0.0132	0.0078	1.0059	0.6714	-0.9155	0
15215408	-0.0132	0.0044	1.0122	0.7324	-0.9155	-0.061
15227408	-0.0137	0.0054	1.0073	0.7935	-0.8545	-0.1221
15241412	-0.0146	0.0049	1.0034	0.6714	-0.7324	-0.3052
15253408	-0.0151	0.0049	1.0103	0.6104	-0.7324	0.061
15265408	-0.0098	0.0088	1.0024	0.7324	-0.8545	-0.2441
15277412	-0.0103	0.0068	1.0103	0.9155	-0.8545	-0.3662
15289420	-0.0127	0.0098	1.0039	0.7935	-0.7935	-0.1221
15301408	-0.0156	0.0073	1.0117	0.9155	-0.7935	0
15313403	-0.0156	0.0073	1.0117	0.6104	-0.7324	-0.061
15325412	-0.0181	0.0054	1.0029	0.7935	-0.6714	-0.061
15337407	-0.0151	0.0029	1.0054	0.9155	-0.7935	-0.061
15349408	-0.0151	0.0073	0.998	0.7324	-0.6104	-0.1221
15363403	-0.0132	0.0059	1.0098	0.7324	-0.9155	0
15375403	-0.0122	0.0039	1.0142	0.7935	-0.7935	0
15387436	-0.0103	0.0078	1.0049	0.7324	-0.8545	-0.1221
15399403	-0.0146	0.0073	1.0117	0.5493	-0.7324	0
15411408	-0.0132	0.0063	1.0063	0.6714	-0.7324	-0.061
15423412	-0.0146	0.0034	1.0068	0.6104	-0.8545	-0.061
15436533	-0.0122	0.0078	1.0034	0.6714	-0.8545	-0.061
15449408	-0.0137	0.0024	1.0083	0.7935	-0.8545	-0.1831
15461408	-0.0122	0.0039	1.0132	0.8545	-1.0376	0.061
15475412	-0.0117	0.0049	0.9971	0.7935	-0.7324	0
15487421	-0.0142	0.0078	1.0054	0.9155	-0.8545	-0.2441
15499408	-0.0146	0.0034	1.0029	0.6714	-0.7935	-0.1221
15511412	-0.0146	0.0063	1.0063	0.7935	-0.6104	-0.061
15523412	-0.0142	0.0049	1.0073	0.7324	-0.7324	-0.061
15535408	-0.0122	0.0049	1.0195	0.7324	-0.7935	-0.061
15547408	-0.0156	0.0078	1.0078	0.6714	-0.6714	-0.061
15559412	-0.0171	0.0068	1.0024	0.8545	-0.6714	-0.3052
15571403	-0.02	0.0049	1.0093	0.7935	-0.8545	0.061
15583408	-0.0171	0.0112	1.0068	0.7935	-0.7324	-0.1221
15597529	-0.0151	0.0068	1.0088	0.7935	-0.6714	0
15609412	-0.0132	0.0044	1.0054	0.7324	-0.9155	0
15621412	-0.0142	0.0073	1.0063	0.6714	-0.7324	-0.2441
15633403	-0.0112	0.0049	1.0063	0.7324	-0.6714	-0.1831
15645408	-0.0117	0.0049	1.0049	0.7935	-0.7935	-0.2441
15657407	-0.0146	0.0044	1.0073	0.6714	-0.6714	-0.1221
15669412	-0.0151	0.0029	1.0073	0.9155	-0.7935	-0.1831
15681408	-0.0181	0.0044	1.0039	0.7935	-0.7324	-0.1221
15693456	-0.0166	0.0049	1.0117	0.8545	-0.7935	-0.1221
15707412	-0.0142	0.0083	1.0122	0.7324	-0.7324	-0.2441
15719403	-0.0117	0.0073	1.0112	0.7324	-0.6714	-0.061
15731408	-0.0161	0.0054	1.0078	0.6104	-0.7935	-0.1221
15743412	-0.0137	0.0088	0.9985	0.9766	-0.7324	-0.1831
15755407	-0.0122	0.0059	1.0059	0.9155	-0.9155	-0.1831
15767408	-0.0142	0.0059	1.0059	0.7935	-0.7324	-0.1831
15779408	-0.0171	0.0068	1.0078	0.8545	-0.8545	-0.1831
15791412	-0.0156	0.0039	1.0122	0.7935	-0.7935	-0.2441
15804529	-0.0132	0.0029	1.0093	0.7324	-0.7935	-0.061
15817408	-0.0146	0.0034	1.0049	0.8545	-0.7324	-0.1221
15831404	-0.0103	0.0063	1.0078	0.7935	-0.9155	0.061
15843408	-0.0151	0.0107	1.0015	0.6714	-0.7935	-0.2441
15855408	-0.0098	0.0088	1.0078	0.7935	-0.9155	-0.1221
15867404	-0.0122	0.0039	1.0063	0.6714	-0.7324	-0.2441
15879404	-0.0117	0.0073	1.0142	0.6714	-0.7324	-0.2441
15891399	-0.0146	0.0098	1.0088	0.6104	-0.8545	-0.061
15903408	-0.0127	0.0073	1.0034	0.9155	-0.7935	-0.061
15915399	-0.0137	0.0068	1.0083	0.9766	-0.8545	-0.2441
15927404	-0.0112	0.0059	1.0078	0.7324	-0.7324	-0.1221
15941408	-0.0107	0.0024	1.0083	0.7324	-0.5493	-0.1831
15953399	-0.0103	0.0059	1.0073	0.6714	-0.7324	-0.2441
15965404	-0.0137	0.0039	1.0103	0.7324	-0.6714	-0.061
15977403	-0.0161	0.0063	1.0083	0.6104	-0.7935	-0.1221
15989408	-0.0151	0.0054	1.0068	0.8545	-0.7935	-0.1831
16001416	-0.0161	0.0093	1.0054	0.8545	-0.6104	-0.061
16013404	-0.0137	0.0034	1.0112	0.7935	-0.6714	-0.1831
16025408	-0.0181	0.0088	1.0098	0.6714	-0.9766	-0.1831
16037408	-0.0132	0.0059	1.0044	0.8545	-0.9766	-0.2441
16049453	-0.0117	0.0088	1.0059	0.6104	-0.7935	0
16063399	-0.0117	0.0049	1.0073	0.7324	-0.6714	-0.1221
16075408	-0.0093	0.0088	1.0103	0.6714	-0.7324	-0.1831
16087408	-0.0098	0.0044	1.0083	0.7935	-0.6714	-0.1221
16099404	-0.0132	0.0024	1.0088	0.6714	-0.7935	-0.3662
16112404	-0.0146	0.0049	1.0059	0.5493	-0.6104	-0.1831
16124404	-0.0161	0.0049	1.0093	0.7324	-0.7935	-0.1221
16136408	-0.0166	0.0083	1.0059	0.7935	-0.8545	-0.061
16148399	-0.0161	0.0063	1.0039	0.6714	-0.6714	0
16160404	-0.0146	0.0054	1.0117	0.4883	-0.7935	-0.2441
16175529	-0.0156	0.0068	1.0127	0.8545	-0.6104	-0.1831
16188404	-0.0161	0.0078	1.0034	0.7935	-0.7935	-0.061
16200404	-0.0122	0.0083	1	0.9766	-0.9766	0.061
16212399	-0.0137	0.0059	1.0063	0.7324	-0.7324	-0.061
16224408	-0.0151	0.002	1.0039	0.6714	-0.7935	-0.061
16236399	-0.0122	0.0044	1.0098	0.7935	-0.7935	-0.061
16248404	-0.0127	0.0073	1.0054	0.6104	-0.6714	-0.2441
16260408	-0.0176	0.0049	1.0029	0.6714	-0.5493	-0.2441
16272408	-0.0156	0.0015	1.0098	0.7935	-0.6104	-0.1831
16284404	-0.0146	0.0044	1.0078	0.8545	-0.8545	-0.2441
16298399	-0.0137	0.0034	1.0044	0.7935	-0.7324	0.061
16310432	-0.0112	0.0029	1.0093	0.7935	-0.6714	-0.1221
16322408	-0.0132	0.0049	1.0107	0.7935	-0.6714	-0.061
16334404	-0.0142	0.0088	1.0117	0.7324	-0.7324	-0.1831
16346404	-0.0112	0.0063	1.002	0.7324	-0.6104	-0.1831
16358408	-0.0112	0.0054	1.0122	0.6714	-0.9766	0
16370408	-0.0146	0.0073	1.0054	0.6714	-0.7935	-0.3052
16382404	-0.0142	0.0073	1.0112	0.7324	-0.6104	-0.1221
16394404	-0.0176	0.0073	1.0107	0.7324	-0.9155	-0.061
16408416	-0.0181	0.0083	1.0039	0.7935	-0.7935	-0.3662
16420404	-0.0156	0.002	1.0088	0.7935	-0.7324	-0.1831
16432404	-0.0103	0.0088	1.0054	0.7935	-0.6714	-0.2441
16444404	-0.0098	0.0078	1.0068	0.6104	-0.7324	-0.1221
16456408	-0.0112	0.0049	1.0078	0.6714	-0.6104	-0.3662
16468399	-0.0103	0.0059	1.0073	0.7324	-0.6714	-0.061
16480404	-0.0132	0.0078	1.0093	0.4883	-0.7324	0
16492403	-0.0166	0.0034	1.0161	0.8545	-0.8545	0
16504408	-0.0181	0.0083	1.0093	0.7324	-0.8545	-0.061
16516404	-0.02	0.0059	0.9971	0.8545	-0.9766	-0.1221
16539885	-0.0112	0.0054	1.0015	0.9155	-0.7324	-0.2441
16552400	-0.0098	0.0093	1.0107	0.7935	-0.7324	0
16564404	-0.0107	0.0063	1.0034	0.6714	-0.6104	-0.1221
16576408	-0.0103	0.0063	1.0132	0.6714	-0.7324	-0.1221
16588408	-0.0122	0.0024	1.0117	0.7935	-0.6104	-0.1831
16600404	-0.0137	0.0034	1.0088	0.7935	-0.6714	-0.1221
16612405	-0.019	0.0088	1.0132	0.6714	-0.7324	-0.1831
16624408	-0.02	0.0049	1.002	0.6714	-0.7935	-0.1221
16636400	-0.0186	0.0073	1.0103	0.7324	-0.7324	-0.1831
16650404	-0.0137	0.0059	1.0034	0.7935	-0.7324	0
16662404	-0.0103	0.0078	1.0044	0.8545	-0.7324	-0.061
16674408	-0.0088	0.0073	1.0088	0.6714	-0.7324	-0.061
16686408	-0.0132	0.0078	1.0044	0.7935	-0.7324	-0.1831
16698404	-0.0127	0.0078	1.0093	0.7324	-0.7935	-0.1221
16710404	-0.0176	0.0054	1.0059	0.6104	-0.7324	0.061
16722400	-0.0103	0.0068	1.0073	0.8545	-0.9155	-0.061
16734408	-0.0142	0.0029	1.0278	0.4883	-0.9155	-0.1831
16746404	-0.0181	0.0107	1.0024	0.6104	-0.6714	-0.1221
16758404	-0.0146	0.0049	0.9971	0.7324	-0.7935	-0.2441
16772404	-0.0117	0.0054	1.0161	0.7935	-0.7324	0.061
16784400	-0.0132	0.0073	1.0005	0.6104	-0.7324	-0.1221
16796404	-0.0112	0.0054	1.0068	0.7935	-0.6714	0
16808404	-0.0103	0.0068	1.0117	0.5493	-0.7324	-0.1831
16820488	-0.0137	0.0068	1.0068	0.9155	-0.8545	-0.1221
16831718	-0.0132	0.0073	1.0078	0.6714	-0.6714	-0.061
16844404	-0.0186	0.0063	1.0015	0.9155	-0.8545	-0.1831
16856408	-0.0161	0.0068	1.0054	0.6714	-0.7935	0.061
16868404	-0.0132	0.0044	1.0029	0.5493	-0.6714	-0.2441
16883404	-0.0142	0.0024	1.0083	0.6104	-0.6104	-0.061
16895404	-0.0142	0.0029	1.0112	0.8545	-0.8545	-0.061
16907408	-0.0137	0.0054	1.0034	0.8545	-0.7935	-0.1831
16919408	-0.0156	0.0039	1.0151	0.7935	-0.7324	-0.1221
16931404	-0.0142	0.0068	1.0083	0.7935	-0.7935	-0.1221
16943404	-0.0142	0.0059	1.0054	0.7324	-0.6714	-0.1831
16955404	-0.0137	0.0088	1.0107	0.7324	-0.7935	-0.3052
16967408	-0.0156	0.0078	1.0029	0.5493	-0.8545	-0.2441
16979404	-0.0146	0.0073	1.0107	0.7935	-0.9766	-0.2441
16991404	-0.0156	0.0068	1.0049	0.8545	-0.7324	-0.1831
17005408	-0.019	0.0078	1.0078	0.6714	-0.9155	0
17017404	-0.0132	0.0044	1.0054	0.7324	-0.7935	-0.2441
17029404	-0.0146	0.0049	1.0029	0.7324	-0.8545	-0.1221
17041404	-0.0078	0.0063	0.999	0.9155	-0.6104	-0.2441
17053485	-0.0098	0.0024	1.0078	0.7935	-0.6714	-0.1221
17065429	-0.0093	0.0063	1.0073	0.7935	-0.7324	0.061
17077404	-0.0112	0.0078	1.0049	0.8545	-0.4883	-0.2441
17089408	-0.0122	0.0078	1.0083	0.6714	-0.9766	-0.3052
17101408	-0.0142	0.0054	1.0098	0.7935	-0.7324	-0.3052
17115404	-0.02	0.0059	1.0044	0.9155	-0.9155	-0.1221
17127490	-0.0186	0.0093	1.0098	0.8545	-0.6714	0.061
17140412	-0.0195	0.0044	1.0098	0.6714	-0.7935	-0.3052
17152408	-0.0127	0.0068	0.999	0.7935	-0.8545	-0.1221
17164400	-0.0137	0.0088	1.0063	0.7935	-0.8545	-0.1221
17176404	-0.0088	0.0063	1.0103	0.7935	-0.7935	0
17188408	-0.0107	0.0049	1.0176	0.6104	-0.8545	0.1221
17200412	-0.0127	0.0015	1.0083	0.7324	-0.7324	0.061
17212404	-0.0137	0.0054	1.0103	0.7935	-0.7324	-0.1831
17224404	-0.0215	0.0049	1.0083	0.6104	-0.9766	0.061
17239534	-0.0181	0.001	0.9985	0.5493	-0.7324	-0.061
17252400	-0.0151	0.0063	1.0117	0.7324	-0.7935	-0.061
17264404	-0.0127	0.0078	1.0083	0.6714	-0.8545	-0.3662
17276404	-0.0112	0.0078	1.0015	0.6714	-0.7935	0.061
17288408	-0.0063	0.0107	1.0073	0.7324	-0.7324	-0.3052
17300408	-0.0127	0.0054	1.0049	0.8545	-0.7935	-0.2441
17312404	-0.0117	0.0054	1.0151	0.5493	-0.7935	-0.1221
17324408	-0.0166	0.0024	1.0063	0.6714	-0.6104	-0.2441
17336408	-0.0142	0.0039	1.0142	0.7324	-0.6714	-0.3052
17350408	-0.0161	0.0044	1.002	0.7324	-0.6714	-0.1221
17362404	-0.0161	0.0049	1.0059	1.0376	-0.7935	-0.061
17374408	-0.0127	0.0044	1.0068	0.7324	-0.6104	-0.1831
17386408	-0.0142	0.0068	1.0093	0.9155	-0.6104	-0.1831
17398404	-0.0103	0.0098	1.0107	0.8545	-0.6104	-0.3052
17410408	-0.0127	0.0044	1.0024	0.7935	-0.7324	-0.3052
17422408	-0.0107	0.0068	1.0083	0.7935	-0.7324	-0.1221
17434463	-0.0161	0.0039	1.0059	0.6714	-0.9766	-0.1831
17446404	-0.0127	0.0049	1.0093	0.7324	-0.6714	-0.1831
17458404	-0.0186	0.0029	1.0034	0.9766	-0.7935	-0.2441
17472534	-0.0146	0.0054	1.0171	0.8545	-0.7935	0
17484404	-0.0151	0.0054	0.9946	0.7935	-0.6714	-0.1831
17496400	-0.0073	0.0073	1.0078	0.7324	-0.6104	-0.1831
17508408	-0.0073	0.0039	1.0049	0.7935	-0.6714	-0.1221
17520408	-0.0093	0.0078	1.0015	0.7324	-0.7935	0
17532404	-0.0132	0.0049	1.0146	0.6714	-0.7935	-0.1221
17544404	-0.0166	0.0044	1.0063	0.9155	-0.8545	-0.061
17556408	-0.0176	0.0103	1.0049	0.8545	-0.6714	-0.1831
17568408	-0.0166	0.0068	1.0171	0.7935	-0.9766	0.061
17582404	-0.0303	0.0029	1.0059	1.2207	-0.7324	-0.2441
17594404	-0.0132	0.0034	0.9849	0.3662	-0.7324	-0.2441
17607530	0.001	-0.0029	1.0532	0.061	-0.3662	-0.1221
17618725	0.0024	0.0063	0.9839	0.7935	-0.7935	-0.2441
17631400	-0.0059	-0.0029	1.0566	0.3662	-0.7324	-0.1221
17643404	-0.0195	0.0029	1.0005	1.1597	-0.9766	-0.061
17655408	-0.0278	0.001	1.0063	1.0986	-0.6714	0.061
17667408	-0.0254	0.0054	0.999	0.9155	-0.8545	-0.3662
17679400	-0.0229	0.0093	0.9854	0.7935	-0.6714	-0.061
17691400	-0.0107	0.0112	1.0127	0.3662	-0.5493	0
17705408	-0.0054	0.0063	1.0171	0.6104	-0.8545	0.061
17717404	-0.0068	0.0049	1.019	0.7324	-0.7935	-0.1221
17729404	-0.0083	0.0103	1.0024	1.0986	-0.7324	-0.1221
17741456	-0.0132	0.0103	1.0034	1.0986	-0.7935	-0.061
17753408	-0.0151	0.0063	1.001	0.5493	-0.7935	-0.2441
17765404	-0.0171	0.0039	1.0112	0.4272	-0.7935	0
17777404	-0.019	0.0049	1.0078	0.6104	-0.4883	-0.1831
17789404	-0.0122	-0.001	1.019	0.7935	-0.8545	-0.2441
17801408	-0.0093	-0.0005	1.0029	0.9766	-0.7324	-0.1221
17815404	-0.0166	0.0049	1.0034	0.9155	-0.9155	-0.1221
17827404	-0.0117	0.0098	0.9937	1.0986	-0.7935	0
17839408	-0.0146	0.001	1.0513	0.3052	-1.0376	-0.1221
17851404	-0.0117	0.0073	1.0137	0.3052	-0.7324	-0.061
17863404	-0.0073	0.0132	1.0015	0.8545	-0.6104	0
17875404	-0.0117	0.0122	1.0186	0.8545	-0.5493	-0.1831
17887408	-0.0181	0.0146	0.9961	0.9766	-0.8545	0.061
17899404	-0.0225	0.0029	1.0352	0.4272	-0.7935	-0.1221
17911404	-0.022	0.0132	0.9873	0.7324	-0.7935	-0.061
17923400	-0.0205	0.0034	1.0215	0.9155	-0.5493	-0.2441
17937408	-0.0098	0.0039	1.0059	0.7935	-0.7324	-0.2441
17949404	-0.0107	0.0005	1.0083	0.6714	-0.7324	-0.1831
17961404	-0.0088	-0.001	1.0103	0.5493	-0.7935	-0.1221
17974534	-0.0103	0.001	1.0088	0.6104	-0.7324	-0.1221
17987408	-0.0166	0.0039	1.0044	0.7324	-0.8545	-0.061
17999404	-0.0161	0.0039	1.0068	0.6714	-0.9766	-0.1831
18011404	-0.0171	0.0088	1.0107	0.7935	-0.5493	-0.061
18023404	-0.0151	0.0068	1.0063	0.7324	-0.7324	-0.2441
18035408	-0.0132	0.0103	1.0093	0.6714	-0.7324	-0.2441
18049625	-0.0132	0.0059	1.0093	0.7935	-0.6714	-0.1221
18062404	-0.0146	0.0093	0.9912	0.8545	-0.6714	0.061
18074404	-0.0146	0.0107	1.0063	0.6714	-0.6104	-0.1221
18086408	-0.0146	0.0049	1.0029	0.8545	-0.7935	0
18098404	-0.0088	0.0054	1.0063	0.8545	-0.7324	-0.1221
18110404	-0.0098	0.0073	1.0107	0.7324	-0.6714	0
18122408	-0.0088	0.0015	1.0093	0.6714	-0.9155	-0.1831
18134408	-0.0156	0.0005	1.0093	0.8545	-0.8545	0
18146404	-0.02	0.0029	1	0.6714	-0.6104	-0.061
18158404	-0.0195	0.0039	1.0078	0.6714	-0.7935	-0.061
18172404	-0.0103	0.0059	1.0059	0.4883	-0.7324	-0.1221
18184404	-0.0083	0.0049	1.0078	0.7324	-0.6104	-0.1221
18196404	-0.0073	0.0117	1.0059	0.4272	-0.7324	-0.1221
18208408	-0.0151	0.0059	1.0127	0.6104	-0.6714	-0.061
18220408	-0.0161	0.0034	1.0107	0.8545	-0.7935	-0.1831
18232404	-0.021	0.0112	1.0015	1.0986	-0.9766	0.061
18244404	-0.021	0.0117	0.999	0.9155	-0.7324	0.061
18256404	-0.0176	0.0112	1.0054	0.7324	-0.4883	0.061
18268424	-0.0137	0.0078	1.0063	0.4883	-0.6104	-0.2441
18280404	-0.0098	0.0024	1.0117	0.5493	-0.7324	0
18294404	-0.0117	0.0029	1.0122	0.6104	-0.6104	-0.1831
18306408	-0.0156	0.0059	1.0015	0.8545	-0.7935	-0.1221
18318408	-0.0166	0.0044	1.0044	0.9155	-0.7935	0
18331530	-0.0146	0.001	1.0122	0.7935	-0.7935	-0.3052
18343404	-0.0151	0.0034	1.002	0.6104	-0.8545	-0.3052
18355416	-0.0117	0.0015	1.0005	0.8545	-0.6104	-0.1831
18367404	-0.0098	0.0039	1.0151	0.8545	-0.7935	-0.061
18379404	-0.0103	0.0049	1.0029	0.8545	-0.7324	-0.1221
18391404	-0.0166	0.0063	1.0088	0.7935	-0.7324	-0.1221
18413890	-0.019	0.0068	1.0103	0.7324	-0.6714	-0.1221
18426405	-0.0127	0.0068	1.0029	0.6714	-0.6714	-0.1831
18438409	-0.0122	0.0039	1.0146	0.6714	-0.6714	-0.2441
18450409	-0.0132	0.0044	1.0146	0.8545	-0.7935	0
18462405	-0.0132	0.0083	0.9995	0.7324	-0.9155	-0.1221
18474400	-0.0122	0.0049	1.0063	0.7935	-0.6714	-0.061
18486409	-0.0186	0.0078	1.0005	0.8545	-0.6104	-0.2441
18498409	-0.0132	0.0122	0.9902	0.7935	-0.5493	-0.1221
18510400	-0.0127	0.0044	1.0142	0.6714	-0.7324	-0.1221
18522405	-0.0103	0.0107	1.0059	0.7324	-0.9155	-0.1221
18536409	-0.0161	0.002	1.0127	0.9155	-0.7935	-0.2441
18548405	-0.0117	0.0059	1.0181	0.7935	-0.7935	-0.061
18560462	-0.0156	0.0068	1.0078	0.7324	-0.8545	0.061
18572409	-0.0117	0.0063	1.0044	0.6714	-0.5493	-0.061
18584409	-0.0127	0.0059	1.0127	0.5493	-0.6104	-0.1221
18596405	-0.0112	0.0068	1.002	0.5493	-0.6104	-0.1831
18608405	-0.0171	0.0078	1.0122	0.7324	-0.6104	0
18620405	-0.0132	0.0068	1.0142	0.6714	-0.7935	-0.1221
18632409	-0.021	0.002	1.0068	0.7935	-0.7935	-0.1831
18646405	-0.02	-0.0068	1.0776	2.0752	-1.4038	-0.1221
18658405	-0.0342	0.0073	1.0264	0.3052	-1.4648	-0.1221
18670409	-0.0171	0.0137	0.9507	1.5259	-0.061	0.1831
18682400	0.0088	0.0034	1.0439	0.6104	-0.6104	-0.1221
18695526	0.0098	0.0093	1.0039	0.2441	-0.7324	-0.3052
18708405	0.0015	-0.002	1.0469	0.1831	-0.8545	-0.1831
18720409	-0.0176	-0.0044	1.0356	0.6714	-0.9155	-0.2441
18732409	-0.0347	-0.0044	1.0015	1.2817	-0.8545	-0.2441
18744405	-0.0361	-0.0005	0.998	1.2207	-0.5493	-0.3052
18756405	-0.0288	0.0054	0.9849	0.9766	-0.7935	-0.1221
18770400	-0.0098	0.0098	1.0059	0.3662	-0.6714	-0.1831
18782405	0.0073	0.0078	1.0083	0.4883	-0.7324	-0.1831
18794405	0.0049	0.0093	1.0186	0.6714	-0.6714	-0.2441
18806409	0.002	0.0107	1.0103	0.8545	-0.7324	-0.1221
18818409	-0.0156	0.0103	0.9995	1.1597	-0.7324	-0.2441
18830405	-0.0234	0.0103	0.9985	0.7324	-1.0376	-0.1831
18842405	-0.0259	0.0029	1.0015	0.7324	-0.6104	-0.061
18854405	-0.0215	0	1.0103	0.4883	-0.6714	-0.061
18866409	-0.0142	0.0005	1.0112	0.7324	-0.6104	-0.1221
18880405	-0.0054	0.0063	1.0093	0.9155	-0.6714	-0.1831
18892405	-0.0039	0.0049	1.0073	0.7935	-0.7935	-0.2441
18904409	-0.0142	0.0039	1.0059	0.7324	-0.6714	-0.2441
18916409	-0.0117	0.0049	1.0068	0.8545	-0.7324	-0.061
18928405	-0.0117	0.0068	1.0049	0.7324	-0.6714	0
18940405	-0.0166	0.0093	1.0107	0.7324	-0.7935	0
18952409	-0.0142	0.0088	1.0054	0.7935	-0.7324	0
18964409	-0.0151	0.0122	1.0059	0.7935	-0.7935	-0.1831
18976405	-0.0137	0.0078	1.0015	0.8545	-0.6714	-0.1831
18988405	-0.0176	0.0049	1.0229	0.7324	-0.8545	-0.1221
19002405	-0.0215	0.0044	1.0098	0.7324	-0.7324	0.1221
19014405	-0.019	0.0034	1.002	0.9766	-0.8545	-0.1831
19026405	-0.0103	0.0068	1.0112	0.5493	-0.8545	-0.061
19038409	-0.0103	0.0034	1	0.7935	-0.7935	0.061
19051530	-0.0068	0.0034	1.0098	0.7324	-0.7935	-0.1831
19064405	-0.0098	0.0015	1.001	0.6104	-0.7935	-0.1221
19076405	-0.0146	0.0029	1.0059	0.6714	-0.7324	-0.1831
19088409	-0.0117	0.0029	1.0083	0.8545	-0.6714	-0.1221
19100409	-0.0215	0.0063	1.0073	0.7935	-0.6104	-0.2441
19114405	-0.019	0.0063	1.0083	0.9155	-0.9155	-0.3052
19126405	0.0327	0.0117	1.0215	0.4883	-0.7935	0.1221
19138409	-0.0103	0.0029	1.0024	1.0986	-0.7324	-0.3052
19150409	-0.0078	0.0015	1.0083	0.8545	-0.7324	-0.1221
19162405	-0.0103	0.0034	1.0088	0.8545	-0.6714	-0.2441
19174465	-0.0156	0.0083	1.0059	0.7935	-0.7324	-0.4883
19186409	-0.0117	0.0015	1.0034	0.9155	-0.7324	-0.2441
19198405	-0.0156	0.001	1.0068	0.7935	-0.7935	-0.3052
19210405	-0.0127	0.0039	1.0068	0.8545	-0.8545	-0.2441
19222405	-0.0142	0.0054	1.0098	0.8545	-0.8545	-0.061
19236409	-0.0142	0.0078	1.0059	0.9155	-0.7935	-0.1221
19248405	-0.0132	0.0107	1.0063	0.9766	-0.6714	-0.3662
19260405	-0.0146	0.0083	1.0078	0.8545	-0.4883	-0.1221
19272409	-0.0146	0.0098	1.0054	0.7935	-0.8545	-0.1221
19284409	-0.0146	0.0078	1	0.7935	-0.6714	-0.1221
19296405	-0.0122	0.0117	1.0078	0.6104	-0.7324	-0.1831
19308405	-0.0122	0.0049	1.0098	0.7935	-0.5493	-0.1831
19320409	-0.0132	0.0103	1.0103	0.7324	-0.7324	-0.061
19332409	-0.0132	0.0098	1.0068	0.9155	-0.5493	-0.1221
19346526	-0.0161	0.0059	1.0073	0.8545	-0.9155	-0.1831
19358405	-0.0142	0.0049	1.0098	0.7324	-0.8545	0
19370417	-0.0137	0.0015	1.0093	0.5493	-0.7324	-0.1831
19382458	-0.0171	0.0034	1.0049	0.7324	-0.8545	-0.1221
19394405	-0.0127	0.0024	1.0044	0.8545	-0.6714	0
19406405	-0.0142	0.0029	1.0034	0.7935	-0.7935	-0.1831
19419530	-0.0161	0.0093	1.0078	0.7935	-0.7324	-0.1221
19431405	-0.0093	0.0059	1.0078	0.9766	-0.8545	-0.061
19443405	-0.0098	0.0068	1.0088	0.7324	-0.6714	-0.1831
19455405	-0.0142	0.0088	1.0078	0.7935	-0.6714	-0.1221
19469409	-0.0161	0.0088	1.0068	0.7935	-0.8545	-0.3052
19481413	-0.0151	0.0054	1.0068	0.7935	-0.7935	-0.1831
19493405	-0.0146	0.0088	1.0083	0.9766	-0.9766	-0.1831
19505409	-0.0186	0.0078	1.0044	0.8545	-0.6104	-0.3052
19517405	-0.0122	0.002	1.0093	0.7324	-0.6104	-0.061
19529405	-0.0098	0.0088	1.0093	0.6104	-0.6714	-0.1221
19541405	-0.0132	0.0024	1.0034	0.7935	-0.6104	-0.2441
19553409	-0.0151	0.0049	1.0093	0.7935	-0.7324	0.1221
19565425	-0.0137	0.0034	1.0073	0.6714	-0.8545	0
19579409	-0.0156	0.0044	1.0044	0.7935	-0.7935	-0.3052
19591409	-0.0127	0.0049	1.0039	0.7324	-0.8545	0.061
19603409	-0.0127	0.0078	1.0083	0.6104	-0.6714	-0.1831
19615413	-0.0117	0.0098	1.0063	0.8545	-0.6104	-0.061
19627409	-0.0117	0.0127	0.9995	0.7324	-0.6714	-0.1221
19639404	-0.0161	0.0132	1.0068	0.7324	-0.4883	-0.1831
19651413	-0.0171	0.0122	1.0078	0.8545	-0.7324	-0.1221
19663413	-0.0132	0.0093	1.0049	0.7324	-0.6714	-0.061
19675409	-0.0142	0.0103	1.0068	0.7324	-0.7935	-0.1221
19687466	-0.0142	0.0083	1.0059	0.6714	-0.7935	0
19701413	-0.0132	0.0059	1.0044	0.9155	-0.7935	-0.1831
19713409	-0.0142	0.0059	1.0088	0.7935	-0.7324	-0.061
19725409	-0.0132	0.001	1.0073	0.6714	-0.7324	-0.3052
19737413	-0.0142	0.0015	1.0054	0.7324	-0.7324	-0.1831
19749409	-0.0151	0.002	1.0107	0.7324	-0.9155	-0.1831
19761409	-0.0146	0.0034	1.0088	0.9766	-0.4883	-0.061
19773615	-0.0103	0.0024	1.0088	0.8545	-0.6714	0.061
19786538	-0.0132	0.0024	1.0088	0.7935	-0.7324	-0.1221
19799413	-0.0132	0.0059	1.0093	0.7935	-0.7935	-0.1221
19813409	-0.0132	0.0078	1.0029	0.7935	-0.6714	-0.061
19825409	-0.0156	0.0039	1.0088	0.7935	-0.7935	-0.061
19837409	-0.0127	0.0078	1.0073	0.7324	-0.7324	-0.061
19849413	-0.0132	0.0059	1.0103	0.7324	-0.7324	-0.1831
19861409	-0.0093	0.0049	1.0107	0.7935	-0.7935	-0.061
19873409	-0.0117	0.0063	1.0112	0.6104	-0.5493	-0.1221
19885413	-0.0156	0.0034	1.0098	0.9766	-0.7935	0.061
19897413	-0.0142	0.0044	1.0039	0.7935	-0.7324	-0.1221
19909409	-0.0171	0.0034	1.0117	0.7935	-0.9155	-0.2441
19921409	-0.0142	0.002	1.0107	0.9155	-0.7935	-0.2441
19935413	-0.0156	0.0059	1.0083	0.7935	-0.7935	-0.1221
19947409	-0.0122	0.0073	1.0088	0.9155	-0.6714	-0.1831
19959409	-0.0107	0.0103	1.0083	0.8545	-0.9155	-0.061
19971413	-0.0073	0.0107	1	0.7935	-0.7935	0
19983413	-0.0132	0.0107	1.0083	0.7935	-0.6104	-0.061
19995538	-0.0127	0.0068	1.0112	0.9766	-0.7324	-0.1221
20008409	-0.0137	0.0098	1.0073	0.7935	-0.7324	-0.2441
20020413	-0.0132	0.0098	1.002	0.8545	-0.7324	0
20032409	-0.0146	0.0078	1.0054	0.7324	-0.7324	-0.1221
20046409	-0.0117	0.0054	1.0083	0.8545	-0.6714	-0.1221
20058409	-0.0117	0.0083	0.9971	0.5493	-0.5493	-0.061
20070404	-0.0117	0.0034	1.0107	0.6714	-0.8545	-0.2441
20082413	-0.0181	0.0059	1.0073	0.5493	-0.7935	-0.4272
20094409	-0.0142	0.0015	1.0068	0.4272	-0.7324	-0.2441
20106409	-0.0137	0.002	1.0088	0.6714	-0.6104	-0.2441
20118413	-0.0146	0.0039	1.0049	0.7324	-0.8545	-0.1831
20130413	-0.0161	0.0098	1.0068	1.0376	-0.7935	0
20143530	-0.0161	0.0073	1.0054	0.7324	-0.8545	-0.1831
20156409	-0.0132	0.0068	1.0083	0.7935	-0.8545	-0.2441
20170413	-0.0137	0.0088	1.0103	0.6104	-0.7324	-0.1221
20182409	-0.0132	0.0073	1.0068	0.6104	-0.7324	-0.061
20194409	-0.0132	0.0078	1.0088	0.5493	-0.6714	-0.061
20206413	-0.0117	0.0044	1.0083	0.6714	-0.7324	-0.2441
20218413	-0.0146	0.0049	1.002	0.7324	-0.6714	-0.3052
20230409	-0.0142	0.0073	1.0049	0.9766	-0.9766	-0.1831
20242409	-0.0146	0.0063	1.0029	0.8545	-0.7935	-0.1831
20254413	-0.0132	0.0049	1.002	0.6714	-0.6104	-0.1831
20266409	-0.0181	0.0068	1.0093	0.6714	-0.8545	-0.1831
20288886	-0.0093	0.0068	1.0083	0.7324	-0.7324	-0.1221
20301496	-0.0142	0.0054	1.0063	0.7324	-0.7324	-0.2441
20313401	-0.0176	0.0049	1.0078	0.6714	-0.9155	-0.061
20325401	-0.0117	0.0068	1.0049	0.7324	-0.7324	-0.1221
20337405	-0.0132	0.0063	1.0068	0.7935	-0.6104	-0.2441
20349401	-0.0103	0.0093	1.0093	0.6104	-0.8545	-0.1831
20361406	-0.0137	0.0083	1.0078	0.7935	-0.6714	-0.3662
20373401	-0.0127	0.0093	1.0098	0.7324	-0.7935	-0.1221
20385405	-0.0156	0.0049	1.0073	0.7324	-0.9155	-0.1831
20397405	-0.0176	0.0068	1.0044	0.7324	-0.6714	-0.1221
20411401	-0.0161	0.0054	1.0083	0.7324	-0.9155	-0.1221
20423401	-0.0166	0.0054	1.0083	0.7935	-0.7935	-0.061
20435405	-0.0088	0.0078	1.0068	0.7324	-0.6714	-0.061
20447405	-0.0093	0.0059	1.0063	0.6714	-0.6714	-0.1831
20459401	-0.0098	0.0063	1.0093	0.6714	-0.7935	-0.061
20471401	-0.0117	0.0059	1.0063	0.7324	-0.7324	-0.1221
20483405	-0.0137	0.0063	1.0059	0.6714	-0.7935	-0.2441
20495405	-0.0166	0.0059	1.0103	0.6714	-0.7935	0
20508567	-0.0142	0.0029	1.0015	0.7935	-0.7324	-0.1831
20523410	-0.0146	0.0063	1.0029	0.6104	-0.6714	0
20535410	-0.0127	0.0068	1.0103	0.7935	-0.5493	-0.1831
20547406	-0.0151	0.0034	1.0068	0.9155	-0.7935	-0.1831
20559406	-0.0117	0.0063	1.0083	0.6714	-0.7935	-0.061
20571410	-0.0181	0.0073	1.0073	0.6104	-0.5493	-0.3052
20583406	-0.0117	0.0049	1.0054	0.7935	-0.7935	-0.061
20595406	-0.0161	0.0078	1.0083	0.7324	-0.7324	-0.1221
20607409	-0.0132	0.0044	1.0098	0.8545	-0.8545	-0.1221
20619405	-0.0117	0.0059	1.0073	0.7935	-0.7324	-0.2441
20631414	-0.0117	0.0059	1.0059	0.8545	-0.7324	-0.1221
20645401	-0.0146	0.0063	1.0063	0.7935	-0.7935	-0.2441
20657410	-0.0151	0.0054	1.0093	0.6714	-0.6714	0
20669392	-0.0142	0.0049	1.0068	0.6104	-0.6104	-0.061
20681414	-0.0161	0.0063	1.0083	0.6714	-0.6714	-0.061
20693392	-0.0151	0.0088	1.0054	0.6714	-0.8545	-0.1221
20705410	-0.0176	0.0093	1.0059	0.8545	-0.7935	-0.061
20717405	-0.0171	0.0088	1.0063	0.4883	-0.7324	-0.1221
20729414	-0.0122	0.0088	1.0078	0.7324	-0.7935	-0.1831
20741401	-0.0122	0.0073	1.0088	0.6714	-0.7324	0.061
20755410	-0.0127	0.0068	1.0083	0.7935	-0.5493	-0.3662
20767405	-0.0127	0.0054	1.0083	0.9766	-0.7324	0.1221
20779410	-0.0132	0.0029	1.0107	0.6714	-0.8545	-0.1831
20791401	-0.0142	0.002	1.0073	0.6104	-0.8545	0
20803414	-0.0132	0.002	1.0044	0.6714	-0.7324	-0.061
20815455	-0.0161	0.0044	1.0073	0.7324	-0.7324	-0.1831
20827410	-0.0142	0.0039	1.0059	0.4883	-0.6714	-0.1831
20839392	-0.0161	0.0073	1.0068	1.0376	-0.7324	-0.2441
20851414	-0.0127	0.0088	1.0059	0.8545	-0.6714	-0.061
20864527	-0.0151	0.0103	1.0078	0.8545	-0.6714	-0.061
20878410	-0.0151	0.0117	1.0083	0.6714	-0.6714	-0.2441
20890401	-0.0156	0.0107	1.0088	0.6714	-0.6714	-0.061
20902410	-0.0137	0.0059	1.0083	0.6104	-0.7324	-0.061
20914415	-0.0171	0.0063	1.0059	0.8545	-0.9155	-0.1221
20926406	-0.0151	0.0059	1.0078	0.6714	-0.3662	-0.1831
20938401	-0.0107	0.0078	1.0063	0.7935	-0.5493	0
20950414	-0.0112	0.001	1.0068	0.7935	-0.6714	-0.1831
20962405	-0.0112	0.002	1.0068	0.6104	-0.6104	-0.2441
20974410	-0.0112	0.0049	1.0073	0.8545	-0.6104	-0.1221
20988392	-0.0103	0.0054	1.0073	0.7324	-0.6714	-0.2441
21000414	-0.0146	0.0093	1.0078	0.6714	-0.8545	-0.1221
21151523	-0.0142	0.0063	1.0059	0.7935	-0.9155	-0.2441
21282531	-0.0146	0.0049	1.0088	0.6714	-0.6714	0
21295405	-0.0146	0.0049	1.0078	0.8545	-0.7324	-0.1221
21307414	-0.0146	0.0073	1.0083	0.6104	-0.7935	-0.061
21319401	-0.0137	0.0049	1.0107	0.8545	-0.7324	-0.1831
21331414	-0.0142	0.0054	1.0078	0.7935	-0.5493	-0.1831
21343392	-0.0166	0.0034	1.0034	0.8545	-0.6714	0
21355414	-0.0137	0.0034	1.0063	0.7324	-0.7935	-0.061
21370401	-0.0122	0.0063	1.0063	0.6714	-0.7324	-0.1831
21382410	-0.0122	0.0068	1.0068	0.5493	-0.6104	-0.1221
21394405	-0.0127	0.0054	1.0029	0.9155	-0.6714	-0.061
21406410	-0.0117	0.0073	1.0088	0.7324	-0.6104	-0.061
21418401	-0.0151	0.0063	1.0083	0.9155	-0.7324	0.1831
21430454	-0.0171	0.0107	1.0039	0.9155	-0.9155	0.1221
21442405	-0.0156	0.0073	1.0068	0.7935	-0.5493	-0.1831
21454414	-0.0156	0.0049	1.0049	0.6104	-0.7324	-0.1831
21466406	-0.0112	0.0039	1.0103	0.7324	-0.8545	-0.061
21480543	-0.0122	0.0068	1.0127	0.6714	-0.6714	-0.1831
21492391	-0.0117	0.0083	1.0103	0.8545	-0.6104	0
21504410	-0.0142	0.0073	1.0088	0.6104	-0.6104	-0.3052
21516406	-0.0156	0.0039	1.0054	0.8545	-0.7935	-0.061
21528414	-0.0146	0.0054	1.0068	0.7324	-0.7935	-0.1831
21540405	-0.0146	0.0083	1.002	0.6714	-0.9766	-0.1221
21552410	-0.0112	0.0078	1.0103	0.6714	-0.6714	0
21564401	-0.0132	0.0059	0.9985	0.6104	-0.7935	-0.1221
21576410	-0.0107	0.0054	1.0073	0.6104	-0.9155	-0.061
21588405	-0.0117	0.0049	1.0098	0.6104	-0.6714	-0.061
21602410	-0.0132	0.0039	1.0039	0.7935	-0.7324	-0.061
21614401	-0.0151	0.0083	1.0112	0.7935	-0.4883	-0.061
21626418	-0.0137	0.0039	1.0049	0.5493	-0.7935	-0.1831
21638405	-0.0166	0.0093	1.0073	0.8545	-0.9766	-0.1221
21651536	-0.0142	0.0068	1.0049	0.4883	-0.7324	-0.1221
21664391	-0.0132	0.0059	1.0068	0.6104	-0.6714	-0.1831
21676418	-0.0127	0.0063	1.0098	0.5493	-0.7324	-0.3052
21688396	-0.0103	0.0039	1.0063	0.7324	-0.7935	-0.2441
21700410	-0.0112	0.0068	1.0054	0.7324	-0.9155	-0.1221
21714405	-0.0117	0.0049	1.0054	0.7935	-0.8545	-0.2441
21726410	-0.0132	0.0068	1.0112	0.7935	-0.7935	-0.1221
21738401	-0.0151	0.0044	1.0059	0.8545	-0.7324	-0.1831
21750406	-0.0171	0.0083	1.0083	0.8545	-0.6714	0
21762405	-0.0146	0.0073	1.0034	0.8545	-0.7324	-0.1831
21774414	-0.0122	0.0068	1.0073	0.8545	-0.6714	0
21786406	-0.0122	0.0088	1.0059	0.4272	-0.7324	-0.1221
21798410	-0.0112	0.0112	1.0044	0.7935	-0.7324	-0.2441
21810405	-0.0137	0.0039	1.0093	0.8545	-0.7935	-0.1831
21822414	-0.0132	0.0083	1.0059	0.8545	-0.7935	-0.061
21836401	-0.0137	0.0054	1.0156	0.8545	-0.5493	-0.2441
21848410	-0.0166	0.0049	1.0083	0.9155	-0.8545	-0.1831
21860405	-0.0176	0.0049	1.0024	0.7324	-0.6714	0.061
21872414	-0.019	0.0049	1.0142	0.7935	-0.7935	0.061
21884401	-0.0112	0.0107	0.9858	0.7324	-0.6714	-0.2441
21896410	-0.0117	0.0073	1.0244	0.6714	-0.7324	0
21908405	-0.0083	0.0093	0.9863	0.6714	-0.6714	-0.2441
21920401	-0.0112	0.0054	1.0298	0.8545	-0.7324	-0.2441
21932401	-0.0098	0.0083	0.9976	0.7935	-0.5493	-0.1831
21946414	-0.0132	0.0063	1.0083	0.5493	-0.7935	-0.1831
21958405	-0.0161	0.0068	1.0093	0.7324	-0.7935	-0.1831
21970410	-0.0156	0.0088	0.9995	0.7324	-0.7935	0
21982388	-0.0146	0.0029	1.0156	0.7324	-0.7935	-0.3662
21994414	-0.0146	0.0049	0.9995	1.0376	-0.6714	-0.1831
22007527	-0.0146	0.0059	1.0103	0.6714	-0.6714	-0.1221
22020410	-0.0107	0.0039	1.0015	0.7935	-0.6104	-0.1831
22032401	-0.0127	0.0049	1.0093	0.7324	-0.7935	-0.1831
22044453	-0.0132	0.0068	1.0054	0.5493	-0.9155	-0.3052
22057405	-0.0156	0.0054	1.0132	0.7935	-0.7324	-0.061
22071410	-0.0122	0.0054	1.0088	0.6104	-0.4883	-0.1221
22083401	-0.0107	0.0039	1.0049	0.6714	-0.6714	-0.061
22095414	-0.0127	0.0044	1.0059	0.6714	-0.6714	-0.3052
22107405	-0.0127	0.0078	1.0005	0.7935	-0.7324	-0.061
22119410	-0.0132	0.0039	1.0107	0.6714	-0.6714	-0.1221
22131406	-0.0127	0.0078	1.0073	0.8545	-0.8545	-0.1221
22143425	-0.0112	0.0059	1.0083	0.7935	-0.8545	-0.1831
22155401	-0.0112	0.0078	1.0078	0.6714	-0.6714	0.1221
22167410	-0.0146	0.0049	1.0098	0.6714	-0.9155	0.061
22181410	-0.0176	0.0078	1.0039	0.7935	-0.6714	-0.061
22193414	-0.0151	0.0054	1.0054	0.7935	-0.7324	-0.2441
22205401	-0.0137	0.0059	1.0029	0.5493	-0.6714	0
22217410	-0.0068	0.0103	0.9961	0.6104	-0.7935	-0.2441
22229396	-0.0093	0.0063	1.0142	1.0376	-0.8545	-0.061
22241410	-0.0112	0.0068	1.0088	0.5493	-0.6714	-0.1221
22253401	-0.0142	0.0059	1.0083	0.7935	-0.9155	-0.061
22265406	-0.019	0.0093	0.9995	0.6104	-0.4883	-0.1831
22277396	-0.0161	0.0073	1.0107	0.7935	-0.6104	-0.2441
22289414	-0.0117	0.0059	1.0044	0.8545	-0.5493	-0.1221
22303401	-0.0146	0.0068	1.0107	0.9155	-0.6714	-0.1221
22315410	-0.0176	-0.002	0.9971	0.9766	-0.7324	0
22327388	-0.0107	0.0044	1.0015	0.8545	-0.6714	-0.061
22339414	-0.0059	0.0039	1.0039	0.6104	-0.6714	-0.1221
22351422	-0.0049	0.0024	1.0044	0.6714	-0.7935	-0.3052
22363410	-0.0093	0.0044	1.0127	0.7324	-0.6104	-0.061
22376535	-0.0142	0.0049	1.0063	0.9155	-0.6714	-0.1831
22388414	-0.0151	0.0034	1.0122	1.0376	-0.7324	-0.1221
22400401	-0.0195	0.0078	1.0044	0.9155	-0.7935	-0.1831
22422900	-0.0156	0.0083	1.0024	0.7935	-0.6104	-0.061
22435402	-0.0103	0.0093	1.0063	0.6104	-0.7324	-0.2441
22447411	-0.0063	0.0098	1.0083	0.4883	-0.7935	-0.1221
22459406	-0.0088	0.0103	1.0112	0.7935	-0.8545	-0.1221
22471612	-0.0098	0.0073	1.0078	0.9155	-0.7324	-0.061
22483402	-0.0137	0.0078	1.0098	0.6714	-0.7324	-0.061
22495407	-0.0161	0.0049	1.0029	0.8545	-0.6714	-0.2441
22507406	-0.0171	0.0054	1.0024	0.6104	-0.7324	0.061
22519415	-0.0122	0.0083	1.0063	0.6714	-0.6104	-0.1831
22531402	-0.0142	0.0039	1.0083	0.4883	-0.6714	-0.1221
22545415	-0.0137	0.0054	1.0024	1.0376	-0.6714	-0.1831
22557392	-0.0132	0.0078	1.0127	0.8545	-0.9155	-0.061
22569411	-0.0186	0.0068	1	0.6104	-0.7324	-0.1221
22581392	-0.0151	0.0063	1.0083	0.7324	-0.9155	0.061
22593415	-0.0161	0.0068	1.0039	0.5493	-0.6714	0.061
22605406	-0.0078	0.0112	1.0088	0.6714	-0.6104	-0.1221
22617411	-0.0107	0.0078	1.0088	0.5493	-0.7935	-0.1831
22629402	-0.0093	0.0078	1.0098	0.7324	-0.7324	-0.1221
22641411	-0.0122	0.0039	1.0054	0.8545	-0.7324	-0.061
22655413	-0.0146	0.0049	1.0039	0.7935	-0.6104	0
22667411	-0.0146	0.0054	1.0068	0.6714	-0.7324	-0.2441
22679402	-0.0132	0.0059	1.0068	0.6714	-0.6104	-0.2441
22691415	-0.0122	0.0054	1.0083	0.5493	-0.6714	-0.2441
22703406	-0.0103	0.0039	1.0049	0.7324	-0.6714	-0.1221
22715411	-0.0088	0.0073	1.0078	0.7324	-0.7324	-0.1831
22728402	-0.0161	0.0103	1.0078	0.6104	-0.6104	-0.1221
22740415	-0.0171	0.0039	1.0103	0.7935	-0.6104	-0.2441
22752406	-0.02	0.0068	1.0054	0.6714	-0.9155	0
22764411	-0.0166	0.0098	1.0044	0.8545	-0.7324	-0.1221
22778406	-0.0137	0.0073	1.0063	0.7935	-0.7935	-0.1831
22790411	-0.0122	0.0078	1.0068	0.9766	-0.6714	0
22802402	-0.0132	0.0117	1.0088	0.5493	-0.4883	-0.1221
22814411	-0.0156	0.0093	1.0078	0.9155	-0.7324	-0.1221
22826406	-0.0181	0.0073	1.0049	0.7935	-0.7324	-0.1831
22838415	-0.0146	0.0044	1.0078	0.7324	-0.6714	-0.2441
22850402	-0.0156	0.0083	1.0073	0.7935	-0.6714	-0.1221
22862481	-0.0103	0.0034	1.0088	0.6714	-0.8545	-0.1831
22874406	-0.0117	0.0024	1.0039	0.7324	-0.7935	-0.061
22888415	-0.0176	0.002	1.0063	0.9155	-0.6714	-0.3052
22900402	-0.0137	0.0029	1.0093	0.7324	-0.8545	0
22912411	-0.0142	0.0054	1.0068	0.7324	-0.7324	-0.1831
22924406	-0.0127	0.0112	1.0068	0.7935	-0.9155	-0.1831
22936415	-0.0137	0.0039	1.0063	1.0376	-0.8545	-0.1831
22948402	-0.0093	0.0088	1.0024	0.9766	-0.6714	-0.1221
22960411	-0.0107	0.0078	1.0083	0.6714	-0.7324	-0.061
22972406	-0.0151	0.0054	1.0039	0.6714	-0.6714	-0.2441
22984411	-0.0146	0.0063	1.0073	0.7324	-0.7935	-0.2441
22996402	-0.0176	0.0078	1.0083	0.6714	-0.7324	-0.1221
23010415	-0.0156	0.0059	1.0054	0.6714	-0.7935	-0.1221
23022406	-0.0117	0.0063	1.0088	0.7324	-0.7324	-0.1831
23034411	-0.0122	0.0073	1.0098	0.7324	-0.9155	-0.1831
23046402	-0.0083	0.0029	1.0063	0.7935	-1.0376	-0.2441
23058415	-0.0122	0.0088	1.0103	0.6104	-0.7324	-0.1221
23071402	-0.0156	0.0054	1.0063	0.8545	-0.8545	-0.1831
23083411	-0.0171	0.0059	1.0073	0.6714	-0.7324	-0.1221
23096524	-0.0142	0.0073	1.0044	0.7935	-0.7324	-0.1221
23109415	-0.0117	0.0078	1.0078	0.7324	-0.7935	-0.1831
23123406	-0.0112	0.0073	1.0059	0.8545	-0.7935	-0.5493
23135411	-0.0112	0.0059	1.0088	0.6104	-0.8545	-0.2441
23147402	-0.0137	0.0034	1.0083	0.7935	-0.8545	-0.2441
23159415	-0.0146	0.0117	1.002	1.0986	-0.7324	-0.2441
23171459	-0.021	0.0049	1.0186	0.8545	-0.8545	-0.061
23183411	-0.022	0.0063	1.0059	0.7935	-0.7935	-0.1831
23195402	-0.0142	0.0063	1.0098	0.9155	-0.7324	-0.2441
23207415	-0.0117	0.0049	1.0054	0.7935	-0.9155	0.061
23219406	-0.0088	0.0059	1.0093	0.7324	-0.6714	-0.3052
23231411	-0.0088	0.0059	1.0083	0.7935	-0.8545	-0.2441
23245406	-0.0049	0.002	1.001	0.8545	-0.7324	-0.1221
23257415	-0.0098	-0.0024	1.0205	0.6714	-0.9766	-0.2441
23269402	-0.0127	0.0039	0.9971	0.7935	-0.9155	-0.1831
23281407	-0.0146	0.0049	1.0068	0.9766	-0.6714	-0.1221
23293406	-0.019	0.0073	1.0107	0.6104	-0.7324	-0.1221
23305411	-0.0146	0.0083	1	0.7935	-0.7935	-0.1831
23317402	-0.0142	0.0093	1.0103	0.6104	-0.6714	-0.061
23329411	-0.0146	0.0103	1.0054	0.7935	-0.9155	-0.1831
23341406	-0.0146	0.0093	1.0107	0.7324	-0.6104	-0.061
23355540	-0.0142	0.0059	1.0063	0.9155	-0.6714	-0.3052
23367402	-0.0132	0.0103	1.0117	0.7324	-0.6104	0
23379411	-0.0112	0.0093	1.0039	0.9155	-0.6714	-0.2441
23391402	-0.0112	0.001	1.0083	0.7935	-0.7935	0
23403415	-0.0132	0.002	1.0054	0.7324	-0.6714	-0.061
23415402	-0.0127	0.0034	1.0068	0.7935	-0.7935	-0.3052
23427411	-0.0181	0.0024	1.0083	0.7324	-0.7935	-0.1831
23439406	-0.0195	0.0063	1.0088	0.7935	-0.6104	-0.1221
23451415	-0.0176	0.0073	1.0063	0.8545	-0.8545	-0.1831
23464528	-0.0103	0.0063	1.0063	0.7324	-0.6104	0.061
23478453	-0.0088	0.0083	1.0078	0.6104	-0.7324	0
23490406	-0.001	0.0078	1.0088	0.7935	-0.7324	-0.1831
23502411	-0.0063	0.0044	1.0112	0.8545	-0.8545	-0.061
23514402	-0.0127	0.0073	1.0093	0.7324	-0.7324	-0.1221
23526415	-0.0181	0.0054	1.0103	0.7324	-0.6104	-0.061
23538406	-0.0186	0.0093	1.0029	0.7324	-0.7935	0.061
23550411	-0.0176	0.0044	1.0068	0.6714	-0.6714	-0.1221
23562402	-0.0151	0.0088	1.0015	0.6104	-0.8545	-0.061
23574441	-0.0103	0.0078	1.0073	0.6714	-0.7324	-0.1221
23588406	-0.0112	0.0103	1.0063	0.8545	-0.7935	0
23600411	-0.0122	0.0103	1.0073	0.8545	-0.6714	-0.061
23612402	-0.0156	0.0093	1.0103	0.7935	-0.6714	-0.1221
23624411	-0.0186	0.0093	1.0205	0.6104	-0.9766	-0.2441
23636406	-0.0195	0.0088	1.0005	1.2207	-0.7935	-0.1831
23648411	-0.0137	0.0024	0.9878	0.6714	-0.7935	-0.061
23660392	-0.0039	-0.0024	1.02	0.6714	-0.7324	-0.1831
23672415	-0.0044	0.0029	0.9976	0.9155	-0.8545	0
23684396	-0.0068	-0.002	1.0142	0.6104	-0.5493	-0.2441
23696411	-0.0166	-0.0044	1.0156	0.9766	-0.8545	-0.1831
23710402	-0.0205	-0.0049	1.0059	0.9155	-0.6104	-0.1831
23722415	-0.022	0.0059	1.0054	0.9155	-0.7324	-0.1221
23734402	-0.0151	0.0103	1.0015	0.8545	-0.6714	-0.1831
23746411	-0.0142	0.0117	1.0063	0.6104	-0.6714	-0.2441
23758406	-0.0117	0.0166	1.0059	0.6104	-0.6714	-0.2441
23770415	-0.0156	0.0107	1.0093	0.9766	-0.7935	-0.1831
23782423	-0.0181	0.0137	1.0142	0.7935	-0.7324	-0.1831
23794411	-0.0195	0.0098	1.0054	0.8545	-0.8545	-0.2441
23806406	-0.0176	0.0078	1.0029	0.7324	-0.6104	0
23821540	-0.0093	0.0039	1.0044	0.4883	-0.6714	0
23834432	-0.0034	0.001	1.0039	0.7324	-0.7324	0
23847411	-0.0044	-0.0029	1.0117	0.7324	-0.7935	-0.1221
23859406	-0.0117	-0.0059	1.0083	0.6104	-0.7324	-0.1221
23871415	-0.0103	0.001	1.0039	0.7324	-0.6714	-0.2441
23883402	-0.0205	0.0034	1.0039	0.9155	-0.7935	-0.061
23895411	-0.0156	0.0088	1.002	0.8545	-0.7935	-0.1831
23907402	-0.0195	0.0117	1.0049	0.4883	-0.9766	-0.061
23919415	-0.0107	0.0161	1.0083	0.7324	-0.6104	-0.1221
23931402	-0.0098	0.0142	1.0093	0.7935	-0.8545	-0.1221
23945407	-0.0117	0.0059	1.0122	0.7935	-0.7935	-0.3052
23957411	-0.021	0.0073	1.0073	0.9766	-0.9155	-0.2441
23969407	-0.0244	0.0054	1.0044	0.7935	-0.6714	-0.2441
23981407	-0.02	-0.0044	1.0024	0.5493	-0.7935	0
23993411	-0.0254	0.0078	1.0088	0.6104	-0.6714	-0.1831
24005411	-0.0083	0.0044	1.0215	0.5493	-0.7324	-0.061
24017407	-0.0049	0.0068	1.0039	0.8545	-0.8545	-0.1221
24029407	-0.0059	0.0127	1.019	0.9766	-0.7935	-0.1831
24041411	-0.0073	0.0088	1.0049	0.7935	-0.5493	-0.2441
24055411	-0.0161	0.0122	1.0093	0.7935	-0.9155	-0.1831
24067407	-0.0244	0.0093	1.0024	0.5493	-0.6714	-0.2441
24079407	-0.0264	0.0049	1.0098	0.6104	-0.7324	-0.3662
24091485	-0.0239	0.0024	1.0073	0.6714	-0.6714	0
24104411	-0.0098	0.0068	1.0112	0.7935	-0.6714	0.061
24116407	-0.0049	0.0054	1.0117	0.7324	-0.9155	0
24128407	-0.001	0.0049	1.0039	0.7324	-0.8545	-0.1221
24140407	-0.0068	0.0039	1.0083	0.7935	-0.7324	-0.1221
24152411	-0.0122	0.0078	1.0034	0.8545	-0.6714	-0.061
24164407	-0.0176	0.0093	1.0112	0.7935	-0.6714	0
24179536	-0.0234	0.0059	1.0112	0.6714	-0.7324	0
24191411	-0.0181	0.0122	1.0068	0.7935	-0.7324	0.061
24203407	-0.0117	0.0078	1.0034	0.6714	-0.6714	0
24215407	-0.0054	0.0068	1.0078	0.6104	-0.6714	-0.061
24227407	-0.0029	0.0029	1.0029	0.7324	-0.7324	-0.1221
24239411	-0.0093	-0.0024	1.0063	0.7324	-0.6714	0.061
24251407	-0.0156	-0.0015	1.0103	0.6104	-0.6104	0.061
24263407	-0.0195	-0.0005	1.0083	0.7324	-0.7324	-0.1831
24275411	-0.0181	0.002	1.0073	0.8545	-0.6714	0
24297892	-0.0088	0.0103	1.0049	0.8545	-0.4883	-0.1831
24310415	-0.0088	0.0059	1.0083	0.6104	-0.7935	-0.2441
24322415	-0.0127	0.0103	1.0063	0.6714	-0.7324	-0.1221
24334411	-0.0166	0.0098	1.0093	0.7324	-0.5493	-0.061
24346411	-0.0186	0.0132	1.0059	0.8545	-0.9155	-0.061
24358415	-0.0176	0.0098	1.0083	0.7935	-0.6714	0
24370411	-0.0151	0.0044	1.0059	0.7935	-0.7324	-0.2441
24382411	-0.0127	0.0054	1.0073	0.7324	-0.6714	-0.4272
24394411	-0.0088	0.0039	1.0063	0.6104	-0.4883	0
24406415	-0.0107	0.0044	1.0068	0.6714	-0.6714	-0.061
24420415	-0.0142	0.0024	1.0083	0.8545	-0.7935	-0.1221
24432411	-0.0088	0.0034	1.0078	0.6714	-0.7324	0
24444411	-0.0103	0.0015	1.0078	0.7324	-0.8545	-0.061
24456411	-0.0107	0.0054	1.0078	0.5493	-0.6714	-0.1221
24468415	-0.0151	0.0103	1.0088	0.7935	-0.7935	-0.3052
24480411	-0.0107	0.0093	1.0083	0.6714	-0.7324	-0.1831
24492411	-0.0181	0.0078	1.0063	0.7324	-0.6714	-0.3662
24504415	-0.0181	0.0078	1.0083	0.7324	-0.9155	-0.1831
24516415	-0.0161	0.0093	1.0059	0.9155	-0.7935	0
24530411	-0.0107	0.0078	1.0068	0.6714	-0.5493	-0.061
24543532	-0.0083	0.0024	1.0083	0.7324	-0.7324	-0.3662
24556419	-0.0088	0.0034	1.0103	0.7935	-0.8545	-0.2441
24568411	-0.0146	0.0063	1.0117	0.8545	-0.6714	-0.1221
24580415	-0.0156	0.0063	1.0098	0.8545	-0.6714	-0.1221
24592419	-0.0132	0.0029	1.0073	0.7935	-0.6714	-0.061
24604468	-0.0156	0.0039	1.0054	0.8545	-0.6714	0
24616415	-0.0088	0.0112	0.999	0.7324	-0.5493	-0.1831
24628411	-0.0098	0.0054	1.0059	0.7935	-0.7935	-0.1221
24640419	-0.0146	0.0059	1.0078	0.6714	-0.6714	0.061
24654419	-0.0142	0.0093	1.0098	0.7324	-0.7935	-0.2441
24666415	-0.0171	0.0063	1.0073	0.6104	-0.7935	-0.061
24678415	-0.0195	0.0098	1.0098	0.6714	-0.7935	0.061
24690419	-0.0181	0.0078	1.0088	0.7324	-0.6104	-0.1221
24702419	-0.0151	0.0107	1.0059	0.9155	-0.6714	-0.1831
24714411	-0.0068	0.0083	1.0063	0.6714	-0.8545	-0.1831
24726415	-0.0059	0.0044	1.0073	0.7324	-0.7324	-0.1221
24738415	-0.0107	0.0029	1.0039	0.8545	-0.6714	-0.1221
24750419	-0.0122	0	1.0088	0.7935	-0.6104	-0.061
24764415	-0.0137	0.0005	1.0098	0.7324	-0.6104	-0.3052
24776415	-0.0132	0.0024	1.0098	0.7324	-0.6714	-0.2441
24788419	-0.0127	0.0005	1.0073	0.9155	-0.6714	-0.3052
24800411	-0.0142	0.0054	1.0039	0.7324	-0.7324	-0.2441
24812415	-0.0146	0.0083	1.0068	0.7324	-0.7324	-0.1831
24824419	-0.0093	0.0083	1.0078	0.8545	-0.7324	-0.1221
24836419	-0.0132	0.0122	1.0073	0.8545	-0.7324	0
24848415	-0.0142	0.0103	1.0083	0.7935	-0.7324	0.061
24860415	-0.0142	0.0083	1.0088	0.6104	-0.8545	-0.061
24872419	-0.0122	0.0098	1.0112	0.7324	-0.9155	-0.061
24886415	-0.0142	0.0078	1.0103	0.7324	-0.8545	-0.061
24899541	-0.0239	0.0015	1.0205	0.4272	-0.7324	-0.1831
24912415	-0.0137	0.0039	1.0166	0.6714	-0.6104	-0.3052
24924419	-0.0137	0.0029	1.0073	0.8545	-0.7324	-0.3052
24936419	-0.0103	0.0044	1.0034	0.6714	-0.7935	-0.1221
24948415	-0.0117	0.0049	1.0029	0.7935	-0.6714	-0.1221
24960415	-0.0103	0.0044	1.0117	0.6104	-0.7324	-0.1221
24972411	-0.0103	0.0093	1.0107	0.5493	-0.7324	-0.2441
24984419	-0.0142	0.0088	1.0063	0.7935	-0.7324	-0.1221
24998415	-0.0156	0.0083	1.0083	0.7324	-0.6714	0.061
25010452	-0.0151	0.0103	1.0063	0.8545	-0.8545	-0.1831
25022419	-0.0166	0.0088	1.0098	0.8545	-0.6104	0.1221
25034411	-0.0156	0.0063	1.0068	0.8545	-0.9155	-0.1221
25046416	-0.0151	0.0073	1.0073	0.8545	-0.6714	-0.2441
25058411	-0.0142	0.0039	1.0073	1.0376	-0.4883	-0.061
25070427	-0.0112	0.0034	1.0073	0.6714	-0.7935	-0.1831
25082415	-0.0117	0.0029	1.0098	0.6104	-0.8545	-0.1221
25094415	-0.0132	0.0015	1.0122	0.6104	-0.8545	0.1831
25106419	-0.0166	0.0063	1.0093	0.9155	-0.7324	-0.061
25120411	-0.0117	0.0063	1.0107	0.9766	-0.8545	-0.061
25132415	-0.0181	0.0088	1.0054	0.7935	-0.7935	-0.2441
25144411	-0.0156	0.0088	1.0098	0.8545	-0.5493	-0.1221
25156419	-0.0151	0.0078	1.0078	0.4883	-0.6714	-0.1221
25168419	-0.0181	0.0078	1.0054	0.7935	-0.7935	-0.1831
25180415	-0.0107	0.0073	1.0059	0.7935	-0.9766	-0.061
25192415	-0.0137	0.0083	1.0103	0.7324	-0.6714	0.061
25204415	-0.0142	0.0059	1.0059	0.7324	-0.8545	0.061
25216500	-0.0151	0.0068	1.0054	0.7324	-0.9766	-0.1831
25230537	-0.0151	0.0039	1.0039	0.5493	-0.5493	-0.1831
25242419	-0.0117	0.0039	1.0093	0.6714	-0.6714	0
25254419	-0.0122	0.0034	1.0122	0.7935	-0.8545	-0.1831
25267537	-0.0132	0.0024	1.0117	0.6714	-0.6714	-0.061
25279415	-0.0151	0.002	1.0093	0.7935	-0.7935	-0.1221
25291411	-0.0122	0.0054	1.0093	0.7324	-0.8545	-0.3052
25303419	-0.0107	0.0073	1.0073	0.9766	-0.6104	-0.061
25315411	-0.0103	0.0063	1.0059	0.6714	-0.7935	-0.1831
25327415	-0.0103	0.0059	1.0059	0.6714	-0.8545	-0.3052
25339415	-0.0146	0.0068	1.0093	0.4883	-0.6104	-0.1831
25353419	-0.0161	0.0063	1.0088	0.9766	-0.9766	-0.1831
25365411	-0.0176	0.0078	1.0078	0.7324	-0.7324	-0.1831
25377415	-0.0181	0.0088	1.0073	0.7935	-0.9766	-0.1831
25389415	-0.0137	0.0093	1.0049	0.7935	-0.8545	-0.1831
25401423	-0.0117	0.0063	1.0098	0.6714	-0.7324	-0.061
25413411	-0.0151	0.0049	1.0098	0.6714	-0.6104	-0.1831
25425419	-0.0132	0.0078	1.0088	0.9155	-0.7324	-0.061
25437415	-0.0132	0.0063	1.0093	0.9155	-0.7935	0
25449423	-0.0151	0.0015	1.0083	0.7935	-0.6104	-0.061
25463407	-0.0156	0.0015	1.0029	0.6714	-0.7935	0
25475423	-0.0122	0.0029	1.0073	0.7324	-0.6714	-0.1831
25487415	-0.0137	0.0034	1.0063	0.9155	-0.6104	-0.1221
25499419	-0.0107	0.0054	1.0083	0.7935	-0.7935	-0.3052
25511411	-0.0132	0.0068	1.0059	0.7935	-0.6714	-0.1831
25523471	-0.0103	0.0078	1.0107	0.8545	-0.7935	0
25536415	-0.019	0.0073	1.0059	0.9766	-0.7935	-0.1831
25548415	-0.0171	0.0103	1.0044	0.6104	-0.7324	-0.1221
25560411	-0.0181	0.0083	1.0112	0.7324	-0.7935	-0.061
25572419	-0.0127	0.0078	1.0112	0.7324	-0.7935	-0.1831
25586415	-0.0093	0.0103	1.0059	0.6104	-0.7324	0
25598419	-0.0117	0.0068	1.0098	0.9155	-0.7324	0
25610407	-0.0142	0.0059	1.0039	0.9155	-0.6714	-0.2441
25622423	-0.0151	0.0034	1.0068	0.6104	-0.6714	-0.2441
25635532	-0.019	0.0049	1.0049	0.6714	-0.7324	-0.3662
25648419	-0.0127	0.0024	1.0103	0.6104	-0.9155	-0.1221
25660411	-0.0146	0.0049	1.0068	0.8545	-0.7324	-0.1221
25672423	-0.0122	0.0073	1.0068	0.6714	-0.7935	-0.061
25684419	-0.0137	0.0059	1.0098	0.9766	-0.6714	-0.061
25695060	-0.0161	0.0078	1.0068	0.9766	-0.6104	-0.1221
25707415	-0.0146	0.0073	1.0068	0.9155	-0.7324	-0.061
25719427	-0.0176	0.0054	1.0024	0.8545	-0.5493	-0.2441
25731453	-0.0137	0.0068	1.0088	0.6714	-0.8545	-0.1221
25743419	-0.0161	0.0093	1.0098	0.6104	-0.7935	-0.1221
25755415	-0.0117	0.0068	1.0083	0.9766	-0.6714	-0.061
25767423	-0.0156	0.0054	1.0088	0.8545	-0.7935	-0.061
25779423	-0.0103	0.0078	1.0063	0.7935	-0.7935	-0.3052
25791423	-0.0117	0.0093	1.0098	0.6714	-0.7935	-0.1221
25803415	-0.0127	0.0039	1.0049	0.6714	-0.6714	-0.061
25817427	-0.0132	0.0054	1.0088	0.6104	-0.6714	-0.1221
25829410	-0.0117	0.0063	1.0083	0.6714	-0.7935	-0.1221
25841423	-0.0098	0.0073	1.0083	0.7935	-0.7935	-0.1831
25853419	-0.0117	0.0034	1.0063	0.5493	-0.6714	-0.1221
25865427	-0.0166	0.0107	1.0059	0.7935	-0.7935	-0.061
25877415	-0.0151	0.0068	1.0098	0.7935	-0.6714	-0.1221
25889427	-0.0186	0.0059	1.0044	0.9155	-0.7324	0
25901419	-0.0137	0.0083	1.0044	0.8545	-0.7324	-0.061
25913419	-0.0151	0.0063	1.0063	0.7324	-0.7324	-0.2441
25927427	-0.0103	0.0068	1.0083	0.5493	-0.6714	0
25939423	-0.0088	0.0059	1.0073	0.4883	-0.7935	0.061
25951419	-0.0103	0.0083	1.0068	0.7324	-0.7324	-0.061
25963427	-0.0103	0.0068	1.0112	0.6714	-0.7935	-0.2441
25975415	-0.0166	0.0029	1.0063	0.6104	-0.9155	-0.1831
25987423	-0.0132	0.0034	1.0103	0.6714	-0.6714	-0.1221
26000532	-0.0176	0.0034	1.0063	0.7324	-0.6714	-0.1221
26013427	-0.0137	0.0049	1.0073	0.7935	-0.7324	0
26025415	-0.0107	0.0083	1.0059	0.8545	-0.5493	-0.1831
26037440	-0.0098	0.0039	1.0078	0.6104	-0.8545	-0.2441
26051419	-0.0107	0.0068	1.0083	0.7935	-0.5493	-0.1221
26063419	-0.0142	0.0054	1.0049	0.7324	-0.6714	-0.1831
26075415	-0.0122	0.0044	1.0083	0.7935	-0.7324	-0.061
26087423	-0.0137	0.0044	1.0068	0.7324	-0.7935	-0.061
26099419	-0.0156	0.0063	1.0054	0.6714	-0.6104	-0.061
26111423	-0.0156	0.0024	1.0107	0.9155	-0.6104	0.061
26123415	-0.0161	0.0078	1.0073	0.7935	-0.7324	-0.1221
26135428	-0.0176	0.0034	1.0088	0.7935	-0.8545	-0.1221
26147419	-0.0166	0.0059	1.0127	0.7324	-0.9766	-0.1221
26159423	-0.0122	0.0059	1.0049	0.7935	-0.7935	-0.1831
26181896	-0.0137	0.0063	1.0083	0.6714	-0.7324	-0.061
26194424	-0.0093	0.0098	1.001	0.8545	-0.8545	-0.1831
26206416	-0.0122	0.0107	1.0073	0.7935	-0.6714	-0.3052
26218428	-0.0137	0.0093	1.0059	0.7324	-0.9155	0.061
26230411	-0.0161	0.0049	1.0083	0.8545	-0.6714	0.061
26242439	-0.0166	0.0015	1.0034	0.7324	-0.7324	0.061
26254411	-0.0156	0.0044	1.0054	0.8545	-0.6714	0.1221
26266428	-0.0132	0.0024	1.0034	0.8545	-0.7324	-0.2441
26278420	-0.0103	0.0068	1.0098	0.6714	-0.7324	-0.1831
26292424	-0.0117	0.0054	1.0063	0.8545	-0.8545	-0.2441
26304416	-0.0103	0.002	1.0068	0.7935	-0.7935	0
26316420	-0.0098	0.0049	1.0098	1.0376	-0.6714	-0.061
26328420	-0.0132	0.0049	1.0103	0.7324	-0.7324	-0.1221
26340420	-0.0151	0.0122	1.0068	0.7324	-0.6714	-0.061
26353541	-0.0161	0.0078	1.0078	0.7324	-0.6714	-0.2441
26366428	-0.0137	0.0088	1.0054	0.7324	-0.8545	-0.061
26378420	-0.0122	0.0054	1.0083	0.7324	-0.8545	-0.061
26390424	-0.0161	0.0073	1.0088	0.8545	-0.6104	-0.2441
26402416	-0.0132	0.0068	1.0049	0.9155	-0.7324	-0.061
26416428	-0.0151	0.0049	1.0078	0.5493	-0.7324	-0.061
26428416	-0.0142	0.0078	1.0054	0.6714	-0.7324	-0.1221
26440424	-0.0103	0.0063	1.0034	0.7935	-0.6714	0
26452420	-0.0132	0.0029	1.0088	0.6714	-0.6714	0
26464428	-0.0112	0.0034	1.0044	0.7324	-0.9155	-0.1831
26476416	-0.0127	0.0073	1.0083	0.7935	-0.5493	-0.1221
26488424	-0.0146	0.0029	1.001	0.7324	-0.5493	-0.1221
26500420	-0.0171	0.0073	1.0034	0.6714	-0.7324	-0.061
26512428	-0.0186	0.0059	1.0088	0.7935	-0.7324	-0.061
26526416	-0.0146	0.0093	1.0044	0.7324	-0.6714	-0.2441
26538424	-0.0171	0.0112	1.0078	0.7935	-0.7935	-0.1221
26550464	-0.0107	0.0083	1.0098	0.7324	-0.7935	-0.3052
26562428	-0.0093	0.0063	1.0063	0.7324	-0.9155	-0.2441
26574416	-0.0103	0.0068	1.0083	0.7324	-0.7324	-0.1831
26586424	-0.0151	0.0063	1.0078	0.9766	-0.7324	-0.2441
26598420	-0.0151	0.0059	1.0088	0.5493	-0.6714	-0.1221
26610428	-0.0146	0.0059	1.0054	0.7324	-1.0376	0.1831
26622416	-0.0117	0.0068	1.0078	0.7935	-0.7324	-0.061
26634428	-0.0127	0.0039	1.0078	0.6714	-0.7935	-0.1831
26648425	-0.0146	0.0068	1.0059	0.6714	-0.7935	-0.1831
26660424	-0.0161	0.0054	1.0098	0.9766	-0.7935	-0.1831
26672416	-0.0122	0.0049	1.0073	0.8545	-0.7935	0
26684432	-0.0176	0.0049	1.0044	0.9155	-0.6104	-0.1831
26696420	-0.0132	0.0083	1.0073	0.7324	-0.4883	0
26708424	-0.0161	0.0098	1.0063	0.6714	-0.6714	-0.1221
26721537	-0.0176	0.0068	1.0093	0.7324	-0.6714	-0.1221
26734440	-0.0146	0.0078	1.0059	0.8545	-0.7935	-0.4883
26746416	-0.0117	0.0044	1.0112	0.8545	-0.6104	-0.3052
26760424	-0.0127	0.0049	1.0103	0.7324	-0.7324	-0.1831
26772416	-0.0132	0.0044	1.0068	0.7324	-0.7324	-0.3662
26784432	-0.0142	0.0029	1.0078	0.7324	-0.7935	-0.3052
26796420	-0.0122	0.0073	1.0088	0.7324	-0.6714	-0.1831
26808424	-0.0117	0.0098	1.0078	0.9155	-0.7324	0.061
26820416	-0.0137	0.0063	1.0073	0.7935	-0.7324	0.061
26832428	-0.0107	0.0039	1.0107	0.6104	-0.7324	-0.2441
26844424	-0.0117	0.0034	1.0093	0.8545	-0.7324	-0.3052
26856436	-0.0122	0.0049	1.0078	0.6104	-0.6714	-0.3052
26868420	-0.0127	0.0059	1.0044	0.6714	-0.7935	-0.1221
26882424	-0.0166	0.0049	1.0054	0.6714	-0.7935	-0.3662
26894420	-0.0117	0.0068	1.0068	0.6714	-0.7935	-0.061
26906420	-0.0137	0.0054	1.0034	0.7935	-0.6714	-0.1221
26918424	-0.0112	0.0049	1.0063	1.0986	-0.7324	0.061
26930424	-0.0137	0.0039	1.0029	0.9155	-0.7935	-0.061
26942420	-0.0151	0.0049	1.0073	0.7935	-0.9155	-0.1831
26954424	-0.0107	0.0054	1.0078	0.7324	-0.7324	-0.1221
26966424	-0.0117	0.0044	1.0073	0.6714	-0.9155	-0.061
26978420	-0.0117	0.0059	1.0112	0.7324	-0.9766	-0.1221
26992420	-0.0127	0.0078	1.0083	0.7324	-0.6714	-0.1831
27004424	-0.0176	0.0059	1.0093	0.8545	-0.7935	0.061
27016424	-0.0146	0.0078	1.0059	0.6714	-0.8545	-0.1221
27028424	-0.0107	0.0063	1.0063	0.6714	-0.7935	-0.061
27040420	-0.0161	0.0059	1.0083	0.7935	-0.6714	-0.061
27052420	-0.0117	0.0059	1.0068	0.6714	-0.6714	-0.1221
27064424	-0.0146	0.0073	1.0034	0.7935	-0.6714	-0.1221
27077550	-0.0098	0.002	1.0107	0.5493	-0.8545	0.061
27089424	-0.0132	0.0083	1.0098	0.7935	-0.9766	-0.061
27101420	-0.0132	0.0068	1.0098	0.8545	-1.0376	0.1221
27115545	-0.0127	0.0049	1.0054	0.8545	-0.7935	-0.061
27127420	-0.0161	0.0059	1.0083	0.7935	-0.7324	0.1221
27139424	-0.0142	0.0093	1.0059	0.7935	-0.7324	-0.1831
27151420	-0.0132	0.0054	1.0073	0.6714	-0.6714	0
27163475	-0.0176	0.0093	1.0078	0.8545	-0.7324	-0.1831
27175420	-0.0112	0.0073	1.0059	0.6104	-0.7324	-0.1831
27187420	-0.0132	0.0059	1.0083	0.7324	-0.8545	-0.061
27199424	-0.0103	0.0073	1.0117	0.7935	-0.8545	-0.061
27211424	-0.0151	0.0068	1.0098	0.7324	-0.9155	-0.1831
27354541	-0.0122	0.0059	1.0068	0.9766	-0.7324	-0.1831
27367490	-0.0127	0.0063	1.0107	0.7935	-0.7935	-0.061
27379424	-0.0166	0.0063	1.0088	0.6714	-0.7324	-0.061
27391424	-0.0146	0.0073	1.0059	0.6714	-0.7935	-0.2441
27403420	-0.0146	0.0039	1.0063	0.6714	-0.7324	-0.1221
27415420	-0.0127	0.0059	1.0073	0.8545	-0.7935	-0.1221
27427424	-0.0137	0.0063	1.0078	0.7935	-0.6104	-0.061
27439424	-0.0112	0.0078	1.0078	0.6714	-0.7935	-0.1221
27452420	-0.0156	0.0083	1.0098	0.9155	-0.6104	-0.1831
27463733	-0.0132	0.0049	1.0078	0.7324	-0.5493	-0.1221
27478420	-0.0146	0.0044	1.0137	0.6714	-0.9155	0
27490412	-0.0176	0.0049	1.0083	0.8545	-0.7324	-0.2441
27502412	-0.0195	0.0059	1.0088	0.8545	-0.7935	-0.1831
27514416	-0.0151	0.0063	1.0059	0.6714	-0.6104	-0.2441
27526416	-0.0117	0.0093	1.0039	0.7935	-0.7324	-0.2441
27538412	-0.0093	0.0054	1.0078	0.6714	-0.7324	-0.061
27550412	-0.0088	0.0044	1.0068	0.7935	-0.6104	-0.3052
27562416	-0.0112	0.0073	1.0098	0.8545	-0.8545	-0.2441
27574469	-0.0107	0.0073	1.0117	0.6714	-0.7324	-0.1221
27588412	-0.0166	0.0063	1.0063	0.8545	-0.7324	-0.1221
27600412	-0.0166	0.0054	1.0088	0.7324	-0.7324	-0.061
27612416	-0.0112	0.0063	1.0098	0.6714	-0.7935	-0.2441
27624420	-0.0122	0.0059	1.0034	0.6104	-0.6714	-0.2441
27636412	-0.0146	0.0063	1.0059	0.8545	-0.6714	-0.1221
27648412	-0.0132	0.0107	1.0054	0.8545	-0.7324	-0.061
27660416	-0.0122	0.0063	1.0078	0.7935	-0.5493	-0.1221
27672435	-0.0122	0.0044	1.0059	0.7935	-0.7935	-0.2441
27684416	-0.0146	0.0068	1.0073	0.7935	-0.7935	0
27696412	-0.0117	0.0068	1.0054	0.7935	-0.7935	0.061
27711537	-0.0122	0.0049	1.0093	0.7935	-0.7935	-0.1831
27724416	-0.0107	0.0044	1.0083	0.9155	-0.7935	-0.1831
27736412	-0.0161	0.0024	1.0098	0.7935	-0.9766	-0.1221
27748416	-0.0151	0.0049	1.0054	0.5493	-0.7324	-0.1221
27760412	-0.0156	0.0073	1.0117	0.8545	-0.7324	-0.1221
27772412	-0.0112	0.0088	1.0068	0.7324	-0.7935	-0.2441
27784416	-0.0088	0.0088	1.0083	0.8545	-0.7935	-0.1831
27796416	-0.0137	0.0083	1.002	0.6104	-0.7935	-0.061
27808416	-0.0122	0.0049	1.0103	0.6104	-0.6714	-0.061
27822412	-0.0117	0.0059	1.0054	0.7324	-0.7324	-0.2441
27834416	-0.0161	0.0054	1.0063	0.9155	-0.7324	0
27846412	-0.0161	0.0063	1.0068	0.7324	-0.9766	-0.1831
27858416	-0.0146	0.0054	1.0073	0.7324	-0.6714	0.061
27870412	-0.0137	0.0049	1.0088	0.8545	-0.6104	-0.3052
27882419	-0.0132	0.0078	1.0049	0.7935	-0.6104	-0.1831
27894420	-0.0107	0.0029	1.0127	0.6714	-0.6714	-0.2441
27906411	-0.0161	0.0029	1.0005	0.6714	-0.7324	-0.061
27918416	-0.0122	0.0078	1.0049	0.7324	-0.6714	-0.061
27930407	-0.0117	0.0034	1.0078	0.6104	-0.6714	-0.1831
27944424	-0.0137	0.0049	1.0039	1.0376	-0.6714	-0.2441
27956407	-0.0137	0.0073	1.0078	0.6104	-0.7324	-0.061
27968416	-0.0103	0.0098	1.0068	0.6714	-0.6714	0.1831
27980451	-0.0132	0.0073	1.0068	0.6714	-0.8545	-0.1221
27992416	-0.0161	0.0063	1.0078	0.6714	-0.5493	-0.1221
28004411	-0.0103	0.0044	1.0088	0.7324	-0.6714	-0.1221
28016416	-0.0142	0.0078	1.0049	0.8545	-0.8545	-0.2441
28028411	-0.0137	0.0034	1.0078	0.7935	-0.7324	-0.3052
28040420	-0.0151	0.0063	1	0.9155	-0.7324	0
28054411	-0.0112	0.0044	1.0107	0.7935	-0.7935	-0.3662
28066416	-0.0166	0.0063	1.0063	0.7935	-0.8545	-0.1221
28079529	-0.0195	0.0073	1.0088	0.7324	-0.7324	0.061
28091420	-0.0146	0.0054	1.0073	0.8545	-0.6714	-0.1221
28103407	-0.0112	0.0117	1.0054	0.7324	-0.6104	-0.061
28115416	-0.0151	0.002	1.0093	0.8545	-0.6714	-0.1831
28127411	-0.0117	0.0078	1.0015	1.0376	-0.7324	0
28139424	-0.0151	0.0078	1.0059	0.6714	-0.7324	-0.1221
28151407	-0.0112	0.001	1.0068	0.7935	-0.6104	-0.3662
28163416	-0.0142	0.0034	1.0098	0.7324	-0.6714	0
28185892	-0.0151	0.0034	1.0078	0.6714	-0.5493	-0.1831
28198421	-0.0132	0.0054	1.0098	0.6714	-0.6714	-0.061
28210417	-0.0132	0.0088	1.0063	0.7935	-0.6714	-0.061
28222425	-0.0156	0.0049	1.0093	0.7324	-0.7324	-0.061
28234417	-0.019	0.0049	1.0093	0.7324	-0.7935	-0.1831
28246421	-0.0137	0.0068	1.0073	0.8545	-0.9155	-0.2441
28258417	-0.0146	0.0029	1.0073	0.6714	-0.6714	-0.1831
28270417	-0.0098	0.0054	1.0068	0.6104	-0.6714	0.061
28282413	-0.0122	0.002	1.0078	0.6104	-0.7324	-0.1831
28296425	-0.0088	0.0098	1.0059	0.8545	-0.7935	-0.3662
28308417	-0.0107	0.0083	1.0083	0.6104	-0.6104	-0.1831
28320421	-0.0195	0.0039	1.0107	0.7935	-0.9155	-0.2441
28332408	-0.0151	0.0107	1.0059	0.7935	-0.7935	0
28344425	-0.0166	-0.0005	1.0039	0.6714	-0.8545	-0.061
28356412	-0.0146	0.0059	1.0083	0.7324	-0.6104	-0.1831
28368421	-0.0146	0.0054	1.0068	0.7324	-0.6714	-0.061
28380413	-0.0098	0.0078	1.0132	0.7324	-0.7935	-0.1831
28392456	-0.0117	0.0054	1.0068	0.7324	-0.7935	-0.1831
28404417	-0.0122	0.0083	1.0073	0.7324	-0.7935	-0.061
28418417	-0.0132	0.0063	1.0107	0.7324	-1.0376	-0.061
28431413	-0.0117	0.0103	1.0034	0.6104	-0.9155	-0.2441
28443425	-0.0122	0.0044	1.0039	0.9155	-0.6714	-0.061
28455417	-0.0156	0.0039	1.0098	0.7935	-0.7324	-0.061
28467421	-0.0142	0.0103	1.0034	0.6104	-0.7324	-0.1831
28479413	-0.0176	0.0005	1.0098	0.9155	-0.8545	-0.2441
28491438	-0.0112	0.0039	1.0024	0.8545	-0.7324	-0.061
28504413	-0.0156	0.0063	1.0107	0.6104	-1.0376	-0.2441
28516421	-0.0117	0.0088	1.0098	0.7324	-0.6714	-0.061
28530417	-0.0117	0.0073	1.0063	0.9766	-0.4883	-0.1221
28542425	-0.0122	0.0039	1.0073	0.7935	-0.8545	-0.061
28554413	-0.0117	0.0068	1.0073	0.7935	-0.7935	-0.2441
28566421	-0.0132	0.0068	1.0088	0.9155	-0.7935	-0.1831
28578417	-0.0171	0.0063	1.0054	0.6714	-0.7324	0.1221
28590421	-0.0151	0.0049	1.0088	0.7935	-0.9155	-0.061
28602413	-0.0127	0.0073	1.0107	0.6104	-0.6714	-0.2441
28614421	-0.0112	0.0059	1.0083	0.7324	-0.6714	-0.1221
28626417	-0.0093	0.0098	1.0083	0.6714	-0.7324	-0.2441
28638425	-0.0112	0.0088	1.0054	0.9155	-0.7935	-0.1831
28652413	-0.0132	0.0054	1.0049	0.7324	-0.7324	0
28664421	-0.0146	0.0088	1.0107	0.5493	-0.6104	-0.061
28676421	-0.0156	0.0068	1.0049	0.7935	-0.7935	-0.2441
28688425	-0.0127	0.0049	1.0083	0.8545	-0.7935	-0.1831
28701452	-0.0151	0.0015	1.0107	0.6104	-0.7935	-0.061
28713421	-0.0127	0.0024	1.0117	0.6104	-0.6714	-0.3052
28725417	-0.0171	0.0054	1.0122	0.7935	-0.4883	-0.061
28737425	-0.0107	0.0083	1.0034	0.8545	-0.6714	-0.1221
28749413	-0.0103	0.0049	1.0049	0.9155	-0.7935	-0.061
28763425	-0.0161	0.0073	1.0078	0.7935	-0.7935	-0.061
28775417	-0.0142	0.0054	1.0049	0.7935	-0.7324	-0.061
28787421	-0.0127	0.0112	1.0049	0.8545	-0.6714	-0.2441
28800583	-0.0132	0.0054	1.0142	0.5493	-0.7935	-0.3052
28813425	-0.0098	0.0068	1.0083	0.9766	-0.7935	-0.1831
28825413	-0.0093	0.0088	1.0044	0.7935	-0.6714	-0.1831
28837421	-0.0083	-0.0015	1.0098	0.6714	-0.7324	-0.1221
28849413	-0.0132	0.001	1.0093	0.7324	-0.7935	-0.061
28861425	-0.0122	0.0054	1.0073	0.6104	-0.6104	-0.2441
28873417	-0.0107	0.0073	1.0068	0.7935	-0.7324	0
28887421	-0.0171	0.0039	1.0054	0.7324	-0.7935	-0.061
28899413	-0.0146	0.0068	1.0054	0.7324	-0.8545	-0.3662
28911421	-0.0161	0.0093	1.0044	0.9155	-0.6104	-0.2441
28923417	-0.0127	0.0103	1.0039	0.4883	-0.7935	-0.061
28935421	-0.0142	0.0122	1.0015	0.9766	-0.6714	0.061
28947413	-0.0122	0.0073	1.0093	0.6714	-0.4883	-0.2441
28959425	-0.0137	0.0039	1.0088	0.7324	-0.7935	-0.061
28971417	-0.0142	0.0054	1.0083	0.8545	-0.6714	-0.1831
28983421	-0.0132	0.001	1.0117	0.4883	-0.7324	-0.3662
28997413	-0.0176	0.0073	1.0024	0.6714	-0.7324	-0.1221
29009425	-0.0117	0.0054	1.0034	0.4883	-0.9155	-0.061
29021413	-0.0146	0.0054	1.0024	0.7324	-0.6714	0
29033421	-0.0088	0.0098	1.0039	0.7935	-0.7935	-0.1221
29045417	-0.0112	0.0098	1.0068	0.7935	-0.7324	-0.1831
29057425	-0.0098	0.0078	1.0083	0.6104	-0.7935	0
29069413	-0.0146	0.0068	1.0059	0.6714	-0.7935	-0.061
29081421	-0.0112	0.0059	1.0093	0.6714	-0.7324	-0.1221
29093417	-0.0161	0.0049	1.0063	1.0376	-0.7324	0
29105433	-0.0088	0.0078	1.0068	0.7935	-0.6714	-0.061
29119538	-0.0156	0.0083	1.0054	0.6714	-0.7935	-0.1221
29131417	-0.0151	0.0063	1.0098	0.8545	-0.6104	0
29143408	-0.0171	0.0049	1.0098	0.6714	-0.7935	-0.1831
29155421	-0.0142	0.0073	1.0098	0.7935	-0.6104	-0.1831
29168530	-0.0156	0.0083	1.0078	0.8545	-0.8545	-0.1831
29180417	-0.0122	0.0117	1.0063	0.9766	-0.7935	-0.1831
29192412	-0.0137	0.0059	1.0122	0.7935	-0.7324	-0.1831
29204421	-0.0093	0.001	1.0151	0.6104	-0.5493	-0.061
29216408	-0.0127	0.0059	1.0039	0.7935	-0.7935	-0.1221
29230417	-0.0137	0.0078	1.0068	0.8545	-0.8545	0.061
29242412	-0.0186	0.002	1.0083	0.7324	-0.6104	-0.061
29254417	-0.0137	0.0044	1.0073	0.8545	-0.7324	-0.061
29266408	-0.0142	0.0088	1.0112	0.7324	-0.7935	0.1221
29278421	-0.0142	0.0078	1.0068	0.7324	-0.8545	-0.2441
29290412	-0.0122	0.0063	1.0107	0.7324	-0.7935	-0.2441
29302417	-0.0142	0.0078	1.0049	0.8545	-0.7324	-0.1831
29315429	-0.0166	0.0063	1.0083	0.9155	-0.9155	-0.1831
29327433	-0.0132	0.0083	1.0063	0.6714	-0.7324	-0.1831
29339408	-0.0166	0.0073	1.0083	0.7935	-0.6714	-0.061
29353417	-0.0161	0.0063	1.0098	0.6714	-0.7324	-0.1831
29365408	-0.0151	0.0039	1.0059	0.7935	-0.6714	-0.3052
29377421	-0.0107	0.0063	1.0059	0.8545	-0.6104	-0.061
29389412	-0.0142	0.0073	1.0044	0.7935	-0.6104	-0.1831
29401417	-0.0166	0.0049	1.0005	0.9155	-0.8545	-0.1831
29413412	-0.0146	0.0078	1.0039	0.6714	-0.7324	-0.061
29425417	-0.0088	0.0107	1.0078	0.7935	-0.8545	0
29437420	-0.0132	0.0078	1.0078	0.7935	-0.7935	-0.1831
29449417	-0.0151	0.0078	1.0093	0.6714	-0.7935	-0.1221
29463412	-0.0103	0.0068	1.0088	0.5493	-0.7324	-0.061
29475421	-0.0127	0.0044	1.0054	0.7935	-0.7324	-0.061
29487408	-0.0151	0.0073	1.0063	0.7324	-0.7935	-0.061
29499417	-0.0142	0.0093	1.0049	0.6714	-0.7324	-0.061
29511412	-0.0166	0.0044	1.0039	0.7935	-0.7935	0
29524547	-0.0137	0.0039	1.0088	0.6104	-0.5493	-0.1831
29537408	-0.0127	0.0049	1.0073	0.8545	-0.6104	-0.1831
29549417	-0.0122	0.0059	1.0083	0.8545	-0.6714	0
29561412	-0.0098	0.0083	1.0034	0.7324	-0.7324	-0.1831
29573421	-0.0117	0.0068	1.0029	0.6714	-0.6714	-0.1221
29587408	-0.0142	0.0054	1.0098	0.6714	-0.8545	-0.061
29599417	-0.0107	0.0059	1.0063	0.4883	-0.7324	-0.1831
29611412	-0.0151	0.0068	1.0078	0.7324	-0.7324	-0.3052
29623421	-0.0142	0.0044	1.0083	0.7324	-0.8545	0.061
29635408	-0.0112	0.0127	1.0049	0.9155	-0.6714	0
29647417	-0.0146	0.0093	1.0049	0.8545	-0.7324	-0.1831
29659408	-0.0156	0.0068	1.0088	0.7324	-0.7324	-0.1221
29671421	-0.0161	0.0073	1.0083	0.7324	-0.6104	-0.1831
29683408	-0.0122	0.0078	1.0073	0.7324	-0.7935	-0.1831
29697421	-0.0107	0.0054	1.0122	0.8545	-0.6104	-0.2441
29709412	-0.0117	0.0044	1.0054	0.7935	-0.6104	-0.1221
29721453	-0.0098	0.0044	1.0054	0.6714	-0.6104	0.061
29733408	-0.0127	0.001	1.0093	0.7324	-0.6104	-0.2441
29745417	-0.0117	0.0034	1.0093	0.7324	-0.9155	-0.2441
29757412	-0.0151	0.0068	1.0103	0.6104	-0.6714	-0.1221
29769417	-0.0151	0.0054	1.0063	0.7324	-0.6714	-0.1831
29781408	-0.0161	0.0059	1.0083	0.6714	-0.8545	0
29793421	-0.0151	0.0107	1.0078	0.8545	-0.7324	0
29805412	-0.0132	0.0059	1.0088	0.8545	-0.7935	-0.2441
29819421	-0.0156	0.0068	1.0059	0.8545	-0.6104	-0.1221
29831413	-0.0161	0.0044	1.0088	0.6104	-0.6104	-0.061
29843425	-0.0103	0.0005	1.0083	0.7324	-0.8545	-0.1831
29855417	-0.0166	0.0054	1.0034	0.6714	-0.7324	-0.061
29867421	-0.0122	0.0078	1.0044	0.9766	-0.7935	0
29879413	-0.0132	0.0063	1.001	0.9155	-0.7935	-0.1221
29892553	-0.0151	0.0088	1.0059	0.6714	-0.7324	-0.061
29905417	-0.0142	0.0044	1.0093	0.9155	-0.7935	-0.1221
29917421	-0.0127	0.0083	1.0059	0.7935	-0.8545	-0.3052
29931417	-0.0122	0.0068	1.0063	0.8545	-0.9155	0.1221
29943425	-0.0083	0.0059	1.0044	0.8545	-0.9155	0
29955413	-0.0107	0.0044	1.0088	0.6104	-0.9155	-0.2441
29967421	-0.0156	0.0088	1.002	0.7324	-0.6714	-0.1831
29979413	-0.0103	0.0049	1.0054	0.7324	-0.9155	0
29991425	-0.0137	0.0063	1.0098	0.7935	-0.6104	-0.2441
30003413	-0.0122	0.0088	1.0029	0.8545	-0.8545	0.061
30015421	-0.0132	0.0088	1.0107	0.6714	-0.6104	-0.1221
30027417	-0.0151	0.0044	1.0029	0.5493	-0.7324	-0.3052
30039433	-0.0156	0.0083	1.0098	0.6104	-0.8545	-0.061
30061885	-0.0117	0.0054	1.0083	0.5493	-0.6104	-0.1831
30074422	-0.0112	0.0107	1.0034	0.7324	-0.7324	-0.2441
30086409	-0.0132	0.0088	1.0112	0.6714	-0.5493	-0.061
30098418	-0.0137	0.0073	1.0039	0.7935	-0.6714	-0.061
30110413	-0.0127	0.0073	1.0093	0.9155	-0.7324	-0.2441
30122422	-0.0122	0.0063	1.0044	0.9155	-0.7935	-0.061
30134474	-0.0117	0.0049	1.0083	0.7935	-0.7324	-0.061
30146418	-0.0132	0.0044	1.0073	0.6714	-0.7935	-0.2441
30158413	-0.0132	0.0044	1.0078	0.6714	-0.7324	-0.1831
30172422	-0.0107	0.0093	1.0039	0.6714	-0.6714	-0.061
30184409	-0.0181	0.0054	1.0054	0.7324	-0.6104	0.1221
30196418	-0.0171	0.0063	1.0073	0.7935	-0.6104	0.061
30208413	-0.0127	0.0054	1.0073	0.7324	-0.8545	-0.1221
30220422	-0.0146	0.0088	1.0083	0.6714	-0.7324	-0.1831
30232441	-0.0117	0.0088	1.0132	0.8545	-0.8545	0.061
30245543	-0.0142	0.0049	1.0127	0.7324	-0.9155	-0.061
30258413	-0.0137	0.0063	1.0034	0.9155	-0.6714	-0.061
30270426	-0.019	0.0103	1.0107	0.9155	-0.6714	-0.1221
30282413	-0.0146	0.0049	1.0063	0.6714	-0.6714	-0.1221
30296422	-0.0142	0.0078	1.0083	0.7324	-0.6714	-0.2441
30308417	-0.0117	0.0093	1.0093	0.6104	-0.7324	0.061
30320418	-0.0117	0.0059	1.0049	0.8545	-0.7935	0
30332413	-0.0161	0.0034	1.0107	0.7324	-0.7324	-0.1221
30345426	-0.0205	0.0059	1.0054	0.7935	-0.7935	-0.061
30357417	-0.0171	0.0098	1.0054	0.6714	-0.6714	-0.1831
30369422	-0.0146	0.0029	1.0068	0.6714	-0.7324	-0.1831
30381413	-0.0112	0.0078	1.0088	0.7935	-0.6714	-0.1221
30393426	-0.0098	0.0063	1.0088	0.6714	-0.7935	-0.061
30407413	-0.0083	0.0044	1.0063	0.7324	-0.7324	-0.2441
30419422	-0.0132	0.0039	1.0068	0.7935	-0.7935	-0.2441
30431413	-0.0151	0.0088	1.0093	0.7935	-0.7935	-0.1831
30443426	-0.0151	0.0068	1.0039	0.8545	-0.7324	-0.2441
30455417	-0.0142	0.0049	1.0107	0.7324	-0.9766	0
30467422	-0.0142	0.0063	1.0137	0.5493	-0.7324	-0.1221
30479413	-0.0127	0.0059	1.0083	0.6714	-0.7324	0.061
30491418	-0.0127	0.0034	1.0132	0.7935	-0.6714	-0.2441
30503417	-0.0132	0.0068	1.0059	0.5493	-0.6714	-0.061
30515418	-0.0151	0.0054	1.0044	0.9155	-0.6714	-0.061
30529417	-0.0132	0.0078	1.0103	0.7324	-0.6714	-0.3052
30541490	-0.0137	0.0063	1.0015	0.8545	-0.7324	0.1221
30554413	-0.0151	0.0073	1.0098	0.6104	-0.6714	0.061
30566422	-0.0117	0.0049	1.0068	0.8545	-0.8545	-0.061
30578409	-0.0088	0.0054	1.0034	0.7935	-0.7324	-0.061
30590426	-0.0137	0.0083	1.0049	0.8545	-0.7935	-0.1221
30602413	-0.0117	0.0078	1.0059	0.5493	-0.6714	-0.1221
30615543	-0.0142	0.0034	1.0073	0.6104	-0.7324	0.1221
30628417	-0.0137	0.002	1.0063	0.6714	-0.7324	-0.1831
30642418	-0.0142	0.0073	1.0073	0.6714	-0.7324	-0.2441
30654413	-0.0088	0.0068	1.0054	0.9155	-0.7935	-0.1831
30666418	-0.0117	0.0063	1.0083	0.7935	-0.6714	-0.1831
30678417	-0.0122	0.0083	1.0088	0.7324	-0.6714	-0.3662
30690426	-0.0156	0.0049	1.0073	0.7324	-0.6104	-0.061
30702413	-0.0156	0.0054	1.0039	0.8545	-0.5493	-0.2441
30714422	-0.0156	0.0054	1.0044	0.9766	-0.7324	-0.2441
30726413	-0.0137	0.0054	1.0049	0.7324	-0.7935	-0.1831
30738426	-0.0137	0.0068	1.0073	0.8545	-0.6714	-0.1831
30749725	-0.0122	0.0044	1.0063	0.4883	-0.7324	-0.061
30764426	-0.0117	0.0083	1.0059	0.7935	-0.6714	-0.1831
30776417	-0.0137	0.0078	1.0039	0.7324	-0.7324	-0.061
30788422	-0.0166	0.0088	1.0068	0.6104	-0.8545	-0.1221
30800413	-0.0107	0.0073	1.0049	0.6714	-0.7935	-0.1831
30812418	-0.0132	0.0068	1.0068	0.6714	-0.7935	-0.061
30824417	-0.0127	0.0059	1.0068	0.7324	-0.6714	-0.1221
30836418	-0.0132	0.0068	1.0083	0.7935	-0.8545	-0.1221
30848481	-0.0127	0.0044	1.0107	0.6104	-0.7935	-0.061
30860426	-0.0146	0.0068	1.0093	0.8545	-0.8545	-0.2441
30874413	-0.0142	0.0068	1.0078	0.7324	-0.9155	-0.3662
30886422	-0.0137	0.0059	1.0044	0.8545	-0.6714	-0.061
30898409	-0.0146	0.0098	1.0049	0.7935	-0.7324	-0.1221
30910426	-0.0151	0.0054	1.0083	0.9766	-0.8545	-0.061
30922417	-0.0161	0.0078	1.0098	0.6104	-0.7324	-0.2441
30934422	-0.0146	0.0107	0.9863	0.6714	-0.5493	-0.2441
30946409	-0.0112	0.0039	1.0156	0.9155	-0.7324	-0.3052
30958426	-0.0146	0.0083	1.0039	0.6714	-0.7324	-0.1831
30971539	-0.0156	0.0068	1.0049	0.7935	-0.6104	-0.061
30983422	-0.0142	0.0049	1.0132	0.7324	-0.6714	-0.2441
30997539	-0.0146	0.0073	1	0.9766	-0.7935	-0.1831
31009426	-0.0112	0.0068	1.0171	0.7935	-0.7324	-0.1221
31021413	-0.0088	0.0044	1.0049	0.7324	-0.8545	-0.1221
31033422	-0.0112	0.0029	1.0044	0.6714	-0.7324	-0.1221
31045414	-0.0093	0.0024	1.0059	0.6714	-0.8545	-0.1221
31057426	-0.0112	0.0068	1.0054	0.7935	-0.7935	-0.1831
31069409	-0.0127	0.0054	1.0059	0.7935	-0.7324	-0.1221
31081422	-0.0195	0.0073	1.0093	0.6104	-0.5493	-0.1221
31093413	-0.0161	0.0044	1.0068	0.7324	-0.8545	-0.1831
31107426	-0.0166	0.0098	1.0083	0.9155	-0.7324	0.061
31119413	-0.0122	0.0063	1.0049	0.6104	-0.7935	-0.1831
31131422	-0.0107	0.0073	1.0049	0.5493	-0.6104	-0.1831
31143417	-0.0146	0.0059	1.0073	0.8545	-0.7935	-0.1221
31155466	-0.0098	0.0049	1.0078	0.6714	-0.6714	-0.2441
31167413	-0.0142	0.0059	1.0078	0.5493	-0.4272	-0.2441
31179422	-0.0137	0.0063	1.0068	0.8545	-0.7324	-0.2441
31191417	-0.0151	0.0049	1.0107	0.6104	-0.7935	-0.061
31203426	-0.0142	0.0049	1.0083	0.7935	-0.6714	-0.1221
31215413	-0.0103	0.0078	1.0107	0.9766	-0.6714	-0.1221
31229430	-0.0103	0.0054	1.0088	0.8545	-0.8545	-0.1221
31241417	-0.0107	0.0063	1.0068	0.7324	-0.7324	-0.3052
31253426	-0.0103	0.0093	1.0078	0.6714	-0.8545	-0.2441
31265417	-0.0132	0.0049	1.0107	0.7935	-0.6714	0
31277430	-0.0161	0.0083	1.0098	0.7935	-0.6104	-0.3052
31289425	-0.0127	0.0103	1.0063	0.7324	-0.9155	-0.1221
31301426	-0.0127	0.0078	1.0098	0.7935	-0.7324	-0.1831
31313417	-0.0112	0.0059	1.0044	0.8545	-0.7935	-0.1221
31325421	-0.0137	0.0039	1.0083	0.6714	-0.7324	-0.1221
31340543	-0.0137	0.0063	1.0107	0.8545	-0.7324	-0.1221
31353426	-0.0132	0.0054	1.0063	0.7324	-0.5493	0
31365417	-0.0151	0.0044	1.0039	0.7935	-0.7935	-0.1221
31377430	-0.0122	0.001	1.0039	0.7324	-0.6714	-0.1831
31389421	-0.0132	0.0039	1.0068	0.7935	-0.9155	-0.1221
31401426	-0.0161	0.0088	1.0083	0.7324	-0.8545	0
31413412	-0.0156	0.0034	1.0034	0.6104	-0.8545	-0.1221
31425430	-0.0122	0.0068	1.0024	0.6714	-0.7935	-0.1221
31437421	-0.0132	0.0073	1.0122	0.8545	-0.6104	-0.061
31449430	-0.0146	0.0078	1.0059	0.7935	-0.6104	0
31463458	-0.0142	0.0029	1.0063	0.7935	-0.6714	-0.1221
31475421	-0.0146	0.0039	1.0088	0.5493	-0.9155	-0.1221
31487417	-0.0166	0.0034	1.0044	0.7935	-0.7935	-0.061
31499430	-0.0156	0.0083	1.0049	0.6104	-0.7324	-0.061
31511421	-0.0166	0.0044	1.0088	0.7935	-0.7935	0
31523430	-0.0117	0.0078	1.0063	0.7935	-0.6714	-0.1221
31535417	-0.0146	0.0078	1.0073	0.6714	-0.7935	-0.2441
31547426	-0.0142	0.0068	1.0059	0.7324	-0.5493	-0.1831
31559421	-0.0117	0.0054	1.0103	0.6104	-0.9155	-0.061
31573430	-0.0166	0.0078	1.0029	0.8545	-0.8545	-0.061
31585417	-0.0156	0.0088	1.0127	0.7324	-0.7935	-0.1831
31597426	-0.0127	0.0049	1.0103	0.5493	-0.7935	-0.061
31609421	-0.0117	0.0083	1.0039	0.7935	-0.7935	-0.3052
31621430	-0.0117	0.0078	1.0044	0.7935	-0.8545	-0.1221
31633417	-0.0112	0.0044	1.0083	0.6104	-0.8545	-0.1221
31645421	-0.0137	0.0049	1.0117	0.7935	-0.7935	-0.1221
31657421	-0.0142	0.0044	1.0107	0.8545	-0.8545	-0.1831
31669442	-0.0112	0.0068	1.0044	0.9766	-0.7935	-0.3662
31681417	-0.0156	0.0073	1.0044	0.9155	-0.6104	0
31696551	-0.0127	0.0049	1.0088	0.7935	-0.7935	-0.061
31709421	-0.0156	0.0049	1.0127	0.7324	-0.7324	-0.061
31721426	-0.0093	0.0054	1.0103	0.7324	-0.7324	-0.1221
