time,gyro x,gyro y,gyro z,accel x,accel y,accel z
42.104241,0.078662872,-6.511058807,5.842243195,-0.019997433,0.207765743,0.997401714
42.118519,0.689014435,-4.565563202,5.765949249,-0.019631222,0.220461056,0.996181011
42.133836,1.604541779,-2.803173065,5.666767120,-0.017067745,0.220827267,0.993007183
42.172170,1.741870880,5.764636993,5.613361359,0.003073856,0.216188595,0.981654644
42.210457,-3.789440155,12.249622345,1.966510773,-0.002053097,0.196779415,0.983485699
42.224744,-4.231945038,11.089954376,1.783405304,-0.005348995,0.212404415,1.032924175
42.240089,-2.118602753,10.464344025,2.065692902,-0.009011105,0.218141720,1.051845074
42.278445,-0.264659882,3.033313751,0.906024933,-0.033669308,0.137453243,1.047572613
42.316722,1.825794220,-6.572093964,4.514728546,-0.054665402,0.197023556,1.085292339
42.331015,4.335865021,-7.235851288,4.392658234,-0.044167355,0.177492306,1.076991558
42.346343,2.016529083,-5.671825409,2.599750519,-0.038185909,0.141237423,1.065028667
42.384681,3.199085236,-2.429332733,3.660236359,-0.063088253,0.139528438,1.089564800
42.422973,-3.964916229,5.093250275,-0.284160614,-0.055519894,0.151979610,1.113490582
42.437257,-2.500072479,7.107410431,0.646625519,-0.062844113,0.160768673,1.140468121
42.452589,4.419788361,12.966785431,3.561054230,-0.044533566,0.084474728,1.203822613
42.490915,11.690601349,35.267505646,-8.340801239,0.019797489,0.092897579,1.152186871
42.529231,20.937427521,32.642993927,-5.830730438,-0.081642941,0.134767696,1.054530621
42.543522,28.223499298,21.336231232,-4.732097626,-0.077858761,0.092043087,0.974208355
42.558874,28.215869904,15.507373810,-4.281963348,-0.070900753,0.085451290,0.896571636
42.597215,12.056812286,-25.103893280,5.353961945,-0.181130245,0.142458126,0.829188824
42.635505,10.828479767,-34.938182831,-5.464519501,-0.084694698,0.159914181,0.803798199
42.649823,8.287891388,-36.685314178,-4.098857880,-0.139992550,0.183839962,0.794032574
42.682839,4.412158966,-31.886425018,2.065692902,-0.055764034,0.210207149,0.855800152
42.737007,-3.926769257,-12.683238983,-0.116313934,-0.129494503,0.176759884,0.823573589
42.775398,3.862842560,6.916675568,-3.976787567,-0.047463253,0.190920040,0.823329449
42.789674,-0.272289276,9.747180939,-6.990398407,-0.082863644,0.116335079,0.818568707
42.805001,-12.937084198,10.655078888,-0.947917938,-0.099343136,0.133180782,0.909144878
42.843339,4.427417755,10.929737091,-2.778972626,-0.061135128,0.247438595,0.934657574
42.881646,-14.768138885,6.367359161,-0.596965790,-0.081765011,0.128420040,0.998134136
42.895937,-12.982860565,5.703601837,-0.009502411,-0.067604855,0.178468868,1.049647808
42.911269,0.231250763,11.295948029,-3.679241180,-0.054665402,0.204347774,1.018886089
42.949590,-15.363231659,8.091602325,-4.175151825,-0.061867550,0.112062618,1.060756207
42.987890,0.315174103,-0.415172577,-5.014385223,-0.075539425,0.222536251,1.032313824
43.002178,0.421985626,-4.985179901,-5.197490692,-0.091652706,0.065797970,0.928309917
43.017509,-9.206310272,-6.884899139,-3.107036591,-0.073098019,0.015382934,0.960414410
43.055850,-12.311473846,-6.610240936,-1.611675262,-0.097512081,0.155885860,1.080653667
43.094143,-6.162181854,-4.939403534,1.394306183,-0.094094113,-0.000119995,0.995204449
43.108436,-9.297863007,-4.176464081,3.217731476,-0.012673214,0.024538208,1.051845074
43.139663,-3.461376190,7.107410431,1.447711945,-0.037331417,0.032106567,1.056239605
43.178090,-17.171398163,17.399463654,-4.991497040,-0.053444698,0.059572387,1.141322613
43.216421,8.059009552,13.546619415,-4.045452118,-0.060402706,0.195070431,1.122645855
43.230720,13.437732697,8.518848419,-6.860698700,-0.101296261,0.097292110,0.975551128
43.246103,7.982715607,4.429492950,-0.207866669,-0.099221066,0.057130981,0.965785503
43.284418,4.137500763,-11.073436737,4.293476105,-0.053932980,0.181032345,1.047206402
43.322710,2.893909454,-14.293041229,4.751239777,-0.055519894,0.033205200,0.953212261
43.337020,-5.200878143,-7.922496796,2.027545929,-0.008644894,0.119630978,1.044887066
43.352381,-1.180187225,-3.970470428,-1.619304657,-0.024514034,0.178835079,1.061000347
43.390673,8.722766876,3.681812286,-2.397502899,-0.066750363,0.119020626,0.944789410
43.428945,0.376209259,6.428394318,-4.144634247,-0.030007198,0.195192501,1.035365582
43.443238,3.962024689,5.688343048,-4.610027313,-0.061013058,0.209352657,1.034999371
43.458594,8.577808380,1.248035431,-0.230754852,-0.079079464,0.180666134,0.989589214
43.496889,0.345691681,4.086170197,0.364337921,-0.030983761,0.131349728,1.056483746
43.535184,6.769641876,2.041492462,-1.207317352,-0.073952511,0.170290157,1.044520855
43.549473,7.738574982,2.842578888,1.279865265,-0.085060909,0.096803829,1.023890972
43.564822,5.945667267,4.261646271,1.905475616,-0.057106808,0.081056759,1.008388042
43.603124,1.024707794,-4.893627167,0.524555206,-0.107765988,0.109255001,1.033290386
43.641430,2.161487579,-12.530651093,7.146869659,-0.087258175,0.057741333,0.922206402
43.673078,-7.337108612,-7.006969452,1.989398956,-0.082253292,0.079347774,0.956019878
43.687410,-3.110424042,-4.634227753,4.377399445,-0.097267941,0.100832149,0.946132183
43.725615,-7.482067108,-1.101818085,5.109821320,-0.076393917,0.066408321,0.879970074
43.763888,-9.358898163,-1.139965057,2.859149933,-0.057473019,0.121706173,0.911830425
43.778164,-3.713146210,-2.444591522,2.271686554,-0.074929073,0.139528438,0.871913433
43.793498,-2.919689178,-3.733959198,3.423725128,-0.079323605,0.111452267,0.839931011
43.831821,-18.247142792,-3.947582245,6.681476593,-0.062844113,0.079836056,0.930995464
43.870119,-2.637401581,5.680713654,4.003559113,-0.029763058,0.074464962,0.943080425
43.884423,-9.908214569,7.717761993,2.355609894,-0.037819698,0.046022583,0.944911480
43.899784,-13.326183319,8.526477814,3.240619659,-0.031838253,0.072755978,0.987758160
43.938093,0.841602325,9.998950958,1.195941925,-0.023903683,0.135133907,1.009486675
43.976402,-9.236827850,3.178272247,2.080951691,-0.056130245,0.114748165,1.059901714
43.990684,-6.108776093,3.315601349,2.920185089,-0.037575558,0.150758907,1.089931011
44.017635,3.366931915,3.330860138,-5.838359833,-0.034523800,0.073488399,1.060756207
44.056018,-7.199779510,-18.420543671,10.503803253,-0.083718136,0.078371212,1.164638042
44.094329,7.349475861,-9.715404510,-0.116313934,-0.023049191,0.027834106,1.122523785
44.108631,2.787097931,-6.930675507,0.875507355,-0.016701534,-0.003782105,1.131679058
44.124005,-2.683177948,-1.933422089,-0.169719696,0.023947880,0.056032348,1.223964214
44.162293,11.293872833,0.668201447,-9.584392548,-0.027443722,0.087770626,1.046840191
44.200609,-5.338207245,-15.857067108,4.064594269,-0.107643917,0.083254024,1.066127300
44.214912,2.428516388,-19.755687714,6.483112335,-0.051003292,0.157472774,1.093471050
44.230279,9.928211212,-17.955150604,4.720722198,-0.035134152,0.120241329,1.056849957
44.268606,-4.804149628,-12.385692596,2.424274445,-0.116921261,-0.020261597,0.975917339
44.306899,6.662830353,2.735767365,0.204120636,-0.012429073,0.079713985,1.029017925
44.321211,8.249744415,7.473621368,-0.963176727,-0.028176144,0.046755005,0.990931988
44.336570,3.489002228,11.356983185,-1.886333466,-0.055153683,0.076662228,0.917567730
44.374886,3.183826447,17.353687286,-0.604595184,0.016989872,0.112795040,0.952601910
44.413195,6.334766388,14.423999786,-1.306499481,-0.076760128,0.110963985,0.863978863
44.427494,4.435047150,11.112842560,2.264057159,-0.067971066,0.099245235,0.875331402
44.442877,4.007801056,8.602771759,3.675495148,-0.000222042,0.105470821,0.900355816
44.481184,0.315174103,2.194080353,-0.337566376,-0.083718136,0.110963985,0.862636089
44.519465,-0.920787811,1.392993927,3.004108429,-0.018166378,0.194826290,0.905971050
44.533761,2.268299103,4.170093536,-1.466716766,-0.023781613,0.184328243,0.909755230
44.549112,1.665576935,2.880725861,-2.702678680,-0.038674191,0.170778438,0.904017925
44.587450,-4.621044159,-5.328502655,11.381183624,-0.043312863,0.094972774,1.028651714
44.625752,0.170215607,5.856189728,-3.671611786,-0.037819698,0.122072384,1.012782574
44.653071,-8.931652069,1.858386993,4.652057648,-0.082863644,0.125124142,1.103602886
44.667410,-4.392162323,2.270374298,7.734333038,-0.042824581,0.166872188,1.118007183
44.705614,0.627979279,5.825672150,-4.434551239,-0.025124386,0.002077270,1.041713238
44.743900,-9.603038788,-4.687633514,8.085285187,-0.023293331,-0.012204956,1.074794292
44.758204,-10.053173065,-3.054943085,2.485309601,0.006980106,0.009645630,1.097011089
44.773531,-6.162181854,-1.300182343,-3.305400848,-0.057839230,0.055788208,1.095546246
44.811881,-1.790538788,-9.295787811,7.574115753,-0.065773800,0.016847778,1.019862652
44.850179,-0.455394745,-0.071849823,-7.532085419,-0.038918331,0.093507931,1.008998394
44.864469,1.917346954,-1.956310272,-6.174053192,-0.071877316,0.102419063,0.981166363
44.879819,2.489551544,-8.487071991,0.646625519,-0.092629269,0.114748165,0.923060894
44.918156,-1.737133026,-8.525218964,-2.351726532,-0.054909542,0.112672970,0.929896832
44.956448,4.847034454,-12.721385956,2.668415070,-0.078469113,0.148195431,0.891688824
44.970748,2.085193634,-10.981884003,4.468952179,-0.035500363,0.087160274,0.897059917
44.986096,-0.020519257,-8.578624725,3.049884796,-0.031472042,0.081545040,0.917201519
45.024444,-1.248851776,11.715564728,-4.541362762,-0.051369503,0.126222774,0.912440777
45.062738,-4.758373260,32.375965118,-10.133708954,0.013327762,0.167604610,0.999232769
45.077047,-2.629772186,38.090381622,-9.088481903,0.027243778,0.110231563,1.130702496
45.092401,0.948413849,38.578662872,-12.514080048,0.024192020,0.146364376,1.130580425
45.130742,8.654102325,39.082202911,-14.444316864,0.049460575,-0.015744995,1.089320660
45.169064,-0.867382050,25.997791290,-15.359844208,-0.027199581,0.174196407,1.233607769
45.183360,7.997974396,18.047962189,-16.420330048,-0.053566769,0.229738399,1.188441753
45.198717,21.631702423,-0.285472870,-6.677593231,-0.086281613,0.148317501,1.063807964
45.237098,-2.248302460,-18.260326385,-14.505352020,-0.035256222,0.015993286,1.105556011
45.275432,6.540760040,-32.054271698,-8.638347626,-0.085915402,0.158205196,1.062465191
45.289732,10.057910919,-36.982860565,-7.112468719,-0.042946652,0.008791137,1.060023785
45.317134,2.459033966,-40.377941132,-14.055217743,-0.096413448,0.026003052,1.029872417
45.355547,11.019214630,-41.011180878,-4.777873993,-0.053932980,0.072878048,0.909266949
45.393857,1.322254181,-26.004161835,-15.794719696,-0.068581417,0.028932739,0.890346050
45.408166,-0.112071991,-19.343700409,-11.270488739,-0.097390011,0.104738399,0.881190777
45.423537,1.734241486,-15.887584686,-9.759868622,-0.088967159,0.148195431,0.830531597
45.474076,-7.962718964,7.893238068,-16.756023407,-0.101784542,0.111940548,0.864833355
45.512452,2.703174591,2.422962189,-3.564800262,-0.099587277,0.132448360,0.826014996
45.526744,-2.492443085,10.876331329,-5.365337372,-0.060646847,0.071779415,0.812953472
45.542067,-7.367626190,16.888294220,-8.775676727,-0.042336300,0.073610470,0.830165386
45.580446,-9.496227264,15.255603790,-5.845989227,-0.130104855,0.210451290,0.938319683
45.618737,-5.742565155,13.935718536,-6.479228973,-0.110573605,0.081178829,0.974208355
45.633039,-8.161083221,10.746631622,-5.212749481,-0.125588253,0.093385860,1.002772808
45.648381,-2.706066132,0.797901154,1.630817413,-0.120949581,0.133058712,1.033900738
45.686704,-3.812328339,0.485095978,1.127277374,-0.070168331,-0.035276245,1.054774761
45.725001,-4.132762909,-9.898509979,6.734882355,-0.158547238,0.073610470,1.079310894
45.739292,-1.058116913,-12.385692596,10.419879913,-0.124611691,0.052126098,1.072719097
45.754634,-5.086437225,-10.539379120,11.419330597,-0.085427120,0.000490356,1.029506207
45.792987,-8.702770233,-0.583019257,7.993732452,-0.113625363,0.076784298,1.066127300
45.831269,-9.122386932,3.475818634,10.335956573,-0.077980831,-0.015622925,1.055385113
45.845581,-9.740367889,4.048023224,8.199726105,-0.062233761,0.029176880,1.063563824
45.860919,-7.245555878,3.559741974,6.856952667,-0.065895870,0.054933716,1.067592144
45.899272,0.055774689,-0.277843475,8.962665558,-0.068215206,-0.011472534,0.952357769
45.937548,-13.303295135,-2.612438202,8.855854034,-0.074440792,0.053713012,1.021693707
45.951857,-9.770885468,-2.017345428,10.076557159,-0.059304073,0.100588009,1.044032574
45.967198,-0.836864471,2.255115509,6.567035675,-0.048073605,0.114626095,1.033290386
46.005527,2.871021271,4.521045685,5.735431671,-0.042580441,0.105104610,0.987880230
46.043849,-0.310436249,10.319385529,4.697834015,0.007102177,0.080690548,0.997279644
46.058138,-1.294628143,12.188587189,1.562152863,0.000144169,0.123659298,1.011928082
46.073493,2.916797638,13.157520294,-0.146831512,-0.043801144,0.211549923,0.990931988
46.111860,4.847034454,12.020740509,2.248798370,0.003317997,0.129274532,0.974574566
46.150167,6.800159454,11.051807404,-2.244915009,-0.035012081,0.171877071,1.021449566
46.179146,4.160388947,4.536304474,3.164325714,-0.040993527,0.046266723,1.024501324
46.193459,-2.187267303,3.109607697,1.470600128,0.001609012,0.114381954,1.064662457
46.231690,15.299304962,1.934680939,-2.557720184,-0.055641964,0.007936645,1.002894878
46.270020,-6.291881561,-8.509960175,-1.962627411,-0.077248409,-0.022580933,0.984950542
46.284321,-9.038463593,-18.992748260,1.226459503,-0.091774777,0.087160274,1.027797222
46.299659,-6.001964569,-22.113170624,3.789936066,-0.096291378,0.113527462,1.036220074
46.338004,-3.240123749,-18.229808807,4.941974640,-0.056008175,0.007570434,0.982142925
46.376318,-5.597606659,3.529224396,1.699481964,-0.018654659,0.009035278,0.994105816
46.390624,-6.322399139,11.410388947,-0.833477020,-0.025124386,-0.015989136,0.975429058
46.405990,-9.114757538,13.981494904,-1.298870087,-0.028420284,-0.016965698,0.979579449
46.444335,-4.537120819,19.299182892,-0.329936981,-0.013283566,0.091188595,0.987025738
46.482662,-5.002513885,16.873035431,-3.900493622,-0.061867550,0.034181762,0.957118511
46.496968,-4.491344452,13.836536407,-0.627483368,-0.066384152,0.054323364,0.969691753
46.512335,1.291736603,9.037647247,0.692401886,-0.024880245,0.087404415,0.949061871
46.550697,-2.744213104,0.523242950,-1.855815887,-0.058449581,0.028078247,0.927333355
46.589029,2.665027618,-7.144298553,2.889667511,-0.041481808,0.090089962,0.923427105
46.603330,1.650318146,-6.602611542,1.791034698,-0.025612667,0.065553829,0.925990582
46.632445,-3.339305878,-5.717601776,0.547443390,-0.042336300,0.119264767,0.949794292
46.670875,0.765308380,-5.275096893,-1.146282196,-0.076882198,0.125490353,0.992885113
46.709176,-4.018321991,-15.078868866,3.286396027,-0.072121456,0.052370239,1.014003277
46.723481,-4.865184784,-15.368785858,5.270038605,-0.067971066,0.051027466,1.040248394
46.738850,-4.453197479,-13.362255096,5.315814972,-0.037941769,0.077028438,1.061488628
46.777202,-4.247203827,-8.021678925,2.157245636,-0.060280636,0.031618286,1.080897808
46.815479,-0.463024139,-5.389537811,4.812274933,-0.072121456,0.051271606,1.051967144
46.829781,-2.789989471,0.744495392,4.064594269,-0.030861691,-0.058103394,1.026088238
46.845135,-8.451000214,3.681812286,1.371417999,-0.030129269,-0.089963749,1.044642925
46.897392,-3.316417694,5.604419708,1.745258331,-0.029518917,-0.098508671,1.095302105
46.935765,-5.681529999,4.566822052,-1.977886200,-0.052712277,-0.072873905,1.049891949
46.950061,-6.513134003,-0.033702850,-0.528301239,-0.065651730,-0.020871948,1.031947613
46.965381,-6.459728241,-2.047863007,0.455890656,-0.075173214,-0.001951050,1.041957378
47.003709,-1.615062714,-5.671825409,-0.169719696,-0.071511105,0.088380978,1.042323589
47.042021,10.347827911,-11.103954315,5.048786163,-0.089577511,0.045778442,0.939052105
47.056329,0.711902618,-12.523021698,5.270038605,-0.064064816,-0.008909058,0.956264019
47.071664,-3.255382538,-14.483776093,5.277667999,-0.066872433,0.040285278,0.984096050
47.110007,14.284595490,-15.681591034,5.765949249,-0.057350948,0.176637813,0.972133160
47.148309,-0.440135956,0.057849884,0.600849152,-0.035378292,0.086794063,0.928798199
47.162570,-2.301708221,3.483448029,1.157794952,-0.044655636,0.148805782,0.963832378
47.177922,5.503162384,10.464344025,0.181232452,-0.040505245,0.192629024,0.995692730
47.216283,1.337512970,20.275745392,-0.490154266,0.000144169,0.027101684,1.014735699
47.254566,4.236682892,28.889331818,-3.137554169,0.000388309,0.052858520,1.043666363
47.268868,3.023609161,30.575428009,-4.037822723,-0.001320675,0.006471802,1.065883160
47.284220,0.597461700,32.177600861,-5.273784637,0.011984989,-0.004880738,1.098842144
47.322554,3.862842560,26.959095001,-9.187664032,-0.029518917,0.021974731,1.096034527
47.360859,1.421436310,1.011524200,-3.900493622,-0.090798214,-0.046384644,1.037684917
47.375155,-0.913158417,-10.768260956,3.690753937,-0.062722042,-0.002683472,1.049281597
47.390493,1.474842072,-13.942089081,3.652606964,-0.046364620,0.013307739,1.039515972
47.428855,-1.660839081,-16.398754120,-1.596416473,-0.025734738,-0.069455937,0.978602886
47.467143,-0.791088104,-19.091930389,2.248798370,-0.057228878,0.085939571,0.957728863
47.481445,2.390369415,-18.512096405,2.271686554,-0.040261105,0.076173946,0.945888042
47.496794,1.619800568,-14.552440643,-1.398052216,-0.031227902,0.037233520,0.907313824
47.535149,-2.965465546,-4.977550507,-1.909221649,-0.042702511,0.048219848,0.923305035
47.573444,0.452503204,6.008777618,-2.778972626,-0.044777706,0.042238403,0.930140972
47.587736,0.414356232,8.297595978,-2.634014130,-0.042580441,0.040529419,0.925624371
47.617169,1.291736603,10.845813751,-1.382793427,-0.035012081,0.088747188,0.917323589
47.655602,-0.875011444,13.722095490,-4.075969696,-0.026833370,0.078859493,0.917079449
47.693904,0.780567169,9.518299103,-2.191509247,-0.026100948,0.169069454,0.936000347
47.708208,3.046497345,8.534107208,-2.588237762,-0.012307003,0.165773556,0.934169292
47.723547,2.207263947,4.292163849,-6.776775360,-0.028664425,0.091798946,0.949672222
47.761894,1.314624786,-8.311595917,1.058612823,-0.044533566,0.092165157,1.024501324
47.800191,-2.027050018,-4.100170135,-0.207866669,0.005881473,0.009889770,0.991908550
47.814476,-10.648265839,1.446399689,-5.975688934,-0.018776730,0.050050903,1.040980816
47.829824,-10.610118866,2.422962189,-5.701030731,-0.037209347,0.081056759,1.078578472
47.868167,1.810535431,-0.079479218,-2.992595673,-0.061257198,0.078615353,1.047328472
47.906456,-11.334911346,-2.917613983,-2.855266571,-0.056252316,-0.067380741,1.053065777
47.920751,-10.823741913,-4.245128632,-2.847637177,-0.060768917,-0.034055542,1.103724957
47.951561,-5.033031464,-4.901256561,-4.053081512,-0.048439816,-0.059446167,1.090175152
47.989963,-7.184520721,-5.168285370,-6.471599579,-0.064797238,-0.050412964,1.057826519
48.028261,-7.199779510,-12.584056854,-4.762615204,-0.108254269,0.014528442,1.043910503
48.042567,-5.261913300,-18.557872772,-0.703777313,-0.116921261,0.058229614,1.052211285
48.057927,-3.087535858,-20.610179901,1.874958038,-0.108376339,0.080812618,1.045253277
48.096281,1.917346954,-17.993297577,2.012287140,-0.081398800,0.066652462,0.996547222
48.134597,5.350574493,-6.564464569,2.447162628,-0.071511105,0.110475704,1.002528667
48.148901,7.402881622,-2.497997284,2.302204132,-0.058449581,0.102052853,1.000453472
48.164242,7.654651642,7.084522247,-0.116313934,-0.044777706,0.074220821,0.968837261
48.202580,5.098804474,12.112293243,-1.153911591,-0.062477902,0.120119259,0.994227886
48.240878,7.151111603,13.493213654,0.310932159,-0.027687863,0.084963009,0.986537457
48.255178,5.663379669,14.782581329,-0.963176727,-0.019631222,0.069093868,1.004481792
48.270548,3.885730743,15.354785919,-3.236736298,-0.029274777,0.076173946,1.037806988
48.308900,7.555469513,12.837085724,1.424823761,-0.007790402,0.047731567,1.060023785
48.362910,4.335865021,7.305774689,-6.479228973,-0.067360714,-0.016355347,1.032191753
48.377229,2.535327911,2.583179474,-3.084148407,-0.071022823,-0.022336792,1.033290386
48.392588,-0.691905975,-6.770458221,0.318561554,-0.044655636,-0.017942261,1.033168316
48.430915,-1.195446014,-12.919750214,1.997028351,-0.055641964,-0.017820191,1.011683941
48.469222,-4.529491425,-6.587352753,-0.169719696,-0.037209347,-0.050168823,0.982142925
48.483509,-5.605236053,-4.756298065,-0.665630341,-0.049416378,-0.048215698,0.982387066
48.498835,-5.925670624,-1.269664764,1.386676788,-0.046608761,-0.010373902,0.994105816
48.537182,2.474292755,3.224048615,0.852619171,-0.040993527,0.013429809,0.919642925
48.575465,-2.011791229,2.255115509,-0.589336395,-0.050759152,0.024660278,0.885829449
48.589757,-1.424327850,0.744495392,0.654254913,-0.047585323,0.031007934,0.878627300
48.605098,-2.431407928,0.507984161,0.066791534,-0.048195675,0.035036255,0.874721050
48.643464,-3.942028046,-3.871288300,2.927814484,-0.052101925,0.028444458,0.892665386
48.681752,-0.447765350,3.658924103,1.585041046,-0.014992550,0.056154419,0.908900738
48.696047,-1.019969940,5.177173615,0.753437042,-0.025368527,0.038088012,0.901088238
48.711377,-4.544750214,6.489429474,0.394855499,-0.024025753,0.061281372,0.912929058
48.749716,-2.187267303,5.222949982,2.615009308,-0.014748409,0.099611446,0.952235699
48.788033,-3.278270721,2.751026154,-1.085247040,-0.040627316,0.074953243,0.989833355
48.802328,-2.980724335,0.981006622,0.371967316,-0.050515011,0.064699337,1.005946636
48.817659,-2.698436737,-0.552501678,3.919635773,-0.043557003,0.047975708,1.032191753
48.856004,-4.422679901,10.433826447,-1.069988251,0.021994755,0.001344848,1.048915386
48.894307,-7.611766815,10.288867950,-5.342449188,-0.036721066,0.002809692,1.075770855
48.908617,-5.528942108,2.285633087,-1.657451630,-0.069313839,0.016725708,1.085414410
48.923982,-4.605785370,-0.987377167,0.883136749,-0.066872433,0.002565552,1.088466167
48.962309,-6.566539764,-3.482189178,0.783954620,-0.026955441,-0.092161015,1.051967144
49.000621,-11.815563202,-6.205883026,-0.093425751,-0.072609738,-0.011838745,1.144740582
49.014925,-0.524059296,-8.326854706,1.218830109,-0.051247433,-0.004636597,1.119838238
49.030261,2.298816681,-8.067455292,0.005756378,-0.046974972,-0.050779175,1.085902691
49.084510,-0.768199921,-11.546459198,-0.482524872,-0.102272823,-0.021604370,1.063197613
49.122896,0.948413849,-15.139904022,3.706012726,-0.079201534,-0.025876831,1.005946636
49.137212,0.429615021,-13.400402069,3.759418488,-0.075417355,0.008424927,0.986171246
49.152576,1.787647247,-11.332836151,4.163776398,-0.065407589,0.024416137,0.973964214
49.190921,-0.798717499,0.858936310,2.470050812,-0.060280636,0.013673950,0.958583355
49.229220,4.236682892,8.595142365,-0.459636688,-0.055764034,0.051759887,0.931972027
49.243502,2.192005157,9.442005157,-0.535930634,-0.052590206,0.050295044,0.924647808
49.275027,0.086292267,8.976612091,-1.131023407,-0.055886105,0.067873165,0.936366558
49.313442,3.191455841,3.986988068,1.615558624,-0.053444698,0.056764770,1.003627300
49.351738,2.947315216,6.756458282,-0.108684540,-0.001442745,-0.070798710,1.000819683
49.366041,-5.406871796,10.403308868,-3.694499969,-0.019631222,-0.091306522,1.063319683
49.381413,-4.750743866,10.632190704,-3.190959930,-0.030129269,-0.062864140,1.101893902
49.419770,2.405628204,7.839832306,-3.679241180,-0.010475948,-0.109494999,1.066737652
49.458066,-0.806346893,-0.720348358,0.959430695,-0.012795284,-0.045408081,1.129237652
49.472365,2.413257599,-2.032604218,2.431903839,-0.002785519,-0.076413944,1.117030621
49.487696,2.115711212,-0.346508026,2.370868683,0.013449833,-0.113035038,1.100306988
49.526069,0.231250763,7.389698029,-3.679241180,0.042502567,-0.120359257,1.099330425
49.564366,3.511890411,6.039295197,-3.046001434,0.004050419,-0.056394409,1.074306011
49.578665,6.243213654,5.337390900,-3.129924774,0.014548466,-0.047483277,1.044032574
49.594033,7.204517365,4.437122345,-6.433452606,0.017111942,-0.059568238,0.964320660
49.632364,-1.660839081,-1.323070526,-10.667766571,-0.051247433,0.008424927,0.916469097
49.670660,2.779468536,-13.430919647,-7.425273895,-0.068215206,0.036379028,0.888514996
49.684976,2.809986115,-16.230907440,-8.012737274,-0.077614620,0.029909302,0.877284527
49.700328,2.260669708,-21.785106659,-5.418743134,-0.104225948,0.018190552,0.853358746
49.738678,-0.165477753,-26.225414276,-1.871074677,-0.092873409,-0.015500855,0.850184917
49.776997,-5.658641815,-23.150768280,-0.612224579,-0.099221066,0.012697387,0.879359722
49.791308,-4.598155975,-19.091930389,2.157245636,-0.098610714,0.030397583,0.889491558
49.806672,-4.170909882,-16.040172577,2.965961456,-0.090920284,0.022218872,0.895595074
49.856565,-6.513134003,8.412036896,4.575763702,-0.058083370,-0.005002808,0.998378277
49.894940,-5.078807831,26.058826447,3.026996613,-0.023537472,-0.073850468,1.013881207
49.909235,-6.856456757,32.910022736,-0.040019989,-0.020485714,-0.056394409,1.044764996
49.924576,-6.375804901,34.763965607,-0.787700653,-0.035988644,-0.076658085,1.062221050
49.962906,-2.316967010,30.804309845,2.332721710,-0.048806027,-0.162351444,1.069789410
50.001216,-12.761608124,16.812000275,0.967060089,-0.063332394,-0.142698124,1.038783550
50.015506,-14.928356171,10.899219513,2.431903839,-0.069191769,-0.113401249,1.059047222
50.030836,-13.638988495,-1.376476288,5.041156769,-0.073464230,-0.041623902,1.112514019
50.069156,-2.538219452,-15.040721893,5.590473175,-0.055031613,-0.158567265,1.113734722
50.107449,-3.194347382,-17.924633026,3.095661163,-0.049782589,-0.206907108,1.096034527
50.121746,-3.942028046,-19.381847382,3.896747589,-0.067848995,-0.160276249,1.095057964
50.137081,-2.789989471,-20.160045624,5.331073761,-0.071999386,-0.130613163,1.087611675
50.175406,-2.660289764,-15.956249237,7.497821808,-0.042214230,-0.077634647,1.047816753
50.213687,1.398548126,-0.995006561,2.981220245,-0.022560909,-0.038694214,1.026942730
50.227984,0.017627716,2.293262482,2.409015656,-0.037087277,-0.062864140,1.002894878
50.243281,-2.225414276,3.239307404,3.271137238,-0.039040402,-0.066526249,1.011928082
50.281605,0.185474396,9.075794220,2.126728058,0.005271122,-0.045896363,1.053920269
50.319888,3.283008575,14.568958282,-1.222576141,-0.008278683,-0.080808476,1.046107769
50.334196,2.436145782,15.125904083,-1.985515594,-0.011208370,-0.102781132,1.045131207
50.349534,1.375659943,15.705738068,-2.542461395,-0.006691769,-0.077634647,1.076381207
50.387872,9.294971466,15.072498322,-1.474346161,0.011618778,-0.104490116,1.087367535
50.426169,5.648120880,16.750965118,-7.051433563,0.010886356,-0.115110233,1.047938824
50.440459,6.327136993,16.354236603,-6.212200165,0.005026981,-0.094602421,1.064418316
50.455784,8.387073517,15.995655060,-4.999126434,0.012961552,-0.093259647,1.063563824
50.494116,10.118946075,13.897571564,-9.584392548,0.016501591,-0.130613163,1.003505230
50.532426,5.548938751,1.522693634,-4.869426727,-0.006325558,-0.071409062,0.979579449
50.546719,5.556568146,-2.810802460,-5.105937958,0.023093387,-0.058591675,0.971644878
50.573855,4.099353790,-5.267467499,-8.798564911,0.019187137,-0.047361206,0.951991558
50.612254,1.596912384,-16.871776581,-7.593120575,-0.041603878,-0.038205933,0.964931011
50.650545,5.747303009,-20.999279022,-4.968608856,-0.011330441,-0.029416870,0.967860699
50.678084,4.984363556,-18.222179413,-5.701030731,-0.032204464,-0.057981323,0.934413433
50.692425,4.267200470,-16.711559296,-4.953350067,-0.033058956,-0.059079956,0.920619488
50.730629,-0.188365936,-6.984081268,-3.419841766,-0.021096066,-0.057004761,0.917933941
50.768898,-1.294628143,5.100879669,-2.740825653,-0.008644894,-0.052976441,0.927943707
50.783202,-1.569286346,7.877979279,-2.023662567,0.004050419,-0.040525269,0.929530621
50.798522,-0.859752655,14.195117950,-2.908672333,0.025046512,-0.034299683,0.934169292
50.836851,-2.973094940,26.188526154,-4.198040009,0.033225223,-0.033811402,0.938563824
50.875149,-3.545299530,30.644092560,-5.990947723,0.032492802,-0.032590698,0.927577496
50.889446,-4.842296600,30.193958282,-5.395854950,0.033469364,-0.036985230,0.934169292
50.904808,-5.795970917,27.783069611,-6.113018036,0.044821903,-0.014768433,0.954799175
50.943127,-6.955638885,13.966236115,-7.158245087,0.015402958,-0.046140503,0.949916363
50.981434,-7.039562225,-4.756298065,-3.770793915,-0.001808956,-0.015867066,0.996425152
50.995720,-4.216686249,-16.093578339,-1.886333466,0.006369755,0.001222778,1.014247417
51.011069,-2.599254608,-19.450511932,-1.924480438,0.006858036,0.000978637,1.009120464
51.049403,-8.275524139,-27.163829803,-2.328838348,-0.001808956,0.003542114,1.013514996
51.087697,-4.300609589,-31.314220428,-1.741374969,-0.027199581,0.030397583,1.087123394
51.102013,-0.829235077,-32.504405975,-1.115764618,-0.042092159,0.012087036,1.083827496
51.117376,0.536426544,-33.763256073,3.194843292,-0.040871456,-0.092283085,1.050136089
51.155684,-2.622142792,-23.822154999,4.102741241,-0.005715206,-0.017453980,1.064174175
51.194009,-4.903331757,-6.495800018,-1.794780731,-0.031472042,0.022707153,1.058070660
51.208303,-3.652111053,-3.764476776,-1.703227997,-0.038430050,0.024049927,1.082240582
51.223643,3.107532501,-2.093639374,1.455341339,-0.048683956,-0.005369019,1.097743511
51.261937,0.788196564,3.552112579,-0.085796356,0.005271122,-0.113523319,0.978847027
51.300231,-10.686412811,5.535755157,-4.312480927,-0.044777706,-0.041379761,0.989833355
51.314524,-9.732738495,1.087818146,0.280414581,-0.053932980,0.044679809,1.040736675
51.329875,-5.605236053,-1.307811737,1.211200714,-0.040505245,0.070924923,1.046840191
51.368180,-1.798168182,-5.442943573,-3.068889618,-0.028420284,-0.068113163,0.954188824
51.406458,-5.719676971,-7.281627655,-3.046001434,-0.063576534,0.034547973,1.009608746
51.420752,-4.560009003,-8.334484100,-0.619853973,-0.048073605,0.018068481,1.011806011
51.436101,-5.307689667,-7.022228241,-0.818218231,-0.027687863,0.027467895,1.018153667
51.474433,-3.919139862,3.666553497,-3.961528778,-0.004494503,0.021486450,1.045619488
51.512709,-0.783458710,11.753711700,-6.135906219,0.004904911,0.047487427,1.052943707
51.527014,-0.516429901,13.653430939,-6.753887177,0.011252567,0.041628052,1.056361675
51.542365,-0.051036835,16.773853302,-8.256877899,0.014548466,0.042482544,1.073207378
51.592886,4.633411407,15.377674103,-12.086833954,-0.011208370,0.032594848,1.061488628
51.631272,6.411060333,3.735218048,-12.170757294,-0.019753292,0.040285278,1.053309917
51.645577,6.517871857,0.118885040,-12.674297333,-0.025734738,0.048097778,1.051234722
51.660927,7.433399200,-6.900157928,-12.369121552,-0.060524777,0.052736450,1.045497417
51.699248,7.082447052,-14.117565155,-6.769145966,-0.030861691,0.045046020,1.057826519
51.737537,8.707508087,-11.470165253,-12.025798798,-0.055764034,0.046999145,1.057460308
51.751855,10.347827911,-13.240184784,-9.828533173,-0.093361691,0.024171997,1.045009136
51.767204,10.187610626,-14.773693085,-6.936992645,-0.103005245,0.006349731,1.040858746
51.805511,6.983264923,-10.875072479,-2.656902313,-0.032326534,0.011720825,1.064418316
51.843838,8.882984161,-5.153026581,-5.693401337,-0.087502316,-0.013547730,1.044887066
51.858131,10.752185822,-7.655467987,0.005756378,-0.087502316,-0.027829956,1.047206402
51.886936,10.492786407,-7.815685272,2.615009308,-0.055153683,-0.090696171,1.011439800
51.925293,4.999622345,-5.984630585,0.349079132,-0.042946652,-0.047605347,0.999232769
51.963603,2.443775177,-8.143749237,2.912555695,-0.044411495,-0.016233277,0.994716167
51.977905,4.885181427,-8.281078339,3.950153351,-0.032692745,0.003664184,0.983241558
51.993245,5.671009064,-7.960643768,3.866230011,-0.031716183,-0.008420777,0.968593121
52.031540,1.680835724,-1.803722382,1.203571320,-0.009377316,0.010866333,0.954188824
52.069848,4.465564728,3.575000763,-0.017131805,-0.007424191,-0.017087769,0.915370464
52.084136,2.611621857,5.123767853,-1.085247040,-0.007790402,-0.028318238,0.911464214
52.099482,0.391468048,8.396778107,-2.450908661,0.000022098,-0.032590698,0.918788433
52.137769,-3.171459198,9.678516388,-4.816020966,-0.033547238,-0.043332886,0.878383160
52.176045,-4.949108124,7.237110138,-2.130474091,-0.001808956,0.035280395,0.929408550
52.190335,-2.484813690,7.641468048,-3.686870575,-0.010475948,0.021608520,0.936610699
52.205667,-0.943675995,8.007678986,-4.137004852,-0.014260128,0.005006958,0.930385113
52.243950,-3.621593475,8.328113556,-0.696147919,-0.035500363,0.062990353,0.915736675
52.282227,0.406726837,13.409290314,-4.930461884,-0.045143917,0.017580200,0.859828472
52.296520,-8.641735077,13.188037872,-1.977886200,-0.056984738,0.041750122,0.878383160
52.311872,-9.755626678,10.685596466,-0.246013641,-0.056008175,0.084108517,0.887904644
52.350169,-5.193248749,4.406604767,-4.709209442,-0.034890011,0.022707153,0.930751324
52.388450,-9.480968475,-9.196605682,3.500019073,-0.076271847,0.001222778,0.965175152
52.402750,-9.580150604,-11.943187714,2.737079620,-0.068215206,-0.016477417,1.001918316
52.418109,-8.290782928,-17.421092987,3.431354523,-0.095803097,-0.039304566,1.030116558
52.456447,-10.343090057,-25.279369354,14.616046906,-0.086891964,-0.092893437,1.036586285
52.508522,-5.910411835,-9.867992401,5.788837433,-0.109597042,-0.029050659,1.135707378
52.522859,-2.881542206,-9.585704803,11.083637238,-0.122536495,-0.035398316,1.135097027
52.538206,2.603992462,-4.603710175,17.828022003,-0.050148800,-0.102414921,1.103969097
52.576492,-3.659740448,13.058338165,1.363788605,-0.062966183,-0.098020390,1.076991558
52.614795,1.879199982,2.041492462,11.037860870,-0.067360714,-0.080076054,1.062098980
52.629101,0.910266876,0.645313263,10.145221710,-0.054055050,-0.112912968,1.047694683
52.644421,-1.325145721,-0.941600800,7.238422394,-0.042946652,-0.144651249,1.046718121
52.682716,-2.011791229,-6.533946991,5.743061066,-0.071999386,-0.124143437,1.072108746
52.721028,-2.561107635,-6.350841522,4.957233429,-0.080300167,-0.144285038,1.032802105
52.735320,-4.613414764,-2.589550018,4.308734894,-0.083107784,-0.102292851,1.046107769
52.750639,-3.949657440,-0.361766815,3.812824249,-0.080666378,-0.102292851,1.058192730
52.788936,2.886280060,4.437122345,3.110919952,-0.110085323,-0.105588749,1.065394878
52.827227,0.383838654,12.638721466,3.828083038,-0.062233761,-0.130369022,1.047084332
52.841519,1.444324493,14.912281036,1.707111359,-0.057350948,-0.102781132,1.056117535
52.856870,5.220874786,15.812549591,-0.749553680,-0.069313839,-0.123288944,1.051600933
52.909092,2.733692169,5.589160919,4.034076691,-0.094094113,-0.140744999,1.049525738
52.947478,6.655200958,6.939563751,1.585041046,-0.042336300,-0.143552616,1.050380230
52.961789,6.266101837,8.206043243,-0.619853973,-0.070656613,-0.131589726,1.040736675
52.977128,6.510242462,7.794055939,0.280414581,-0.075661495,-0.121457890,1.032313824
53.015433,4.724964142,6.611499786,2.203022003,-0.055519894,-0.088987187,1.042567730
53.053709,8.165821075,5.680713654,1.905475616,-0.059914425,-0.082395390,1.012904644
53.068011,8.074268341,5.795154572,0.776325226,-0.056374386,-0.090574101,1.003261089
53.083338,6.502613068,5.352649689,0.005756378,-0.089333370,-0.112668827,0.994960308
53.121648,7.402881622,-1.361217499,2.149616241,-0.059182003,-0.063596562,1.030482769
53.159935,8.036121368,-3.367748260,1.646076202,-0.069802120,-0.070676640,0.978847027
53.174230,5.869373322,-0.819530487,1.646076202,-0.068093136,-0.074094608,1.004481792
53.203712,12.186511993,0.187549591,0.707660675,-0.055886105,-0.070920780,0.995326519
53.242074,2.619251251,0.858936310,1.195941925,-0.035378292,-0.057004761,0.943324566
53.280385,1.894458771,4.383716583,-0.490154266,-0.034157589,0.004274536,0.953944683
53.294676,1.238330841,4.444751740,-0.658000946,-0.042458370,0.006838012,0.944301128
53.310051,-1.401439667,3.582630157,1.386676788,-0.050392941,0.006105591,0.945521832
53.348356,-3.674999237,3.407154083,2.233539581,-0.036843136,-0.018186402,0.963588238
53.386655,-5.429759979,7.137928009,-0.421489716,-0.020241573,-0.013059448,0.970424175
53.400956,-7.779613495,6.489429474,0.227008820,-0.045265988,0.004396606,0.986781597
53.416318,-7.924571991,5.604419708,2.187763214,-0.046242550,0.020509887,1.000331402
53.454649,-0.081554413,4.887256622,-1.283611298,-0.024880245,0.043459106,1.014613628
53.508414,3.847583771,-1.651134491,1.569782257,-0.035988644,0.006227661,1.050624371
53.522732,6.708606720,-2.826061249,1.562152863,-0.045876339,0.002077270,1.033900738
53.538073,6.998523712,-5.030956268,2.592121124,-0.045388058,-0.059934448,0.976283550
53.576398,-1.927867889,-1.262035370,2.912555695,-0.032570675,-0.038205933,0.997523785
53.614694,3.046497345,-3.047313690,3.286396027,-0.056618527,0.033815552,1.029262066
53.629006,6.876453400,-4.664745331,5.941425323,-0.042458370,-0.000608277,1.005092144
53.644324,5.671009064,-2.909984589,6.315265656,-0.028054073,-0.043577027,0.997401714
53.682658,5.663379669,8.709583282,1.066242218,-0.007912472,-0.009153198,1.005824566
53.720954,2.077564240,13.874683380,0.043903351,-0.006691769,-0.034055542,0.983851910
53.735243,1.215442657,14.248523712,-0.894512177,-0.007790402,-0.030393433,0.991542339
53.750599,0.193103790,12.921009064,-1.115764618,-0.026223019,-0.009153198,1.014857769
53.788909,3.992542267,6.390247345,-0.719036102,-0.034157589,-0.050412964,1.017909527
53.827222,3.694995880,0.332508087,1.050983429,-0.021706417,-0.058469605,1.017665386
53.841503,3.786548615,-0.155773163,0.265155792,-0.019020870,-0.056394409,1.000453472
53.856844,-0.516429901,-0.506725311,-1.405681610,-0.028298214,-0.027829956,0.977748394
53.895148,-3.285900116,-4.412975311,-0.032390594,-0.043557003,0.070070431,1.019130230
53.933445,6.472095490,-3.985729218,-2.000774384,-0.035866573,0.027712036,0.982509136
53.947731,2.611621857,-2.658214569,-0.619853973,-0.053688839,-0.042478394,0.945399761
53.963081,-1.668468475,-1.246776581,0.539813995,-0.041848019,-0.050290894,0.936732769
54.001397,-11.693492889,2.949390411,-5.693401337,0.000144169,0.021730591,0.943812847
54.039692,-12.593761444,-2.414073944,-6.952251434,-0.054543331,0.136720821,1.014247417
54.054004,-8.435741425,-4.329051971,-6.479228973,-0.063820675,0.124269649,1.024379253
54.069333,-3.156200409,-7.838573456,-5.067790985,-0.069435909,0.035158325,1.021449566
54.107661,-7.031932831,-7.258739471,-3.915752411,-0.040871456,0.000612427,1.027675152
54.145939,-4.514232635,-3.482189178,-4.716838837,-0.082497433,0.048952270,1.035975933
54.160231,-2.690807343,-2.833690643,-2.847637177,-0.078347042,0.050295044,1.043056011
54.175588,0.757678986,1.103076935,-1.932109833,-0.042580441,0.021242309,1.053798199
54.213897,3.778919220,8.480701447,-8.287395477,-0.040016964,-0.017209839,1.045253277
54.252203,6.403430939,6.207141876,-5.327190399,-0.039406613,0.008424927,1.025111675
54.266478,6.136402130,4.437122345,-6.967510223,-0.042946652,-0.032102417,0.999354839
54.281828,3.786548615,3.178272247,-6.677593231,-0.047951534,-0.031980347,0.993251324
54.320144,3.138050079,-4.542675018,-8.058513641,-0.070168331,0.079347774,1.039271832
54.358447,7.677539825,-10.371532440,-2.283061981,-0.067726925,0.021852661,1.004725933
54.372739,6.922229767,-9.532299042,-2.359355927,-0.054787472,0.002809692,1.009730816
54.403814,8.310779572,-6.411876678,-4.175151825,-0.065407589,-0.051389527,0.959804058
54.442234,-6.108776093,-3.039684296,-4.075969696,-0.061379269,-0.064328983,0.919520855
54.480524,-9.610668182,0.797901154,-2.771343231,-0.080666378,0.100588009,0.969325542
54.494832,-7.688060760,0.790271759,-2.916301727,-0.075539425,0.075563595,0.966273785
54.526186,-10.076061249,-2.269115448,0.135456085,-0.107765988,0.066408321,0.991054058
54.564575,-6.352916718,-6.152477264,5.567584991,-0.099709347,-0.018796753,0.983851910
54.602882,-5.414501190,0.454578400,7.207904816,-0.049050167,-0.020871948,1.022670269
54.617169,-5.048290253,3.018054962,7.261310577,-0.020851925,-0.056760620,1.015223980
54.632515,-9.633556366,10.082874298,5.254779816,-0.010353878,-0.026975464,1.031581402
54.670879,-4.834667206,20.291004181,3.751789093,-0.003640011,0.027712036,1.049281597
54.709194,-1.142040253,30.453357697,1.630817413,0.019553348,-0.006711792,1.062465191
54.723486,2.649768829,31.834278107,-3.404582977,0.005515262,0.003908325,1.059657574
54.738855,4.953845978,29.751453400,-3.808940887,-0.026345089,-0.008909058,1.049403667
54.777184,3.008350372,14.828357697,4.629169464,-0.012673214,-0.026731323,1.015834332
54.815486,3.290637970,-2.925243378,0.593219757,-0.059914425,0.025148559,1.006312847
54.829775,4.488452911,-8.387889862,2.096210480,-0.074074581,0.032228637,1.010585308
54.845136,7.875904083,-18.451061249,5.712543488,-0.091652706,0.024538208,0.999476910
54.883476,4.007801056,-26.583995819,6.856952667,-0.062355831,-0.036252808,0.974818707
54.921785,5.396350861,-25.256481171,7.177387238,-0.086037472,0.017458130,1.043178082
54.936096,9.302600861,-24.241771698,9.458576202,-0.093361691,-0.006223511,1.045131207
54.951447,11.667713165,-18.405284882,12.846027374,-0.059792355,-0.105466679,0.982875347
54.989772,-1.042858124,10.204944611,4.842792511,-0.011330441,-0.087034062,0.949794292
55.028066,-2.645030975,18.696460724,2.393756866,-0.055519894,0.008791137,0.960780621
55.042367,-0.669017792,19.863758087,6.773029327,-0.039650753,0.010744262,0.916347027
55.057726,-2.149120331,20.641956329,6.582294464,-0.022194698,-0.004026245,0.891322613
55.096073,-22.183910370,21.595630646,0.494037628,-0.041237667,0.074831173,0.933436871
55.134373,-8.748546600,11.257801056,1.134906769,-0.018410519,0.199709103,1.037318707
55.148672,-2.194896698,8.244190216,-0.444377899,-0.013161495,0.151735470,1.026332378
55.164042,0.177845001,1.461658478,-2.344097137,-0.031227902,0.021242309,1.008510113
55.202353,-5.887523651,-12.561168671,-3.572429657,-0.055275753,0.002321411,1.037196636
55.240654,-1.348033905,-23.921337128,1.684223175,-0.055519894,-0.026731323,1.022304058
55.254958,-1.904979706,-24.081554413,1.066242218,-0.036110714,-0.030393433,1.032435894
55.270318,-3.926769257,-20.930614471,-2.473796844,-0.024269894,-0.033323120,1.054774761
55.324858,-1.019969940,-10.295238495,-3.038372040,-0.043679073,-0.038816284,1.065394878
55.363253,2.321704865,3.857288361,-7.913555145,-0.027687863,-0.020383667,1.053798199
55.377539,0.673755646,5.627307892,-9.187664032,-0.039284542,0.003053833,1.062221050
55.392876,1.924976349,5.016956329,-9.355510712,-0.045876339,0.029421020,1.067348003
55.431198,6.319507599,-0.972118378,-6.074871063,-0.043801144,-0.005735230,1.042323589
55.469473,6.678089142,-2.940502167,-7.455791473,-0.038796261,0.053346802,1.080287457
55.483756,9.623035431,-3.466930389,-7.951702118,-0.046242550,0.042848755,1.078456402
55.499102,10.858997345,-2.009716034,-6.357158661,-0.048317745,-0.029416870,1.075892925
55.537447,12.758716583,7.443103790,-10.057415009,-0.010598019,-0.092893437,1.033046246
55.575733,0.864490509,8.938465118,-8.439983368,-0.046974972,-0.051999878,0.984828472
55.590031,-0.691905975,9.396228790,-7.890666962,-0.015480831,0.040285278,1.010219097
55.605387,0.833972931,9.243640900,-10.324443817,-0.015724972,0.067018673,1.010219097
55.643700,1.101001740,-0.750865936,-10.179485321,-0.100441769,0.036867309,0.976771832
55.682015,3.015979767,-10.165538788,-4.472698212,-0.091408566,0.022340942,0.947719097
55.696308,-0.905529022,-10.653820038,-3.900493622,-0.084206417,0.005006958,0.928431988
55.711651,-3.407970428,-10.737743378,-4.358257294,-0.093361691,0.013673950,0.919398785
55.749964,-11.113658905,-11.432018280,2.050434113,-0.106179073,0.075563595,0.956264019
55.788258,-4.239574432,-1.239147186,1.699481964,-0.050515011,0.128420040,0.994838238
55.802544,-2.667919159,2.278003693,0.440631866,-0.059182003,0.099123165,0.994594097
55.829444,-2.004161835,7.954273224,1.440082550,-0.057473019,0.049318481,0.999476910
55.867843,-0.180736542,9.319934845,2.035175323,-0.045876339,0.004030395,1.026576519
55.906145,2.161487579,4.192981720,2.355609894,-0.065041378,-0.018430542,1.049037457
55.920446,3.885730743,1.171741486,2.759967804,-0.078347042,-0.013547730,1.046107769
55.935815,6.655200958,-5.702342987,6.322895050,-0.086769894,-0.035276245,1.029506207
55.974140,5.785449982,-5.679454803,6.254230499,-0.057717159,-0.030393433,1.060267925
56.012440,11.057361603,-3.138866425,6.917987823,-0.070046261,-0.035642456,1.018397808
56.026732,7.509693146,-1.948680878,8.718524933,-0.074196652,-0.035398316,1.003383160
56.042103,6.357654572,-0.239696503,9.237323761,-0.069435909,-0.014402222,1.012050152
56.080430,10.904773712,7.244739532,10.648761749,-0.035988644,-0.026120972,1.034511089
56.118723,3.931507111,13.592395782,7.612262726,-0.044899777,-0.148801640,0.894374371
56.133024,-4.247203827,15.118274689,8.787189484,-0.038674191,-0.130491093,0.901820660
56.148397,-13.730541229,16.430530548,6.917987823,-0.018776730,-0.002195191,0.998256207
56.198521,4.923328400,8.076343536,10.854755402,-0.032570675,0.061769653,1.017421246
56.236905,-6.909862518,7.259998322,4.903827667,-0.009865597,-0.018552613,0.979213238
56.251206,-9.587779999,6.519947052,4.957233429,-0.021706417,0.018434692,0.997889996
56.266538,-9.137645721,3.498706818,5.476032257,-0.019509152,0.093630001,1.035243511
56.304873,2.947315216,-2.833690643,-0.383342743,-0.036965206,0.093507931,1.040614605
56.343160,-1.363292694,-12.980785370,3.133808136,-0.071144894,0.061281372,1.051478863
56.357461,0.421985626,-15.277233124,4.026447296,-0.069435909,0.073732540,1.062709332
56.372826,4.129871368,-18.275585175,4.743610382,-0.069924191,0.050172973,1.060512066
56.411147,4.648670197,-15.879955292,4.667316437,-0.045265988,0.017946411,1.059047222
56.449450,8.493885040,-4.428234100,2.515827179,-0.050637081,0.033815552,1.074061871
56.463736,12.423023224,2.766284943,2.180133820,-0.040627316,-0.015500855,1.050868511
56.479080,11.614307404,6.146106720,1.966510773,-0.033669308,-0.025998902,1.038051128
56.517405,12.415393829,14.622364044,-2.710308075,-0.030495480,0.016237427,0.997645855
56.555690,11.064990997,8.572254181,-1.306499481,-0.071022823,0.017946411,0.960170269
56.570006,11.164173126,5.146656036,0.989948273,-0.072731808,0.023927856,0.965175152
56.585331,12.682422638,-0.621166229,2.355609894,-0.045510128,0.035158325,0.951625347
56.623660,6.006702423,-4.557933807,1.592670441,-0.045265988,0.035646606,0.941859722
56.661940,16.382678986,-4.824962616,1.577411652,-0.016823605,-0.034665894,0.931239605
56.676229,13.956531525,-3.627147675,0.349079132,-0.020363644,-0.059202027,0.866542339
56.691582,-3.415599823,-1.033153534,-0.528301239,-0.045143917,-0.078000858,0.835170269
56.729888,-3.491893768,0.584278107,-0.131572723,-0.038430050,0.113283321,0.943324566
56.768182,-4.819408417,-0.827159882,-0.917400360,-0.048195675,-0.015378784,0.868251324
56.782466,-16.309276581,-2.925243378,-0.230754852,-0.059059933,0.047609497,0.902186871
56.797813,-15.866771698,-5.236949921,0.021015167,-0.071877316,0.097536251,0.925746441
56.836135,-11.525646210,-10.302867889,6.383930206,-0.080910519,0.070436642,0.941859722
56.874448,-7.840648651,-6.533946991,6.017719269,-0.063942745,0.091554806,1.002406597
56.888735,-5.208507538,-4.382457733,6.666217804,-0.057717159,0.051271606,1.005946636
56.904070,-5.528942108,1.209888458,7.703815460,-0.027321652,-0.026243042,1.023524761
56.942393,-3.362194061,13.310108185,2.264057159,-0.000222042,0.016969848,1.027797222
56.980677,-6.383434296,17.452869415,1.447711945,-0.011696652,0.025514770,1.038051128
56.994975,-4.781261444,16.735706329,1.379047394,-0.012917355,0.047121216,1.057094097
57.010324,3.313526154,13.119373322,-0.558818817,-0.013039425,0.057863403,1.058803082
57.048661,4.450305939,-3.863658905,4.133258820,-0.065407589,-0.053464722,1.000697613
57.086942,0.223621368,-10.402050018,2.637897491,-0.038307980,-0.001951050,1.013514996
57.114421,5.182727814,-16.948070526,5.857501984,-0.086647823,0.034303833,1.009486675
57.142131,2.741321564,-17.581310272,10.793720245,-0.051247433,-0.039182495,0.989223003
57.180471,-1.706615448,-2.200450897,7.146869659,-0.036476925,0.011354614,1.104213238
57.218766,11.888965607,13.188037872,11.251483917,0.018576786,-0.168454960,1.029506207
57.233066,6.273731232,19.116077423,9.222064972,0.024802372,-0.157956913,0.980678082
57.248436,-2.873912811,28.950366974,1.806293488,0.033591434,-0.053098511,0.984828472
57.286744,-6.520763397,30.071887970,6.086383820,-0.010475948,0.076051876,1.053920269
57.325065,4.442676544,26.882801056,1.783405304,0.041403934,0.040651489,1.019984722
57.339359,0.009998322,23.281726837,-2.634014130,0.008689091,-0.023069214,0.971522808
57.354719,-6.375804901,19.558582306,-2.077068329,-0.009499386,-0.027952027,0.962733746
57.393055,-12.616649628,-1.780834198,0.387226105,-0.021462277,0.178835079,1.023280621
57.431356,1.886829376,-18.092479706,-4.777873993,-0.051491573,0.099367306,0.976893902
57.445649,-4.292980194,-28.750743866,-2.145732880,-0.092629269,0.053468872,0.975429058
57.461030,-6.925121307,-34.060802460,0.562702179,-0.096779659,0.080446407,0.981410503
57.499341,-1.653209686,-43.422069550,3.217731476,-0.059426144,0.054323364,1.040248394
57.537665,1.085742950,-31.672801971,-1.108135223,-0.050148800,0.037599731,1.066615582
57.551966,3.992542267,-27.118053436,-1.565898895,-0.056618527,0.032838989,1.062098980
57.567325,7.044300079,-16.864147186,-0.017131805,-0.047829464,-0.038938355,1.057338238
57.605654,7.662281036,12.035999298,-2.840007782,-0.013771847,-0.013181519,1.062709332
57.643960,7.616504669,26.211414337,-4.411663055,-0.010109738,-0.013059448,1.027308941
57.658247,6.861194611,33.009204865,-5.350078583,0.000998661,-0.013425659,1.023646832
57.673621,5.907520294,35.214099884,-6.532634735,0.001975223,-0.008664917,1.027064800
57.711926,6.563648224,33.939990997,-9.302104950,-0.030373409,0.078005001,1.039638042
57.750251,17.618640900,14.790210724,-5.838359833,-0.031960323,-0.053586792,1.017787457
57.764549,11.957630157,4.231128693,-3.663982391,-0.037819698,-0.107175663,0.955287457
57.779922,8.013233185,-0.804271698,-2.656902313,-0.028908566,-0.076658085,0.930995464
57.818245,-4.125133514,-15.300121307,-0.184978485,-0.028420284,0.092897579,0.933803082
57.856549,0.261768341,-15.055980682,-5.372966766,-0.010231808,0.086061642,0.874354839
57.870855,-2.706066132,-14.605846405,-8.661235809,-0.023171261,0.061891723,0.870082378
57.886219,-10.739818573,-18.603649139,-7.959331512,-0.102394894,0.056154419,0.880946636
57.924537,-13.028636932,-30.070629120,1.440082550,-0.086281613,0.093385860,0.938685894
57.962869,-9.953990936,-26.896800995,3.080402374,-0.061745480,0.119508907,0.999843121
57.977160,-6.398693085,-23.516979218,3.530536652,-0.058205441,0.122804806,1.009974957
57.992541,2.245410919,-15.323009491,4.285846710,-0.047707394,0.079225704,0.986049175
58.044376,-9.488597870,15.431079865,1.928363800,0.007102177,-0.002927613,0.968837261
58.082771,-3.224864960,27.432117462,-0.146831512,-0.019509152,0.045412231,1.015346050
58.097074,-0.279918671,28.172168732,0.005756378,-0.014504269,0.040285278,1.015590191
58.112427,4.366382599,27.325305939,-0.177349091,-0.011818722,-0.013791870,0.993983746
58.150735,-2.912059784,22.396717072,-0.932659149,-0.025124386,-0.024900269,0.993861675
58.189070,3.717884064,6.024036407,2.050434113,-0.037331417,0.035036255,0.988490582
58.203353,1.787647247,-0.628795624,1.188312531,-0.029152706,0.017702270,0.965541363
58.218683,-1.653209686,-3.169384003,0.448261261,-0.042458370,0.025758911,0.972133160
58.257006,1.833423615,-14.804210663,0.608478546,-0.069802120,0.123537228,1.051478863
58.295312,9.623035431,-27.049388885,12.975727081,-0.069435909,-0.119016483,1.028407574
58.309618,4.724964142,-24.859752655,12.792621613,-0.047585323,-0.121335819,1.011806011
58.324989,1.741870880,-17.657604218,8.100543976,-0.026345089,-0.065671757,0.986659527
58.363289,-14.035717010,0.073108673,9.244953156,-0.044777706,0.068849728,1.015712261
58.401618,1.169666290,12.310657501,6.010089874,-0.011696652,0.111818478,1.050746441
58.415923,4.038318634,14.988574982,6.071125031,-0.011208370,0.058473755,1.019740582
58.445060,-3.316417694,23.846302032,4.255329132,0.011862919,-0.032224488,0.923793316
58.483451,-23.374095917,28.637561798,2.660785675,0.009055302,0.113771603,0.997157574
58.521766,-5.864635468,22.671375275,-4.526103973,0.003806278,0.206422970,1.050746441
58.536077,-0.478282928,17.727527618,-5.441631317,-0.016579464,0.158205196,1.039271832
58.551444,0.856861115,4.292163849,-3.152812958,-0.052590206,0.060060669,1.016200542
58.589741,-0.630870819,-15.551891327,0.478778839,-0.025368527,0.052736450,1.008388042
58.628065,-2.744213104,-20.526256561,-4.182781219,-0.042458370,0.017824341,1.020228863
58.642368,-2.736583710,-24.371471405,-2.634014130,-0.064308956,0.029298950,1.031703472
58.657731,-2.034679413,-25.691356659,-1.146282196,-0.063088253,0.025270630,1.045375347
58.696067,4.908069611,-19.503917694,-3.313030243,-0.020241573,-0.001828980,1.074183941
58.734388,2.123340607,-7.098522186,-7.638896942,-0.056496456,-0.005613159,1.050136089
58.748684,3.771289825,-3.108348846,-5.014385223,-0.056374386,0.025514770,1.063685894
58.764050,5.472644806,-0.811901093,-4.701580048,-0.045876339,0.032350708,1.061854839
58.802360,6.708606720,6.954822540,-8.340801239,-0.036476925,0.025758911,1.043422222
58.840663,10.874256134,0.660572052,-4.800762177,-0.073098019,0.018190552,1.050136089
58.854970,13.300403595,-1.178112030,-1.184429169,-0.057717159,-0.002317261,1.040004253
58.870332,14.818653107,1.392993927,-2.366985321,0.005393192,-0.059079956,0.998256207
58.908653,-1.523509979,13.043079376,-9.187664032,-0.045632198,-0.001218628,0.934779644
58.946958,-2.553478241,13.302478790,-6.639446259,-0.003640011,0.089845821,0.958583355
58.976397,-1.340404510,12.661609650,-9.607280731,-0.026833370,0.067262813,0.938807964
58.990718,-4.575267792,9.014759064,-6.990398407,-0.043068722,0.029787231,0.927699566
59.028885,-11.357799530,-3.001537323,-4.510845184,-0.059914425,-0.000852417,0.934901714
59.067189,-14.516368866,-8.570995331,-0.162090302,-0.042214230,0.089479610,0.991176128
59.081483,-12.471691132,-9.005870819,-0.444377899,-0.049782589,0.099367306,0.993739605
59.096839,-9.252086639,-8.624401093,1.729999542,-0.056496456,0.095094845,1.000209332
59.135155,-4.796520233,-1.979198456,4.011188507,-0.004250363,0.092043087,1.029506207
59.173459,-1.981273651,8.145008087,-2.229656219,-0.010353878,0.002687622,0.992518902
59.187753,-4.262462616,7.931385040,-2.130474091,-0.025734738,-0.000364136,0.999598980
59.203107,-5.017772675,6.771717072,-1.237834930,-0.027199581,0.006960083,1.004848003
59.241439,-2.965465546,-0.872936249,-1.314128876,-0.025734738,0.037477661,1.056972027
59.279726,-0.104442596,-10.516490936,0.387226105,-0.075173214,-0.035032105,1.026698589
59.294017,-0.997081757,-12.019481659,3.095661163,-0.066140011,-0.029783081,1.047572613
59.309383,1.543506622,-12.538280487,3.568683624,-0.041481808,-0.003293823,1.064906597
59.347689,4.374011993,-5.366649628,3.355060577,-0.043801144,-0.019285034,1.038173199
59.386009,8.768543243,7.839832306,1.394306183,-0.025246456,0.020998169,1.050136089
59.400293,10.538562775,10.212574005,1.226459503,-0.020851925,-0.015378784,1.038173199
59.415639,5.907520294,12.638721466,-0.276531219,-0.023537472,-0.091062382,1.028651714
59.453939,5.304798126,10.464344025,2.111469269,-0.014504269,-0.050290894,1.037074566
59.492239,-3.552928925,9.014759064,-0.795330048,-0.024269894,-0.023801636,1.006190777
59.506509,-6.703868866,5.016956329,-1.207317352,-0.050515011,0.052736450,1.058558941
59.521872,-4.003063202,1.835498810,0.242267609,-0.052346066,0.080690548,1.097621441
59.560177,15.627368927,-0.804271698,1.218830109,-0.025002316,-0.033445191,0.988246441
59.598463,-13.814464569,10.464344025,-2.244915009,-0.004250363,0.053102661,0.975795269
59.612761,-13.806835175,11.143360138,-3.564800262,-0.011452511,0.119753048,0.997889996
59.628136,-8.344188690,12.074146271,-4.800762177,-0.024758175,0.188600704,1.045863628
59.666458,6.128772736,6.474170685,-7.265056610,-0.040749386,0.106569454,1.025477886
59.704747,-1.233592987,-4.519786835,-4.381145477,-0.087624386,0.043214966,1.020228863
59.734400,3.435596466,-10.295238495,-1.596416473,-0.073708370,0.074953243,1.036220074
59.748717,4.633411407,-10.791149139,-1.733745575,-0.068337277,0.057253052,1.031215191
59.786904,3.962024689,-12.484874725,-0.108684540,-0.092507198,0.051271606,1.015346050
59.825236,5.457386017,-7.090892792,0.883136749,-0.070900753,0.021852661,1.030116558
59.839515,6.121143341,-4.344310760,0.265155792,-0.065773800,0.015993286,1.023524761
59.854882,6.235584259,0.958118439,-1.756633759,-0.065895870,-0.003660034,1.025233746
59.893198,7.097705841,3.559741974,0.494037628,-0.045510128,-0.018918823,1.011317730
59.931488,6.968006134,3.323230743,-0.764812469,-0.054421261,0.011842895,1.005092144
59.962233,9.562000275,1.789722443,1.333271027,-0.028298214,0.020754028,0.997767925
59.976546,10.546192169,2.308521271,0.188861847,-0.018044308,0.023805786,0.990077496
60.014723,9.088977814,4.620227814,-4.442180634,-0.032448605,-0.008664917,0.944545269
60.053057,12.209400177,-0.171031952,-1.832927704,-0.026833370,-0.020017456,0.948329449
60.067355,12.171253204,-1.132335663,-3.038372040,-0.031105831,-0.035520386,0.919276714
60.082705,4.755481720,-2.208080292,-2.061809540,-0.038552120,-0.046140503,0.879115582
60.121038,-4.399791718,0.553760529,-5.540813446,-0.037941769,0.115602657,0.935267925
60.159332,1.764759064,-4.222240448,-2.679790497,-0.066750363,0.094728634,0.935756207
60.173622,1.619800568,-5.046215057,-1.199687958,-0.067116573,0.031252075,0.930873394
60.188992,0.673755646,-4.855480194,-0.284160614,-0.061013058,0.005983520,0.933314800
60.227278,-7.520214081,-1.361217499,-1.077617645,-0.046974972,0.002443481,0.904872417
60.265554,-16.110912323,-4.992809296,3.850971222,-0.085427120,0.113893673,0.918422222
60.279858,-14.318004608,-4.565563202,7.711444855,-0.059304073,0.157106563,0.965541363
60.295223,-11.037364960,-2.887096405,8.001361847,-0.038552120,0.166505978,0.970546246
60.333529,-8.580699921,2.827320099,5.849872589,-0.010353878,0.078127071,0.985927105
60.371847,-3.392711639,10.677967072,4.102741241,0.026389286,0.066286251,0.995082378
60.386140,-3.613964081,12.875232697,3.088031769,0.028952762,0.049562622,0.993251324
60.401499,-5.635753632,16.766223907,0.776325226,0.032736942,0.040407348,1.001063824
60.439841,-6.406322479,15.293750763,-1.611675262,0.017844364,0.023805786,1.031459332
60.478136,-5.910411835,-1.056041718,-0.436748505,-0.036721066,0.011232544,1.076259136
60.492438,-3.728404999,-5.343761444,0.982318878,-0.030495480,0.014040161,1.088466167
60.507795,-1.630321503,-8.708324432,1.310382843,-0.024758175,0.003420044,1.088588238
60.546115,0.673755646,-17.695751190,3.385578156,-0.047341183,-0.033201050,1.076381207
60.584438,2.497180939,-12.820568085,-0.299419403,-0.010353878,0.012819458,1.092738628
60.598734,6.884082794,-8.784618378,-1.001323700,-0.038552120,0.014528442,1.084315777
60.614081,7.883533478,-7.129039764,-0.207866669,-0.040505245,0.000002075,1.077235699
60.652392,11.904224396,0.111255646,1.203571320,-0.039894894,-0.011472534,1.047572613
60.690668,7.845386505,6.642017365,1.394306183,-0.025490597,-0.041990113,0.985072613
60.704960,7.585987091,7.107410431,0.448261261,-0.031716183,-0.025510620,0.948817730
60.720292,-1.088634491,7.382068634,0.585590363,-0.044533566,-0.019407105,0.905604839
60.758618,-5.551830292,4.719409943,3.171955109,-0.030007198,0.133424923,1.033290386
60.796897,7.219776154,1.362476349,1.333271027,-0.036354855,0.018190552,0.956752300
60.811201,3.389820099,0.729236603,1.615558624,-0.035622433,-0.014646363,0.947719097
60.826544,-4.895702362,-0.163402557,2.508197784,-0.035134152,0.007448364,0.961879253
60.864867,-4.949108124,1.164112091,-0.635112762,-0.009011105,0.042238403,0.977748394
60.903152,-10.854259491,0.988636017,-3.007854462,-0.049782589,0.093874142,1.011561871
60.917445,-6.223217010,-0.880565643,-2.000774384,-0.058693722,0.116701290,1.046473980
60.948343,-0.485912323,-3.909435272,-2.618755341,-0.065285519,0.059450317,1.031581402
60.986724,1.741870880,-5.366649628,0.257526398,-0.051735714,0.057130981,1.018031597
61.025055,-2.057567596,1.225147247,-3.068889618,-0.051003292,0.045046020,0.996547222
61.039351,-2.507701874,2.667102814,-3.168071747,-0.053322628,0.058962036,1.006801128
61.070644,-0.272289276,4.765186310,-3.900493622,-0.058205441,0.060915161,1.038661480
61.109033,4.312976837,-1.063671112,-3.244365692,-0.058205441,0.027956177,1.032557964
61.147333,1.551136017,-2.040233612,-2.656902313,-0.067726925,-0.025388550,1.007167339
61.161631,-0.249401093,-2.093639374,-2.321208954,-0.068459347,-0.009641480,1.018886089
61.177002,0.902637482,-1.315441132,-2.374614716,-0.052712277,0.031252075,1.044520855
61.215281,6.548389435,-0.247325897,-2.717937469,-0.060768917,-0.008664917,1.027919292
61.253588,6.586536407,0.851306915,-1.985515594,-0.040383175,0.009767700,1.015834332
61.267881,6.403430939,1.026782990,-2.473796844,-0.034279659,0.003297973,1.014613628
61.283227,5.129322052,1.003894806,-3.274883270,-0.028908566,0.006471802,1.016566753
61.321514,10.698780060,0.919971466,-1.131023407,-0.018410519,-0.000974488,1.025111675
61.359840,1.253589630,6.901416779,-5.311931610,-0.002663448,-0.005613159,0.947597027
61.374131,-4.056468964,8.228931427,-5.968059540,-0.016945675,0.068849728,0.988246441
61.389487,-3.400341034,7.664356232,-6.067241669,-0.017678097,0.110841915,1.006556988
61.427813,5.373462677,1.057300568,-4.350627899,-0.020607784,0.086061642,0.991054058
61.466120,-1.348033905,-4.184093475,-4.899944305,-0.048683956,0.081422970,0.978847027
61.480424,-1.348033905,-4.695262909,-3.702129364,-0.050026730,0.084474728,0.994472027
61.495787,0.193103790,-6.022777557,-2.595867157,-0.047951534,0.081056759,0.996058941
61.534090,-3.980175018,-4.100170135,-1.451457977,-0.043190792,0.070436642,0.978236675
61.572401,-0.386730194,1.354846954,-1.245464325,-0.033425167,0.147218868,1.024013042
61.586692,2.817615509,1.866016388,-0.795330048,-0.032326534,0.125612423,1.012660503
61.602042,2.665027618,2.766284943,-0.345195770,-0.018410519,0.064577267,0.982997417
61.640342,-2.751842499,4.070911407,-2.260173798,-0.022805050,0.088136837,1.008754253
61.678653,2.985462189,0.088367462,1.211200714,-0.027809933,0.075319454,0.992763042
61.692944,0.490650177,-0.476207733,1.371417999,-0.003273800,0.063722774,1.009242535
61.708292,0.826343536,0.218067169,0.242267609,0.009787723,0.076540157,1.020839214
61.746605,5.358203888,0.500354767,-1.893962860,-0.014260128,0.058595825,1.015590191
61.784879,4.885181427,-1.429882050,-0.665630341,0.003562137,0.033693481,0.993007183
61.799163,4.419788361,-1.307811737,-1.298870087,0.004172489,0.038698364,0.995692730
61.814498,4.869922638,-1.368846893,-2.191509247,0.004172489,0.049928833,0.988124371
61.852820,3.519519806,-4.695262909,-1.489604950,-0.013161495,0.049196411,0.982020855
61.891107,2.146228790,-2.063121796,-2.191509247,0.003440067,0.044679809,0.998256207
61.905407,2.779468536,-1.193370819,-3.343547821,0.003317997,0.056154419,1.003871441
61.920757,5.465015411,-2.391185760,-4.259075165,-0.012429073,0.040041137,1.000941753
61.988635,3.504261017,-1.208629608,-4.121746063,-0.006325558,0.004274536,1.024745464
62.027046,8.882984161,-3.337230682,-3.938640594,-0.056252316,-0.003415894,0.994227886
62.041332,7.517322540,-5.397167206,-0.688518524,-0.040261105,-0.023557495,0.987269878
62.056648,6.769641876,-5.381908417,-1.420940399,-0.031716183,-0.018430542,0.989711285
62.094934,6.464466095,-5.275096893,-3.335918427,-0.067238644,0.012087036,0.960414410
62.133234,6.090625763,-9.417858124,1.195941925,-0.076393917,0.012087036,0.993007183
62.147510,8.547290802,-9.593334198,2.271686554,-0.068093136,-0.000486206,0.993373394
62.162846,11.408313751,-7.792797089,2.866779327,-0.054421261,-0.024289917,0.943202496
62.201143,-4.750743866,-0.697460175,3.835712433,-0.058205441,-0.032224488,0.926723003
62.239442,-0.043407440,3.101978302,5.552326202,-0.017189816,0.070070431,0.936976910
62.253718,0.490650177,5.100879669,4.270587921,-0.012795284,0.060915161,0.912074566
62.269047,-6.284252167,8.099231720,2.340351105,-0.019631222,0.030275512,0.885585308
62.307342,-15.180126190,6.870899200,4.896198273,-0.042580441,0.151979610,0.963099957
62.345650,-1.004711151,5.360279083,2.607379913,-0.010842159,0.162233517,0.982142925
62.359933,-1.569286346,4.284534454,2.904926300,-0.030129269,0.114137813,0.970668316
62.386909,-4.544750214,2.834949493,3.622089386,-0.019753292,0.104372188,0.972743511
62.425254,-3.232494354,2.209339142,0.135456085,-0.016701534,0.091432735,1.010829449
62.463548,-7.283702850,3.163013458,0.272785187,-0.004128292,0.076906368,1.010463238
62.477848,-6.986156464,2.972278595,-3.572429657,-0.006081417,0.112184688,1.025844097
62.493211,-6.024852753,1.751575470,-4.869426727,-0.019509152,0.120729610,1.027797222
62.531491,-5.208507538,-5.687084198,0.555072784,-0.057961300,0.122682735,1.022304058
62.569798,-4.292980194,-5.877819061,-1.695598602,-0.063942745,0.093019649,1.010585308
62.584094,-4.689708710,-6.137218475,-0.093425751,-0.068459347,0.087526485,1.016932964
62.599439,-4.354015350,-5.244579315,1.516376495,-0.053078488,0.092287228,1.034144878
62.637728,-2.713695526,1.385364532,0.013385773,-0.046486691,0.052004028,1.037440777
62.676049,1.398548126,7.412586212,-0.368083954,-0.034523800,0.043092895,1.049891949
62.690336,1.490100861,7.481250763,-0.375713348,-0.033181027,0.024538208,1.045985699
62.705677,-0.302806854,7.633838654,-0.627483368,-0.021950558,0.022585083,1.055140972
62.743966,3.664478302,6.542835236,-2.725566864,-0.016335323,0.048097778,1.061976910
62.782255,3.870471954,1.141223907,-1.947368622,-0.029030636,0.010378052,1.007167339
62.796535,0.315174103,-1.597728729,-2.588237762,-0.022438839,0.033449341,1.019740582
62.811887,0.521167755,-2.948131561,-2.649272919,-0.030861691,0.050417114,1.028651714
62.850188,2.634510040,-2.169933319,-2.550090790,-0.034157589,0.034547973,1.022304058
62.888465,2.878650665,3.010425568,-4.083599091,-0.018288448,0.055788208,1.030604839
62.902751,2.733692169,3.246936798,-4.495586395,-0.018776730,0.050050903,1.033900738
62.918100,2.443775177,2.140674591,-4.220928192,-0.019265011,0.057375122,1.047816753
62.956406,9.500965118,-0.819530487,-3.137554169,-0.006203488,0.007692505,1.052089214
63.006509,1.207813263,6.092700958,-6.647075653,0.023703739,0.043459106,1.007655621
63.020830,1.741870880,7.488880157,-9.141887665,0.015525028,0.076418087,1.012538433
63.036175,5.579456329,6.619129181,-9.630168915,-0.034523800,0.079469845,0.995204449
63.074457,5.518421173,0.958118439,-4.320110321,0.002829716,0.080202267,0.988124371
63.112728,1.497730255,4.917774200,-9.416545868,-0.034890011,0.093141720,0.922938824
63.127017,-3.415599823,4.192981720,-6.959880829,-0.059426144,0.155275509,0.955775738
63.142356,-1.645580292,2.583179474,-6.219829559,-0.060646847,0.186647579,0.970180035
63.180664,6.388172150,-1.681652069,-3.671611786,-0.066384152,0.049074341,0.940272808
63.218947,-3.179088593,-0.529613495,-2.778972626,-0.048195675,0.082521603,0.973353863
63.233230,-0.157848358,0.248584747,-1.924480438,-0.060036495,0.104860470,0.975917339
63.248576,0.223621368,0.118885040,-0.116313934,-0.063210323,0.099855587,0.967250347
63.286854,-1.302257538,0.813159943,1.493488312,-0.024147823,0.144655392,0.976283550
63.325126,-1.142040253,0.965747833,3.355060577,-0.015236691,0.119753048,0.943324566
63.339417,-3.034130096,1.240406036,2.843891144,-0.008522823,0.123048946,0.953944683
63.354759,-3.407970428,1.667652130,1.409564972,-0.010964230,0.155031368,0.977626324
63.393056,1.986011505,-1.574840546,2.775226593,-0.017433956,0.106447384,0.967616558
63.431343,-3.095165253,-2.749767303,3.034626007,-0.009743527,0.085329220,0.993739605
63.445633,-1.248851776,-2.673473358,2.576862335,-0.010353878,0.094606563,0.997035503
63.460977,-0.081554413,-2.581920624,2.622638702,-0.012062863,0.051027466,0.980678082
63.499271,-3.621593475,-3.161754608,2.424274445,-0.021218136,0.083254024,1.016688824
63.537548,3.443225861,1.866016388,2.706562042,0.002829716,0.046022583,1.013148785
63.551842,1.383289337,4.185352325,0.822101593,-0.005348995,0.025026489,1.010219097
63.567161,0.795825958,3.315601349,1.195941925,-0.016091183,0.032106567,1.019374371
63.605453,8.699878693,-1.635875702,3.019367218,-0.009255245,-0.001462769,0.992518902
63.643723,0.002368927,-1.643505096,4.079853058,-0.022927120,0.056032348,0.992763042
63.658012,2.413257599,-1.048412323,3.644977570,-0.022560909,0.072878048,1.010341167
63.685380,9.363636017,-0.613536835,3.995929718,-0.038918331,0.023073364,0.961390972
63.723731,-0.958934784,1.194629669,4.400287628,-0.024147823,0.003664184,0.924769878
63.762057,-2.927318573,-4.359569550,6.582294464,-0.035622433,0.078981563,0.943080425
63.776362,-1.653209686,-6.182994843,7.635150909,-0.031594113,0.095094845,0.945277691
63.791711,2.222522736,-8.624401093,8.535419464,-0.024758175,0.099489376,0.922694683
63.830040,-8.878246307,-3.077831268,9.214435577,0.008322880,0.058351684,0.895839214
63.868329,-7.558361053,4.688892365,4.407917023,0.001120731,0.157350704,0.925014019
63.882627,-5.788341522,6.588611603,4.407917023,-0.011696652,0.124513790,0.909144878
63.898003,-8.176342010,6.344470978,4.690204620,-0.008034542,0.109132931,0.914393902
63.936285,-6.940380096,4.978809357,0.875507355,0.005149052,0.145754024,0.966395855
63.974580,-10.068431854,-3.215160370,2.843891144,-0.027809933,-0.003293823,0.938807964
63.988884,-16.149059296,-5.137767792,2.454792023,-0.026223019,0.010500122,0.980922222
64.004251,-16.889110565,-4.763927460,2.752338409,-0.029274777,0.031862427,0.999965191
64.055845,-12.990489960,0.385913849,1.028095245,-0.020485714,0.119508907,1.059779644
64.094247,-6.993785858,5.917224884,-3.198589325,-0.014382198,0.054201294,1.042323589
64.108527,-8.985057831,3.780994415,-1.893962860,-0.029518917,0.046755005,1.031215191
64.123839,-9.580150604,2.117786407,-1.749004364,-0.021584347,0.056764770,1.034511089
64.162146,-9.526744843,-1.139965057,-1.993144989,-0.037209347,0.001222778,1.067714214
64.200453,-4.384532928,-0.727977753,-3.824199677,-0.033547238,0.021486450,1.091151714
64.214735,-2.858654022,-0.735607147,-3.679241180,-0.042092159,0.010500122,1.084437847
64.230063,-2.034679413,-0.842418671,-3.030742645,-0.041725948,-0.020627808,1.075282574
64.268357,-1.935497284,1.049671173,-4.625286102,-0.027321652,0.000368286,1.115931988
64.306644,5.770191193,0.736865997,-3.007854462,-0.049050167,-0.038083863,1.052821636
64.320930,3.977283478,1.705799103,-2.435649872,-0.038185909,-0.063352421,1.053431988
64.336255,-0.455394745,3.979358673,-5.067790985,-0.017311886,-0.036863159,1.066493511
64.374547,6.357654572,-2.383556366,-5.678142548,-0.060524777,0.008791137,1.053920269
64.412846,6.510242462,-7.777538300,-0.215496063,-0.043923214,-0.025144409,1.030604839
64.427127,5.716785431,-5.465831757,-2.855266571,-0.031349972,-0.032102417,1.004725933
64.442449,4.145130157,-4.832592010,-3.480876923,-0.044167355,-0.016599488,1.000941753
64.480739,3.946765900,-1.605358124,-2.336467743,-0.053200558,0.014406372,0.996303082
64.519058,2.512439728,2.300891876,-3.663982391,-0.039528683,-0.002073120,0.994838238
64.533335,2.275928497,0.759754181,-3.053630829,-0.045632198,0.013551880,0.985072613
64.548650,0.200733185,-1.239147186,-1.321758270,-0.053932980,0.041994262,0.988490582
64.586945,1.429065704,1.637134552,-0.627483368,-0.041481808,0.050783325,1.013637066
64.625249,7.555469513,1.064929962,1.791034698,-0.057839230,0.072023556,1.037074566
64.639524,9.890064240,0.713977814,3.828083038,-0.048928097,0.055299927,1.031825542
64.654847,9.935840607,3.048572540,4.896198273,-0.018166378,0.011110473,0.997645855
64.693138,3.260120392,10.494861603,1.867328644,0.019187137,0.056886841,1.025477886
64.731443,7.257923126,12.577686310,3.133808136,-0.027565792,0.088869259,0.996791363
64.745730,3.214344025,12.638721466,4.674945831,0.014426395,0.063966915,1.010829449
64.761068,1.909717560,14.004383087,3.507648468,0.031882450,0.084352657,1.024745464
64.799375,9.386524200,13.500843048,-1.855815887,-0.020241573,0.075929806,0.976649761
64.837663,1.917346954,2.140674591,7.116352081,-0.002785519,0.104982540,1.001185894
64.851948,3.580554962,2.209339142,5.445514679,0.035422489,0.121584103,1.016322613
64.867267,8.806690216,5.016956329,-1.321758270,0.023459598,0.109255001,1.012294292
64.905553,4.068836212,1.675281525,-2.305950165,-0.033547238,0.060671020,0.956141949
64.943850,8.219226837,0.225696564,-1.764263153,0.023093387,0.105592892,0.982509136
64.958128,8.676990509,0.843677521,-4.747356415,0.006125614,0.080080196,0.956386089
64.973452,1.383289337,-0.064220428,-3.526653290,-0.039162472,0.038332153,0.936244488
65.039019,9.638294220,-9.059276581,-1.268352509,-0.062477902,0.123293087,0.970668316
65.077384,-3.980175018,-14.628734589,2.805744171,-0.045876339,0.068605587,0.955897808
65.091669,-2.713695526,-14.720287323,1.989398956,-0.047585323,0.133058712,0.991176128
65.107040,-0.607982635,-15.132274628,1.600299835,-0.055031613,0.145387813,0.996181011
65.145338,5.053028107,-15.773143768,7.848773956,-0.061257198,0.125368282,0.927577496
65.183639,-11.327281952,-0.636425018,0.562702179,-0.022805050,0.080934688,0.972255230
65.197935,-11.022106171,1.110706329,0.173603058,-0.042702511,0.121462032,1.003993511
65.213275,-2.698436737,-1.506175995,3.660236359,-0.070656613,0.151491329,1.017909527
65.251563,-4.331127167,-1.941051483,7.055316925,-0.004616573,0.103639767,0.982997417
65.289854,-3.087535858,7.015857697,0.074420929,0.025901005,0.145387813,0.978114605
65.304134,-5.483165741,9.525928497,-3.801311493,-0.026223019,0.155275509,0.962245464
65.319478,-7.192150116,8.465442657,-2.229656219,-0.042580441,0.171877071,0.971278667
65.357769,-1.355663300,0.569019318,1.203571320,-0.034645870,0.147585079,0.987147808
65.396060,-7.916942596,1.827869415,-3.969158173,-0.051979855,0.077760860,1.039760113
65.410353,-1.012340546,-1.925792694,-0.818218231,-0.083351925,0.136842892,1.042689800
65.425679,3.794178009,-3.833141327,1.539264679,-0.077980831,0.117433712,1.013270855
65.463959,-8.168712616,1.240406036,-0.253643036,-0.017311886,0.034181762,1.011439800
65.502247,0.338062286,5.467090607,-4.648174286,-0.052834347,0.083986446,1.031093121
65.516525,0.345691681,3.491077423,-3.190959930,-0.058205441,0.067018673,1.020228863
65.531869,-2.744213104,-0.590648651,0.768695831,-0.050026730,0.072389767,1.026942730
65.570159,1.451953888,3.300342560,-3.923381805,-0.013771847,0.062624142,1.026454449
65.608446,0.895008087,0.881824493,-3.496135712,-0.045876339,0.108644649,1.033656597
65.622731,3.565296173,0.157032013,-2.389873505,-0.045143917,0.087404415,1.023768902
65.638072,3.344043732,0.172290802,-1.909221649,-0.026223019,0.052736450,1.014613628
65.676359,-0.325695038,-0.506725311,-5.006755829,-0.033669308,0.108644649,1.029628277
65.714651,1.871570587,-4.420604706,-3.717388153,-0.036476925,0.096437618,1.017421246
65.728943,3.656848907,-3.733959198,-4.922832489,-0.039528683,0.090822384,0.990809917
65.744275,2.733692169,-2.154674530,-5.159343719,-0.038918331,0.071901485,0.973720074
65.782562,-1.859203339,-2.543773651,-8.546794891,-0.054787472,0.110475704,1.007045269
65.820861,1.780017853,-9.501781464,-1.909221649,-0.054421261,0.056154419,0.970912457
65.835149,0.559314728,-7.571544647,-3.404582977,-0.024391964,0.050539184,0.978236675
65.850473,-1.691356659,-3.886547089,-8.676494598,-0.044899777,0.060793091,0.986537457
65.888761,-1.004711151,-2.551403046,-1.001323700,-0.046974972,0.083498165,0.947230816
65.927050,-3.247753143,8.442554474,-9.096111298,-0.060158566,0.148805782,0.943690777
65.941338,-1.149669647,8.419666290,-8.806194305,-0.080910519,0.141847774,0.936732769
65.956667,-4.010692596,4.414234161,-5.472148895,-0.086403683,0.078249142,0.945033550
65.994948,-3.011241913,-1.109447479,-0.398601532,-0.095925167,0.131715938,1.012782574
66.047230,-9.152904510,3.071460724,0.913654327,-0.071266964,0.046388794,1.007045269
66.061584,-8.901134491,4.269275665,1.050983429,-0.065773800,0.079713985,1.035365582
66.076938,-2.011791229,5.688343048,1.470600128,-0.079079464,0.080568478,1.053920269
66.115245,-2.385631561,8.396778107,4.285846710,-0.075905636,-0.004758667,1.024501324
66.153520,-2.339855194,15.194568634,1.958881378,-0.047585323,0.008302856,1.093959332
66.167834,0.833972931,10.929737091,2.019916534,-0.085305050,0.016603637,1.102260113
66.183189,2.184375763,6.657276154,4.423175812,-0.094948605,0.041628052,1.095546246
66.221466,12.392505646,-5.603160858,12.334857941,-0.060036495,0.019167114,1.088099957
66.259749,8.127674103,0.675830841,3.385578156,-0.079567745,-0.014036011,0.985805035
66.274042,6.357654572,0.286731720,3.240619659,-0.104836300,0.011110473,0.986293316
66.289377,6.029590607,-3.970470428,7.764850616,-0.135964230,0.066652462,1.009486675
66.342950,6.708606720,0.057849884,10.816608429,-0.056984738,0.031007934,0.961513042
66.381301,-3.613964081,9.159717560,7.085834503,-0.055031613,0.028200317,0.937465191
66.395619,-9.664073944,10.723743439,9.779010773,-0.045998409,0.071657345,1.020717144
66.410989,-7.009044647,12.241992950,9.138141632,-0.022438839,0.112917110,1.047450542
66.449279,2.756580353,13.889942169,1.478229523,-0.045754269,0.005739380,0.992274761
66.487562,0.818714142,2.987537384,3.110919952,-0.041970089,0.099977657,1.058925152
66.501864,5.785449982,-0.041332245,1.577411652,-0.050148800,0.095583126,1.053554058
66.517202,9.378894806,-5.717601776,0.577960968,-0.053200558,0.024904419,0.996547222
66.555481,-1.904979706,-12.820568085,2.607379913,-0.070900753,0.053957153,1.041469097
66.593765,10.279163361,-10.905590057,-3.000225067,-0.066750363,0.014284302,0.975306988
66.608071,6.464466095,-10.119762421,-3.030742645,-0.076393917,-0.023557495,0.959804058
66.623423,-3.140941620,-7.190074921,-1.199687958,-0.057473019,0.002077270,1.003505230
66.661710,6.800159454,0.477466583,-4.960979462,-0.025734738,0.102296993,1.026454449
66.700015,-1.309886932,7.549915314,-8.012737274,-0.031472042,0.010866333,0.963588238
66.714307,-1.721874237,10.044727325,-9.431804657,-0.017678097,0.088136837,1.006556988
66.729652,1.703723907,11.486682892,-10.568584442,-0.016091183,0.105226681,1.000453472
66.767959,0.910266876,11.936817169,-12.903179169,-0.040139034,0.066408321,0.957240582
66.806256,-0.859752655,7.176074982,-11.484111786,-0.036110714,0.057008911,0.996425152
66.820554,-0.493541718,6.893787384,-11.781658173,-0.033181027,0.055055786,0.996181011
66.835904,-1.096263885,8.831653595,-11.651958466,-0.049904659,0.057253052,0.992274761
66.874239,-5.170360565,10.632190704,-9.889568329,-0.063698605,0.092653438,0.992763042
66.912529,1.017078400,8.206043243,-7.768596649,-0.060158566,0.140016720,1.036586285
66.926841,5.396350861,7.176074982,-7.234539032,-0.070534542,0.127077267,1.010097027
66.942186,3.900989532,5.009326935,-5.899394989,-0.082619503,0.058229614,0.939296246
66.980476,-7.245555878,-2.940502167,1.852069855,-0.079079464,0.166505978,1.039149761
67.034325,-1.561656952,-7.853832245,5.155597687,-0.098000363,0.043703247,0.929408550
67.048643,-6.452098846,-8.632030487,6.582294464,-0.095070675,0.066042110,0.949306011
67.064004,-6.551280975,-8.319225311,8.436237335,-0.082863644,0.134035274,1.011439800
67.102294,1.909717560,-0.857677460,9.496723175,-0.055275753,0.047487427,0.991664410
67.140596,-3.133312225,7.801685333,6.994281769,-0.028298214,0.086061642,1.054530621
67.154885,0.429615021,9.373340607,5.514179230,-0.035622433,0.096315548,1.068324566
67.170209,4.625782013,8.816394806,6.261859894,-0.050026730,0.070924923,1.048305035
67.208491,3.183826447,4.414234161,8.489643097,-0.061623409,0.078981563,1.045863628
67.246794,10.347827911,6.245288849,5.453144073,-0.070046261,0.067995235,0.996791363
67.261094,3.618701935,4.475269318,5.147968292,-0.106423214,0.000368286,0.959315777
67.276420,-2.103343964,2.613697052,6.902729034,-0.116432980,0.007570434,0.977870464
67.314716,9.378894806,-4.748668671,11.106525421,-0.099221066,0.152467892,1.056849957
67.353033,6.174549103,-2.215709686,8.497272491,-0.075783566,-0.029905152,0.951259136
67.367327,0.147327423,-1.078929901,8.405719757,-0.076149777,0.006349731,0.968593121
67.382655,1.451953888,-0.178661346,8.375202179,-0.069680050,0.101808712,1.007167339
67.420945,2.245410919,-2.070751190,5.788837433,-0.064431027,0.031618286,0.923549175
67.459228,1.085742950,-6.121959686,3.736530304,-0.066506222,0.117433712,0.967738628
67.473512,4.122241974,-6.816234589,3.240619659,-0.071144894,0.098390743,0.959071636
67.488856,3.221973419,-9.402599335,2.927814484,-0.071144894,0.056520630,0.905604839
67.527158,-2.568737030,-7.968273163,1.493488312,-0.066506222,0.083864376,0.919276714
67.565443,-3.636852264,-4.710521698,-2.954448700,-0.082131222,0.068605587,0.908412457
67.579729,-5.750194550,-5.931224823,-2.176250458,-0.060402706,0.069338009,0.937465191
67.595049,-5.933300018,-4.962291718,-4.152263641,-0.050515011,0.074587032,0.950892925
67.633350,-6.818309784,2.110157013,-10.469402313,-0.043434933,0.063478634,1.000697613
67.687375,4.183277130,-4.153575897,-8.645977020,-0.067726925,0.072023556,1.027308941
67.701699,3.580554962,-1.811351776,-8.478130341,-0.041970089,0.040651489,1.012172222
67.717060,-3.438488007,3.597888947,-13.254131317,-0.026711300,0.019167114,1.009608746
67.755384,-8.359447479,10.265979767,-13.025249481,-0.051369503,0.126466915,1.086024761
67.793684,6.197437286,15.476856232,-14.711345673,-0.015358761,0.128542110,1.081630230
67.807999,4.297718048,17.697010040,-14.207805634,-0.024147823,0.043825317,1.044398785
67.823365,0.170215607,18.963489532,-14.314617157,-0.020119503,0.035036255,1.043544292
67.861689,2.024158478,15.705738068,-14.223064423,-0.059792355,0.138429806,1.047572613
67.900008,-3.644481659,4.788074493,-5.533184052,-0.093361691,0.088869259,1.011439800
67.914292,-3.423229218,3.697071075,-4.655803680,-0.078224972,0.099367306,1.036220074
67.929640,-0.203624725,3.544483185,-4.655803680,-0.079323605,0.091921017,1.021083355
67.983923,-8.359447479,3.521595001,2.172504425,-0.085305050,0.073366329,1.051478863
68.022295,5.518421173,6.474170685,4.507099152,-0.081032589,0.045778442,0.994716167
68.036604,-0.974193573,6.252918243,6.887470245,-0.071389034,0.020387817,0.991420269
68.051928,-2.263561249,4.879627228,8.512531281,-0.069924191,0.056886841,1.005580425
68.090276,7.647022247,8.656177521,6.849323273,-0.018654659,0.070192501,0.959315777
68.128556,0.452503204,10.059986115,6.818805695,-0.045510128,0.102296993,0.941615582
68.142858,1.932605743,8.549365997,6.971393585,-0.055764034,0.107668087,0.933314800
68.158183,1.368030548,4.788074493,9.336505890,-0.064308956,0.072878048,0.925868511
68.196498,-0.188365936,3.277454376,8.489643097,-0.065163448,0.091676876,0.962611675
68.234807,4.442676544,-1.078929901,12.678180695,-0.093727902,0.026613403,0.924769878
68.249106,2.970203400,-1.292552948,13.799701691,-0.078957394,0.002077270,0.908168316
68.264443,-7.062450409,0.225696564,12.449298859,-0.054299191,-0.026853394,0.901088238
68.302767,-12.425914764,-1.475658417,11.083637238,-0.079323605,0.114992306,1.020228863
68.341065,7.967456818,-3.688182831,13.029132843,-0.051369503,0.015505005,0.964808941
68.355358,-2.080455780,-1.391735077,11.617694855,-0.037453488,-0.026853394,0.953212261
68.370708,-5.628124237,-1.246776581,11.037860870,-0.028786495,0.017702270,0.967372417
68.409066,-3.972545624,-0.262584686,8.894001007,-0.021218136,0.050417114,0.964442730
68.447348,-6.276622772,2.796802521,2.241168976,0.006858036,0.096925899,0.977260113
68.461638,-5.605236053,2.468738556,1.211200714,-0.019020870,0.090334103,0.978602886
68.476987,-5.712047577,0.553760529,2.805744171,-0.013649777,0.081789181,0.979457378
68.515294,-9.183422089,-3.039684296,-0.818218231,-0.008644894,0.087892696,0.997523785
68.553594,-3.247753143,-7.670726776,-4.083599091,-0.005837277,0.115602657,1.043056011
68.567884,-1.203075409,-9.517040253,-4.938091278,-0.010720089,0.080080196,1.036342144
68.583220,-3.858104706,-13.659801483,-4.793132782,-0.026345089,0.027345825,1.034389019
68.621544,1.329883575,-9.448375702,-3.572429657,0.029685184,0.140260860,1.115809917
68.659840,8.577808380,-1.017894745,-11.453594208,0.021140262,-0.047361206,1.034022808
68.674131,-6.742015839,2.819690704,-12.971843719,-0.002053097,-0.079831913,1.035609722
68.689488,-10.823741913,3.117237091,-12.491191864,-0.004372433,-0.004392456,1.096156597
68.727849,11.705860138,3.132495880,-10.415996552,0.030417606,0.107301876,1.093226910
68.777467,-6.436840057,3.918323517,-15.787090302,-0.017189816,0.046388794,1.053431988
68.791824,1.078113556,-3.344860077,-15.146221161,-0.039772823,0.127687618,1.072841167
68.807217,6.441577911,-7.907238007,-13.612712860,-0.053688839,0.114870235,1.054164410
68.845534,-1.042858124,-16.093578339,-6.326641083,-0.033303097,0.065797970,1.001552105
68.883841,5.442127228,-13.240184784,-13.292278290,-0.070046261,0.092165157,0.988490582
68.898137,5.014881134,-14.254894257,-10.499919891,-0.086647823,0.081300899,0.980067730
68.913489,4.099353790,-16.673412323,-5.090679169,-0.079811886,0.088014767,0.979823589
68.951831,5.625232697,-9.036388397,-6.860698700,-0.031227902,0.046877075,0.953578472
69.001720,0.071033478,-3.375377655,-4.754985809,-0.094582394,0.051881958,0.956996441
69.016050,0.818714142,-4.710521698,-2.344097137,-0.092995480,0.063966915,0.957484722
69.031391,2.397998810,-6.640758514,0.524555206,-0.069680050,0.069215938,0.942836285
69.069697,-0.646129608,-0.415172577,-2.061809540,-0.039528683,0.040041137,0.902675152
69.107989,-5.750194550,-0.941600800,-0.352825165,-0.069557980,0.060915161,0.942470074
