time,gyro x,gyro y,gyro z,accel x,accel y,accel z
23.163132,-0.981822968,4.124317169,-0.749553680,-0.043679073,-0.014768433,1.055263042
23.201659,0.399097443,4.902515411,-0.352825165,-0.058449581,0.008180786,1.010951519
23.215926,0.483020782,1.598987579,0.082050323,-0.054299191,0.007936645,0.999232769
23.231300,0.185474396,0.172290802,0.364337921,-0.054787472,-0.001706909,1.000453472
23.269576,1.596912384,-4.855480194,-0.192607880,-0.041848019,0.008913208,1.012538433
23.307859,1.558765411,-19.473400116,1.890216827,-0.023537472,0.008180786,1.006801128
23.322129,2.016529083,-23.845043182,2.271686554,-0.027321652,0.008791137,1.002894878
23.337497,1.024707794,-29.406871796,2.309833527,-0.034035519,0.003053833,0.976039410
23.375791,-0.623241425,-31.428661346,2.096210480,-0.018898800,0.003664184,1.007167339
23.414115,-0.455394745,-22.723522186,3.042255402,-0.021340206,0.016115356,1.018397808
23.428404,-0.264659882,-19.160594940,2.164875031,-0.019142941,0.005617309,1.018519878
23.443775,-3.072277069,-10.279979706,-0.329936981,-0.037087277,-0.005979370,1.002284527
23.482052,-0.737682343,-0.468578339,0.471149445,-0.011086300,-0.008542847,0.989955425
23.520327,0.986560822,10.479602814,-1.031841278,-0.012062863,-0.016355347,1.025111675
23.534593,0.612720490,12.264881134,-1.504863739,-0.018654659,0.009889770,0.967250347
23.549985,-0.447765350,13.188037872,-1.451457977,0.008078739,-0.015744995,1.008754253
23.588249,1.261219025,14.874134064,-1.512493134,-0.000832394,-0.000608277,1.003871441
23.626517,-1.637950897,10.204944611,-0.413860321,-0.012551144,-0.002805542,1.004481792
23.640798,-0.920787811,7.748279572,-0.375713348,0.001242802,0.012453247,0.997157574
23.656168,-2.027050018,5.970630646,-0.612224579,-0.000099972,-0.001828980,0.996303082
23.694433,-5.788341522,-1.925792694,0.829730988,0.010886356,-0.002317261,1.014979839
23.732702,8.821949005,-10.348644257,0.921283722,0.017844364,0.034547973,1.017909527
23.746993,5.106433868,-9.654369354,-3.915752411,-0.005226925,-0.015500855,1.002284527
23.762353,0.055774689,-6.656017303,0.173603058,-0.045510128,0.027345825,0.917323589
23.800635,1.726612091,-2.024974823,-0.970806122,-0.039162472,0.012941528,1.016688824
23.838903,-0.783458710,-0.949230194,0.730548859,-0.020729855,0.009523559,0.960902691
23.853136,-1.088634491,1.118335724,-0.368083954,0.005393192,0.019411255,1.020839214
23.868483,0.597461700,0.904712677,-0.673259735,-0.006813839,0.016481567,1.022181988
23.906758,-1.142040253,-0.186290741,0.112567902,-0.012917355,-0.006467652,0.998866558
23.945039,0.696643829,0.507984161,-0.200237274,-0.001686886,-0.004148316,0.982753277
23.959291,-0.760570526,-0.514354706,-0.177349091,-0.005837277,-0.005857300,0.996547222
23.974608,-0.569835663,-1.216259003,0.310932159,-0.000954464,-0.000242066,1.015346050
24.012857,-0.203624725,-1.231517792,0.059162140,-0.012062863,-0.002439331,0.987025738
24.051133,0.513538361,-1.704540253,-0.467266083,0.000144169,0.000856567,1.000331402
24.065405,0.368579865,-1.956310272,-0.246013641,-0.008400753,-0.005735230,0.989589214
24.080762,-0.607982635,-1.735057831,0.181232452,-0.010475948,-0.005857300,0.999110699
24.134498,-0.165477753,2.621326447,-0.215496063,0.000998661,0.002809692,0.993373394
24.172891,0.559314728,1.804981232,-0.062908173,0.000022098,-0.003904175,0.998256207
24.187151,0.277027130,0.897083282,-0.230754852,-0.003273800,-0.008420777,0.988002300
24.202451,-0.524059296,-1.033153534,0.387226105,-0.002541378,-0.004026245,0.999232769
24.240711,0.139698029,-0.415172577,-0.390972137,-0.002907589,-0.000119995,0.997279644
24.278953,0.162586212,-0.659313202,0.341449738,-0.004372433,0.000490356,1.004481792
24.293200,0.238880157,-1.101818085,0.242267609,0.003562137,0.001222778,0.996303082
24.308527,-0.340953827,-1.178112030,0.059162140,0.005271122,0.000002075,0.993007183
24.346823,0.391468048,-0.529613495,0.280414581,0.000510380,-0.004148316,1.001918316
24.385106,-0.501171112,-0.125255585,0.021015167,0.009787723,-0.000119995,1.003016949
24.399382,0.071033478,2.209339142,-0.017131805,-0.009865597,0.005373169,1.014003277
24.414698,0.383838654,3.925952911,0.585590363,-0.008889034,0.009645630,1.001430035
24.452988,0.330432892,9.670886993,0.272785187,-0.030983761,-0.008542847,1.008388042
24.506998,-0.051036835,7.717761993,-1.123394012,-0.040261105,0.004640747,0.993617535
24.521332,0.101551056,4.009876251,2.859149933,-0.034401730,0.000978637,1.006801128
24.536666,0.170215607,3.880176544,0.867877960,0.028586552,0.000612427,1.005824566
24.574950,-0.066295624,0.965747833,2.233539581,-0.013039425,0.000002075,1.010097027
24.613240,0.338062286,12.318286896,-5.136455536,-0.042336300,-0.000852417,1.011561871
24.627532,-0.127330780,14.965686798,-3.808940887,0.071311161,-0.005491089,0.976039410
24.642879,-1.264110565,14.431629181,-8.569683075,-0.020485714,-0.003904175,0.974330425
24.681203,1.230701447,1.675281525,-1.138652802,-0.084206417,0.002809692,1.005458355
24.719474,-0.974193573,-4.832592010,1.577411652,-0.001320675,-0.000730347,1.016688824
24.733764,-0.264659882,-5.252208710,-1.657451630,-0.048928097,-0.007200073,1.012538433
24.749095,0.406726837,-9.242382050,0.005756378,-0.051735714,-0.002805542,0.988124371
24.787394,-2.896800995,-16.085948944,-4.220928192,0.034323856,0.024660278,1.010219097
24.825681,0.795825958,-16.696300507,2.042804718,0.005881473,-0.020994019,0.977748394
24.839985,-0.722423553,-13.675060272,1.119647980,0.014548466,-0.013303589,0.975551128
24.855318,-1.073375702,-7.991161346,-0.284160614,-0.024636105,0.009401489,1.029628277
24.893638,0.742420197,3.903064728,0.509296417,-0.021218136,-0.015744995,0.982997417
24.931924,0.078662872,16.895923615,0.211750031,-0.045143917,0.024660278,1.026698589
24.946217,1.535877228,21.771106720,-2.885784149,-0.080910519,0.012941528,1.006679058
24.961579,1.108631134,21.542224884,-1.306499481,-0.089089230,-0.007566284,0.991664410
24.999878,0.078662872,17.918262482,-3.442729950,-0.066750363,-0.009519409,1.012294292
25.054131,-0.142589569,1.667652130,-1.619304657,-0.028786495,0.006960083,1.006068707
25.068452,0.597461700,-0.941600800,0.921283722,0.010398075,0.002931762,1.002528667
25.083792,0.132068634,-0.460948944,0.638996124,0.067649052,-0.022336792,1.014613628
25.122092,-0.150218964,22.259387970,-12.857402802,0.041037723,0.014650512,1.021693707
25.160418,0.872119904,-7.876720428,1.867328644,-0.142311886,-0.047849488,0.993617535
25.174705,-0.737682343,-14.369335175,4.743610382,-0.023537472,-0.013059448,0.996058941
25.190030,-1.447216034,-11.813488007,1.180683136,-0.017556027,0.005617309,1.019130230
25.228322,0.498279572,-7.777538300,-5.815471649,0.012351200,0.004152466,0.981532574
25.266632,-0.554576874,-20.526256561,-3.076519012,-0.049172238,-0.005857300,1.018519878
25.280930,0.605091095,-21.457042694,1.424823761,0.019919559,-0.003171753,1.011073589
25.296258,-2.477184296,-19.320812225,-2.771343231,0.003317997,-0.002805542,0.903041363
25.334548,-6.093517303,-21.769847870,1.539264679,-0.035134152,-0.012693238,1.032680035
25.372856,-1.950756073,3.002796173,-1.001323700,0.027365848,0.008669067,1.077846050
25.387138,0.605091095,11.196765900,-2.664531708,0.007834598,0.024049927,1.070155621
25.402464,3.778919220,21.336231232,-3.595317841,-0.049904659,0.001711059,0.997645855
25.440755,-0.112071991,17.719898224,2.416645050,-0.133644894,-0.023923706,0.966395855
25.479062,-7.047191620,4.795703888,10.793720245,-0.093117550,-0.050290894,0.881556988
25.493353,-14.905467987,-0.468578339,12.609516144,-0.043434933,-0.040403198,0.939906597
25.508680,-16.522899628,-3.245677948,12.830768585,-0.032204464,-0.031736206,1.029628277
25.547003,3.725513458,7.374439240,13.036762238,0.162619755,0.036501098,1.235805035
25.585290,21.059497833,34.649524689,-24.972881317,-0.138039425,0.011842895,0.487269878
25.599613,-18.704906464,9.571704865,5.750690460,-0.077980831,-0.395383656,0.995936871
25.614994,-26.090160370,11.624011993,13.074909210,-0.023293331,-0.003660034,1.072841167
25.653287,26.087268829,16.888294220,-11.171306610,-0.136086300,0.042604614,0.895717144
25.691635,-14.531627655,-12.996044159,12.968097687,-0.053078488,0.020631958,0.893275738
25.705938,-12.822643280,-11.615123749,9.679828644,-0.001198605,0.012453247,1.081264019
25.721279,-4.460826874,-2.719249725,6.673847198,-0.000466183,0.038820434,1.147426128
25.759549,-2.385631561,2.552661896,0.227008820,-0.113503292,-0.017576050,0.952968121
25.813979,-9.824291229,9.541187286,-0.345195770,-0.070168331,-0.042356323,0.982387066
25.828314,-10.274425507,11.265430450,-1.237834930,-0.063820675,-0.025876831,1.026088238
25.843652,-9.503856659,10.105762482,-1.153911591,-0.063942745,-0.003660034,1.042323589
25.881952,-5.956188202,6.550464630,-3.457988739,-0.068459347,0.014650512,0.982875347
25.920262,-10.076061249,-6.388988495,2.882038116,-0.119973019,-0.016111206,1.016566753
25.934565,-9.236827850,-9.242382050,3.347431183,-0.109597042,-0.001096558,1.041347027
25.949900,-6.040111542,-11.744823456,5.926166534,-0.099709347,0.007936645,1.021815777
25.999741,-6.368175507,-3.848400116,2.454792023,-0.103127316,-0.033323120,1.044398785
26.038145,-5.078807831,-2.566661835,3.843341827,-0.145485714,-0.038572144,1.015346050
26.052443,-4.582897186,-4.000988007,4.659687042,-0.146706417,-0.037229370,1.029384136
26.067785,-2.233043671,-9.280529022,7.200275421,-0.148415402,-0.038816284,1.019252300
26.106102,-6.284252167,-19.214000702,12.571369171,-0.122170284,-0.063230351,0.969935894
26.144431,-0.913158417,-5.061473846,9.847675323,-0.073098019,-0.000730347,1.042201519
26.158716,-4.605785370,-1.429882050,9.031330109,-0.136574581,-0.095456913,0.908046246
26.174042,-9.587779999,-1.315441132,11.762653351,-0.122658566,-0.102903202,0.947108746
26.212338,-5.078807831,11.402759552,11.892353058,-0.071389034,-0.081785038,1.084071636
26.250664,-7.848278046,15.003833771,9.580646515,-0.121682003,-0.083616093,1.151698589
26.264964,-4.231945038,10.479602814,12.571369171,-0.122780636,-0.068235233,1.174769878
26.280320,3.206714630,1.866016388,17.347370148,-0.096291378,-0.042600464,1.157069683
26.318648,-5.536571503,-0.605907440,14.677082062,-0.054787472,-0.054075073,1.173060894
26.356934,6.174549103,-0.056591034,15.478168488,-0.035988644,-0.063596562,1.132777691
26.371222,3.565296173,1.209888458,14.684711456,-0.022805050,-0.112424687,1.100306988
26.386582,-1.477733612,2.873096466,12.708698273,-0.030007198,-0.060300659,1.139735699
26.424878,9.859546661,8.564624786,11.747394562,-0.017311886,-0.027585816,1.194545269
26.463172,2.726062775,19.528064728,4.323993683,-0.026467159,-0.125974491,1.125453472
26.477463,4.419788361,15.751514435,3.309284210,-0.070656613,-0.041257691,1.217494488
26.492824,10.065540314,11.356983185,5.643878937,-0.085915402,-0.015378784,1.231044292
26.531129,12.117847443,-4.405345917,17.332111359,-0.089211300,-0.201658085,0.980189800
26.569443,12.941822052,0.233325958,1.104389191,-0.102516964,-0.028684448,1.138392925
26.583735,19.678577423,-4.496898651,9.565387726,-0.137795284,-0.085813358,1.071986675
26.599090,8.699878693,-7.968273163,16.637836456,-0.027199581,-0.147214726,0.972987652
26.637406,9.447559357,-8.479442596,7.375751495,-0.068337277,-0.014890503,1.112025738
26.675676,13.742908478,-5.305614471,6.696735382,-0.029274777,-0.080930546,0.993495464
26.689975,7.097705841,-3.184642792,3.194843292,-0.026589230,-0.132200077,0.985072613
26.705295,6.464466095,-1.437511444,1.890216827,-0.079201534,-0.012693238,1.092738628
26.743605,16.352161407,-1.948680878,4.644428253,-0.062111691,-0.117063358,0.925868511
26.781889,2.504810333,-2.299633026,2.851520538,-0.084694698,0.012941528,1.038783550
26.796163,15.322193146,-8.151378632,6.765399933,-0.078835323,0.018190552,1.025722027
26.811486,18.518909454,-9.745922089,5.910907745,-0.066384152,-0.022214722,0.966639996
26.849795,-3.911510468,-6.610240936,3.568683624,-0.079567745,-0.008176636,0.970546246
26.888084,9.249195099,-12.858715057,5.140338898,-0.084816769,-0.057737183,0.959315777
26.915353,-0.524059296,-8.654918671,4.194293976,-0.058449581,-0.105588749,0.902553082
26.929674,-4.537120819,-6.923046112,1.905475616,-0.070412472,-0.040281128,0.960170269
26.967862,6.174549103,-10.516490936,6.277118683,-0.068459347,-0.075925663,0.944056988
27.006162,-1.836315155,-10.592784882,5.346332550,-0.056374386,-0.004514527,1.002772808
27.020455,2.207263947,-11.676158905,4.682575226,-0.058571652,-0.001951050,1.010829449
27.035797,7.318958282,-14.331188202,6.307636261,-0.068459347,-0.009031128,0.965297222
27.086252,-1.264110565,-5.481090546,1.966510773,-0.048928097,0.050172973,1.001063824
27.124638,10.431751251,0.248584747,-2.565349579,-0.039040402,-0.032102417,0.885585308
27.138938,3.916248322,3.269824982,-1.176799774,-0.037087277,-0.074338749,0.857142925
27.154279,-3.003612518,7.069263458,-4.556621552,-0.006203488,0.015016723,0.922328472
27.192568,7.288440704,9.876880646,-2.946819305,-0.021218136,0.033449341,0.879725933
27.230879,-10.831371307,21.130237579,-12.956584930,0.061057255,0.043825317,1.007289410
27.245172,-8.435741425,23.113880157,-16.641582489,-0.014015988,0.076906368,0.982875347
27.260546,3.489002228,17.582569122,-11.514629364,-0.039284542,0.099855587,1.009852886
27.298867,6.212696075,3.277454376,-12.689556122,-0.016945675,0.019777466,1.000941753
27.337164,9.516223907,-13.064708710,-13.032878876,-0.032692745,0.024416137,1.066371441
27.351458,14.223560333,-17.764415741,-13.574565887,-0.047585323,0.000490356,1.043056011
27.366825,15.062793732,-19.786205292,-13.177837372,-0.052223995,-0.010618042,1.006434917
27.405127,7.875904083,-22.204723358,-12.018169403,-0.033791378,-0.012937378,0.980556011
27.443432,13.582691193,-15.117015839,-12.941326141,-0.041725948,0.019411255,0.940150738
27.457734,13.109668732,-12.683238983,-12.865032196,-0.035378292,0.012453247,0.912074566
27.473099,8.562549591,-5.748119354,-13.002361298,-0.024391964,0.014284302,0.897670269
27.511426,5.724414825,14.225635529,-16.054119110,0.003195927,0.028688598,0.919276714
27.549722,-2.820507050,25.761280060,-18.732036591,-0.008644894,-0.005246948,0.935389996
27.564027,-3.804698944,25.189075470,-18.030132294,-0.010109738,0.022829223,0.955653667
27.579395,-0.714794159,22.602710724,-16.694988251,-0.003273800,0.056520630,0.959804058
27.617704,2.321704865,17.002735138,-17.320598602,-0.011208370,-0.040281128,0.928065777
27.656044,-6.742015839,11.089954376,-13.200725555,0.041037723,0.006105591,0.956141949
27.670341,-3.163829803,12.913379669,-16.992534637,0.060202762,0.014528442,0.974574566
27.685696,-1.798168182,13.661060333,-17.991985321,0.048117802,0.006715942,0.977015972
27.724037,-4.743114471,8.747730255,-17.648662567,0.015158817,-0.040036988,0.977015972
27.762331,-0.066295624,-1.063671112,-19.556011200,0.017234012,-0.012327027,0.999598980
27.776641,-0.218883514,-1.635875702,-19.670452118,0.006980106,-0.021970581,0.994960308
27.791998,0.582202911,-1.193370819,-19.983257294,0.000266239,-0.012449097,0.988490582
27.830270,-0.096813202,-3.520336151,-21.898235321,0.026877567,0.009645630,1.015223980
27.880735,0.360950470,-8.220043182,-20.379985809,-0.019265011,-0.003782105,1.087123394
27.895085,2.878650665,-8.891429901,-19.693340302,-0.030007198,0.002077270,1.092982769
27.910458,8.059009552,-9.684886932,-20.753826141,-0.024025753,-0.000730347,1.074672222
27.948758,7.456287384,-9.158458710,-18.106426239,-0.041237667,-0.008420777,1.036464214
27.987065,7.456287384,1.507434845,-20.524944305,-0.013649777,-0.019162964,1.033290386
28.001359,7.257923126,3.887805939,-20.303691864,-0.007302120,-0.003904175,1.038539410
28.016692,7.898792267,8.465442657,-23.088420868,0.021750614,0.027589966,1.033900738
28.055019,1.169666290,14.897022247,-27.414287567,-0.008156613,0.078859493,0.821742535
28.093326,17.466053009,17.651233673,-29.909099579,-0.033181027,0.022585083,1.042811871
28.107622,5.777820587,19.825611115,-29.802288055,-0.036843136,-0.010373902,0.890834332
28.122986,-3.194347382,18.543872833,-26.636089325,-0.065529659,0.066652462,1.018886089
28.161278,10.653003693,5.276355743,-28.352703094,-0.042092159,0.042970825,1.039271832
28.199590,0.612720490,-4.062023163,-31.953777313,-0.019142941,0.093996212,0.993861675
28.213884,4.785999298,-6.396617889,-31.236614227,-0.021462277,0.096559688,0.992030621
28.229213,4.717334747,-12.088146210,-31.000102997,-0.023293331,0.058473755,1.033412457
28.267505,6.609424591,-8.670177460,-34.685100555,0.010520145,0.114259884,1.077723980
28.305835,8.974536896,-1.429882050,-37.164653778,-0.022316769,-0.004392456,1.137538433
28.320128,9.188159943,-0.323619843,-37.507976532,-0.007790402,0.098512813,0.999110699
28.335475,2.283557892,0.469837189,-36.493267059,-0.051003292,0.131471798,1.101527691
28.387697,-1.126781464,-0.758495331,-37.095989227,-0.058327511,0.118898556,1.080043316
28.426072,11.049732208,-6.442394257,-37.721599579,-0.081398800,0.128542110,1.052455425
28.440369,13.109668732,-8.754100800,-38.377727509,-0.072975948,0.126955196,1.029628277
28.455723,10.981067657,-14.621105194,-36.943401337,-0.103249386,0.109499142,0.988978863
28.494062,10.378345490,-24.913158417,-34.753765106,-0.082985714,0.166383907,1.000575542
28.532378,13.384326935,-27.537670135,-34.997905731,-0.030739620,0.170534298,0.906703472
28.546683,9.645923615,-23.822154999,-36.371196747,-0.002419308,0.145754024,0.882045269
28.562047,6.227954865,-20.320262909,-37.889446259,0.024802372,0.167970821,0.879603863
28.600356,5.228504181,4.925403595,-48.509563446,0.090109989,0.197755978,0.938197613
28.638651,7.173999786,18.620166779,-58.977092743,0.013693973,0.140871212,0.967006207
28.652958,3.763660431,11.234912872,-58.305706024,-0.039284542,0.167482540,0.947352886
28.668311,5.869373322,7.275257111,-57.397808075,-0.023781613,0.157472774,0.965907574
28.706631,8.547290802,-11.576976776,-57.611431122,-0.004616573,0.107546017,0.940150738
28.744916,7.379993439,-21.334972382,-61.738933563,0.015647098,0.114259884,0.967494488
28.759222,7.883533478,-23.440685272,-62.952007294,0.015402958,0.116090938,0.972865582
28.774587,7.212146759,-29.216136932,-64.325302124,-0.009133175,0.114870235,0.972743511
28.826635,6.487354279,-47.664012909,-61.990703583,-0.087258175,0.110109493,0.980067730
28.865070,6.487354279,-53.271617889,-57.138408661,-0.052223995,0.114259884,1.001918316
28.879383,7.105335236,-49.983348846,-56.055034637,-0.032082394,0.122072384,1.015712261
28.894728,10.706409454,-40.538158417,-60.350383759,-0.014138058,0.132814571,0.995814800
28.933075,7.509693146,-19.236888885,-61.159099579,-0.057717159,0.123781368,0.962733746
28.971408,8.837207794,-6.648387909,-56.100811005,-0.073830441,0.104616329,0.972377300
28.985708,7.761463165,-2.818431854,-55.421794891,-0.060036495,0.107546017,0.981288433
29.001070,8.364185333,4.627857208,-54.491008759,-0.033791378,0.143190548,0.980189800
29.039400,10.500415802,15.331897736,-55.719341278,-0.026345089,0.154298946,0.934291363
29.077698,7.662281036,21.717700958,-53.262676239,-0.023659542,0.159670040,0.928554058
29.092007,8.654102325,22.312793732,-53.102458954,-0.025612667,0.179567501,0.918422222
29.107367,8.745655060,22.205982208,-52.209819794,-0.018288448,0.179811642,0.912929058
29.145677,6.472095490,14.744434357,-49.974407196,-0.016701534,0.187990353,0.976039410
29.183990,13.926013947,-6.816234589,-47.479595184,-0.069069698,0.197755978,0.919398785
29.198293,13.292774200,-13.713207245,-46.335186005,-0.078591183,0.169191524,0.890712261
29.213654,5.716785431,-27.972545624,-41.879619598,-0.112892941,0.136354610,0.893153667
29.251975,1.986011505,-50.006237030,-33.464397430,-0.110573605,0.217165157,1.033900738
29.290272,6.266101837,-58.863964081,-28.627361298,-0.117775753,0.186525509,0.924525738
29.304580,2.733692169,-59.748973846,-26.910747528,-0.121682003,0.185548946,0.913783550
29.319934,-3.484264374,-59.962596893,-23.920024872,-0.119973019,0.223512813,0.920009136
29.358257,-4.155651093,-46.077098846,-20.914043427,-0.070168331,0.296022594,0.915248394
29.396551,-8.901134491,-25.950756073,-23.706401825,-0.077736691,0.281252086,0.939662457
29.410850,-8.733287811,-14.674510956,-22.760356903,-0.083840206,0.300295055,0.963832378
29.426208,-6.955638885,-9.585704803,-21.966899872,-0.084450558,0.307741344,0.962001324
29.464513,-9.961620331,14.118824005,-24.026836395,-0.034157589,0.291505992,0.941615582
29.502837,-5.452648163,28.782520294,-27.811016083,-0.075661495,0.328981578,0.988124371
29.517133,-1.302257538,25.875720978,-24.568523407,-0.109597042,0.308595836,0.881801128
29.532494,-2.942577362,22.953662872,-22.340740204,-0.108498409,0.297975719,0.837245464
29.570843,-12.570873260,7.481250763,-16.679729462,-0.091774777,0.315309703,0.900111675
29.609142,-6.810680389,-2.780284882,-13.368572235,-0.024880245,0.376466930,0.879725933
29.623440,-6.177440643,-4.229869843,-14.566387177,-0.013893917,0.369875133,0.865687847
29.652825,-8.000865936,-6.411876678,-14.612163544,-0.017433956,0.310060680,0.875941753
29.691220,-6.902233124,-6.289806366,-16.374553680,0.002463505,0.298586071,0.918056011
29.729515,-3.186717987,-3.405895233,-21.806682587,-0.022438839,0.295778453,0.975429058
29.759167,4.557117462,-8.616771698,-20.196880341,-0.068581417,0.287477672,0.961879253
29.773493,4.580005646,-10.630931854,-18.167461395,-0.074196652,0.273439586,0.962977886
29.811686,8.463367462,-13.102855682,-14.543498993,-0.038796261,0.156374142,0.915736675
29.850026,0.162586212,-0.598278046,-18.442119598,-0.002419308,0.354005992,0.921351910
29.864324,4.030689240,0.836048126,-18.655742645,-0.016701534,0.354005992,0.902797222
29.879657,2.451404572,0.538501740,-17.625774384,-0.029274777,0.317140758,0.839686871
29.917956,-8.534923553,1.202259064,-14.856304169,-0.054543331,0.270387828,0.954799175
29.956250,-2.095714569,-1.834239960,-14.169658661,-0.034645870,0.307253063,0.994472027
29.970546,-0.333324432,-2.650585175,-15.497173309,-0.038063839,0.246339962,0.997035503
29.985881,-6.207958221,-4.504528046,-15.397991180,-0.038796261,0.194215938,1.014735699
30.024214,-7.932201385,-6.831493378,-16.534770966,-0.009621456,0.414797008,1.004970074
30.062505,2.024158478,-5.885448456,-15.947307587,-0.060402706,0.282106578,0.991176128
30.076823,-0.813976288,-5.740489960,-14.741863251,-0.051125363,0.203127071,0.998866558
30.092174,-4.178539276,-5.404796600,-14.970745087,-0.032936886,0.220094845,0.950038433
30.130483,-19.330516815,-10.165538788,-16.283000946,-0.055641964,0.300172985,1.013637066
30.168821,-7.543102264,-26.118602753,-10.499919891,-0.093727902,0.233034298,1.037196636
30.183123,-7.047191620,-28.666820526,-8.867229462,-0.058205441,0.215578243,0.994838238
30.198472,-6.452098846,-27.842845917,-9.843791962,-0.058327511,0.192873165,0.998378277
30.236792,-1.508251190,-21.029796600,-10.492290497,-0.049050167,0.098879024,0.920497417
30.275109,-14.234081268,-8.738842010,-12.590373993,-0.022805050,0.191530392,0.885097027
30.289419,-13.471141815,-6.511058807,-12.788738251,-0.027932003,0.207399532,0.906581402
30.304775,-11.403575897,-3.611888885,-13.536418915,-0.029030636,0.247560665,0.940028667
30.343109,-1.195446014,1.087818146,-14.589275360,-0.065895870,0.180788204,0.956141949
30.381433,-2.751842499,-1.506175995,-11.758769989,-0.106423214,0.139284298,1.027919292
30.395729,2.283557892,-4.466381073,-9.225811005,-0.088967159,0.192873165,1.023768902
30.411065,4.244312286,-4.062023163,-9.004558563,-0.066750363,0.213503048,0.995692730
30.449360,1.947864532,7.221851349,-15.115703583,-0.068093136,0.169435665,0.986293316
30.487657,3.763660431,-2.063121796,-8.821453094,-0.097756222,0.188600704,0.942592144
30.501951,3.176197052,-7.815685272,-6.265605927,-0.083229855,0.194093868,0.933925152
30.517275,2.077564240,-9.532299042,-6.029094696,-0.075905636,0.180055782,0.953700542
30.555583,3.077014923,-14.048900604,-3.114665985,-0.067604855,0.173586056,1.026454449
30.593881,4.847034454,-11.584606171,-1.626934052,-0.053932980,0.161501095,0.963466167
30.608167,3.145679474,-8.471813202,-1.390422821,-0.050392941,0.156862423,0.956752300
30.623497,-1.790538788,-0.232067108,-2.077068329,-0.037453488,0.176759884,0.962123394
30.661833,-7.421031952,4.757556915,-2.061809540,-0.069557980,0.325563610,0.994838238
30.700122,-4.651561737,-5.236949921,3.561054230,-0.135353878,0.255129039,1.022548199
30.734352,-10.182872772,-14.293041229,11.465106964,-0.140358761,0.291750133,1.041591167
30.748708,-5.986705780,-16.032543182,13.464008331,-0.145729855,0.260866344,1.069545269
30.786931,-2.080455780,-6.396617889,14.326129913,-0.064919308,0.193849728,1.070521832
30.825230,2.176746368,13.859424591,9.412799835,-0.054177120,0.216554806,0.938930035
30.839501,-1.782909393,19.108448029,8.665119171,-0.084816769,0.229860470,0.952968121
30.854834,-1.004711151,20.023975372,8.947406769,-0.088112667,0.232301876,0.960780621
30.893123,0.444873810,23.571643829,10.618244171,-0.067971066,0.277834117,0.925868511
30.931441,1.413806915,36.785755157,4.186664581,-0.032570675,0.266725719,0.821498394
30.964855,-4.788890839,37.480030060,5.750690460,-0.055275753,0.264040172,0.888026714
30.979197,-3.766551971,37.960681915,5.086933136,-0.029152706,0.314211071,0.912196636
31.017418,2.390369415,36.152515411,-1.779521942,-0.066017941,0.285158336,0.878627300
31.055718,0.887378693,4.742298126,6.094013214,-0.162819698,0.249147579,0.943080425
31.070021,1.688465118,-14.148082733,9.786640167,-0.143898800,0.263307750,0.933192730
31.085388,1.154407501,-21.869029999,10.000263214,-0.130348995,0.268068492,0.941859722
31.123689,4.251941681,-40.088024139,11.480365753,-0.107155636,0.266969860,0.980311871
31.162013,3.824695587,-30.627574921,7.902179718,-0.011818722,0.301271617,0.984340191
31.176305,4.557117462,-25.370922089,5.689655304,-0.008400753,0.289552867,0.986781597
31.191670,4.534229279,-15.582408905,1.302753448,-0.030251339,0.256838024,1.008998394
31.229989,-0.302806854,-10.112133026,3.568683624,-0.022438839,0.104982540,0.960170269
31.268262,-1.859203339,11.639270782,-4.724468231,0.077780887,0.238527462,1.027431011
31.282554,-2.088085175,20.893726349,-8.516277313,0.090476200,0.236208126,1.021449566
31.297917,-3.118053436,36.068592072,-15.466655731,0.063376591,0.237672970,1.004115582
31.336246,-2.233043671,36.694202423,-17.999614716,-0.050148800,0.199098751,0.992152691
31.374537,-9.435192108,7.473621368,-10.515178680,-0.076027706,0.266603649,0.971400738
31.388852,-3.194347382,-2.848949432,-9.912456512,-0.050515011,0.244020626,1.008754253
31.404200,-1.325145721,-4.283275604,-9.881938934,-0.033669308,0.188966915,0.997157574
31.442483,-8.931652069,2.682361603,-15.008892059,-0.008889034,0.137331173,1.023768902
31.480797,-0.607982635,1.179370880,-13.391460419,-0.033058956,0.143312618,0.966395855
31.495099,-1.821056366,0.370655060,-13.147319794,-0.020851925,0.136598751,0.941249371
31.510471,-5.162731171,0.424060822,-13.849224091,0.012717411,0.149538204,0.966762066
31.548762,1.123889923,8.267078400,-19.189800262,0.046164677,0.192018673,1.000697613
31.587063,4.312976837,14.736804962,-25.194133759,0.032614872,0.152834103,0.913905621
31.601364,1.406177521,13.394031525,-25.300945282,0.013205692,0.147096798,0.931361675
31.616722,0.872119904,7.198963165,-24.034465790,0.002219364,0.190797970,0.972011089
31.655046,9.325489044,-6.610240936,-24.888957977,0.023093387,0.243654415,0.914638042
31.693334,1.642688751,-16.734447479,-27.902568817,-0.006325558,0.197267696,0.917811871
31.707641,0.254138947,-22.403087616,-28.085674286,-0.015724972,0.243044063,0.980433941
31.723019,1.657947540,-25.256481171,-27.978862762,-0.027809933,0.258424938,0.993983746
31.777254,1.039966583,-48.045482635,-28.856243134,-0.130226925,0.137209103,1.052089214
31.815643,7.540210724,-68.255752563,-19.357646942,-0.119728878,0.230837032,1.071620464
31.829950,10.080799103,-67.660659790,-19.449199677,-0.101296261,0.236208126,1.023158550
31.845284,9.851917267,-61.534252167,-22.935832977,-0.100441769,0.200929806,0.978602886
31.883614,-1.157299042,-49.441661835,-18.373455048,-0.134499386,0.190553829,0.987391949
31.921898,-0.104442596,-26.477184296,-16.618694305,-0.067116573,0.161501095,0.940272808
31.936214,-4.674449921,-1.757946014,-20.593608856,-0.050759152,0.106569454,0.903529644
31.951570,-8.336559296,11.204395294,-21.402324677,-0.039406613,0.100465938,0.899135113
31.989881,-9.503856659,43.339405060,-26.163066864,-0.044533566,0.067629024,0.916347027
32.028180,-14.722362518,54.470691681,-26.971782684,-0.051857784,0.084963009,0.945888042
32.042481,-13.547435760,54.844532013,-26.864971161,-0.051369503,0.095705196,0.974452496
32.057850,-12.227550507,54.211292267,-26.849712372,-0.050392941,0.093507931,0.986659527
32.096165,-9.046092987,46.948108673,-25.957073212,-0.043923214,0.115480587,0.939540386
32.134462,-8.321300507,32.566699982,-25.735820770,-0.047097042,0.104494259,0.935878277
32.148763,-9.336009979,26.959095001,-25.278057098,-0.046974972,0.115480587,0.951503277
32.164111,-8.702770233,12.753162384,-23.584331512,-0.059304073,0.161134884,0.955409527
32.202436,-1.958385468,-20.251598358,-19.464458466,-0.041237667,0.132936642,0.936976910
32.240734,-7.039562225,-33.801403046,-19.082988739,0.020163700,0.137209103,0.994838238
32.272462,-1.286998749,-30.742015839,-26.704753876,0.083762333,0.195436642,1.049769878
32.286812,-0.569835663,-27.163829803,-29.855693817,0.091818973,0.193361446,1.061244488
32.325041,4.251941681,-18.077220917,-41.704143524,0.010642216,0.193117306,1.066371441
32.363350,-0.081554413,-28.994884491,-39.865459442,-0.026955441,0.119386837,1.114833355
32.377654,-0.112071991,-29.673900604,-39.972270966,-0.015847042,0.115602657,1.134608746
32.393039,1.886829376,-25.378551483,-43.588603973,0.010520145,0.117433712,1.151210308
32.431354,1.429065704,-16.536083221,-48.532451630,-0.056496456,0.085085079,1.109828472
32.469656,-1.607433319,-12.034740448,-44.771160126,-0.030495480,0.056398559,1.078456402
32.483962,-4.048839569,-1.704540253,-46.510662079,0.001731083,0.077760860,1.100795269
32.499329,-3.186717987,5.596790314,-48.120464325,0.017111942,0.111330196,1.090297222
32.537657,1.162036896,32.124195099,-53.407634735,0.045188114,0.111086056,0.974208355
32.575948,-0.752941132,42.515430450,-56.512798309,0.000632450,0.110597774,0.924281597
32.590244,-0.752941132,35.099658966,-54.719890594,-0.031349972,0.090822384,0.945765972
32.605629,-0.546947479,29.049549103,-52.614177704,-0.037453488,0.098390743,0.948939800
32.643936,0.879749298,4.849109650,-50.317729950,0.019553348,0.111696407,0.952357769
32.682236,2.962574005,-12.309398651,-49.554790497,0.031638309,0.142091915,0.958217144
32.696532,3.611072540,-14.415111542,-50.012554169,0.027243778,0.144411251,0.965663433
32.711903,6.258472443,-16.436901093,-50.867046356,0.024314091,0.165651485,0.947108746
32.761746,6.403430939,-24.997081757,-50.615276337,-0.046608761,0.156252071,0.903895855
32.800133,0.978931427,-37.837352753,-47.693218231,-0.084572628,0.197633907,0.917567730
32.814446,0.612720490,-41.049327850,-46.762432098,-0.080544308,0.189211056,0.936244488
32.829808,0.208362579,-47.519054413,-44.939006805,-0.087746456,0.165651485,0.993373394
32.868129,2.016529083,-39.050426483,-43.420757294,-0.010842159,0.177004024,0.992396832
32.906448,-1.035228729,-20.510997772,-49.318279266,-0.031105831,0.152101681,0.985194683
32.920757,-0.936046600,-15.620555878,-49.409832001,-0.089699581,0.130617306,1.009120464
32.936116,0.345691681,-15.834178925,-47.113384247,-0.104225948,0.125490353,1.006679058
32.986198,-1.477733612,-13.385143280,-45.892681122,-0.097512081,0.128175899,0.965907574
33.024632,-0.730052948,1.415882111,-45.808757782,-0.037941769,0.140993282,0.928187847
33.038935,-5.857006073,11.173877716,-50.744976044,-0.085793331,0.088014767,0.880702496
33.054309,-12.601390839,14.408740997,-48.212017059,-0.101662472,0.087038204,0.897792339
33.092653,-7.627025604,15.843067169,-46.632732391,-0.062233761,0.155153438,0.974574566
33.130960,-18.636241913,4.368457794,-42.825664520,-0.124733761,0.061281372,0.940394878
33.145259,-19.032970428,-0.415172577,-39.735759735,-0.111061886,0.117067501,0.984462261
33.160618,-5.109325409,-9.204235077,-39.270366669,-0.108010128,0.155031368,0.999843121
33.198920,-15.515819550,-21.327342987,-35.280193329,-0.134255245,0.003542114,0.883998394
33.237226,-4.598155975,-38.638439178,-29.222454071,-0.130348995,0.118410274,0.934901714
33.251514,-3.316417694,-39.279308319,-28.360332489,-0.110695675,0.069093868,0.899501324
33.266881,-13.204113007,-37.219371796,-29.626811981,-0.099953488,0.018190552,0.913783550
33.305216,-11.601940155,-28.338756561,-26.964153290,-0.102150753,0.168459103,0.999110699
33.343499,-11.487499237,-15.033092499,-30.572856903,-0.075783566,0.066408321,0.931239605
33.357823,-21.764293671,-6.358470917,-29.054607391,-0.054055050,0.083131954,1.030116558
33.373194,-19.376293182,-2.787914276,-30.267681122,-0.029518917,0.124880001,1.064052105
33.411501,-7.810131073,6.855640411,-33.594097137,-0.069557980,0.022585083,1.007533550
33.449829,-11.044994354,14.660511017,-41.589702606,-0.021706417,0.087526485,1.136439800
33.464124,-0.470653534,16.239795685,-42.634929657,-0.038063839,0.116090938,1.105678082
33.479497,1.665576935,15.255603790,-43.725933075,-0.049660519,0.093996212,1.053431988
33.517847,-6.612316132,12.104663849,-48.089946747,-0.026100948,0.073854610,1.167201519
33.568224,-1.187816620,-8.166637421,-38.782085419,-0.062477902,-0.049680542,1.083095074
33.582561,-6.688610077,-9.974803925,-38.728679657,-0.035500363,-0.003904175,1.122889996
33.597900,-3.407970428,-13.446178436,-44.511760712,-0.027321652,0.126466915,1.116786480
33.636245,-0.699535370,-21.960582733,-38.179363251,-0.063332394,0.012575317,0.978969097
33.674538,-8.084789276,-8.876171112,-46.396221161,-0.025734738,0.061403442,1.172938824
33.688849,0.246509552,-4.062023163,-45.602764130,-0.035988644,0.053713012,1.153773785
33.716374,0.116809845,5.497608185,-46.304668427,-0.057106808,-0.067502812,1.058925152
33.754766,-0.051036835,17.689380646,-47.029460907,-0.028542355,0.048341919,1.097865582
33.793072,-1.912609100,21.412525177,-43.367351532,-0.081398800,-0.029294800,1.019496441
33.807373,-3.476634979,20.130786896,-42.184795380,-0.060768917,0.005373169,1.048671246
33.822713,4.663928986,16.880664825,-45.412029266,-0.047463253,0.055299927,1.046840191
33.861059,8.867725372,4.559192657,-40.323223114,-0.114846066,0.025758911,0.945155621
33.899352,5.182727814,-13.064708710,-35.608257294,-0.060524777,0.120363399,1.001674175
33.913653,10.073169708,-20.724620819,-36.752666473,-0.089333370,0.133913204,0.966762066
33.929002,10.393604279,-25.721874237,-34.784282684,-0.107155636,0.132692501,0.934901714
33.967332,2.680286407,-34.335460663,-29.085124969,-0.059670284,0.179567501,0.975917339
34.005649,5.007251740,-30.871715546,-30.199016571,-0.086281613,0.117433712,0.918422222
34.019956,1.200183868,-29.391613007,-28.589214325,-0.085305050,0.106081173,0.928676128
34.035296,-1.950756073,-21.800365448,-28.108562469,-0.044777706,0.131349728,0.992518902
34.073653,4.389270782,1.019153595,-40.742839813,-0.078591183,0.070314571,0.993373394
34.111942,-1.088634491,14.225635529,-35.966838837,-0.060890988,0.075685665,1.075038433
34.126248,3.191455841,17.941150665,-38.110698700,-0.057473019,0.076906368,1.077479839
34.141599,7.120594025,19.863758087,-40.536846161,-0.092018917,0.048341919,1.020350933
34.179933,-2.233043671,4.437122345,-32.113994598,-0.115944698,0.092897579,1.004725933
34.218233,-0.073925018,-3.276195526,-36.027873993,-0.087502316,0.060793091,1.033778667
34.232525,1.612171173,-9.471263885,-37.012065887,-0.134255245,0.034914184,0.962855816
34.247870,-2.316967010,-12.645092010,-33.349956512,-0.158058956,-0.000242066,0.950526714
34.286214,-2.141490936,-12.820568085,-33.029521942,-0.098976925,0.050783325,1.048793316
34.324506,-1.004711151,-8.487071991,-33.884014130,-0.140969113,-0.005735230,0.962611675
34.338825,-3.446117401,-8.021678925,-30.504192352,-0.136818722,0.013185669,0.985805035
34.354173,-0.363842010,-4.496898651,-31.541790009,-0.097023800,0.050905395,0.993861675
34.392475,-2.057567596,-1.124706268,-33.670391083,-0.122048214,0.016603637,0.936610699
34.430765,-2.645030975,2.651844025,-35.837139130,-0.097023800,0.037721802,0.962977886
34.445070,-3.850475311,2.285633087,-36.729778290,-0.120705441,0.016847778,0.956019878
34.460400,-7.741466522,-2.627696991,-33.868755341,-0.119118527,0.001222778,0.976283550
34.498710,-2.355113983,-15.620555878,-31.434978485,-0.113259152,-0.012204956,0.975306988
34.537025,-8.367076874,-17.360057831,-34.555400848,-0.119362667,0.022951294,0.996791363
34.551329,-3.873363495,-19.687023163,-33.418621063,-0.118386105,0.048586059,1.016444683
34.566664,-0.951305389,-20.503368378,-32.785381317,-0.123635128,0.057863403,0.995204449
34.618470,-5.940929413,-18.138256073,-37.507976532,-0.119240597,0.103029415,1.021693707
34.656865,-0.379100800,-17.909374237,-33.800090790,-0.108132198,0.063356563,0.941737652
34.671168,-10.419384003,-13.324108124,-34.761394501,-0.079689816,0.055666137,0.986781597
34.686513,-11.426464081,-11.210765839,-37.324871063,-0.077980831,0.103151485,1.018397808
34.724855,-0.989452362,-10.142650604,-39.865459442,-0.115456417,0.130861446,1.022181988
34.763148,-8.565441132,-11.149730682,-42.238201141,-0.099343136,0.093263790,1.027064800
34.777452,-5.757823944,-15.498485565,-41.192974091,-0.107277706,0.105104610,1.090907574
34.792798,-2.019420624,-16.558971405,-40.910686493,-0.105934933,0.121706173,1.086390972
34.844878,-12.815013885,-3.192272186,-45.022930145,-0.050270870,0.034303833,1.114955425
34.883238,8.371814728,9.113941193,-46.541179657,-0.094704464,0.056642700,1.061122417
34.897530,-0.752941132,13.096485138,-46.136821747,-0.104592159,-0.034421753,1.025599957
34.912883,-6.810680389,11.067066193,-43.352092743,-0.103493527,-0.010251831,1.056117535
34.951220,8.097156525,-0.888195038,-35.440410614,-0.109230831,0.064088985,1.063563824
34.989497,-6.177440643,-8.494701385,-32.869304657,-0.073464230,-0.030271363,1.056239605
35.003830,-4.689708710,-9.578075409,-32.472576141,-0.065529659,0.022340942,1.074550152
35.019171,4.633411407,-12.095775604,-33.601726532,-0.081276730,0.014406372,1.076747417
35.057472,-0.073925018,-8.586254120,-27.475322723,-0.075051144,-0.040159058,1.039882183
35.095759,10.340198517,-10.012950897,-25.590862274,-0.095803097,0.050539184,1.045497417
35.110077,12.423023224,-10.722484589,-23.096050262,-0.089699581,0.037843872,0.997035503
35.125417,5.457386017,-13.583507538,-20.837749481,-0.066994503,0.025392700,0.904994488
35.163722,1.024707794,-19.198741913,-17.717327118,-0.046120480,0.093630001,0.950770855
35.202047,1.505359650,-20.526256561,-13.696636200,-0.055275753,0.028200317,0.906337261
35.216343,-4.842296600,-16.879405975,-12.353862762,-0.045265988,0.038698364,0.982264996
35.231688,-2.339855194,-14.994945526,-12.674297333,-0.040016964,0.077028438,0.991542339
35.270035,3.679737091,-9.570446014,-9.828533173,-0.017556027,0.040773559,0.902064800
35.308314,-4.331127167,16.659412384,-17.045940399,0.030173466,0.068727657,0.999721050
35.322627,-1.225963593,20.008716583,-18.739665985,0.002219364,0.079225704,1.011195660
35.337999,5.510791779,16.003284454,-16.908611298,-0.063088253,0.075319454,0.949794292
35.376303,-2.202526093,-4.145946503,-11.041606903,-0.046486691,0.041505981,0.952846050
35.414609,5.465015411,-16.436901093,-4.632915497,-0.127175167,0.096315548,0.971522808
35.428918,5.419239044,-18.031444550,-3.511394501,-0.115944698,0.097414181,0.945399761
35.444259,-1.698986053,-17.260875702,-2.519573212,-0.112160519,0.052004028,0.985438824
35.496487,7.082447052,11.547718048,-5.899394989,-0.042946652,0.114870235,0.889735699
35.534876,-10.129467010,27.622852325,-7.074321747,-0.059182003,0.082643673,1.004725933
35.549170,-7.611766815,24.708423615,-10.560955048,-0.083596066,0.081422970,1.066493511
35.564529,2.573474884,19.978199005,-4.808391571,-0.109230831,0.114381954,1.069545269
35.602859,-0.363842010,30.651721954,-6.799663544,-0.063942745,0.077516720,1.076137066
35.641161,1.863941193,25.929126740,-10.827983856,-0.145485714,0.117799923,1.027431011
35.655466,5.548938751,13.310108185,-4.457439423,-0.152199581,0.117555782,0.969081402
35.670819,4.358753204,4.604969025,-3.519023895,-0.168557003,0.085695431,0.942836285
35.709130,-5.582347870,-19.046154022,1.714740753,-0.088356808,0.093019649,1.045985699
35.747430,4.984363556,9.297046661,-3.274883270,-0.079201534,0.134523556,0.984828472
35.761720,-1.401439667,20.283374786,-1.848186493,-0.084450558,0.099733517,1.026698589
35.777062,-2.049938202,21.877918243,-4.434551239,-0.084694698,0.133669063,1.025233746
35.815371,9.737476349,7.313404083,-4.960979462,-0.165749386,0.162477657,0.938441753
35.853653,-5.574718475,-3.817882538,0.196491241,-0.100807980,0.129518673,1.011683941
35.867945,-4.003063202,-5.015697479,-4.800762177,-0.095192745,0.165529415,1.020473003
35.883273,4.175647736,-10.112133026,-6.776775360,-0.150246456,0.167482540,0.997279644
35.921598,-4.979625702,-11.027660370,-0.528301239,-0.114235714,0.102907345,1.037440777
35.959878,6.075366974,1.766834259,-10.019268036,-0.183937863,0.112550899,0.932094097
35.974166,2.138599396,2.827320099,-6.288494110,-0.180886105,0.073244259,0.941737652
35.989481,-4.758373260,10.128650665,-5.556072235,-0.137429073,0.103639767,0.990809917
36.027818,5.640491486,21.458301544,-13.284648895,-0.126686886,0.188112423,0.988124371
36.066122,-3.888622284,20.702991486,-7.440532684,-0.162331417,0.099855587,1.017421246
36.080436,0.330432892,16.895923615,-10.148967743,-0.143898800,0.153810665,1.038539410
36.109940,8.738025665,8.770618439,-8.760417938,-0.164162472,0.084352657,0.950770855
36.148294,-3.163829803,0.782642365,-9.248699188,-0.117409542,0.100465938,1.003871441
36.186606,6.304248810,-9.906139374,-12.948955536,-0.177834347,0.080568478,0.909755230
36.200914,-7.611766815,-10.745372772,-8.943523407,-0.172463253,0.000246216,0.997279644
36.216264,-10.892406464,-10.043468475,-10.354961395,-0.151833370,0.046144653,1.038295269
36.254579,9.989246368,4.955921173,-15.146221161,-0.153176144,0.130861446,0.990809917
36.292872,-3.980175018,8.434925079,-9.530986786,-0.146950558,0.140505001,1.025599957
36.307161,0.498279572,8.198413849,-11.095012665,-0.163918331,0.159547970,1.043300152
36.322499,11.225208282,7.870349884,-9.538616180,-0.165871456,0.172731563,0.992640972
36.378369,1.490100861,7.427845001,-8.279766083,-0.140969113,0.124757931,1.063563824
36.416722,12.735828400,13.035449982,-11.659587860,-0.140480831,0.140627071,0.912929058
36.431027,-0.051036835,11.494312286,-7.760967255,-0.186379269,0.022951294,0.970057964
36.446377,-4.872814178,8.907947540,-6.799663544,-0.143044308,0.065309688,1.012660503
36.484687,13.460620880,3.201160431,-8.111919403,-0.156960323,0.136598751,0.984706402
36.523000,-4.376903534,8.259449005,-5.594219208,-0.149636105,0.090456173,0.967616558
36.537281,0.681385040,4.254016876,-9.790386200,-0.159890011,0.121950313,1.035487652
36.552596,4.946216583,3.796253204,-7.661785126,-0.157326534,0.121095821,1.040370464
36.590895,-0.737682343,8.389148712,-3.641094208,-0.181130245,0.026247192,0.963954449
36.629197,5.350574493,4.643115997,-8.592571259,-0.168801144,0.125246212,0.962123394
36.643473,6.044849396,1.515064240,-7.692302704,-0.187233761,0.122072384,0.940516949
36.658791,1.413806915,-5.473461151,-4.610027313,-0.196755245,0.091310665,0.920497417
36.697080,-2.721324921,-21.144237518,-7.249797821,-0.123513058,0.124880001,1.032435894
36.735375,5.259021759,-33.061351776,-5.685771942,-0.138161495,0.083864376,0.927943707
36.749668,1.238330841,-35.754528046,-4.602397919,-0.136208370,0.049440552,0.952235699
36.765002,-5.795970917,-39.241161346,-3.236736298,-0.097267941,0.087648556,0.999476910
36.803325,-0.943675995,-36.586132050,-7.280315399,-0.084450558,0.149660274,1.060634136
36.841637,2.542957306,-34.602489471,-3.267253876,-0.098488644,0.084718868,1.009852886
36.855940,0.666126251,-34.999217987,-6.051982880,-0.072487667,0.129762813,0.995448589
36.871285,1.978382111,-35.846080780,-8.752788544,-0.074562863,0.147463009,0.984706402
36.909620,-0.119701385,-39.370861053,-2.702678680,-0.093849972,0.112306759,0.983607769
36.947911,1.574024200,-30.291881561,-7.669414520,-0.057839230,0.127321407,1.014979839
36.962211,2.184375763,-28.056468964,-8.172954559,-0.082741573,0.126711056,0.995204449
36.977568,1.848682404,-25.019969940,-3.839458466,-0.096169308,0.104005978,0.987880230
37.015886,1.169666290,-6.068553925,-5.449260712,-0.028298214,0.130861446,1.026454449
37.054187,-1.134410858,12.325916290,-5.723918915,-0.049416378,0.102785274,0.964564800
37.068476,-3.835216522,15.408191681,-5.098308563,-0.028176144,0.131105587,0.983119488
37.083819,0.071033478,19.802722931,-8.516277313,-0.026711300,0.160280392,1.004359722
37.122145,4.625782013,18.925342560,-10.118450165,-0.058937863,0.118410274,0.941371441
37.160445,-6.101146698,10.555896759,-4.686321259,-0.022438839,0.134645626,1.012660503
37.174736,1.139148712,9.915027618,-7.562602997,-0.025734738,0.154909298,1.026454449
37.190065,3.939136505,9.220752716,-8.218730927,-0.031838253,0.139162228,1.002284527
37.246132,0.895008087,-0.720348358,-4.960979462,-0.024758175,0.153322384,1.028407574
37.284491,-3.201976776,-4.397716522,-5.357707977,-0.058693722,0.092409298,0.954799175
37.298793,-7.703319550,-4.977550507,-3.000225067,-0.045754269,0.110231563,0.988734722
37.314128,-4.643932343,-4.733409882,-6.525005341,-0.009499386,0.152101681,1.059291363
37.352467,5.495532990,-3.230419159,-9.744609833,-0.061257198,0.115602657,0.978358746
37.390735,-3.819957733,-1.849498749,-5.136455536,-0.047951534,0.110597774,1.006801128
37.405022,0.795825958,2.262744904,-10.744060516,-0.030739620,0.150636837,1.031581402
37.436281,4.244312286,4.833850861,-11.476482391,-0.082009152,0.123781368,0.960048199
37.474672,-2.072826385,2.606067657,-9.515727997,-0.058937863,0.140016720,1.007289410
37.512946,4.419788361,-4.382457733,-11.575664520,-0.086891964,0.141115353,0.972011089
37.527249,3.900989532,-5.275096893,-9.744609833,-0.095192745,0.120241329,0.950404644
37.542605,-2.881542206,-5.198802948,-6.227458954,-0.059304073,0.107668087,0.973475933
37.580911,3.107532501,-6.388988495,-9.866680145,-0.081398800,0.133791134,0.996913433
37.619204,-3.003612518,-6.480541229,-9.981121063,-0.067848995,0.097536251,0.962733746
37.633489,-2.919689178,-1.475658417,-9.523357391,-0.016823605,0.156374142,0.998866558
37.648843,-0.218883514,1.454029083,-12.659038544,-0.010598019,0.153200313,1.007289410
37.687163,-0.264659882,5.535755157,-11.865581512,-0.067116573,0.112672970,0.983973980
37.725450,1.757129669,0.797901154,-15.405620575,-0.050515011,0.146608517,1.022792339
37.739748,5.060657501,-6.511058807,-13.315166473,-0.081154659,0.132204220,0.973475933
37.755107,3.336414337,-10.234203339,-11.934246063,-0.097512081,0.125246212,0.936244488
37.793460,-2.210155487,-12.347545624,-9.973491669,-0.031594113,0.167848751,1.008998394
37.831750,2.703174591,-7.220592499,-12.712444305,-0.088356808,0.148805782,0.965053082
37.846050,1.390918732,-5.282726288,-10.377849579,-0.100441769,0.129640743,0.964198589
37.861406,-3.140941620,0.599536896,-7.196392059,-0.052468136,0.132814571,1.009608746
37.899720,3.908618927,-3.260936737,-9.988750458,-0.075173214,0.147218868,0.958217144
37.938035,-3.034130096,-6.633129120,-5.968059540,-0.071999386,0.115114376,0.951625347
37.952334,-1.798168182,-4.901256561,-7.890666962,-0.039162472,0.158815548,0.975673199
37.967679,-0.119701385,-3.917064667,-9.546245575,-0.040261105,0.143678829,0.980067730
38.006018,-2.248302460,-2.078380585,-8.233989716,-0.080910519,0.126466915,0.997279644
38.062544,-0.234142303,0.729236603,-9.828533173,-0.077492550,0.145021603,0.976405621
38.076882,-1.065746307,-0.254955292,-9.622539520,-0.087380245,0.137209103,0.979457378
38.092229,-2.904430389,-1.643505096,-5.746807098,-0.096291378,0.128786251,1.005336285
38.130551,2.710803986,2.247486115,-9.035076141,-0.072609738,0.163210079,1.005824566
38.168848,-4.460826874,3.460559845,-4.373516083,-0.056618527,0.123537228,1.004237652
38.183132,-4.018321991,2.270374298,-5.899394989,-0.057106808,0.148073360,1.023280621
38.198471,-0.287548065,-0.995006561,-6.593669891,-0.061989620,0.151491329,1.054408550
38.236762,1.291736603,-1.292552948,-3.084148407,-0.108254269,0.109621212,0.953212261
38.275042,1.146778107,-0.109996796,-4.884685516,-0.050148800,0.177736446,0.976527691
38.289327,1.680835724,-1.605358124,-3.023113251,-0.064431027,0.109499142,0.950160503
38.304621,-1.622692108,-1.796092987,-2.771343231,-0.051979855,0.104005978,0.962733746
38.342935,1.261219025,-7.731761932,-0.352825165,-0.063820675,0.155763790,0.989833355
38.381222,1.970752716,-3.352489471,-1.680339813,-0.073098019,0.148927853,0.954432964
38.395506,1.574024200,-3.871288300,-0.513042450,-0.077370480,0.132082149,0.950404644
38.410827,-2.301708221,-5.847301483,1.234088898,-0.064675167,0.105348751,0.980067730
38.449153,1.627429962,-3.970470428,-4.716838837,-0.062111691,0.171510860,0.977992535
38.487430,-3.079906464,4.604969025,1.012836456,-0.045876339,0.112306759,0.934657574
38.501719,-4.125133514,7.145557404,-1.008953094,-0.038063839,0.134645626,0.954921246
38.517045,-0.508800507,8.221302032,-2.748455048,-0.066628292,0.146486446,0.954066753
38.555374,-8.313671112,-2.078380585,1.325641632,-0.071144894,0.167116329,1.008143902
38.593650,1.635059357,0.981006622,1.760517120,-0.037209347,0.181886837,1.009364605
38.607942,2.245410919,5.955371857,-1.146282196,-0.045510128,0.134035274,0.946010113
38.623260,-1.264110565,5.665454865,-0.101055145,-0.061745480,0.115602657,0.945033550
38.661573,0.147327423,8.122119904,-0.787700653,-0.042336300,0.172609493,1.032802105
38.699856,-2.492443085,19.772205353,-0.574077606,-0.048317745,0.083131954,0.951503277
38.714150,-6.276622772,22.358570099,-1.893962860,-0.027443722,0.163698360,1.005458355
38.741049,1.329883575,24.471912384,-3.969158173,-0.027077511,0.177980587,0.996669292
38.779490,-7.741466522,21.008167267,-3.854717255,-0.044777706,0.117555782,0.974940777
38.831824,3.130420685,4.269275665,-1.985515594,-0.048439816,0.155885860,0.989223003
38.846150,-0.386730194,-3.634777069,-1.306499481,-0.060768917,0.115968868,0.949061871
38.861496,-4.552379608,-7.602062225,-0.108684540,-0.062111691,0.110963985,0.959559917
38.899846,1.245960236,-16.894664764,1.386676788,-0.044289425,0.186891720,0.994105816
38.938135,-8.122936249,-14.033641815,0.951801300,-0.047097042,0.106569454,0.962611675
38.952447,-7.077709198,-10.730113983,0.448261261,-0.039162472,0.158815548,1.017543316
38.967807,-2.858654022,-7.953014374,-0.551189423,-0.026711300,0.164308712,1.018641949
39.006132,-7.382884979,3.002796173,-3.770793915,-0.046120480,0.074953243,1.004237652
39.044438,0.849231720,12.341175079,-7.211650848,-0.041481808,0.108400509,1.015223980
39.058732,1.451953888,14.500293732,-8.974040985,-0.036598995,0.097658321,0.987880230
39.074091,-4.834667206,14.202747345,-8.546794891,-0.062233761,0.090212032,0.975795269
39.112445,1.612171173,6.451282501,-10.072673798,-0.075051144,0.174562618,1.024257183
39.150721,-3.873363495,5.978260040,-7.341350555,-0.079567745,0.043092895,0.959804058
39.165021,-10.289684296,7.511768341,-11.644329071,-0.061013058,0.109377071,1.030116558
39.180375,-6.032482147,5.825672150,-12.590373993,-0.091164425,0.162843868,1.044520855
39.218697,3.427967072,0.134143829,-10.919536591,-0.083473995,0.156618282,0.880092144
39.257016,-7.596508026,-16.948070526,-9.042705536,-0.130959347,0.242555782,0.964198589
39.271323,-0.493541718,-27.003612518,-3.038372040,-0.113015011,0.227907345,0.954555035
39.286660,-0.478282928,-28.582897186,-2.748455048,-0.088600948,0.201296017,0.915004253
39.324995,-10.854259491,-27.148571014,-9.202922821,-0.037697628,0.191530392,0.979823589
39.363277,-8.405223846,-28.369274139,-8.607830048,-0.068093136,0.099245235,0.909755230
39.377599,-13.730541229,-24.607982635,-8.951152802,-0.033669308,0.066774532,0.963222027
39.392973,-14.600292206,-13.179149628,-18.457378387,-0.004616573,0.117067501,1.045009136
39.431292,-2.057567596,6.329212189,-28.512920380,-0.066628292,0.056032348,1.009120464
39.469585,-5.170360565,17.864856720,-32.815898895,-0.060036495,0.104982540,1.050868511
39.483901,-2.507701874,18.917713165,-35.356487274,-0.088112667,0.090944454,1.063197613
39.499253,2.512439728,14.050159454,-31.114543915,-0.121804073,0.113039181,1.012172222
39.537578,-1.630321503,4.612598419,-28.749431610,-0.116310909,0.049928833,0.967128277
39.575864,-3.964916229,-9.982433319,-29.802288055,-0.151223019,0.105714962,1.012050152
39.603369,0.208362579,-20.053234100,-25.331462860,-0.126564816,0.018800903,0.962611675
39.617709,-3.362194061,-20.549144745,-24.156536102,-0.105324581,0.005251098,0.978602886
39.655938,-1.462474823,-14.636363983,-32.045330048,-0.073586300,0.087892696,1.010463238
39.694235,-8.656993866,-10.615673065,-30.321086884,-0.046974972,-0.015744995,1.013270855
39.708534,-8.374706268,-0.293102264,-37.012065887,-0.045754269,0.007936645,1.075282574
39.723874,-5.170360565,5.146656036,-38.797344208,-0.059182003,0.015871216,1.073085308
39.762210,-3.896251678,19.741687775,-36.218608856,-0.058205441,-0.027585816,1.043666363
39.800495,-2.324596405,22.640857697,-40.910686493,-0.092629269,0.046632934,1.078822613
39.814824,0.574573517,20.039234161,-38.743938446,-0.102516964,0.069215938,1.056361675
39.830199,0.689014435,11.547718048,-33.510173798,-0.124489620,0.002809692,1.025111675
39.868517,-4.895702362,1.309070587,-31.953777313,-0.073708370,0.036134887,1.154506207
39.906833,1.299365997,-6.190624237,-22.623027802,-0.107643917,-0.031980347,1.074061871
39.921134,-4.140392303,-5.427684784,-21.242107391,-0.084694698,-0.033689331,1.101039410
39.936485,-6.101146698,-3.718700409,-23.012126923,-0.063454464,0.011598755,1.145961285
39.974835,6.899341583,-2.795543671,-22.180522919,-0.120095089,0.071413204,1.071742535
40.013125,0.643238068,-0.018444061,-19.639934540,-0.081642941,0.101320431,1.113612652
40.042863,9.386524200,-0.315990448,-16.473735809,-0.132302120,0.113649532,1.070888042
40.057205,6.029590607,-4.420604706,-12.269939423,-0.135353878,0.054811645,1.040126324
40.095446,4.976734161,-4.611339569,-12.514080048,-0.091774777,0.100954220,1.109096050
40.133722,15.360340118,-19.900646210,-4.281963348,-0.132180050,0.103151485,1.023280621
40.148025,9.386524200,-21.930065155,-1.275981903,-0.107521847,0.045168091,1.026454449
40.163373,5.991443634,-20.411815643,-0.978435516,-0.088723019,0.058717895,1.063441753
40.201697,12.857898712,-12.057628632,-4.762615204,-0.124977902,0.093630001,1.098353863
40.240017,12.461170197,-2.658214569,-1.565898895,-0.073342159,0.078493282,1.041347027
40.254316,11.850818634,1.324329376,-4.938091278,-0.058937863,0.114137813,1.030482769
40.269669,13.712390900,4.017505646,-7.127727509,-0.115822628,0.093385860,1.025355816
40.308001,11.682971954,15.453968048,-3.381694794,-0.073586300,0.054079223,0.943812847
40.346295,11.339649200,27.973804474,-10.316814423,-0.074929073,0.129030392,0.970668316
40.375318,10.179981232,24.014148712,-9.477581024,-0.094704464,0.067873165,0.882411480
40.389643,5.335315704,20.779285431,-7.036174774,-0.106911495,0.038576294,0.909999371
40.427876,4.686817169,6.970081329,-12.208904266,-0.129006222,0.063112423,0.955165386
40.466165,4.663928986,-12.355175018,-2.183879852,-0.119973019,0.069704220,0.905604839
40.480464,2.848133087,-13.659801483,-2.138103485,-0.119728878,0.074464962,0.917689800
40.495797,4.488452911,-13.057079315,-2.405132294,-0.105202511,0.152223751,0.904872417
40.534139,0.795825958,-13.057079315,-0.146831512,-0.151345089,0.188478634,0.912562847
40.572439,5.136951447,-7.647838593,-1.069988251,-0.091652706,0.193849728,0.915614605
40.586726,3.626331329,-4.138317108,-6.235088348,-0.118386105,0.158693478,0.863856792
40.602053,-1.111522675,-6.984081268,-4.533733368,-0.148659542,0.140627071,0.893764019
40.640385,4.534229279,-20.366039276,4.140888214,-0.118996456,0.225465938,0.928187847
40.678667,-4.292980194,-14.125194550,6.856952667,-0.095558956,0.142702267,0.869349957
40.692969,-6.711498260,-9.608592987,5.483661652,-0.090187863,0.244386837,0.928431988
40.708306,-3.118053436,-6.854381561,5.537067413,-0.083718136,0.249880001,0.941859722
40.746651,-2.530590057,4.215869904,4.949604034,-0.071511105,0.133913204,0.871547222
40.784929,-3.850475311,16.369495392,1.760517120,-0.065773800,0.154543087,0.939052105
40.799220,-1.660839081,19.467029572,3.103290558,-0.047463253,0.133913204,0.916591167
40.814575,-4.659191132,23.899707794,-1.398052216,-0.045021847,0.133791134,0.915126324
40.852907,-5.857006073,19.123706818,-2.595867157,-0.073830441,0.114626095,0.904628277
40.891215,-7.764354706,2.041492462,1.256977081,-0.090920284,0.176637813,0.934291363
40.905497,-7.009044647,0.500354767,1.279865265,-0.087258175,0.168092892,0.939174175
40.920838,-7.596508026,-0.377025604,0.921283722,-0.084938839,0.152223751,0.934535503
40.959167,-11.540904999,-8.769359589,1.691852570,-0.114846066,0.166750118,1.007533550
40.997452,-6.604686737,-12.080516815,2.615009308,-0.104348019,0.138796017,0.985682964
41.011746,-11.640087128,-12.538280487,2.660785675,-0.120827511,0.116213009,1.024501324
41.027091,-12.120738983,-14.216747284,4.194293976,-0.114113644,0.136720821,1.048915386
41.065447,-3.057018280,-11.348094940,6.658588409,-0.089943722,0.137819454,1.055873394
41.103734,-8.122936249,-4.428234100,3.713642120,-0.079811886,0.106203243,1.064906597
41.118031,-7.588878632,-5.099620819,3.850971222,-0.090554073,0.138673946,1.082728863
41.147133,1.337512970,-6.915416718,7.299457550,-0.059304073,0.141725704,1.073207378
41.185555,-3.255382538,1.339588165,3.110919952,-0.068947628,0.140260860,1.063319683
41.223851,3.839954376,1.949939728,3.988300323,-0.061623409,0.140382931,1.096156597
41.238134,4.724964142,4.017505646,3.934894562,-0.057106808,0.128542110,1.078944683
41.253474,4.389270782,6.642017365,3.614459991,-0.052101925,0.133791134,1.060878277
41.291795,6.151660919,9.457263947,1.531635284,-0.054909542,0.136720821,1.028895855
41.330080,6.884082794,5.848560333,2.637897491,-0.053688839,0.155519649,0.982997417
41.344361,6.914600372,4.620227814,2.683673859,-0.051613644,0.148195431,0.970302105
41.375842,4.343494415,1.560840607,2.912555695,-0.046974972,0.135622188,0.963466167
41.414261,4.244312286,3.857288361,1.096759796,-0.041725948,0.168214962,0.927943707
41.452538,0.620349884,0.034961700,-0.894512177,-0.059548214,0.167482540,0.906337261
41.466829,0.895008087,-2.353038788,-0.467266083,-0.068825558,0.169435665,0.898158550
41.482176,-0.409618378,-4.100170135,0.150714874,-0.072975948,0.134889767,0.900233746
41.520493,-2.179637909,-3.627147675,-0.131572723,-0.090432003,0.169435665,0.921596050
41.558783,-2.805248260,-4.062023163,0.791584015,-0.089333370,0.176149532,0.940272808
41.573092,-1.340404510,-4.031505585,0.837360382,-0.092385128,0.185793087,0.933558941
41.588417,-1.073375702,-4.817333221,0.379596710,-0.100807980,0.152345821,0.907557964
41.626746,-4.201427460,-9.272899628,2.386127472,-0.106423214,0.133058712,0.908412457
41.665034,-6.459728241,-7.403697968,3.408466339,-0.071144894,0.128786251,0.905482769
41.679334,-9.030834198,-7.876720428,2.965961456,-0.071389034,0.126955196,0.937709332
41.694645,-8.977428436,-8.609142303,3.286396027,-0.065773800,0.146730587,0.957362652
41.732980,-4.796520233,-10.333385468,6.010089874,-0.077614620,0.162477657,0.955653667
41.771255,-5.124584198,-0.621166229,4.957233429,-0.057595089,0.175905392,0.960170269
41.785554,-5.177989960,0.218067169,5.407367706,-0.047097042,0.177126095,0.966273785
41.800889,-5.857006073,2.400074005,6.063495636,-0.031105831,0.188966915,0.973475933
41.839233,-7.504955292,13.844165802,4.056964874,0.009543583,0.187257931,0.977015972
41.877506,-9.419933319,24.120960236,-0.093425751,-0.005226925,0.211916134,1.022914410
41.891830,-7.787242889,23.960742950,-1.062358856,-0.016335323,0.217897579,1.029628277
41.921357,-2.721324921,18.513355255,0.867877960,-0.031227902,0.169069454,0.993861675
41.959778,-9.198680878,3.315601349,3.149066925,-0.056496456,0.169191524,1.036098003
41.998064,-0.096813202,-5.969371796,4.644428253,-0.056252316,0.190553829,1.006801128
42.012351,-0.058666229,-6.511058807,5.094562531,-0.044167355,0.172853634,0.993739605
42.027649,-3.690258026,-8.891429901,3.149066925,-0.062355831,0.150148556,0.986903667
42.065958,0.444873810,-14.453258514,7.413898468,-0.050515011,0.207887813,1.025966167
42.104241,0.078662872,-6.511058807,5.842243195,-0.019997433,0.207765743,0.997401714
42.118519,0.689014435,-4.565563202,5.765949249,-0.019631222,0.220461056,0.996181011
42.133836,1.604541779,-2.803173065,5.666767120,-0.017067745,0.220827267,0.993007183
42.172170,1.741870880,5.764636993,5.613361359,0.003073856,0.216188595,0.981654644
42.210457,-3.789440155,12.249622345,1.966510773,-0.002053097,0.196779415,0.983485699
42.224744,-4.231945038,11.089954376,1.783405304,-0.005348995,0.212404415,1.032924175
42.240089,-2.118602753,10.464344025,2.065692902,-0.009011105,0.218141720,1.051845074
42.278445,-0.264659882,3.033313751,0.906024933,-0.033669308,0.137453243,1.047572613
42.316722,1.825794220,-6.572093964,4.514728546,-0.054665402,0.197023556,1.085292339
42.331015,4.335865021,-7.235851288,4.392658234,-0.044167355,0.177492306,1.076991558
42.346343,2.016529083,-5.671825409,2.599750519,-0.038185909,0.141237423,1.065028667
42.384681,3.199085236,-2.429332733,3.660236359,-0.063088253,0.139528438,1.089564800
42.422973,-3.964916229,5.093250275,-0.284160614,-0.055519894,0.151979610,1.113490582
42.437257,-2.500072479,7.107410431,0.646625519,-0.062844113,0.160768673,1.140468121
42.452589,4.419788361,12.966785431,3.561054230,-0.044533566,0.084474728,1.203822613
42.490915,11.690601349,35.267505646,-8.340801239,0.019797489,0.092897579,1.152186871
42.529231,20.937427521,32.642993927,-5.830730438,-0.081642941,0.134767696,1.054530621
42.543522,28.223499298,21.336231232,-4.732097626,-0.077858761,0.092043087,0.974208355
42.558874,28.215869904,15.507373810,-4.281963348,-0.070900753,0.085451290,0.896571636
42.597215,12.056812286,-25.103893280,5.353961945,-0.181130245,0.142458126,0.829188824
42.635505,10.828479767,-34.938182831,-5.464519501,-0.084694698,0.159914181,0.803798199
42.649823,8.287891388,-36.685314178,-4.098857880,-0.139992550,0.183839962,0.794032574
42.682839,4.412158966,-31.886425018,2.065692902,-0.055764034,0.210207149,0.855800152
42.737007,-3.926769257,-12.683238983,-0.116313934,-0.129494503,0.176759884,0.823573589
42.775398,3.862842560,6.916675568,-3.976787567,-0.047463253,0.190920040,0.823329449
42.789674,-0.272289276,9.747180939,-6.990398407,-0.082863644,0.116335079,0.818568707
42.805001,-12.937084198,10.655078888,-0.947917938,-0.099343136,0.133180782,0.909144878
42.843339,4.427417755,10.929737091,-2.778972626,-0.061135128,0.247438595,0.934657574
42.881646,-14.768138885,6.367359161,-0.596965790,-0.081765011,0.128420040,0.998134136
42.895937,-12.982860565,5.703601837,-0.009502411,-0.067604855,0.178468868,1.049647808
42.911269,0.231250763,11.295948029,-3.679241180,-0.054665402,0.204347774,1.018886089
42.949590,-15.363231659,8.091602325,-4.175151825,-0.061867550,0.112062618,1.060756207
42.987890,0.315174103,-0.415172577,-5.014385223,-0.075539425,0.222536251,1.032313824
43.002178,0.421985626,-4.985179901,-5.197490692,-0.091652706,0.065797970,0.928309917
43.017509,-9.206310272,-6.884899139,-3.107036591,-0.073098019,0.015382934,0.960414410
43.055850,-12.311473846,-6.610240936,-1.611675262,-0.097512081,0.155885860,1.080653667
43.094143,-6.162181854,-4.939403534,1.394306183,-0.094094113,-0.000119995,0.995204449
43.108436,-9.297863007,-4.176464081,3.217731476,-0.012673214,0.024538208,1.051845074
43.139663,-3.461376190,7.107410431,1.447711945,-0.037331417,0.032106567,1.056239605
43.178090,-17.171398163,17.399463654,-4.991497040,-0.053444698,0.059572387,1.141322613
43.216421,8.059009552,13.546619415,-4.045452118,-0.060402706,0.195070431,1.122645855
43.230720,13.437732697,8.518848419,-6.860698700,-0.101296261,0.097292110,0.975551128
43.246103,7.982715607,4.429492950,-0.207866669,-0.099221066,0.057130981,0.965785503
43.284418,4.137500763,-11.073436737,4.293476105,-0.053932980,0.181032345,1.047206402
43.322710,2.893909454,-14.293041229,4.751239777,-0.055519894,0.033205200,0.953212261
43.337020,-5.200878143,-7.922496796,2.027545929,-0.008644894,0.119630978,1.044887066
43.352381,-1.180187225,-3.970470428,-1.619304657,-0.024514034,0.178835079,1.061000347
43.390673,8.722766876,3.681812286,-2.397502899,-0.066750363,0.119020626,0.944789410
43.428945,0.376209259,6.428394318,-4.144634247,-0.030007198,0.195192501,1.035365582
43.443238,3.962024689,5.688343048,-4.610027313,-0.061013058,0.209352657,1.034999371
43.458594,8.577808380,1.248035431,-0.230754852,-0.079079464,0.180666134,0.989589214
43.496889,0.345691681,4.086170197,0.364337921,-0.030983761,0.131349728,1.056483746
43.535184,6.769641876,2.041492462,-1.207317352,-0.073952511,0.170290157,1.044520855
43.549473,7.738574982,2.842578888,1.279865265,-0.085060909,0.096803829,1.023890972
43.564822,5.945667267,4.261646271,1.905475616,-0.057106808,0.081056759,1.008388042
43.603124,1.024707794,-4.893627167,0.524555206,-0.107765988,0.109255001,1.033290386
43.641430,2.161487579,-12.530651093,7.146869659,-0.087258175,0.057741333,0.922206402
43.673078,-7.337108612,-7.006969452,1.989398956,-0.082253292,0.079347774,0.956019878
43.687410,-3.110424042,-4.634227753,4.377399445,-0.097267941,0.100832149,0.946132183
43.725615,-7.482067108,-1.101818085,5.109821320,-0.076393917,0.066408321,0.879970074
43.763888,-9.358898163,-1.139965057,2.859149933,-0.057473019,0.121706173,0.911830425
43.778164,-3.713146210,-2.444591522,2.271686554,-0.074929073,0.139528438,0.871913433
43.793498,-2.919689178,-3.733959198,3.423725128,-0.079323605,0.111452267,0.839931011
43.831821,-18.247142792,-3.947582245,6.681476593,-0.062844113,0.079836056,0.930995464
43.870119,-2.637401581,5.680713654,4.003559113,-0.029763058,0.074464962,0.943080425
43.884423,-9.908214569,7.717761993,2.355609894,-0.037819698,0.046022583,0.944911480
43.899784,-13.326183319,8.526477814,3.240619659,-0.031838253,0.072755978,0.987758160
43.938093,0.841602325,9.998950958,1.195941925,-0.023903683,0.135133907,1.009486675
43.976402,-9.236827850,3.178272247,2.080951691,-0.056130245,0.114748165,1.059901714
43.990684,-6.108776093,3.315601349,2.920185089,-0.037575558,0.150758907,1.089931011
44.017635,3.366931915,3.330860138,-5.838359833,-0.034523800,0.073488399,1.060756207
44.056018,-7.199779510,-18.420543671,10.503803253,-0.083718136,0.078371212,1.164638042
44.094329,7.349475861,-9.715404510,-0.116313934,-0.023049191,0.027834106,1.122523785
44.108631,2.787097931,-6.930675507,0.875507355,-0.016701534,-0.003782105,1.131679058
44.124005,-2.683177948,-1.933422089,-0.169719696,0.023947880,0.056032348,1.223964214
44.162293,11.293872833,0.668201447,-9.584392548,-0.027443722,0.087770626,1.046840191
44.200609,-5.338207245,-15.857067108,4.064594269,-0.107643917,0.083254024,1.066127300
44.214912,2.428516388,-19.755687714,6.483112335,-0.051003292,0.157472774,1.093471050
44.230279,9.928211212,-17.955150604,4.720722198,-0.035134152,0.120241329,1.056849957
44.268606,-4.804149628,-12.385692596,2.424274445,-0.116921261,-0.020261597,0.975917339
44.306899,6.662830353,2.735767365,0.204120636,-0.012429073,0.079713985,1.029017925
44.321211,8.249744415,7.473621368,-0.963176727,-0.028176144,0.046755005,0.990931988
44.336570,3.489002228,11.356983185,-1.886333466,-0.055153683,0.076662228,0.917567730
44.374886,3.183826447,17.353687286,-0.604595184,0.016989872,0.112795040,0.952601910
44.413195,6.334766388,14.423999786,-1.306499481,-0.076760128,0.110963985,0.863978863
44.427494,4.435047150,11.112842560,2.264057159,-0.067971066,0.099245235,0.875331402
44.442877,4.007801056,8.602771759,3.675495148,-0.000222042,0.105470821,0.900355816
44.481184,0.315174103,2.194080353,-0.337566376,-0.083718136,0.110963985,0.862636089
44.519465,-0.920787811,1.392993927,3.004108429,-0.018166378,0.194826290,0.905971050
44.533761,2.268299103,4.170093536,-1.466716766,-0.023781613,0.184328243,0.909755230
44.549112,1.665576935,2.880725861,-2.702678680,-0.038674191,0.170778438,0.904017925
44.587450,-4.621044159,-5.328502655,11.381183624,-0.043312863,0.094972774,1.028651714
44.625752,0.170215607,5.856189728,-3.671611786,-0.037819698,0.122072384,1.012782574
44.653071,-8.931652069,1.858386993,4.652057648,-0.082863644,0.125124142,1.103602886
44.667410,-4.392162323,2.270374298,7.734333038,-0.042824581,0.166872188,1.118007183
44.705614,0.627979279,5.825672150,-4.434551239,-0.025124386,0.002077270,1.041713238
44.743900,-9.603038788,-4.687633514,8.085285187,-0.023293331,-0.012204956,1.074794292
44.758204,-10.053173065,-3.054943085,2.485309601,0.006980106,0.009645630,1.097011089
44.773531,-6.162181854,-1.300182343,-3.305400848,-0.057839230,0.055788208,1.095546246
44.811881,-1.790538788,-9.295787811,7.574115753,-0.065773800,0.016847778,1.019862652
44.850179,-0.455394745,-0.071849823,-7.532085419,-0.038918331,0.093507931,1.008998394
44.864469,1.917346954,-1.956310272,-6.174053192,-0.071877316,0.102419063,0.981166363
44.879819,2.489551544,-8.487071991,0.646625519,-0.092629269,0.114748165,0.923060894
44.918156,-1.737133026,-8.525218964,-2.351726532,-0.054909542,0.112672970,0.929896832
44.956448,4.847034454,-12.721385956,2.668415070,-0.078469113,0.148195431,0.891688824
44.970748,2.085193634,-10.981884003,4.468952179,-0.035500363,0.087160274,0.897059917
44.986096,-0.020519257,-8.578624725,3.049884796,-0.031472042,0.081545040,0.917201519
45.024444,-1.248851776,11.715564728,-4.541362762,-0.051369503,0.126222774,0.912440777
45.062738,-4.758373260,32.375965118,-10.133708954,0.013327762,0.167604610,0.999232769
45.077047,-2.629772186,38.090381622,-9.088481903,0.027243778,0.110231563,1.130702496
45.092401,0.948413849,38.578662872,-12.514080048,0.024192020,0.146364376,1.130580425
45.130742,8.654102325,39.082202911,-14.444316864,0.049460575,-0.015744995,1.089320660
45.169064,-0.867382050,25.997791290,-15.359844208,-0.027199581,0.174196407,1.233607769
45.183360,7.997974396,18.047962189,-16.420330048,-0.053566769,0.229738399,1.188441753
45.198717,21.631702423,-0.285472870,-6.677593231,-0.086281613,0.148317501,1.063807964
45.237098,-2.248302460,-18.260326385,-14.505352020,-0.035256222,0.015993286,1.105556011
45.275432,6.540760040,-32.054271698,-8.638347626,-0.085915402,0.158205196,1.062465191
45.289732,10.057910919,-36.982860565,-7.112468719,-0.042946652,0.008791137,1.060023785
45.317134,2.459033966,-40.377941132,-14.055217743,-0.096413448,0.026003052,1.029872417
45.355547,11.019214630,-41.011180878,-4.777873993,-0.053932980,0.072878048,0.909266949
45.393857,1.322254181,-26.004161835,-15.794719696,-0.068581417,0.028932739,0.890346050
45.408166,-0.112071991,-19.343700409,-11.270488739,-0.097390011,0.104738399,0.881190777
45.423537,1.734241486,-15.887584686,-9.759868622,-0.088967159,0.148195431,0.830531597
45.474076,-7.962718964,7.893238068,-16.756023407,-0.101784542,0.111940548,0.864833355
45.512452,2.703174591,2.422962189,-3.564800262,-0.099587277,0.132448360,0.826014996
45.526744,-2.492443085,10.876331329,-5.365337372,-0.060646847,0.071779415,0.812953472
45.542067,-7.367626190,16.888294220,-8.775676727,-0.042336300,0.073610470,0.830165386
45.580446,-9.496227264,15.255603790,-5.845989227,-0.130104855,0.210451290,0.938319683
45.618737,-5.742565155,13.935718536,-6.479228973,-0.110573605,0.081178829,0.974208355
45.633039,-8.161083221,10.746631622,-5.212749481,-0.125588253,0.093385860,1.002772808
45.648381,-2.706066132,0.797901154,1.630817413,-0.120949581,0.133058712,1.033900738
45.686704,-3.812328339,0.485095978,1.127277374,-0.070168331,-0.035276245,1.054774761
45.725001,-4.132762909,-9.898509979,6.734882355,-0.158547238,0.073610470,1.079310894
45.739292,-1.058116913,-12.385692596,10.419879913,-0.124611691,0.052126098,1.072719097
45.754634,-5.086437225,-10.539379120,11.419330597,-0.085427120,0.000490356,1.029506207
45.792987,-8.702770233,-0.583019257,7.993732452,-0.113625363,0.076784298,1.066127300
45.831269,-9.122386932,3.475818634,10.335956573,-0.077980831,-0.015622925,1.055385113
45.845581,-9.740367889,4.048023224,8.199726105,-0.062233761,0.029176880,1.063563824
45.860919,-7.245555878,3.559741974,6.856952667,-0.065895870,0.054933716,1.067592144
45.899272,0.055774689,-0.277843475,8.962665558,-0.068215206,-0.011472534,0.952357769
45.937548,-13.303295135,-2.612438202,8.855854034,-0.074440792,0.053713012,1.021693707
45.951857,-9.770885468,-2.017345428,10.076557159,-0.059304073,0.100588009,1.044032574
45.967198,-0.836864471,2.255115509,6.567035675,-0.048073605,0.114626095,1.033290386
46.005527,2.871021271,4.521045685,5.735431671,-0.042580441,0.105104610,0.987880230
46.043849,-0.310436249,10.319385529,4.697834015,0.007102177,0.080690548,0.997279644
46.058138,-1.294628143,12.188587189,1.562152863,0.000144169,0.123659298,1.011928082
46.073493,2.916797638,13.157520294,-0.146831512,-0.043801144,0.211549923,0.990931988
46.111860,4.847034454,12.020740509,2.248798370,0.003317997,0.129274532,0.974574566
46.150167,6.800159454,11.051807404,-2.244915009,-0.035012081,0.171877071,1.021449566
46.179146,4.160388947,4.536304474,3.164325714,-0.040993527,0.046266723,1.024501324
46.193459,-2.187267303,3.109607697,1.470600128,0.001609012,0.114381954,1.064662457
46.231690,15.299304962,1.934680939,-2.557720184,-0.055641964,0.007936645,1.002894878
46.270020,-6.291881561,-8.509960175,-1.962627411,-0.077248409,-0.022580933,0.984950542
46.284321,-9.038463593,-18.992748260,1.226459503,-0.091774777,0.087160274,1.027797222
46.299659,-6.001964569,-22.113170624,3.789936066,-0.096291378,0.113527462,1.036220074
46.338004,-3.240123749,-18.229808807,4.941974640,-0.056008175,0.007570434,0.982142925
46.376318,-5.597606659,3.529224396,1.699481964,-0.018654659,0.009035278,0.994105816
46.390624,-6.322399139,11.410388947,-0.833477020,-0.025124386,-0.015989136,0.975429058
46.405990,-9.114757538,13.981494904,-1.298870087,-0.028420284,-0.016965698,0.979579449
46.444335,-4.537120819,19.299182892,-0.329936981,-0.013283566,0.091188595,0.987025738
46.482662,-5.002513885,16.873035431,-3.900493622,-0.061867550,0.034181762,0.957118511
46.496968,-4.491344452,13.836536407,-0.627483368,-0.066384152,0.054323364,0.969691753
46.512335,1.291736603,9.037647247,0.692401886,-0.024880245,0.087404415,0.949061871
46.550697,-2.744213104,0.523242950,-1.855815887,-0.058449581,0.028078247,0.927333355
46.589029,2.665027618,-7.144298553,2.889667511,-0.041481808,0.090089962,0.923427105
46.603330,1.650318146,-6.602611542,1.791034698,-0.025612667,0.065553829,0.925990582
46.632445,-3.339305878,-5.717601776,0.547443390,-0.042336300,0.119264767,0.949794292
46.670875,0.765308380,-5.275096893,-1.146282196,-0.076882198,0.125490353,0.992885113
46.709176,-4.018321991,-15.078868866,3.286396027,-0.072121456,0.052370239,1.014003277
46.723481,-4.865184784,-15.368785858,5.270038605,-0.067971066,0.051027466,1.040248394
46.738850,-4.453197479,-13.362255096,5.315814972,-0.037941769,0.077028438,1.061488628
46.777202,-4.247203827,-8.021678925,2.157245636,-0.060280636,0.031618286,1.080897808
46.815479,-0.463024139,-5.389537811,4.812274933,-0.072121456,0.051271606,1.051967144
46.829781,-2.789989471,0.744495392,4.064594269,-0.030861691,-0.058103394,1.026088238
46.845135,-8.451000214,3.681812286,1.371417999,-0.030129269,-0.089963749,1.044642925
46.897392,-3.316417694,5.604419708,1.745258331,-0.029518917,-0.098508671,1.095302105
46.935765,-5.681529999,4.566822052,-1.977886200,-0.052712277,-0.072873905,1.049891949
46.950061,-6.513134003,-0.033702850,-0.528301239,-0.065651730,-0.020871948,1.031947613
46.965381,-6.459728241,-2.047863007,0.455890656,-0.075173214,-0.001951050,1.041957378
47.003709,-1.615062714,-5.671825409,-0.169719696,-0.071511105,0.088380978,1.042323589
47.042021,10.347827911,-11.103954315,5.048786163,-0.089577511,0.045778442,0.939052105
47.056329,0.711902618,-12.523021698,5.270038605,-0.064064816,-0.008909058,0.956264019
47.071664,-3.255382538,-14.483776093,5.277667999,-0.066872433,0.040285278,0.984096050
47.110007,14.284595490,-15.681591034,5.765949249,-0.057350948,0.176637813,0.972133160
47.148309,-0.440135956,0.057849884,0.600849152,-0.035378292,0.086794063,0.928798199
47.162570,-2.301708221,3.483448029,1.157794952,-0.044655636,0.148805782,0.963832378
47.177922,5.503162384,10.464344025,0.181232452,-0.040505245,0.192629024,0.995692730
47.216283,1.337512970,20.275745392,-0.490154266,0.000144169,0.027101684,1.014735699
47.254566,4.236682892,28.889331818,-3.137554169,0.000388309,0.052858520,1.043666363
47.268868,3.023609161,30.575428009,-4.037822723,-0.001320675,0.006471802,1.065883160
47.284220,0.597461700,32.177600861,-5.273784637,0.011984989,-0.004880738,1.098842144
47.322554,3.862842560,26.959095001,-9.187664032,-0.029518917,0.021974731,1.096034527
47.360859,1.421436310,1.011524200,-3.900493622,-0.090798214,-0.046384644,1.037684917
47.375155,-0.913158417,-10.768260956,3.690753937,-0.062722042,-0.002683472,1.049281597
47.390493,1.474842072,-13.942089081,3.652606964,-0.046364620,0.013307739,1.039515972
47.428855,-1.660839081,-16.398754120,-1.596416473,-0.025734738,-0.069455937,0.978602886
47.467143,-0.791088104,-19.091930389,2.248798370,-0.057228878,0.085939571,0.957728863
47.481445,2.390369415,-18.512096405,2.271686554,-0.040261105,0.076173946,0.945888042
47.496794,1.619800568,-14.552440643,-1.398052216,-0.031227902,0.037233520,0.907313824
47.535149,-2.965465546,-4.977550507,-1.909221649,-0.042702511,0.048219848,0.923305035
47.573444,0.452503204,6.008777618,-2.778972626,-0.044777706,0.042238403,0.930140972
47.587736,0.414356232,8.297595978,-2.634014130,-0.042580441,0.040529419,0.925624371
47.617169,1.291736603,10.845813751,-1.382793427,-0.035012081,0.088747188,0.917323589
47.655602,-0.875011444,13.722095490,-4.075969696,-0.026833370,0.078859493,0.917079449
47.693904,0.780567169,9.518299103,-2.191509247,-0.026100948,0.169069454,0.936000347
47.708208,3.046497345,8.534107208,-2.588237762,-0.012307003,0.165773556,0.934169292
47.723547,2.207263947,4.292163849,-6.776775360,-0.028664425,0.091798946,0.949672222
47.761894,1.314624786,-8.311595917,1.058612823,-0.044533566,0.092165157,1.024501324
47.800191,-2.027050018,-4.100170135,-0.207866669,0.005881473,0.009889770,0.991908550
47.814476,-10.648265839,1.446399689,-5.975688934,-0.018776730,0.050050903,1.040980816
47.829824,-10.610118866,2.422962189,-5.701030731,-0.037209347,0.081056759,1.078578472
47.868167,1.810535431,-0.079479218,-2.992595673,-0.061257198,0.078615353,1.047328472
47.906456,-11.334911346,-2.917613983,-2.855266571,-0.056252316,-0.067380741,1.053065777
47.920751,-10.823741913,-4.245128632,-2.847637177,-0.060768917,-0.034055542,1.103724957
47.951561,-5.033031464,-4.901256561,-4.053081512,-0.048439816,-0.059446167,1.090175152
47.989963,-7.184520721,-5.168285370,-6.471599579,-0.064797238,-0.050412964,1.057826519
48.028261,-7.199779510,-12.584056854,-4.762615204,-0.108254269,0.014528442,1.043910503
48.042567,-5.261913300,-18.557872772,-0.703777313,-0.116921261,0.058229614,1.052211285
48.057927,-3.087535858,-20.610179901,1.874958038,-0.108376339,0.080812618,1.045253277
48.096281,1.917346954,-17.993297577,2.012287140,-0.081398800,0.066652462,0.996547222
48.134597,5.350574493,-6.564464569,2.447162628,-0.071511105,0.110475704,1.002528667
48.148901,7.402881622,-2.497997284,2.302204132,-0.058449581,0.102052853,1.000453472
48.164242,7.654651642,7.084522247,-0.116313934,-0.044777706,0.074220821,0.968837261
48.202580,5.098804474,12.112293243,-1.153911591,-0.062477902,0.120119259,0.994227886
48.240878,7.151111603,13.493213654,0.310932159,-0.027687863,0.084963009,0.986537457
48.255178,5.663379669,14.782581329,-0.963176727,-0.019631222,0.069093868,1.004481792
48.270548,3.885730743,15.354785919,-3.236736298,-0.029274777,0.076173946,1.037806988
48.308900,7.555469513,12.837085724,1.424823761,-0.007790402,0.047731567,1.060023785
48.362910,4.335865021,7.305774689,-6.479228973,-0.067360714,-0.016355347,1.032191753
48.377229,2.535327911,2.583179474,-3.084148407,-0.071022823,-0.022336792,1.033290386
48.392588,-0.691905975,-6.770458221,0.318561554,-0.044655636,-0.017942261,1.033168316
48.430915,-1.195446014,-12.919750214,1.997028351,-0.055641964,-0.017820191,1.011683941
48.469222,-4.529491425,-6.587352753,-0.169719696,-0.037209347,-0.050168823,0.982142925
48.483509,-5.605236053,-4.756298065,-0.665630341,-0.049416378,-0.048215698,0.982387066
48.498835,-5.925670624,-1.269664764,1.386676788,-0.046608761,-0.010373902,0.994105816
48.537182,2.474292755,3.224048615,0.852619171,-0.040993527,0.013429809,0.919642925
48.575465,-2.011791229,2.255115509,-0.589336395,-0.050759152,0.024660278,0.885829449
48.589757,-1.424327850,0.744495392,0.654254913,-0.047585323,0.031007934,0.878627300
48.605098,-2.431407928,0.507984161,0.066791534,-0.048195675,0.035036255,0.874721050
48.643464,-3.942028046,-3.871288300,2.927814484,-0.052101925,0.028444458,0.892665386
48.681752,-0.447765350,3.658924103,1.585041046,-0.014992550,0.056154419,0.908900738
48.696047,-1.019969940,5.177173615,0.753437042,-0.025368527,0.038088012,0.901088238
48.711377,-4.544750214,6.489429474,0.394855499,-0.024025753,0.061281372,0.912929058
48.749716,-2.187267303,5.222949982,2.615009308,-0.014748409,0.099611446,0.952235699
48.788033,-3.278270721,2.751026154,-1.085247040,-0.040627316,0.074953243,0.989833355
48.802328,-2.980724335,0.981006622,0.371967316,-0.050515011,0.064699337,1.005946636
48.817659,-2.698436737,-0.552501678,3.919635773,-0.043557003,0.047975708,1.032191753
48.856004,-4.422679901,10.433826447,-1.069988251,0.021994755,0.001344848,1.048915386
48.894307,-7.611766815,10.288867950,-5.342449188,-0.036721066,0.002809692,1.075770855
48.908617,-5.528942108,2.285633087,-1.657451630,-0.069313839,0.016725708,1.085414410
48.923982,-4.605785370,-0.987377167,0.883136749,-0.066872433,0.002565552,1.088466167
48.962309,-6.566539764,-3.482189178,0.783954620,-0.026955441,-0.092161015,1.051967144
49.000621,-11.815563202,-6.205883026,-0.093425751,-0.072609738,-0.011838745,1.144740582
49.014925,-0.524059296,-8.326854706,1.218830109,-0.051247433,-0.004636597,1.119838238
49.030261,2.298816681,-8.067455292,0.005756378,-0.046974972,-0.050779175,1.085902691
49.084510,-0.768199921,-11.546459198,-0.482524872,-0.102272823,-0.021604370,1.063197613
49.122896,0.948413849,-15.139904022,3.706012726,-0.079201534,-0.025876831,1.005946636
49.137212,0.429615021,-13.400402069,3.759418488,-0.075417355,0.008424927,0.986171246
49.152576,1.787647247,-11.332836151,4.163776398,-0.065407589,0.024416137,0.973964214
49.190921,-0.798717499,0.858936310,2.470050812,-0.060280636,0.013673950,0.958583355
49.229220,4.236682892,8.595142365,-0.459636688,-0.055764034,0.051759887,0.931972027
49.243502,2.192005157,9.442005157,-0.535930634,-0.052590206,0.050295044,0.924647808
49.275027,0.086292267,8.976612091,-1.131023407,-0.055886105,0.067873165,0.936366558
49.313442,3.191455841,3.986988068,1.615558624,-0.053444698,0.056764770,1.003627300
49.351738,2.947315216,6.756458282,-0.108684540,-0.001442745,-0.070798710,1.000819683
49.366041,-5.406871796,10.403308868,-3.694499969,-0.019631222,-0.091306522,1.063319683
49.381413,-4.750743866,10.632190704,-3.190959930,-0.030129269,-0.062864140,1.101893902
49.419770,2.405628204,7.839832306,-3.679241180,-0.010475948,-0.109494999,1.066737652
49.458066,-0.806346893,-0.720348358,0.959430695,-0.012795284,-0.045408081,1.129237652
49.472365,2.413257599,-2.032604218,2.431903839,-0.002785519,-0.076413944,1.117030621
49.487696,2.115711212,-0.346508026,2.370868683,0.013449833,-0.113035038,1.100306988
49.526069,0.231250763,7.389698029,-3.679241180,0.042502567,-0.120359257,1.099330425
49.564366,3.511890411,6.039295197,-3.046001434,0.004050419,-0.056394409,1.074306011
49.578665,6.243213654,5.337390900,-3.129924774,0.014548466,-0.047483277,1.044032574
49.594033,7.204517365,4.437122345,-6.433452606,0.017111942,-0.059568238,0.964320660
49.632364,-1.660839081,-1.323070526,-10.667766571,-0.051247433,0.008424927,0.916469097
49.670660,2.779468536,-13.430919647,-7.425273895,-0.068215206,0.036379028,0.888514996
49.684976,2.809986115,-16.230907440,-8.012737274,-0.077614620,0.029909302,0.877284527
49.700328,2.260669708,-21.785106659,-5.418743134,-0.104225948,0.018190552,0.853358746
49.738678,-0.165477753,-26.225414276,-1.871074677,-0.092873409,-0.015500855,0.850184917
49.776997,-5.658641815,-23.150768280,-0.612224579,-0.099221066,0.012697387,0.879359722
49.791308,-4.598155975,-19.091930389,2.157245636,-0.098610714,0.030397583,0.889491558
49.806672,-4.170909882,-16.040172577,2.965961456,-0.090920284,0.022218872,0.895595074
49.856565,-6.513134003,8.412036896,4.575763702,-0.058083370,-0.005002808,0.998378277
49.894940,-5.078807831,26.058826447,3.026996613,-0.023537472,-0.073850468,1.013881207
49.909235,-6.856456757,32.910022736,-0.040019989,-0.020485714,-0.056394409,1.044764996
49.924576,-6.375804901,34.763965607,-0.787700653,-0.035988644,-0.076658085,1.062221050
49.962906,-2.316967010,30.804309845,2.332721710,-0.048806027,-0.162351444,1.069789410
50.001216,-12.761608124,16.812000275,0.967060089,-0.063332394,-0.142698124,1.038783550
50.015506,-14.928356171,10.899219513,2.431903839,-0.069191769,-0.113401249,1.059047222
50.030836,-13.638988495,-1.376476288,5.041156769,-0.073464230,-0.041623902,1.112514019
50.069156,-2.538219452,-15.040721893,5.590473175,-0.055031613,-0.158567265,1.113734722
50.107449,-3.194347382,-17.924633026,3.095661163,-0.049782589,-0.206907108,1.096034527
50.121746,-3.942028046,-19.381847382,3.896747589,-0.067848995,-0.160276249,1.095057964
50.137081,-2.789989471,-20.160045624,5.331073761,-0.071999386,-0.130613163,1.087611675
50.175406,-2.660289764,-15.956249237,7.497821808,-0.042214230,-0.077634647,1.047816753
50.213687,1.398548126,-0.995006561,2.981220245,-0.022560909,-0.038694214,1.026942730
50.227984,0.017627716,2.293262482,2.409015656,-0.037087277,-0.062864140,1.002894878
50.243281,-2.225414276,3.239307404,3.271137238,-0.039040402,-0.066526249,1.011928082
50.281605,0.185474396,9.075794220,2.126728058,0.005271122,-0.045896363,1.053920269
50.319888,3.283008575,14.568958282,-1.222576141,-0.008278683,-0.080808476,1.046107769
50.334196,2.436145782,15.125904083,-1.985515594,-0.011208370,-0.102781132,1.045131207
50.349534,1.375659943,15.705738068,-2.542461395,-0.006691769,-0.077634647,1.076381207
50.387872,9.294971466,15.072498322,-1.474346161,0.011618778,-0.104490116,1.087367535
50.426169,5.648120880,16.750965118,-7.051433563,0.010886356,-0.115110233,1.047938824
50.440459,6.327136993,16.354236603,-6.212200165,0.005026981,-0.094602421,1.064418316
50.455784,8.387073517,15.995655060,-4.999126434,0.012961552,-0.093259647,1.063563824
50.494116,10.118946075,13.897571564,-9.584392548,0.016501591,-0.130613163,1.003505230
50.532426,5.548938751,1.522693634,-4.869426727,-0.006325558,-0.071409062,0.979579449
50.546719,5.556568146,-2.810802460,-5.105937958,0.023093387,-0.058591675,0.971644878
50.573855,4.099353790,-5.267467499,-8.798564911,0.019187137,-0.047361206,0.951991558
50.612254,1.596912384,-16.871776581,-7.593120575,-0.041603878,-0.038205933,0.964931011
50.650545,5.747303009,-20.999279022,-4.968608856,-0.011330441,-0.029416870,0.967860699
50.678084,4.984363556,-18.222179413,-5.701030731,-0.032204464,-0.057981323,0.934413433
50.692425,4.267200470,-16.711559296,-4.953350067,-0.033058956,-0.059079956,0.920619488
50.730629,-0.188365936,-6.984081268,-3.419841766,-0.021096066,-0.057004761,0.917933941
50.768898,-1.294628143,5.100879669,-2.740825653,-0.008644894,-0.052976441,0.927943707
50.783202,-1.569286346,7.877979279,-2.023662567,0.004050419,-0.040525269,0.929530621
50.798522,-0.859752655,14.195117950,-2.908672333,0.025046512,-0.034299683,0.934169292
50.836851,-2.973094940,26.188526154,-4.198040009,0.033225223,-0.033811402,0.938563824
50.875149,-3.545299530,30.644092560,-5.990947723,0.032492802,-0.032590698,0.927577496
50.889446,-4.842296600,30.193958282,-5.395854950,0.033469364,-0.036985230,0.934169292
50.904808,-5.795970917,27.783069611,-6.113018036,0.044821903,-0.014768433,0.954799175
50.943127,-6.955638885,13.966236115,-7.158245087,0.015402958,-0.046140503,0.949916363
50.981434,-7.039562225,-4.756298065,-3.770793915,-0.001808956,-0.015867066,0.996425152
50.995720,-4.216686249,-16.093578339,-1.886333466,0.006369755,0.001222778,1.014247417
51.011069,-2.599254608,-19.450511932,-1.924480438,0.006858036,0.000978637,1.009120464
51.049403,-8.275524139,-27.163829803,-2.328838348,-0.001808956,0.003542114,1.013514996
51.087697,-4.300609589,-31.314220428,-1.741374969,-0.027199581,0.030397583,1.087123394
51.102013,-0.829235077,-32.504405975,-1.115764618,-0.042092159,0.012087036,1.083827496
51.117376,0.536426544,-33.763256073,3.194843292,-0.040871456,-0.092283085,1.050136089
51.155684,-2.622142792,-23.822154999,4.102741241,-0.005715206,-0.017453980,1.064174175
51.194009,-4.903331757,-6.495800018,-1.794780731,-0.031472042,0.022707153,1.058070660
51.208303,-3.652111053,-3.764476776,-1.703227997,-0.038430050,0.024049927,1.082240582
51.223643,3.107532501,-2.093639374,1.455341339,-0.048683956,-0.005369019,1.097743511
51.261937,0.788196564,3.552112579,-0.085796356,0.005271122,-0.113523319,0.978847027
51.300231,-10.686412811,5.535755157,-4.312480927,-0.044777706,-0.041379761,0.989833355
51.314524,-9.732738495,1.087818146,0.280414581,-0.053932980,0.044679809,1.040736675
51.329875,-5.605236053,-1.307811737,1.211200714,-0.040505245,0.070924923,1.046840191
51.368180,-1.798168182,-5.442943573,-3.068889618,-0.028420284,-0.068113163,0.954188824
51.406458,-5.719676971,-7.281627655,-3.046001434,-0.063576534,0.034547973,1.009608746
51.420752,-4.560009003,-8.334484100,-0.619853973,-0.048073605,0.018068481,1.011806011
51.436101,-5.307689667,-7.022228241,-0.818218231,-0.027687863,0.027467895,1.018153667
51.474433,-3.919139862,3.666553497,-3.961528778,-0.004494503,0.021486450,1.045619488
51.512709,-0.783458710,11.753711700,-6.135906219,0.004904911,0.047487427,1.052943707
51.527014,-0.516429901,13.653430939,-6.753887177,0.011252567,0.041628052,1.056361675
51.542365,-0.051036835,16.773853302,-8.256877899,0.014548466,0.042482544,1.073207378
51.592886,4.633411407,15.377674103,-12.086833954,-0.011208370,0.032594848,1.061488628
51.631272,6.411060333,3.735218048,-12.170757294,-0.019753292,0.040285278,1.053309917
51.645577,6.517871857,0.118885040,-12.674297333,-0.025734738,0.048097778,1.051234722
51.660927,7.433399200,-6.900157928,-12.369121552,-0.060524777,0.052736450,1.045497417
51.699248,7.082447052,-14.117565155,-6.769145966,-0.030861691,0.045046020,1.057826519
51.737537,8.707508087,-11.470165253,-12.025798798,-0.055764034,0.046999145,1.057460308
51.751855,10.347827911,-13.240184784,-9.828533173,-0.093361691,0.024171997,1.045009136
51.767204,10.187610626,-14.773693085,-6.936992645,-0.103005245,0.006349731,1.040858746
51.805511,6.983264923,-10.875072479,-2.656902313,-0.032326534,0.011720825,1.064418316
51.843838,8.882984161,-5.153026581,-5.693401337,-0.087502316,-0.013547730,1.044887066
51.858131,10.752185822,-7.655467987,0.005756378,-0.087502316,-0.027829956,1.047206402
51.886936,10.492786407,-7.815685272,2.615009308,-0.055153683,-0.090696171,1.011439800
51.925293,4.999622345,-5.984630585,0.349079132,-0.042946652,-0.047605347,0.999232769
51.963603,2.443775177,-8.143749237,2.912555695,-0.044411495,-0.016233277,0.994716167
51.977905,4.885181427,-8.281078339,3.950153351,-0.032692745,0.003664184,0.983241558
51.993245,5.671009064,-7.960643768,3.866230011,-0.031716183,-0.008420777,0.968593121
52.031540,1.680835724,-1.803722382,1.203571320,-0.009377316,0.010866333,0.954188824
52.069848,4.465564728,3.575000763,-0.017131805,-0.007424191,-0.017087769,0.915370464
52.084136,2.611621857,5.123767853,-1.085247040,-0.007790402,-0.028318238,0.911464214
52.099482,0.391468048,8.396778107,-2.450908661,0.000022098,-0.032590698,0.918788433
52.137769,-3.171459198,9.678516388,-4.816020966,-0.033547238,-0.043332886,0.878383160
52.176045,-4.949108124,7.237110138,-2.130474091,-0.001808956,0.035280395,0.929408550
52.190335,-2.484813690,7.641468048,-3.686870575,-0.010475948,0.021608520,0.936610699
52.205667,-0.943675995,8.007678986,-4.137004852,-0.014260128,0.005006958,0.930385113
52.243950,-3.621593475,8.328113556,-0.696147919,-0.035500363,0.062990353,0.915736675
52.282227,0.406726837,13.409290314,-4.930461884,-0.045143917,0.017580200,0.859828472
52.296520,-8.641735077,13.188037872,-1.977886200,-0.056984738,0.041750122,0.878383160
52.311872,-9.755626678,10.685596466,-0.246013641,-0.056008175,0.084108517,0.887904644
52.350169,-5.193248749,4.406604767,-4.709209442,-0.034890011,0.022707153,0.930751324
52.388450,-9.480968475,-9.196605682,3.500019073,-0.076271847,0.001222778,0.965175152
52.402750,-9.580150604,-11.943187714,2.737079620,-0.068215206,-0.016477417,1.001918316
52.418109,-8.290782928,-17.421092987,3.431354523,-0.095803097,-0.039304566,1.030116558
52.456447,-10.343090057,-25.279369354,14.616046906,-0.086891964,-0.092893437,1.036586285
52.508522,-5.910411835,-9.867992401,5.788837433,-0.109597042,-0.029050659,1.135707378
52.522859,-2.881542206,-9.585704803,11.083637238,-0.122536495,-0.035398316,1.135097027
52.538206,2.603992462,-4.603710175,17.828022003,-0.050148800,-0.102414921,1.103969097
52.576492,-3.659740448,13.058338165,1.363788605,-0.062966183,-0.098020390,1.076991558
52.614795,1.879199982,2.041492462,11.037860870,-0.067360714,-0.080076054,1.062098980
52.629101,0.910266876,0.645313263,10.145221710,-0.054055050,-0.112912968,1.047694683
52.644421,-1.325145721,-0.941600800,7.238422394,-0.042946652,-0.144651249,1.046718121
52.682716,-2.011791229,-6.533946991,5.743061066,-0.071999386,-0.124143437,1.072108746
52.721028,-2.561107635,-6.350841522,4.957233429,-0.080300167,-0.144285038,1.032802105
52.735320,-4.613414764,-2.589550018,4.308734894,-0.083107784,-0.102292851,1.046107769
52.750639,-3.949657440,-0.361766815,3.812824249,-0.080666378,-0.102292851,1.058192730
52.788936,2.886280060,4.437122345,3.110919952,-0.110085323,-0.105588749,1.065394878
52.827227,0.383838654,12.638721466,3.828083038,-0.062233761,-0.130369022,1.047084332
52.841519,1.444324493,14.912281036,1.707111359,-0.057350948,-0.102781132,1.056117535
52.856870,5.220874786,15.812549591,-0.749553680,-0.069313839,-0.123288944,1.051600933
52.909092,2.733692169,5.589160919,4.034076691,-0.094094113,-0.140744999,1.049525738
52.947478,6.655200958,6.939563751,1.585041046,-0.042336300,-0.143552616,1.050380230
52.961789,6.266101837,8.206043243,-0.619853973,-0.070656613,-0.131589726,1.040736675
52.977128,6.510242462,7.794055939,0.280414581,-0.075661495,-0.121457890,1.032313824
53.015433,4.724964142,6.611499786,2.203022003,-0.055519894,-0.088987187,1.042567730
53.053709,8.165821075,5.680713654,1.905475616,-0.059914425,-0.082395390,1.012904644
53.068011,8.074268341,5.795154572,0.776325226,-0.056374386,-0.090574101,1.003261089
53.083338,6.502613068,5.352649689,0.005756378,-0.089333370,-0.112668827,0.994960308
53.121648,7.402881622,-1.361217499,2.149616241,-0.059182003,-0.063596562,1.030482769
53.159935,8.036121368,-3.367748260,1.646076202,-0.069802120,-0.070676640,0.978847027
53.174230,5.869373322,-0.819530487,1.646076202,-0.068093136,-0.074094608,1.004481792
53.203712,12.186511993,0.187549591,0.707660675,-0.055886105,-0.070920780,0.995326519
53.242074,2.619251251,0.858936310,1.195941925,-0.035378292,-0.057004761,0.943324566
53.280385,1.894458771,4.383716583,-0.490154266,-0.034157589,0.004274536,0.953944683
53.294676,1.238330841,4.444751740,-0.658000946,-0.042458370,0.006838012,0.944301128
53.310051,-1.401439667,3.582630157,1.386676788,-0.050392941,0.006105591,0.945521832
53.348356,-3.674999237,3.407154083,2.233539581,-0.036843136,-0.018186402,0.963588238
53.386655,-5.429759979,7.137928009,-0.421489716,-0.020241573,-0.013059448,0.970424175
53.400956,-7.779613495,6.489429474,0.227008820,-0.045265988,0.004396606,0.986781597
53.416318,-7.924571991,5.604419708,2.187763214,-0.046242550,0.020509887,1.000331402
53.454649,-0.081554413,4.887256622,-1.283611298,-0.024880245,0.043459106,1.014613628
53.508414,3.847583771,-1.651134491,1.569782257,-0.035988644,0.006227661,1.050624371
53.522732,6.708606720,-2.826061249,1.562152863,-0.045876339,0.002077270,1.033900738
53.538073,6.998523712,-5.030956268,2.592121124,-0.045388058,-0.059934448,0.976283550
53.576398,-1.927867889,-1.262035370,2.912555695,-0.032570675,-0.038205933,0.997523785
53.614694,3.046497345,-3.047313690,3.286396027,-0.056618527,0.033815552,1.029262066
53.629006,6.876453400,-4.664745331,5.941425323,-0.042458370,-0.000608277,1.005092144
53.644324,5.671009064,-2.909984589,6.315265656,-0.028054073,-0.043577027,0.997401714
53.682658,5.663379669,8.709583282,1.066242218,-0.007912472,-0.009153198,1.005824566
53.720954,2.077564240,13.874683380,0.043903351,-0.006691769,-0.034055542,0.983851910
53.735243,1.215442657,14.248523712,-0.894512177,-0.007790402,-0.030393433,0.991542339
53.750599,0.193103790,12.921009064,-1.115764618,-0.026223019,-0.009153198,1.014857769
53.788909,3.992542267,6.390247345,-0.719036102,-0.034157589,-0.050412964,1.017909527
53.827222,3.694995880,0.332508087,1.050983429,-0.021706417,-0.058469605,1.017665386
53.841503,3.786548615,-0.155773163,0.265155792,-0.019020870,-0.056394409,1.000453472
53.856844,-0.516429901,-0.506725311,-1.405681610,-0.028298214,-0.027829956,0.977748394
53.895148,-3.285900116,-4.412975311,-0.032390594,-0.043557003,0.070070431,1.019130230
53.933445,6.472095490,-3.985729218,-2.000774384,-0.035866573,0.027712036,0.982509136
53.947731,2.611621857,-2.658214569,-0.619853973,-0.053688839,-0.042478394,0.945399761
53.963081,-1.668468475,-1.246776581,0.539813995,-0.041848019,-0.050290894,0.936732769
54.001397,-11.693492889,2.949390411,-5.693401337,0.000144169,0.021730591,0.943812847
54.039692,-12.593761444,-2.414073944,-6.952251434,-0.054543331,0.136720821,1.014247417
54.054004,-8.435741425,-4.329051971,-6.479228973,-0.063820675,0.124269649,1.024379253
54.069333,-3.156200409,-7.838573456,-5.067790985,-0.069435909,0.035158325,1.021449566
54.107661,-7.031932831,-7.258739471,-3.915752411,-0.040871456,0.000612427,1.027675152
54.145939,-4.514232635,-3.482189178,-4.716838837,-0.082497433,0.048952270,1.035975933
54.160231,-2.690807343,-2.833690643,-2.847637177,-0.078347042,0.050295044,1.043056011
54.175588,0.757678986,1.103076935,-1.932109833,-0.042580441,0.021242309,1.053798199
54.213897,3.778919220,8.480701447,-8.287395477,-0.040016964,-0.017209839,1.045253277
54.252203,6.403430939,6.207141876,-5.327190399,-0.039406613,0.008424927,1.025111675
54.266478,6.136402130,4.437122345,-6.967510223,-0.042946652,-0.032102417,0.999354839
54.281828,3.786548615,3.178272247,-6.677593231,-0.047951534,-0.031980347,0.993251324
54.320144,3.138050079,-4.542675018,-8.058513641,-0.070168331,0.079347774,1.039271832
54.358447,7.677539825,-10.371532440,-2.283061981,-0.067726925,0.021852661,1.004725933
54.372739,6.922229767,-9.532299042,-2.359355927,-0.054787472,0.002809692,1.009730816
54.403814,8.310779572,-6.411876678,-4.175151825,-0.065407589,-0.051389527,0.959804058
54.442234,-6.108776093,-3.039684296,-4.075969696,-0.061379269,-0.064328983,0.919520855
54.480524,-9.610668182,0.797901154,-2.771343231,-0.080666378,0.100588009,0.969325542
54.494832,-7.688060760,0.790271759,-2.916301727,-0.075539425,0.075563595,0.966273785
54.526186,-10.076061249,-2.269115448,0.135456085,-0.107765988,0.066408321,0.991054058
54.564575,-6.352916718,-6.152477264,5.567584991,-0.099709347,-0.018796753,0.983851910
54.602882,-5.414501190,0.454578400,7.207904816,-0.049050167,-0.020871948,1.022670269
54.617169,-5.048290253,3.018054962,7.261310577,-0.020851925,-0.056760620,1.015223980
54.632515,-9.633556366,10.082874298,5.254779816,-0.010353878,-0.026975464,1.031581402
54.670879,-4.834667206,20.291004181,3.751789093,-0.003640011,0.027712036,1.049281597
54.709194,-1.142040253,30.453357697,1.630817413,0.019553348,-0.006711792,1.062465191
54.723486,2.649768829,31.834278107,-3.404582977,0.005515262,0.003908325,1.059657574
54.738855,4.953845978,29.751453400,-3.808940887,-0.026345089,-0.008909058,1.049403667
54.777184,3.008350372,14.828357697,4.629169464,-0.012673214,-0.026731323,1.015834332
54.815486,3.290637970,-2.925243378,0.593219757,-0.059914425,0.025148559,1.006312847
54.829775,4.488452911,-8.387889862,2.096210480,-0.074074581,0.032228637,1.010585308
54.845136,7.875904083,-18.451061249,5.712543488,-0.091652706,0.024538208,0.999476910
54.883476,4.007801056,-26.583995819,6.856952667,-0.062355831,-0.036252808,0.974818707
54.921785,5.396350861,-25.256481171,7.177387238,-0.086037472,0.017458130,1.043178082
54.936096,9.302600861,-24.241771698,9.458576202,-0.093361691,-0.006223511,1.045131207
54.951447,11.667713165,-18.405284882,12.846027374,-0.059792355,-0.105466679,0.982875347
54.989772,-1.042858124,10.204944611,4.842792511,-0.011330441,-0.087034062,0.949794292
55.028066,-2.645030975,18.696460724,2.393756866,-0.055519894,0.008791137,0.960780621
55.042367,-0.669017792,19.863758087,6.773029327,-0.039650753,0.010744262,0.916347027
55.057726,-2.149120331,20.641956329,6.582294464,-0.022194698,-0.004026245,0.891322613
55.096073,-22.183910370,21.595630646,0.494037628,-0.041237667,0.074831173,0.933436871
55.134373,-8.748546600,11.257801056,1.134906769,-0.018410519,0.199709103,1.037318707
55.148672,-2.194896698,8.244190216,-0.444377899,-0.013161495,0.151735470,1.026332378
55.164042,0.177845001,1.461658478,-2.344097137,-0.031227902,0.021242309,1.008510113
55.202353,-5.887523651,-12.561168671,-3.572429657,-0.055275753,0.002321411,1.037196636
55.240654,-1.348033905,-23.921337128,1.684223175,-0.055519894,-0.026731323,1.022304058
55.254958,-1.904979706,-24.081554413,1.066242218,-0.036110714,-0.030393433,1.032435894
55.270318,-3.926769257,-20.930614471,-2.473796844,-0.024269894,-0.033323120,1.054774761
55.324858,-1.019969940,-10.295238495,-3.038372040,-0.043679073,-0.038816284,1.065394878
55.363253,2.321704865,3.857288361,-7.913555145,-0.027687863,-0.020383667,1.053798199
55.377539,0.673755646,5.627307892,-9.187664032,-0.039284542,0.003053833,1.062221050
55.392876,1.924976349,5.016956329,-9.355510712,-0.045876339,0.029421020,1.067348003
55.431198,6.319507599,-0.972118378,-6.074871063,-0.043801144,-0.005735230,1.042323589
55.469473,6.678089142,-2.940502167,-7.455791473,-0.038796261,0.053346802,1.080287457
55.483756,9.623035431,-3.466930389,-7.951702118,-0.046242550,0.042848755,1.078456402
55.499102,10.858997345,-2.009716034,-6.357158661,-0.048317745,-0.029416870,1.075892925
55.537447,12.758716583,7.443103790,-10.057415009,-0.010598019,-0.092893437,1.033046246
55.575733,0.864490509,8.938465118,-8.439983368,-0.046974972,-0.051999878,0.984828472
55.590031,-0.691905975,9.396228790,-7.890666962,-0.015480831,0.040285278,1.010219097
55.605387,0.833972931,9.243640900,-10.324443817,-0.015724972,0.067018673,1.010219097
55.643700,1.101001740,-0.750865936,-10.179485321,-0.100441769,0.036867309,0.976771832
55.682015,3.015979767,-10.165538788,-4.472698212,-0.091408566,0.022340942,0.947719097
55.696308,-0.905529022,-10.653820038,-3.900493622,-0.084206417,0.005006958,0.928431988
55.711651,-3.407970428,-10.737743378,-4.358257294,-0.093361691,0.013673950,0.919398785
55.749964,-11.113658905,-11.432018280,2.050434113,-0.106179073,0.075563595,0.956264019
55.788258,-4.239574432,-1.239147186,1.699481964,-0.050515011,0.128420040,0.994838238
55.802544,-2.667919159,2.278003693,0.440631866,-0.059182003,0.099123165,0.994594097
55.829444,-2.004161835,7.954273224,1.440082550,-0.057473019,0.049318481,0.999476910
55.867843,-0.180736542,9.319934845,2.035175323,-0.045876339,0.004030395,1.026576519
55.906145,2.161487579,4.192981720,2.355609894,-0.065041378,-0.018430542,1.049037457
55.920446,3.885730743,1.171741486,2.759967804,-0.078347042,-0.013547730,1.046107769
55.935815,6.655200958,-5.702342987,6.322895050,-0.086769894,-0.035276245,1.029506207
55.974140,5.785449982,-5.679454803,6.254230499,-0.057717159,-0.030393433,1.060267925
56.012440,11.057361603,-3.138866425,6.917987823,-0.070046261,-0.035642456,1.018397808
56.026732,7.509693146,-1.948680878,8.718524933,-0.074196652,-0.035398316,1.003383160
56.042103,6.357654572,-0.239696503,9.237323761,-0.069435909,-0.014402222,1.012050152
56.080430,10.904773712,7.244739532,10.648761749,-0.035988644,-0.026120972,1.034511089
56.118723,3.931507111,13.592395782,7.612262726,-0.044899777,-0.148801640,0.894374371
56.133024,-4.247203827,15.118274689,8.787189484,-0.038674191,-0.130491093,0.901820660
56.148397,-13.730541229,16.430530548,6.917987823,-0.018776730,-0.002195191,0.998256207
56.198521,4.923328400,8.076343536,10.854755402,-0.032570675,0.061769653,1.017421246
56.236905,-6.909862518,7.259998322,4.903827667,-0.009865597,-0.018552613,0.979213238
56.251206,-9.587779999,6.519947052,4.957233429,-0.021706417,0.018434692,0.997889996
56.266538,-9.137645721,3.498706818,5.476032257,-0.019509152,0.093630001,1.035243511
56.304873,2.947315216,-2.833690643,-0.383342743,-0.036965206,0.093507931,1.040614605
56.343160,-1.363292694,-12.980785370,3.133808136,-0.071144894,0.061281372,1.051478863
56.357461,0.421985626,-15.277233124,4.026447296,-0.069435909,0.073732540,1.062709332
56.372826,4.129871368,-18.275585175,4.743610382,-0.069924191,0.050172973,1.060512066
56.411147,4.648670197,-15.879955292,4.667316437,-0.045265988,0.017946411,1.059047222
56.449450,8.493885040,-4.428234100,2.515827179,-0.050637081,0.033815552,1.074061871
56.463736,12.423023224,2.766284943,2.180133820,-0.040627316,-0.015500855,1.050868511
56.479080,11.614307404,6.146106720,1.966510773,-0.033669308,-0.025998902,1.038051128
56.517405,12.415393829,14.622364044,-2.710308075,-0.030495480,0.016237427,0.997645855
56.555690,11.064990997,8.572254181,-1.306499481,-0.071022823,0.017946411,0.960170269
56.570006,11.164173126,5.146656036,0.989948273,-0.072731808,0.023927856,0.965175152
56.585331,12.682422638,-0.621166229,2.355609894,-0.045510128,0.035158325,0.951625347
56.623660,6.006702423,-4.557933807,1.592670441,-0.045265988,0.035646606,0.941859722
56.661940,16.382678986,-4.824962616,1.577411652,-0.016823605,-0.034665894,0.931239605
56.676229,13.956531525,-3.627147675,0.349079132,-0.020363644,-0.059202027,0.866542339
56.691582,-3.415599823,-1.033153534,-0.528301239,-0.045143917,-0.078000858,0.835170269
56.729888,-3.491893768,0.584278107,-0.131572723,-0.038430050,0.113283321,0.943324566
56.768182,-4.819408417,-0.827159882,-0.917400360,-0.048195675,-0.015378784,0.868251324
56.782466,-16.309276581,-2.925243378,-0.230754852,-0.059059933,0.047609497,0.902186871
56.797813,-15.866771698,-5.236949921,0.021015167,-0.071877316,0.097536251,0.925746441
56.836135,-11.525646210,-10.302867889,6.383930206,-0.080910519,0.070436642,0.941859722
56.874448,-7.840648651,-6.533946991,6.017719269,-0.063942745,0.091554806,1.002406597
56.888735,-5.208507538,-4.382457733,6.666217804,-0.057717159,0.051271606,1.005946636
56.904070,-5.528942108,1.209888458,7.703815460,-0.027321652,-0.026243042,1.023524761
56.942393,-3.362194061,13.310108185,2.264057159,-0.000222042,0.016969848,1.027797222
56.980677,-6.383434296,17.452869415,1.447711945,-0.011696652,0.025514770,1.038051128
56.994975,-4.781261444,16.735706329,1.379047394,-0.012917355,0.047121216,1.057094097
57.010324,3.313526154,13.119373322,-0.558818817,-0.013039425,0.057863403,1.058803082
57.048661,4.450305939,-3.863658905,4.133258820,-0.065407589,-0.053464722,1.000697613
57.086942,0.223621368,-10.402050018,2.637897491,-0.038307980,-0.001951050,1.013514996
57.114421,5.182727814,-16.948070526,5.857501984,-0.086647823,0.034303833,1.009486675
57.142131,2.741321564,-17.581310272,10.793720245,-0.051247433,-0.039182495,0.989223003
57.180471,-1.706615448,-2.200450897,7.146869659,-0.036476925,0.011354614,1.104213238
57.218766,11.888965607,13.188037872,11.251483917,0.018576786,-0.168454960,1.029506207
57.233066,6.273731232,19.116077423,9.222064972,0.024802372,-0.157956913,0.980678082
57.248436,-2.873912811,28.950366974,1.806293488,0.033591434,-0.053098511,0.984828472
57.286744,-6.520763397,30.071887970,6.086383820,-0.010475948,0.076051876,1.053920269
57.325065,4.442676544,26.882801056,1.783405304,0.041403934,0.040651489,1.019984722
57.339359,0.009998322,23.281726837,-2.634014130,0.008689091,-0.023069214,0.971522808
57.354719,-6.375804901,19.558582306,-2.077068329,-0.009499386,-0.027952027,0.962733746
57.393055,-12.616649628,-1.780834198,0.387226105,-0.021462277,0.178835079,1.023280621
57.431356,1.886829376,-18.092479706,-4.777873993,-0.051491573,0.099367306,0.976893902
57.445649,-4.292980194,-28.750743866,-2.145732880,-0.092629269,0.053468872,0.975429058
57.461030,-6.925121307,-34.060802460,0.562702179,-0.096779659,0.080446407,0.981410503
57.499341,-1.653209686,-43.422069550,3.217731476,-0.059426144,0.054323364,1.040248394
57.537665,1.085742950,-31.672801971,-1.108135223,-0.050148800,0.037599731,1.066615582
57.551966,3.992542267,-27.118053436,-1.565898895,-0.056618527,0.032838989,1.062098980
57.567325,7.044300079,-16.864147186,-0.017131805,-0.047829464,-0.038938355,1.057338238
57.605654,7.662281036,12.035999298,-2.840007782,-0.013771847,-0.013181519,1.062709332
57.643960,7.616504669,26.211414337,-4.411663055,-0.010109738,-0.013059448,1.027308941
57.658247,6.861194611,33.009204865,-5.350078583,0.000998661,-0.013425659,1.023646832
57.673621,5.907520294,35.214099884,-6.532634735,0.001975223,-0.008664917,1.027064800
57.711926,6.563648224,33.939990997,-9.302104950,-0.030373409,0.078005001,1.039638042
57.750251,17.618640900,14.790210724,-5.838359833,-0.031960323,-0.053586792,1.017787457
57.764549,11.957630157,4.231128693,-3.663982391,-0.037819698,-0.107175663,0.955287457
57.779922,8.013233185,-0.804271698,-2.656902313,-0.028908566,-0.076658085,0.930995464
57.818245,-4.125133514,-15.300121307,-0.184978485,-0.028420284,0.092897579,0.933803082
57.856549,0.261768341,-15.055980682,-5.372966766,-0.010231808,0.086061642,0.874354839
57.870855,-2.706066132,-14.605846405,-8.661235809,-0.023171261,0.061891723,0.870082378
57.886219,-10.739818573,-18.603649139,-7.959331512,-0.102394894,0.056154419,0.880946636
57.924537,-13.028636932,-30.070629120,1.440082550,-0.086281613,0.093385860,0.938685894
57.962869,-9.953990936,-26.896800995,3.080402374,-0.061745480,0.119508907,0.999843121
57.977160,-6.398693085,-23.516979218,3.530536652,-0.058205441,0.122804806,1.009974957
57.992541,2.245410919,-15.323009491,4.285846710,-0.047707394,0.079225704,0.986049175
58.044376,-9.488597870,15.431079865,1.928363800,0.007102177,-0.002927613,0.968837261
58.082771,-3.224864960,27.432117462,-0.146831512,-0.019509152,0.045412231,1.015346050
58.097074,-0.279918671,28.172168732,0.005756378,-0.014504269,0.040285278,1.015590191
58.112427,4.366382599,27.325305939,-0.177349091,-0.011818722,-0.013791870,0.993983746
58.150735,-2.912059784,22.396717072,-0.932659149,-0.025124386,-0.024900269,0.993861675
58.189070,3.717884064,6.024036407,2.050434113,-0.037331417,0.035036255,0.988490582
58.203353,1.787647247,-0.628795624,1.188312531,-0.029152706,0.017702270,0.965541363
58.218683,-1.653209686,-3.169384003,0.448261261,-0.042458370,0.025758911,0.972133160
58.257006,1.833423615,-14.804210663,0.608478546,-0.069802120,0.123537228,1.051478863
58.295312,9.623035431,-27.049388885,12.975727081,-0.069435909,-0.119016483,1.028407574
58.309618,4.724964142,-24.859752655,12.792621613,-0.047585323,-0.121335819,1.011806011
58.324989,1.741870880,-17.657604218,8.100543976,-0.026345089,-0.065671757,0.986659527
58.363289,-14.035717010,0.073108673,9.244953156,-0.044777706,0.068849728,1.015712261
58.401618,1.169666290,12.310657501,6.010089874,-0.011696652,0.111818478,1.050746441
58.415923,4.038318634,14.988574982,6.071125031,-0.011208370,0.058473755,1.019740582
58.445060,-3.316417694,23.846302032,4.255329132,0.011862919,-0.032224488,0.923793316
58.483451,-23.374095917,28.637561798,2.660785675,0.009055302,0.113771603,0.997157574
58.521766,-5.864635468,22.671375275,-4.526103973,0.003806278,0.206422970,1.050746441
58.536077,-0.478282928,17.727527618,-5.441631317,-0.016579464,0.158205196,1.039271832
58.551444,0.856861115,4.292163849,-3.152812958,-0.052590206,0.060060669,1.016200542
58.589741,-0.630870819,-15.551891327,0.478778839,-0.025368527,0.052736450,1.008388042
58.628065,-2.744213104,-20.526256561,-4.182781219,-0.042458370,0.017824341,1.020228863
58.642368,-2.736583710,-24.371471405,-2.634014130,-0.064308956,0.029298950,1.031703472
58.657731,-2.034679413,-25.691356659,-1.146282196,-0.063088253,0.025270630,1.045375347
58.696067,4.908069611,-19.503917694,-3.313030243,-0.020241573,-0.001828980,1.074183941
58.734388,2.123340607,-7.098522186,-7.638896942,-0.056496456,-0.005613159,1.050136089
58.748684,3.771289825,-3.108348846,-5.014385223,-0.056374386,0.025514770,1.063685894
58.764050,5.472644806,-0.811901093,-4.701580048,-0.045876339,0.032350708,1.061854839
58.802360,6.708606720,6.954822540,-8.340801239,-0.036476925,0.025758911,1.043422222
58.840663,10.874256134,0.660572052,-4.800762177,-0.073098019,0.018190552,1.050136089
58.854970,13.300403595,-1.178112030,-1.184429169,-0.057717159,-0.002317261,1.040004253
58.870332,14.818653107,1.392993927,-2.366985321,0.005393192,-0.059079956,0.998256207
58.908653,-1.523509979,13.043079376,-9.187664032,-0.045632198,-0.001218628,0.934779644
58.946958,-2.553478241,13.302478790,-6.639446259,-0.003640011,0.089845821,0.958583355
58.976397,-1.340404510,12.661609650,-9.607280731,-0.026833370,0.067262813,0.938807964
58.990718,-4.575267792,9.014759064,-6.990398407,-0.043068722,0.029787231,0.927699566
59.028885,-11.357799530,-3.001537323,-4.510845184,-0.059914425,-0.000852417,0.934901714
59.067189,-14.516368866,-8.570995331,-0.162090302,-0.042214230,0.089479610,0.991176128
59.081483,-12.471691132,-9.005870819,-0.444377899,-0.049782589,0.099367306,0.993739605
59.096839,-9.252086639,-8.624401093,1.729999542,-0.056496456,0.095094845,1.000209332
59.135155,-4.796520233,-1.979198456,4.011188507,-0.004250363,0.092043087,1.029506207
59.173459,-1.981273651,8.145008087,-2.229656219,-0.010353878,0.002687622,0.992518902
59.187753,-4.262462616,7.931385040,-2.130474091,-0.025734738,-0.000364136,0.999598980
59.203107,-5.017772675,6.771717072,-1.237834930,-0.027199581,0.006960083,1.004848003
59.241439,-2.965465546,-0.872936249,-1.314128876,-0.025734738,0.037477661,1.056972027
59.279726,-0.104442596,-10.516490936,0.387226105,-0.075173214,-0.035032105,1.026698589
59.294017,-0.997081757,-12.019481659,3.095661163,-0.066140011,-0.029783081,1.047572613
59.309383,1.543506622,-12.538280487,3.568683624,-0.041481808,-0.003293823,1.064906597
59.347689,4.374011993,-5.366649628,3.355060577,-0.043801144,-0.019285034,1.038173199
59.386009,8.768543243,7.839832306,1.394306183,-0.025246456,0.020998169,1.050136089
59.400293,10.538562775,10.212574005,1.226459503,-0.020851925,-0.015378784,1.038173199
59.415639,5.907520294,12.638721466,-0.276531219,-0.023537472,-0.091062382,1.028651714
59.453939,5.304798126,10.464344025,2.111469269,-0.014504269,-0.050290894,1.037074566
59.492239,-3.552928925,9.014759064,-0.795330048,-0.024269894,-0.023801636,1.006190777
59.506509,-6.703868866,5.016956329,-1.207317352,-0.050515011,0.052736450,1.058558941
59.521872,-4.003063202,1.835498810,0.242267609,-0.052346066,0.080690548,1.097621441
59.560177,15.627368927,-0.804271698,1.218830109,-0.025002316,-0.033445191,0.988246441
59.598463,-13.814464569,10.464344025,-2.244915009,-0.004250363,0.053102661,0.975795269
59.612761,-13.806835175,11.143360138,-3.564800262,-0.011452511,0.119753048,0.997889996
59.628136,-8.344188690,12.074146271,-4.800762177,-0.024758175,0.188600704,1.045863628
59.666458,6.128772736,6.474170685,-7.265056610,-0.040749386,0.106569454,1.025477886
59.704747,-1.233592987,-4.519786835,-4.381145477,-0.087624386,0.043214966,1.020228863
59.734400,3.435596466,-10.295238495,-1.596416473,-0.073708370,0.074953243,1.036220074
59.748717,4.633411407,-10.791149139,-1.733745575,-0.068337277,0.057253052,1.031215191
59.786904,3.962024689,-12.484874725,-0.108684540,-0.092507198,0.051271606,1.015346050
59.825236,5.457386017,-7.090892792,0.883136749,-0.070900753,0.021852661,1.030116558
59.839515,6.121143341,-4.344310760,0.265155792,-0.065773800,0.015993286,1.023524761
59.854882,6.235584259,0.958118439,-1.756633759,-0.065895870,-0.003660034,1.025233746
59.893198,7.097705841,3.559741974,0.494037628,-0.045510128,-0.018918823,1.011317730
59.931488,6.968006134,3.323230743,-0.764812469,-0.054421261,0.011842895,1.005092144
59.962233,9.562000275,1.789722443,1.333271027,-0.028298214,0.020754028,0.997767925
59.976546,10.546192169,2.308521271,0.188861847,-0.018044308,0.023805786,0.990077496
60.014723,9.088977814,4.620227814,-4.442180634,-0.032448605,-0.008664917,0.944545269
60.053057,12.209400177,-0.171031952,-1.832927704,-0.026833370,-0.020017456,0.948329449
60.067355,12.171253204,-1.132335663,-3.038372040,-0.031105831,-0.035520386,0.919276714
60.082705,4.755481720,-2.208080292,-2.061809540,-0.038552120,-0.046140503,0.879115582
60.121038,-4.399791718,0.553760529,-5.540813446,-0.037941769,0.115602657,0.935267925
60.159332,1.764759064,-4.222240448,-2.679790497,-0.066750363,0.094728634,0.935756207
60.173622,1.619800568,-5.046215057,-1.199687958,-0.067116573,0.031252075,0.930873394
60.188992,0.673755646,-4.855480194,-0.284160614,-0.061013058,0.005983520,0.933314800
60.227278,-7.520214081,-1.361217499,-1.077617645,-0.046974972,0.002443481,0.904872417
60.265554,-16.110912323,-4.992809296,3.850971222,-0.085427120,0.113893673,0.918422222
60.279858,-14.318004608,-4.565563202,7.711444855,-0.059304073,0.157106563,0.965541363
60.295223,-11.037364960,-2.887096405,8.001361847,-0.038552120,0.166505978,0.970546246
60.333529,-8.580699921,2.827320099,5.849872589,-0.010353878,0.078127071,0.985927105
60.371847,-3.392711639,10.677967072,4.102741241,0.026389286,0.066286251,0.995082378
60.386140,-3.613964081,12.875232697,3.088031769,0.028952762,0.049562622,0.993251324
60.401499,-5.635753632,16.766223907,0.776325226,0.032736942,0.040407348,1.001063824
60.439841,-6.406322479,15.293750763,-1.611675262,0.017844364,0.023805786,1.031459332
60.478136,-5.910411835,-1.056041718,-0.436748505,-0.036721066,0.011232544,1.076259136
60.492438,-3.728404999,-5.343761444,0.982318878,-0.030495480,0.014040161,1.088466167
60.507795,-1.630321503,-8.708324432,1.310382843,-0.024758175,0.003420044,1.088588238
60.546115,0.673755646,-17.695751190,3.385578156,-0.047341183,-0.033201050,1.076381207
60.584438,2.497180939,-12.820568085,-0.299419403,-0.010353878,0.012819458,1.092738628
60.598734,6.884082794,-8.784618378,-1.001323700,-0.038552120,0.014528442,1.084315777
60.614081,7.883533478,-7.129039764,-0.207866669,-0.040505245,0.000002075,1.077235699
60.652392,11.904224396,0.111255646,1.203571320,-0.039894894,-0.011472534,1.047572613
60.690668,7.845386505,6.642017365,1.394306183,-0.025490597,-0.041990113,0.985072613
60.704960,7.585987091,7.107410431,0.448261261,-0.031716183,-0.025510620,0.948817730
60.720292,-1.088634491,7.382068634,0.585590363,-0.044533566,-0.019407105,0.905604839
60.758618,-5.551830292,4.719409943,3.171955109,-0.030007198,0.133424923,1.033290386
60.796897,7.219776154,1.362476349,1.333271027,-0.036354855,0.018190552,0.956752300
60.811201,3.389820099,0.729236603,1.615558624,-0.035622433,-0.014646363,0.947719097
60.826544,-4.895702362,-0.163402557,2.508197784,-0.035134152,0.007448364,0.961879253
60.864867,-4.949108124,1.164112091,-0.635112762,-0.009011105,0.042238403,0.977748394
60.903152,-10.854259491,0.988636017,-3.007854462,-0.049782589,0.093874142,1.011561871
60.917445,-6.223217010,-0.880565643,-2.000774384,-0.058693722,0.116701290,1.046473980
60.948343,-0.485912323,-3.909435272,-2.618755341,-0.065285519,0.059450317,1.031581402
60.986724,1.741870880,-5.366649628,0.257526398,-0.051735714,0.057130981,1.018031597
61.025055,-2.057567596,1.225147247,-3.068889618,-0.051003292,0.045046020,0.996547222
61.039351,-2.507701874,2.667102814,-3.168071747,-0.053322628,0.058962036,1.006801128
61.070644,-0.272289276,4.765186310,-3.900493622,-0.058205441,0.060915161,1.038661480
61.109033,4.312976837,-1.063671112,-3.244365692,-0.058205441,0.027956177,1.032557964
61.147333,1.551136017,-2.040233612,-2.656902313,-0.067726925,-0.025388550,1.007167339
61.161631,-0.249401093,-2.093639374,-2.321208954,-0.068459347,-0.009641480,1.018886089
61.177002,0.902637482,-1.315441132,-2.374614716,-0.052712277,0.031252075,1.044520855
61.215281,6.548389435,-0.247325897,-2.717937469,-0.060768917,-0.008664917,1.027919292
61.253588,6.586536407,0.851306915,-1.985515594,-0.040383175,0.009767700,1.015834332
61.267881,6.403430939,1.026782990,-2.473796844,-0.034279659,0.003297973,1.014613628
61.283227,5.129322052,1.003894806,-3.274883270,-0.028908566,0.006471802,1.016566753
61.321514,10.698780060,0.919971466,-1.131023407,-0.018410519,-0.000974488,1.025111675
61.359840,1.253589630,6.901416779,-5.311931610,-0.002663448,-0.005613159,0.947597027
61.374131,-4.056468964,8.228931427,-5.968059540,-0.016945675,0.068849728,0.988246441
