time,gyro x,gyro y,gyro z,accel x,accel y,accel z
18.000118,2.445030212,-3.512657166,12.109848022,-0.138391361,0.091155149,0.990067482
18.000744,1.155662537,-3.283775330,12.445541382,-0.139245853,0.088225462,0.992508888
18.001370,-0.026893616,-3.505027771,12.071701050,-0.138757572,0.087493040,0.989457130
18.001997,-1.102638245,-3.573692322,11.819931030,-0.137536868,0.083708860,0.991166115
18.002622,-2.292823792,-3.665245056,12.132736206,-0.136560306,0.084075071,0.992508888
18.003249,-3.345680237,-3.711021423,12.018295288,-0.134240970,0.088347532,0.990189552
18.003874,-4.360389709,-3.924644470,11.743637085,-0.139123783,0.084807493,0.989457130
18.017831,-16.521644592,-3.863609314,9.828659058,-0.106164798,0.066130735,1.011673927
18.018588,-16.483497620,-3.733909607,9.691329956,-0.104822025,0.068328001,1.014847755
18.019213,-16.765785217,-3.871238708,9.637924194,-0.105188236,0.069914915,1.014237404
18.019840,-16.926002502,-3.978050232,9.576889038,-0.103479251,0.069060422,1.017289162
18.020465,-17.429542542,-3.680503845,9.370895386,-0.103235111,0.070036985,1.016800880
18.021092,-17.574501038,-3.588951111,9.370895386,-0.102502689,0.071013547,1.016800880
18.021718,-17.681312561,-3.657615662,9.035202026,-0.103723392,0.070036985,1.014603615
18.022345,-17.803382874,-3.314292908,9.012313843,-0.102014408,0.070036985,1.015824318
18.022971,-18.093299866,-3.657615662,8.867355347,-0.103357181,0.070403196,1.011673927
18.023596,-18.566322327,-3.520286560,8.676620483,-0.102136478,0.070891477,1.010575294
18.024222,-18.589210510,-3.436363220,8.684249878,-0.102746829,0.072478391,1.013749123
18.024847,-18.810462952,-3.253257751,8.386703491,-0.102502689,0.073577024,1.012894630
18.025472,-19.191932678,-3.329551697,8.585067749,-0.104455814,0.070769407,1.013382912
18.026097,-19.054603577,-3.276145935,8.485885620,-0.103479251,0.072234251,1.013993263
18.026723,-19.428443909,-3.184593201,8.188339233,-0.100427493,0.075041868,1.011795998
18.027348,-19.878578186,-3.367698669,8.287521362,-0.104577884,0.071868040,1.011307716
18.027973,-19.817543030,-3.115928650,8.134933472,-0.099573001,0.071623899,1.010087013
18.028605,-20.122718811,-3.123558044,7.806869507,-0.101770267,0.071623899,1.007035255
18.029231,-20.084571838,-2.963340759,7.913681030,-0.097253665,0.075163938,1.009354591
18.029857,-20.214271545,-2.833641052,7.829757690,-0.100549564,0.071135618,1.006791115
18.030482,-20.466041565,-3.016746521,7.669540405,-0.096399173,0.071501829,1.008622169
18.031107,-20.664405823,-3.039634705,7.562728882,-0.097864017,0.073210813,1.008500099
18.031733,-20.511817932,-2.871788025,7.494064331,-0.093957767,0.069426633,1.008866310
18.032359,-20.534706116,-3.016746521,7.326217651,-0.094568118,0.066008665,1.009598732
18.032985,-20.488929749,-2.871788025,7.242294312,-0.091028079,0.062468629,1.009842873
18.033611,-20.473670959,-2.688682556,7.135482788,-0.092737064,0.065276243,1.012528419
18.034236,-20.626258850,-2.749717712,7.158370972,-0.090051517,0.060881715,1.009110451
18.034861,-20.633888245,-2.642906189,7.089706421,-0.089319095,0.058928590,1.009720802
18.035487,-20.397377014,-2.658164978,6.952377319,-0.086633548,0.057219606,1.012650490
18.036114,-20.092201233,-2.681053162,6.952377319,-0.087488040,0.055388551,1.009598732
18.037931,-19.390296936,-2.375877380,6.654830933,-0.079431400,0.044158082,1.013138771
18.038558,-19.046974182,-2.284324646,6.616683960,-0.081140384,0.040984254,1.014115334
18.039183,-18.490028381,-2.208030701,6.380172729,-0.078210697,0.036467653,1.015336037
18.039810,-18.139076233,-2.398765564,6.456466675,-0.078210697,0.035613161,1.015336037
18.040435,-17.284584045,-1.933372498,6.250473022,-0.076257572,0.031096557,1.013749123
18.041060,-16.582679749,-2.055442810,6.204696655,-0.075403079,0.029509643,1.012650490
18.041685,-16.056251526,-2.238548279,6.052108765,-0.075036868,0.024870971,1.014847755
18.042310,-15.232276917,-2.116477966,6.250473022,-0.075647220,0.019988159,1.015702248
18.042935,-14.339637756,-1.963890076,6.074996948,-0.074426517,0.012541870,1.012772560
18.043562,-13.271522522,-2.146995544,5.869003296,-0.074792728,0.012419799,1.011185646
18.044188,-12.447547913,-1.971519470,5.891891479,-0.074060306,0.005950073,1.012528419
18.044813,-11.257362366,-2.116477966,5.937667847,-0.078576908,0.000456909,1.010575294
18.045438,-9.945106506,-2.208030701,5.746932983,-0.080163822,-0.000519653,1.008011818
18.046064,-8.808326721,-2.177513123,5.991073608,-0.080407962,-0.007721802,1.006424904
18.046690,-7.305335999,-2.322471619,5.777450562,-0.084192142,-0.010773560,1.008622169
18.047317,-6.183815002,-2.269065857,5.273910522,-0.083337650,-0.014923951,1.005814552
18.047942,-4.764747620,-2.444541931,5.556198120,-0.082483158,-0.017365357,1.000687599
18.048569,-3.193092346,-2.375877380,5.571456909,-0.085779056,-0.022492310,0.999711037
18.062572,33.809471130,-7.182395935,3.686996460,-0.081628665,-0.018097779,0.997269630
18.063344,35.167503357,-7.457054138,3.854843140,-0.085779056,-0.013703248,0.999711037
18.063969,36.205101013,-7.762229919,3.778549194,-0.080652103,-0.013214966,0.999833107
18.064594,37.265586853,-7.655418396,3.648849487,-0.081750736,-0.006134888,1.004349709
18.065219,38.295555115,-8.059776306,3.328414917,-0.079553470,-0.002228638,1.002518654
18.065846,39.058494568,-8.075035095,3.412338257,-0.077600345,-0.000885864,1.005692482
18.066471,39.951133728,-7.952964783,3.206344604,-0.078454837,0.008513549,1.007035255
18.067097,40.942955017,-8.250511169,3.130050659,-0.078210697,0.007414917,1.010209084
18.067724,41.469383240,-8.372581482,3.267379761,-0.077112064,0.013274292,1.013138771
18.068349,42.201805115,-8.479393005,3.053756714,-0.075036868,0.017302612,1.018387794
18.068975,42.728233337,-8.425987244,2.924057007,-0.075036868,0.022917846,1.016434669
18.069601,43.170738220,-8.425987244,2.840133667,-0.074548587,0.028288940,1.017655373
18.070226,43.521690369,-8.509910583,2.657028198,-0.073694095,0.029753784,1.018631935
18.070851,43.910789490,-8.456504822,2.595993042,-0.074426517,0.035613161,1.017289162
18.071476,44.071006775,-8.181846619,2.542587280,-0.070642337,0.041716676,1.019486427
18.072101,44.193077087,-8.670127869,2.199264526,-0.073938236,0.049040895,1.022782326
18.072727,44.116783142,-8.494651794,2.351852417,-0.074670658,0.047087770,1.022416115
18.073353,44.406700134,-8.258140564,2.023788452,-0.073694095,0.056609254,1.024979591
18.073978,43.994712830,-8.517539978,1.878829956,-0.075525150,0.064177610,1.025712013
18.074605,44.040489197,-8.494651794,1.825424194,-0.076379642,0.067351438,1.026078224
18.075232,43.628501892,-8.357322693,1.848312378,-0.075769290,0.071135618,1.022782326
18.075857,43.163108826,-8.433616638,1.497360229,-0.075647220,0.076506712,1.022904396
18.076484,42.842674255,-8.456504822,1.367660522,-0.076989993,0.079314329,1.025345802
18.077110,42.362022400,-8.296287537,1.405807495,-0.079187259,0.085784055,1.025223732
18.077737,41.858482361,-8.464134216,1.108261108,-0.079065189,0.091033079,1.022660255
18.078362,41.194725037,-8.342063904,1.230331421,-0.079553470,0.091765501,1.021683693
18.078987,40.408897400,-8.555686951,1.016708374,-0.080163822,0.095793821,1.025589943
18.079613,39.607810974,-8.578575134,0.452133179,-0.079553470,0.101164915,1.024613380
18.080238,38.699913025,-8.487022400,0.650497437,-0.077722415,0.103850462,1.024247169
18.081089,36.891746521,-8.570945740,0.146957397,-0.077600345,0.111174680,1.025834084
18.082922,34.763145447,-8.548057556,-0.066665649,-0.077722415,0.119231321,1.026322365
18.083548,33.687400818,-8.570945740,-0.356582642,-0.075036868,0.119841672,1.027787209
18.084174,32.520103455,-8.502281189,-0.402359009,-0.073816165,0.121550657,1.032181740
18.084800,31.345176697,-8.364952087,-0.654129028,-0.073938236,0.126311406,1.028763771
18.085426,29.903221130,-8.281028748,-0.753311157,-0.072107181,0.127410039,1.031815529
18.086051,28.667259216,-8.075035095,-1.035598755,-0.071252689,0.128874883,1.034989357
18.086676,27.599143982,-8.242881775,-1.188186646,-0.073816165,0.132903203,1.035843849
18.087302,26.370811462,-8.197105408,-1.478103638,-0.068323001,0.136321172,1.034867287
18.087927,24.921226501,-7.975852966,-1.432327271,-0.066125736,0.135832891,1.039261818
18.088552,23.441123962,-8.113182068,-1.783279419,-0.066247806,0.134490117,1.038773537
18.089178,22.167015076,-7.884300232,-1.958755493,-0.067712650,0.136809453,1.043900490
18.089803,20.709800720,-7.960594177,-2.210525513,-0.068200931,0.135466680,1.045243263
18.090428,19.244956970,-7.785118103,-2.157119751,-0.065027103,0.136321172,1.043778419
18.091055,18.054771423,-7.846153259,-2.332595825,-0.063684329,0.137663946,1.045853615
18.091681,16.322898865,-7.411277771,-2.645401001,-0.063196048,0.133025274,1.050004005
18.092306,15.216636658,-7.472312927,-3.087905884,-0.058191162,0.131194219,1.051590919
18.092931,13.850975037,-7.182395935,-2.981094360,-0.058679443,0.130705938,1.052445412
18.093558,12.714195251,-7.052696228,-3.126052856,-0.060144287,0.127165899,1.056229591
18.107557,-3.963661194,-3.855979919,-6.025222778,-0.066125736,0.032317262,1.046341896
18.108297,-4.413795471,-3.833091736,-6.055740356,-0.069909915,0.026335815,1.044388771
18.108923,-4.467201233,-3.901756287,-6.063369751,-0.071985111,0.024382690,1.044388771
18.109550,-4.726600647,-3.817832947,-6.208328247,-0.071374759,0.021819213,1.041337013
18.110176,-4.818153381,-3.855979919,-6.254104614,-0.075158939,0.018279174,1.039261818
18.110801,-5.016517639,-3.573692322,-6.345657349,-0.073694095,0.018889526,1.037674904
18.111428,-4.924964905,-3.939903259,-6.063369751,-0.079187259,0.014006713,1.035355568
18.112055,-5.222511292,-3.909385681,-6.475357056,-0.078576908,0.014128784,1.032670021
18.112757,-5.397987366,-3.825462341,-6.368545532,-0.081628665,0.010832885,1.030594826
18.113384,-5.550575256,-3.947532654,-6.322769165,-0.081994876,0.010344604,1.031937599
18.114010,-5.657386780,-3.802574158,-6.482986450,-0.077966556,0.013152221,1.027176857
18.114673,-5.939674377,-4.046714783,-6.376174927,-0.079431400,0.010222534,1.025956154
18.115298,-6.221961975,-4.107749939,-6.330398560,-0.077844486,0.009490112,1.028275490
18.115923,-6.473731995,-3.978050232,-6.383804321,-0.079309329,0.009978393,1.025101662
18.116549,-6.557655334,-4.100120544,-6.215957642,-0.077478275,0.008757690,1.023270607
18.117174,-6.962013245,-4.061973572,-6.421951294,-0.080774173,0.009123901,1.022782326
18.117799,-7.267189026,-4.191673279,-6.360916138,-0.079431400,0.010710815,1.020707130
18.118424,-7.694435120,-4.283226013,-6.368545532,-0.082605228,0.008635620,1.022538185
18.119049,-7.953834534,-4.550254822,-6.421951294,-0.079553470,0.009368042,1.017411232
18.119676,-8.442115784,-4.306114197,-6.391433716,-0.080041751,0.010222534,1.019120216
18.120303,-8.663368225,-4.519737244,-6.467727661,-0.080896243,0.005705933,1.019364357
18.120929,-8.899879456,-4.596031189,-6.238845825,-0.077478275,0.006926636,1.019486427
18.121555,-9.487342834,-4.588401794,-6.101516724,-0.077112064,0.003996948,1.013749123
18.122181,-9.929847717,-4.657066345,-6.109146118,-0.079065189,0.004607300,1.013871193
18.122808,-10.318946838,-4.710472107,-6.246475220,-0.080285892,0.004485229,1.020585060
18.123434,-10.875892639,-4.496849060,-5.926040649,-0.078088626,0.003508667,1.013260841
18.124061,-11.226844788,-4.512107849,-5.994705200,-0.079919681,0.004607300,1.018265724
18.124686,-11.631202698,-4.626548767,-5.994705200,-0.080774173,0.002043823,1.017533302
18.125311,-12.195777893,-4.481590271,-5.872634888,-0.080896243,-0.001252075,1.015458107
18.125936,-12.623023987,-4.245079041,-5.803970337,-0.079797611,-0.002594849,1.015702248
18.127758,-13.637733459,-4.382408142,-5.681900024,-0.082971439,-0.006745239,1.018998146
18.128383,-13.881874084,-4.573143005,-5.529312134,-0.085779056,-0.014679810,1.016678810
18.129009,-14.133644104,-4.496849060,-5.666641235,-0.085290775,-0.014069458,1.015091896
18.129634,-14.347267151,-4.542625427,-5.468276978,-0.082849368,-0.021759888,1.018509865
18.130260,-14.522743225,-4.489219666,-5.384353638,-0.084192142,-0.025421998,1.019608498
18.130886,-14.644813538,-4.580772400,-5.300430298,-0.087610111,-0.029084107,1.018387794
18.131511,-14.652442932,-4.390037537,-5.422500610,-0.088464603,-0.032135863,1.018631935
18.132136,-14.621925354,-4.588401794,-5.079177856,-0.090539798,-0.036774535,1.018265724
18.132762,-14.469337463,-4.473960876,-4.873184204,-0.094201908,-0.041657347,1.015336037
18.133389,-14.263343811,-4.618919373,-4.911331177,-0.096643314,-0.043976683,1.011918068
18.134015,-14.064979553,-4.832542419,-4.857925415,-0.099573001,-0.048127074,1.009964943
18.134641,-13.782691956,-4.931724548,-4.766372681,-0.102380618,-0.053986449,1.008011818
18.135266,-13.446998596,-5.099571228,-4.590896606,-0.105798587,-0.058503050,1.008255959
18.135891,-12.882423401,-5.114830017,-4.529861450,-0.107873783,-0.063996218,1.004715919
18.136518,-12.249183655,-5.542076111,-4.117874146,-0.105920658,-0.064118288,1.002640724
18.137143,-11.577796936,-5.557334900,-4.209426880,-0.103235111,-0.069367312,1.004715919
18.137769,-11.058998108,-5.656517029,-4.003433228,-0.109338626,-0.074982546,0.999344826
18.151809,19.954490662,-12.439048767,-1.981643677,-0.101892337,-0.078156374,1.045609474
18.152596,21.495628357,-12.568748474,-1.920608521,-0.102014408,-0.075592898,1.047806740
18.153221,22.754478455,-12.522972107,-1.867202759,-0.102746829,-0.074005984,1.053299904
18.153848,24.303245544,-12.591636658,-1.684097290,-0.101037845,-0.066559695,1.058793068
18.154475,25.691795349,-12.576377869,-1.630691528,-0.097864017,-0.063141726,1.064530373
18.155100,26.691246033,-12.652671814,-1.661209106,-0.095178470,-0.057282347,1.071488380
18.155726,28.011131287,-12.675559998,-1.531509399,-0.096765384,-0.055085082,1.072709084
18.156353,29.353904724,-12.584007263,-1.645950317,-0.095422611,-0.048737425,1.081620216
18.156979,30.284690857,-12.477195740,-1.783279419,-0.093591556,-0.043000121,1.084794044
18.157605,31.329917908,-12.309349060,-1.783279419,-0.090783939,-0.038361449,1.089676857
18.158230,32.077598572,-12.172019958,-1.630691528,-0.090906009,-0.033234496,1.097489357
18.158855,33.344078064,-12.088096619,-1.699356079,-0.089319095,-0.029816529,1.101151466
18.159480,34.068870544,-11.874473572,-1.684097290,-0.086633548,-0.023590943,1.103104591
18.160105,34.633445740,-11.729515076,-1.821426392,-0.084802493,-0.019928833,1.105179787
18.160731,35.411643982,-11.225975037,-1.760391235,-0.083581790,-0.017487427,1.109208107
18.161357,36.174583435,-10.966575623,-1.592544556,-0.079553470,-0.010163208,1.114701271
18.161984,36.639976501,-10.508811951,-1.684097290,-0.076989993,-0.002838989,1.117386818
18.162611,36.838340759,-10.546958923,-1.714614868,-0.077844486,0.002898315,1.120926857
18.163238,37.418174744,-9.974754333,-1.729873657,-0.075769290,0.008391479,1.121537209
18.163865,37.395286560,-9.814537048,-1.798538208,-0.071618900,0.016936401,1.123368263
18.164491,37.769126892,-9.494102478,-1.806167603,-0.070154056,0.024260620,1.123124123
18.165116,37.975120544,-8.731163025,-1.912979126,-0.073205814,0.026457885,1.124344826
18.165743,37.860679626,-8.677757263,-1.935867310,-0.071130618,0.032561403,1.133378029
18.166368,37.914085388,-8.067405701,-1.874832153,-0.069055423,0.035124879,1.130814552
18.166993,37.654685974,-7.533348083,-1.821426392,-0.066614017,0.041838747,1.134476662
18.167618,37.204551697,-7.151878357,-2.225784302,-0.065515384,0.049162965,1.135087013
18.168243,36.899375916,-6.755149841,-2.180007935,-0.065149173,0.058074098,1.135941505
18.168869,36.350059509,-6.175315857,-1.928237915,-0.066247806,0.058318239,1.135575294
18.169494,36.227989197,-5.625999451,-2.248672485,-0.063562259,0.064910032,1.135819435
18.170120,35.426902771,-5.206382751,-2.172378540,-0.062341552,0.067717649,1.137406349
18.171939,33.298301697,-4.069602966,-2.279190063,-0.065149173,0.079680540,1.136307716
18.172565,32.329368591,-3.512657166,-2.294448853,-0.065881595,0.084197141,1.134476662
18.173190,31.650352478,-2.948081970,-2.752212524,-0.067956790,0.087370969,1.135453224
18.173815,30.551719666,-2.787864685,-2.607254028,-0.069177493,0.090544797,1.130082130
18.174440,29.529380798,-2.192771912,-2.622512817,-0.066125736,0.092131712,1.129715919
18.175066,28.873252869,-1.712120056,-2.538589478,-0.068811283,0.094939329,1.128129005
18.175693,27.690696716,-1.567161560,-2.836135864,-0.068567142,0.099089719,1.127152443
18.176319,26.675987244,-0.994956970,-2.622512817,-0.069909915,0.097624876,1.126908302
18.176945,25.699424744,-0.674522400,-2.729324341,-0.069177493,0.101897337,1.123002052
18.177572,24.585533142,-0.186241150,-2.904800415,-0.070642337,0.099578001,1.122757912
18.178198,23.486900330,0.096046448,-2.920059204,-0.071008548,0.101897337,1.120072365
18.178824,22.662925720,0.408851624,-2.866653442,-0.071374759,0.100554563,1.118119240
18.179451,21.243858337,0.744544983,-2.927688599,-0.069055423,0.102873899,1.118485451
18.180077,20.313072205,1.248085022,-3.156570435,-0.070154056,0.103362180,1.116410255
18.180702,19.153404236,1.354896545,-2.920059204,-0.071985111,0.102995969,1.113968849
18.181327,18.588829041,1.660072327,-3.133682251,-0.067712650,0.101042844,1.108841896
18.181954,17.474937439,2.186500549,-3.232864380,-0.070154056,0.102751829,1.111405373
18.202678,-4.612159729,10.006629944,-4.613784790,-0.070642337,0.070769407,1.042923927
18.203474,-5.138587952,9.876930237,-4.674819946,-0.073694095,0.069548704,1.043656349
18.204101,-5.680274963,10.258399963,-4.583267212,-0.073938236,0.071379758,1.041947365
18.204726,-6.054115295,10.296546936,-4.583267212,-0.079065189,0.067595579,1.034745216
18.205351,-6.611061096,10.273658752,-4.476455688,-0.079065189,0.069426633,1.033890724
18.205976,-7.137489319,10.426246643,-4.499343872,-0.081872806,0.064055540,1.027787209
18.206602,-7.297706604,10.197364807,-4.560379028,-0.085046634,0.066008665,1.022904396
18.207227,-7.663917542,10.586463928,-4.522232056,-0.089563236,0.063567258,1.020462990
18.207853,-7.831764221,10.334693909,-4.445938110,-0.091028079,0.062712766,1.018631935
18.208479,-8.365821838,10.212623596,-4.400161743,-0.092981204,0.059538942,1.015458107
18.209106,-8.587074280,10.410987854,-4.247573853,-0.093835697,0.059294801,1.007401466
18.209733,-8.991432190,10.151588440,-4.583267212,-0.100793704,0.053191286,1.003129005
18.210359,-9.060096741,9.724342346,-4.331497192,-0.100549564,0.057707887,1.001542091
18.210984,-8.876991272,9.899818420,-4.506973267,-0.097986087,0.050871950,0.998246193
18.211609,-9.105873108,9.831153870,-4.453567505,-0.103235111,0.051726442,0.998124123
18.212235,-9.227943420,9.541236877,-4.400161743,-0.101770267,0.048552614,0.995316505
18.212861,-9.021949768,9.510719299,-4.278091431,-0.102624759,0.046843629,0.992142677
18.213488,-9.090614319,9.342872620,-4.354385376,-0.103113040,0.046599489,0.994462013
18.214132,-8.945655823,9.327613831,-4.209426880,-0.101770267,0.043913942,0.992753029
18.214758,-9.197425842,9.159767151,-4.300979614,-0.104699954,0.046721559,0.991898537
18.215383,-9.296607971,9.159767151,-4.331497192,-0.106408939,0.046355348,0.990067482
18.216010,-9.052467346,9.083473206,-4.194168091,-0.105798587,0.046111207,0.989701271
18.216636,-9.052467346,8.976661682,-4.300979614,-0.106653079,0.044280153,0.987259865
18.217261,-8.785438538,8.991920471,-3.988174438,-0.107141361,0.046965700,0.990311623
18.217887,-8.861732483,8.907997131,-4.171279907,-0.107141361,0.048918825,0.988236427
18.218512,-9.021949768,8.961402893,-4.156021118,-0.107995853,0.050383668,0.987626076
18.219139,-9.029579163,8.740150452,-4.003433228,-0.107995853,0.053069215,0.987259865
18.219765,-8.869361877,8.763038635,-4.308609009,-0.108239993,0.050871950,0.988846779
18.220391,-9.235572815,8.290016174,-4.033950806,-0.111047611,0.054045778,0.985428810
18.221016,-9.151649475,8.503639221,-3.965286255,-0.110803470,0.052947145,0.983475685
18.222812,-9.227943420,7.885658264,-3.927139282,-0.108117923,0.051360231,0.981034279
18.223439,-9.258460999,7.717811584,-4.026321411,-0.112390384,0.053435426,0.982987404
18.224065,-9.327125549,7.450782776,-4.033950806,-0.110071048,0.052580934,0.979081154
18.224692,-9.151649475,7.389747620,-4.041580200,-0.107873783,0.052336793,0.979203224
18.225319,-9.250831604,7.214271545,-4.011062622,-0.109582767,0.054289918,0.979569435
18.225944,-9.105873108,7.023536682,-4.110244751,-0.108484134,0.045378786,0.974808693
18.226570,-9.159278870,6.909095764,-4.011062622,-0.109094486,0.047576051,0.975174904
18.227197,-9.243202209,6.825172424,-3.858474731,-0.105310306,0.046477418,0.975663185
18.227823,-8.854103088,6.619178772,-3.827957153,-0.106897220,0.047698122,0.975174904
18.228449,-8.869361877,6.397926331,-3.805068970,-0.108850345,0.046233278,0.973832130
18.229075,-8.670997620,6.207191467,-3.988174438,-0.106042728,0.045500856,0.972245216
18.229700,-8.579444885,6.344520569,-3.774551392,-0.110071048,0.041228395,0.971756935
18.230327,-8.388710022,5.955421448,-3.660110474,-0.106531009,0.041960817,0.973710060
18.230953,-8.083534241,5.833351135,-3.782180786,-0.107873783,0.045378786,0.970414162
18.231578,-7.892799377,5.856239319,-3.927139282,-0.106286868,0.043181520,0.969559669
18.232204,-7.801246643,5.543434143,-3.789810181,-0.104455814,0.041960817,0.972123146
18.232830,-7.190895081,5.650245667,-3.744033813,-0.107873783,0.041228395,0.974564552
18.233456,-6.962013245,5.146705627,-3.774551392,-0.106286868,0.038786989,0.973954201
18.247516,1.933860779,4.696571350,-3.034500122,-0.096277103,0.046355348,0.995438576
18.248280,2.559471130,4.635536194,-3.026870728,-0.095910892,0.051482301,0.993119240
18.248907,2.994346619,4.612648010,-2.874282837,-0.095910892,0.051238161,0.993851662
18.249532,3.284263611,4.505836487,-2.775100708,-0.095056400,0.052580934,0.995804787
18.250159,3.536033630,4.635536194,-2.775100708,-0.095544681,0.055632692,0.997879982
18.250784,3.902244568,4.345619202,-2.721694946,-0.094323978,0.055876832,0.995438576
18.251411,4.016685486,4.269325256,-2.813247681,-0.093835697,0.058684450,0.995316505
18.252038,4.108238220,4.643165588,-2.874282837,-0.092004642,0.061736207,0.994584084
18.252663,4.176902771,4.406654358,-2.653030396,-0.088830814,0.062834837,0.993363380
18.253290,4.543113708,4.360877991,-2.614883423,-0.090417728,0.065520383,0.992753029
18.253917,4.482078552,4.688941956,-2.721694946,-0.085656986,0.069304563,0.997879982
18.254543,4.428672791,4.582130432,-2.591995239,-0.088586673,0.071135618,0.996537209
18.255169,4.741477966,4.513465881,-2.630142212,-0.087976322,0.074797727,0.993973732
18.255794,4.566001892,4.574501038,-2.538589478,-0.085534915,0.077239133,0.995804787
18.256421,4.535484314,4.742347717,-2.637771606,-0.081994876,0.076994993,0.995072365
18.257046,4.779624939,4.711830139,-2.431777954,-0.079675540,0.076628782,0.995926857
18.257671,4.611778259,4.811012268,-2.454666138,-0.079797611,0.083098508,0.998124123
18.258297,4.413414001,4.986488342,-2.462295532,-0.077112064,0.082854368,0.999955177
18.258922,4.245567322,4.719459534,-2.469924927,-0.073205814,0.088713743,1.000565529
18.259549,4.115867615,5.100929260,-2.630142212,-0.073449954,0.092864133,1.000077248
18.260175,3.948020935,5.253517151,-2.630142212,-0.071130618,0.093352415,1.001664162
18.260800,3.680992126,5.146705627,-2.378372192,-0.063928470,0.098235227,1.003373146
18.261426,3.467369080,5.558692932,-2.569107056,-0.070642337,0.101286985,1.005448341
18.262052,3.101158142,5.451881409,-2.591995239,-0.066003665,0.102385618,1.003373146
18.262677,2.628135681,5.680763245,-2.553848267,-0.064660892,0.104949094,1.009232521
18.263304,2.261924744,5.978309631,-2.202896118,-0.063440189,0.106780149,1.011429787
18.263929,1.819419861,5.985939026,-2.508071899,-0.064660892,0.110808469,1.013138771
18.264554,1.621055603,6.146156311,-2.294448853,-0.059778076,0.109587766,1.014481544
18.265180,0.797080994,6.565773010,-2.515701294,-0.060510498,0.113249876,1.015580177
18.265805,0.545310974,6.771766663,-2.454666138,-0.060144287,0.116667844,1.015336037
18.267597,-1.354408264,7.366859436,-2.530960083,-0.058069091,0.122038938,1.018387794
18.268224,-1.766395569,7.839881897,-2.660659790,-0.056848388,0.116667844,1.019486427
18.268850,-2.323341370,8.106910706,-2.340225220,-0.055383544,0.121672727,1.019974709
18.269475,-2.803993225,8.282386780,-2.584365845,-0.057580810,0.118254758,1.013627052
18.270101,-3.391456604,8.564674377,-2.485183716,-0.055627685,0.119597532,1.014725685
18.270726,-4.017066956,8.907997131,-2.515701294,-0.054895263,0.118865110,1.015091896
18.271352,-4.535865784,9.075843811,-2.843765259,-0.054040771,0.120696165,1.017167091
18.271978,-4.902076721,9.289466858,-2.508071899,-0.054406982,0.122283079,1.015091896
18.272605,-5.527687073,9.602272034,-2.714065552,-0.054651123,0.117888547,1.012650490
18.273232,-5.840492249,10.105812073,-2.698806763,-0.055017333,0.118743040,1.013382912
18.273857,-6.221961975,10.166847229,-2.721694946,-0.055261474,0.118987180,1.009842873
18.274483,-6.710243225,10.472023010,-2.561477661,-0.053308349,0.117278196,1.009354591
18.275108,-6.916236877,10.700904846,-2.683547974,-0.054529052,0.118132688,1.003495216
18.275733,-7.190895081,11.021339417,-2.759841919,-0.052820068,0.113371946,1.005082130
18.276359,-7.801246643,11.357032776,-2.653030396,-0.054406982,0.115447141,1.004227638
18.276985,-7.984352112,11.433326721,-2.973464966,-0.048303466,0.115203001,1.000443459
18.277611,-8.114051819,11.769020081,-2.950576782,-0.052209716,0.114958860,0.998978615
18.278238,-8.289527893,12.013160706,-2.889541626,-0.053186279,0.114958860,0.996781349
18.278864,-8.510780334,12.234413147,-3.126052856,-0.053552490,0.112273313,0.991898537
18.292835,-7.351112366,14.462196350,-3.858474731,-0.071496829,0.084075071,0.922684669
18.293564,-6.900978088,14.317237854,-3.827957153,-0.073083743,0.079314329,0.921586037
18.294189,-6.603431702,14.340126038,-4.011062622,-0.074792728,0.078459837,0.917801857
18.294816,-6.206703186,14.073097229,-4.049209595,-0.076501712,0.075896360,0.911332130
18.295441,-5.886268616,13.966285706,-4.072097778,-0.078210697,0.074553587,0.905716896
18.296066,-5.382728577,13.821327209,-3.995803833,-0.080163822,0.071501829,0.901932716
18.296691,-5.115699768,13.836585999,-4.163650513,-0.081872806,0.072478391,0.897171974
18.297316,-4.574012756,13.706886292,-4.018692017,-0.083215579,0.067107297,0.897660255
18.297942,-4.177284241,13.264381409,-4.033950806,-0.084192142,0.063078977,0.893265724
18.298567,-3.612709045,13.493263245,-4.102615356,-0.085168704,0.062224489,0.886918068
18.299192,-3.162574768,13.035499573,-4.171279907,-0.089929447,0.061614137,0.884354591
18.299818,-2.773475647,12.768470764,-4.186538696,-0.089197025,0.061736207,0.880082130
18.300445,-2.224159241,12.623512268,-4.308609009,-0.093835697,0.056609254,0.877030373
18.301070,-1.728248596,12.249671936,-4.117874146,-0.093713626,0.057829957,0.873612404
18.301697,-1.354408264,12.013160706,-4.072097778,-0.095056400,0.053191286,0.868119240
18.302322,-0.553321838,11.715614319,-4.033950806,-0.095300540,0.057097536,0.866410255
18.302947,-0.110816956,11.646949768,-4.011062622,-0.097131595,0.051726442,0.862626076
18.303574,0.530052185,11.105262756,-3.988174438,-0.097986087,0.049162965,0.860672951
18.304199,0.736045837,10.891639709,-3.995803833,-0.096032962,0.050505739,0.858841896
18.304826,1.468467712,10.685646057,-4.018692017,-0.098962650,0.049773317,0.856400490
18.305451,1.788902283,10.365211487,-4.056838989,-0.101281986,0.047453981,0.854081154
18.306078,2.231407166,9.846412659,-3.881362915,-0.103479251,0.050383668,0.852005959
18.306704,2.857017517,9.670936584,-4.102615356,-0.102868900,0.048674684,0.849564552
18.307330,3.276634216,9.365760803,-3.904251099,-0.105066165,0.049651247,0.848343849
18.307955,3.932762146,8.854591370,-3.797439575,-0.105920658,0.047942262,0.846390724
18.308581,4.337120056,8.747779846,-3.774551392,-0.105310306,0.047698122,0.844803810
18.309207,4.611778259,8.419715881,-3.911880493,-0.104944095,0.052336793,0.839310646
18.309833,5.115318298,7.862770081,-3.797439575,-0.107263431,0.048430543,0.841629982
18.310458,5.435752869,7.611000061,-3.782180786,-0.109216556,0.050017457,0.839066505
18.311084,5.969810486,7.107460022,-3.805068970,-0.111413822,0.048064332,0.834183693
18.312858,6.816673279,5.978309631,-3.660110474,-0.111413822,0.051238161,0.831376076
18.313485,7.297325134,5.696022034,-3.568557739,-0.116296634,0.048308473,0.831498146
18.314110,7.892417908,5.230628967,-3.415969849,-0.116662845,0.050017457,0.828812599
18.314735,8.060264587,5.009376526,-3.438858032,-0.116906986,0.054778200,0.828812599
18.315362,8.357810974,4.551612854,-3.507522583,-0.117761478,0.049895387,0.825394630
18.315987,8.487510681,4.238807678,-3.499893188,-0.114221439,0.054045778,0.828446388
18.316613,8.983421326,3.750526428,-3.446487427,-0.116784915,0.050261598,0.827958107
18.317285,9.265708923,3.300392151,-3.377822876,-0.119226322,0.050749879,0.824540138
18.317910,9.380149841,3.094398499,-3.278640747,-0.122888431,0.050383668,0.826127052
18.318535,9.448814392,2.491676331,-3.255752563,-0.121301517,0.051970582,0.822587013
18.319162,9.731101990,2.140724182,-3.065017700,-0.121179447,0.053679567,0.824784279
18.319788,9.868431091,1.629554749,-3.072647095,-0.121911868,0.056609254,0.823319435
18.320415,10.104942322,1.743995667,-3.194717407,-0.120080814,0.056853395,0.823075294
18.321041,10.150718689,1.110755920,-3.431228638,-0.119958743,0.054778200,0.819291115
18.321667,10.272789001,0.630104065,-3.034500122,-0.121545658,0.057219606,0.820145607
18.322293,10.577964783,0.477516174,-2.942947388,-0.122522220,0.054289918,0.822220802
18.322918,10.356712341,0.096046448,-3.194717407,-0.123987064,0.053435426,0.823075294
18.323544,10.539817810,-0.415122986,-3.049758911,-0.123010501,0.051970582,0.821488380
18.337578,9.204673767,-8.860862732,-1.974014282,-0.109338626,0.061858278,0.834061623
18.338332,9.067344666,-9.249961853,-1.974014282,-0.112634525,0.062468629,0.837357521
18.338959,8.853721619,-9.379661560,-1.958755493,-0.113733158,0.062468629,0.839676857
18.339584,8.472251892,-9.852684021,-1.752761841,-0.112268314,0.063689329,0.842728615
18.340209,8.197593689,-9.982383728,-1.851943970,-0.115930423,0.062346559,0.844803810
18.340835,8.075523376,-10.409629822,-1.867202759,-0.112024173,0.067351438,0.844193459
18.341460,7.762718201,-10.722434998,-1.813796997,-0.110925540,0.065886594,0.846512794
18.342086,7.365989685,-11.142051697,-1.729873657,-0.110559329,0.067107297,0.848710060
18.342711,7.259178162,-11.538780212,-1.729873657,-0.107995853,0.068938352,0.852250099
18.343336,6.931114197,-11.752403259,-1.485733032,-0.107141361,0.069914915,0.852250099
18.343963,6.427574158,-11.973655701,-1.554397583,-0.106653079,0.070525266,0.856034279
18.344588,6.130027771,-12.492454529,-1.577285767,-0.105066165,0.069670774,0.855057716
18.345215,5.412864685,-12.484825134,-1.531509399,-0.104822025,0.074065305,0.857987404
18.345841,5.039024353,-12.927330017,-1.447586060,-0.103723392,0.074309446,0.861161232
18.346468,4.695701599,-13.064659119,-1.485733032,-0.104822025,0.075530149,0.862381935
18.347094,4.024314880,-13.285911560,-1.432327271,-0.102502689,0.075774290,0.862626076
18.347720,3.581809998,-13.415611267,-1.325515747,-0.099573001,0.078093626,0.867630959
18.348346,3.070640564,-13.598716736,-1.508621216,-0.099817142,0.080290891,0.871293068
18.348971,2.414512634,-13.766563416,-1.569656372,-0.092737064,0.078459837,0.872879982
18.349596,1.827049255,-13.865745544,-1.188186646,-0.096155033,0.081755735,0.876786232
18.350221,1.033592224,-14.148033142,-1.455215454,-0.095056400,0.081755735,0.877274513
18.350847,0.346946716,-14.361656189,-1.279739380,-0.094568118,0.082488157,0.878129005
18.351473,-0.225257874,-14.270103455,-1.203445435,-0.089441165,0.084319212,0.885575294
18.352099,-0.950050354,-14.636314392,-1.188186646,-0.090661868,0.085051633,0.889115334
18.352725,-1.690101624,-14.590538025,-1.066116333,-0.089441165,0.079924680,0.888138771
18.353350,-2.315711975,-14.704978943,-1.058486938,-0.089929447,0.082121946,0.893631935
18.353975,-3.307533264,-14.857566833,-1.134780884,-0.090051517,0.083586790,0.894242287
18.354601,-3.948402405,-14.926231384,-1.119522095,-0.090539798,0.083586790,0.899857521
18.355228,-4.673194885,-14.857566833,-0.852493286,-0.088342533,0.082244016,0.902543068
18.355853,-5.504798889,-14.788902283,-0.944046021,-0.089197025,0.081145383,0.907670021
18.357631,-7.885169983,-14.888084412,-0.905899048,-0.089074954,0.077971555,0.911698341
18.358257,-8.594703674,-14.750755310,-0.867752075,-0.089929447,0.075286008,0.918534279
18.358883,-9.350013733,-14.926231384,-0.776199341,-0.087365970,0.072966672,0.919510841
18.359509,-10.097694397,-14.666831970,-0.799087524,-0.088464603,0.067351438,0.921830177
18.360135,-10.662269592,-14.796531677,-0.631240845,-0.087610111,0.067595579,0.923783302
18.360762,-11.318397522,-14.750755310,-0.745681763,-0.087365970,0.066374876,0.927201271
18.361388,-12.043190002,-14.697349548,-0.585464478,-0.089929447,0.060393434,0.929520607
18.362013,-12.478065491,-14.529502869,-0.699905396,-0.087121829,0.060881715,0.926590919
18.362638,-13.088417053,-14.689720154,-0.516799927,-0.091272220,0.056975465,0.929764748
18.363265,-13.195228577,-14.628684998,-0.562576294,-0.087732181,0.054656129,0.932206154
18.363890,-14.126014709,-14.552391052,-0.478652954,-0.088342533,0.049651247,0.932938576
18.364515,-14.454078674,-14.567649841,-0.394729614,-0.086999759,0.048430543,0.930985451
18.365141,-14.881324768,-14.308250427,-0.287918091,-0.086999759,0.046355348,0.937211037
18.365766,-14.942359924,-14.399803162,-0.181106567,-0.087243900,0.040618043,0.938431740
18.366392,-15.133094788,-14.476097107,-0.211624146,-0.086267337,0.039275270,0.940384865
18.367018,-15.384864807,-14.506614685,-0.211624146,-0.085290775,0.035002809,0.940384865
18.367643,-15.583229065,-14.300621033,-0.005630493,-0.085901126,0.031218627,0.938675880
18.381623,-12.455177307,-13.835227966,1.207443237,-0.087732181,0.010100463,0.953568459
18.382371,-11.928749084,-13.903892517,1.733871460,-0.089807376,0.009490112,0.950028419
18.382997,-11.516761780,-13.919151306,1.566024780,-0.087610111,0.012419799,0.952347755
18.383623,-11.341285706,-13.926780701,1.779647827,-0.088342533,0.010100463,0.951737404
18.384250,-10.975074768,-13.903892517,1.878829956,-0.091028079,0.010832885,0.950150490
18.384875,-10.700416565,-13.888633728,1.932235718,-0.092370853,0.010344604,0.953568459
18.385501,-10.616493225,-14.186180115,2.046676636,-0.092492923,0.009612182,0.952347755
18.386126,-10.318946838,-14.170921326,2.092453003,-0.092737064,0.008757690,0.953568459
18.386751,-9.967994690,-14.140403748,1.878829956,-0.091028079,0.011687377,0.955887794
18.387377,-9.548377991,-14.315879822,1.932235718,-0.091150150,0.011077026,0.954667091
18.388009,-9.288978577,-14.224327087,2.184005737,-0.091394290,0.010222534,0.955399513
18.388635,-9.098243713,-14.292991638,2.138229370,-0.089563236,0.010344604,0.954789162
18.389260,-8.800697327,-14.453208923,2.206893921,-0.088830814,0.008269409,0.957230568
18.389886,-8.655738831,-14.468467712,2.542587280,-0.088464603,0.009368042,0.957108498
18.390511,-8.129310608,-14.453208923,2.443405151,-0.087365970,0.009978393,0.958329201
18.391137,-7.923316956,-14.491355896,2.405258179,-0.087976322,0.010710815,0.958329201
18.391762,-7.602882385,-14.476097107,2.435775757,-0.089197025,0.011321167,0.964188576
18.392387,-7.526588440,-14.582908630,2.763839722,-0.084314212,0.008879760,0.961991310
18.393012,-6.824684143,-14.598167419,2.794357300,-0.085779056,0.009368042,0.964188576
18.393637,-6.550025940,-14.560020447,2.832504272,-0.086145267,0.010466674,0.965287209
18.394263,-6.252479553,-14.544761658,2.817245483,-0.082971439,0.007659058,0.969681740
18.394890,-6.038856506,-14.483726501,2.885910034,-0.082849368,0.008757690,0.968216896
18.395517,-5.626869202,-14.827049255,3.168197632,-0.083093509,0.003142456,0.968094826
18.396143,-5.237770081,-14.643943787,3.091903687,-0.079309329,0.007781128,0.972367287
18.396768,-4.810523987,-14.682090759,3.076644897,-0.079187259,0.009734252,0.970902443
18.397394,-4.589271545,-14.773643494,3.259750366,-0.075647220,0.009001831,0.969925880
18.398021,-4.284095764,-14.727867126,3.435226440,-0.079431400,0.006194214,0.975296974
18.398646,-3.765296936,-14.842308044,3.625961304,-0.075158939,0.006438354,0.972733498
18.399272,-3.368568420,-14.933860779,3.549667358,-0.078454837,0.009856323,0.973343849
18.399898,-2.956581116,-14.857566833,3.496261597,-0.075036868,0.007292847,0.974686623
18.401683,-1.690101624,-14.933860779,3.839584351,-0.074670658,0.013152221,0.971634865
18.402309,-1.346778870,-15.071189880,4.030319214,-0.077234134,0.010466674,0.974564552
18.402934,-0.850868225,-15.124595642,4.121871948,-0.076623783,0.009001831,0.971756935
18.403561,-0.759315491,-15.452659607,4.030319214,-0.074060306,0.011565307,0.972489357
18.404188,-0.324440002,-15.002525330,4.266830444,-0.075158939,0.013762573,0.973343849
18.404814,0.346946716,-15.322959900,4.625411987,-0.072351322,0.011321167,0.974320412
18.405439,0.491905212,-15.506065369,4.320236206,-0.074304447,0.010466674,0.975663185
18.406065,0.896263123,-15.231407166,4.587265015,-0.074914798,0.013274292,0.977005959
18.406691,1.453208923,-15.406883240,4.472824097,-0.072717533,0.017912963,0.976151466
18.407316,1.796531677,-15.704429626,4.526229858,-0.072229251,0.013762573,0.976761818
18.407942,2.017784119,-15.544212341,4.709335327,-0.071985111,0.014494995,0.977494240
18.408567,2.162742615,-15.811241150,4.846664429,-0.071374759,0.016326049,0.978592873
18.409192,2.734947205,-15.651023865,4.900070190,-0.071740970,0.018035034,0.980668068
18.409818,2.986717224,-15.567100525,5.067916870,-0.072351322,0.019866088,0.981278419
18.410444,3.543663025,-15.872276306,4.877182007,-0.071496829,0.020476440,0.981034279
18.411069,3.719139099,-15.567100525,5.045028687,-0.074670658,0.020232299,0.985428810
18.411695,3.886985779,-15.910423279,5.167098999,-0.074670658,0.018157104,0.985184669
18.412321,4.291343689,-15.879905701,5.289169312,-0.075891361,0.017424682,0.987381935
18.426346,16.841697693,-18.183982849,6.914230347,-0.067590579,-0.005646606,1.019364357
18.427137,17.474937439,-18.443382263,7.028671265,-0.067468509,-0.002838989,1.022171974
18.427763,17.986106873,-18.245018005,7.303329468,-0.066858158,-0.005890747,1.028519630
18.428388,19.016075134,-18.634117126,7.417770386,-0.062951908,-0.005524536,1.035721779
18.429013,19.473838806,-18.412864685,7.379623413,-0.062829837,-0.004303833,1.036454201
18.429640,20.191001892,-18.252647400,7.494064331,-0.060266357,-0.003083130,1.044388771
18.430265,20.580101013,-18.298423767,7.654281616,-0.060266357,0.001677612,1.049271584
18.430890,21.236228943,-18.267906189,7.684799194,-0.059289794,0.001555542,1.055741310
18.431516,21.770286560,-18.153465271,7.639022827,-0.055749755,0.000334839,1.056351662
18.432143,22.540855408,-18.168724060,7.951828003,-0.054895263,0.001067261,1.060624123
18.432769,22.716331482,-17.916954041,7.967086792,-0.054406982,0.003630737,1.064164162
18.433396,23.181724548,-17.878807068,8.150192261,-0.054895263,0.007292847,1.064896584
18.434021,23.753929138,-17.566001892,8.035751343,-0.055749755,0.007781128,1.068924904
18.434646,24.158287048,-17.543113708,8.188339233,-0.053064208,0.011443237,1.072464943
18.435271,24.349021912,-17.375267029,8.310409546,-0.054040771,0.013274292,1.077836037
18.435896,24.768638611,-16.841209412,8.379074097,-0.050378662,0.014250854,1.075150490
18.436522,24.951744080,-16.948020935,8.562179565,-0.053430419,0.015105346,1.077836037
18.437148,25.203514099,-16.764915466,8.615585327,-0.051599365,0.014861206,1.082352638
18.437774,25.287437439,-16.360557556,8.562179565,-0.053796630,0.019744018,1.084183693
18.438401,25.363731384,-16.253746033,8.760543823,-0.053064208,0.022917846,1.086625099
18.439027,25.600242615,-16.009605408,8.958908081,-0.052453857,0.025237182,1.089920998
18.439653,25.775718689,-15.864646912,8.920761108,-0.056604248,0.024626831,1.089798927
18.440279,25.455284119,-15.445030212,9.042831421,-0.055505615,0.028044799,1.090165138
18.440905,25.722312927,-15.017784119,9.073348999,-0.055993896,0.028655151,1.093461037
18.441530,25.607872009,-14.941490173,9.210678101,-0.057214599,0.029021362,1.091996193
18.442156,25.455284119,-14.811790466,9.348007202,-0.055871826,0.034392457,1.092118263
18.442782,24.982261658,-14.323509216,9.370895386,-0.056970458,0.037322145,1.091507912
18.443408,25.150108337,-14.361656189,9.470077515,-0.055993896,0.039153200,1.092362404
18.444033,24.730491638,-14.056480408,9.683700562,-0.057214599,0.038542848,1.093949318
18.444660,24.638938904,-13.736045837,9.752365112,-0.058923583,0.042693239,1.093583107
18.453193,17.345237732,-10.875022888,11.087509155,-0.063440189,0.069060422,1.097977638
18.453818,16.811180115,-10.783470154,11.339279175,-0.066125736,0.069914915,1.098587990
18.454443,15.834617615,-10.371482849,11.232467651,-0.063073978,0.070769407,1.100174904
18.455068,15.170860291,-10.371482849,11.430831909,-0.060998779,0.076018430,1.098710060
18.455693,14.369773865,-10.165489197,11.583419800,-0.062463623,0.077727415,1.099442482
18.456318,13.591575623,-9.715354919,11.575790405,-0.063196048,0.077361204,1.103470802
18.456944,12.729454041,-9.555137634,11.728378296,-0.063196048,0.078459837,1.105912209
18.457569,11.821556091,-9.471214294,11.766525269,-0.060510498,0.081755735,1.109940529
18.458194,11.157798767,-9.089744568,11.995407104,-0.059411865,0.081633665,1.110550880
18.458819,10.097312927,-8.837974548,11.911483765,-0.060632568,0.085295774,1.112870216
18.459444,9.517478943,-8.609092712,12.186141968,-0.059411865,0.085539915,1.113358498
18.460069,8.426475525,-8.136070251,12.254806519,-0.060632568,0.083830930,1.115189552
18.460695,7.762718201,-8.143699646,12.353988647,-0.059289794,0.088591672,1.119828224
18.461320,6.885337830,-7.701194763,12.743087769,-0.056970458,0.086882688,1.118851662
18.461945,6.213951111,-7.510459900,12.598129272,-0.061609130,0.089202024,1.120926857
18.462570,5.359458923,-7.144248962,12.544723511,-0.059167724,0.090911008,1.120682716
18.463197,4.520225525,-6.655967712,12.659164429,-0.055871826,0.089202024,1.120438576
18.478822,-2.712440491,0.813209534,14.032455444,-0.078454837,0.083464719,1.109818459
18.479594,-2.506446838,0.920021057,13.895126343,-0.077722415,0.081389524,1.112626076
18.480219,-2.155494690,1.255714417,13.856979370,-0.080774173,0.080901243,1.108475685
18.480844,-1.781654358,1.209938049,14.070602417,-0.081140384,0.083342649,1.107377052
18.481469,-1.537513733,1.507484436,14.024826050,-0.079919681,0.078215696,1.108475685
18.482095,-0.629615784,1.866065979,13.872238159,-0.080896243,0.082732297,1.104325294
18.482722,-0.454139709,1.827919006,14.062973022,-0.081994876,0.080412962,1.102982521
18.483349,0.087547302,2.033912659,13.849349976,-0.083825931,0.084075071,1.103837013
18.483974,0.667381287,2.079689026,13.849349976,-0.086877689,0.082732297,1.099930763
18.484599,1.048851013,2.316200256,14.085861206,-0.085046634,0.082244016,1.100296974
18.485226,1.712608337,2.339088440,13.872238159,-0.086877689,0.085539915,1.096268654
18.485852,2.376365662,2.567970276,13.841720581,-0.084558353,0.084075071,1.094193459
18.486477,3.024864197,2.621376038,13.788314819,-0.086145267,0.083830930,1.094559669
18.487103,3.459739685,2.842628479,13.963790894,-0.087121829,0.085417844,1.094071388
18.487729,3.848838806,2.735816956,13.681503296,-0.088586673,0.088713743,1.092972755
18.488355,4.634666443,3.018104553,13.765426636,-0.085901126,0.086638547,1.091263771
18.488981,5.565452576,3.254615784,13.567062378,-0.090051517,0.091765501,1.087113380
18.489606,6.114768982,3.109657288,13.826461792,-0.089685306,0.092131712,1.087357521
18.490231,6.732749939,3.544532776,13.872238159,-0.090295658,0.094695188,1.085160255
18.490857,7.327842712,3.643714905,13.567062378,-0.092859134,0.095793821,1.088089943
18.491484,7.732200623,3.887855530,13.727279663,-0.091516361,0.097380735,1.085282326
18.492109,8.106040955,3.819190979,13.681503296,-0.089807376,0.101775266,1.087723732
18.492734,8.487510681,4.017555237,13.750167847,-0.092737064,0.103362180,1.085038185
18.493360,8.922386169,4.368507385,13.437362671,-0.090051517,0.104704954,1.086014748
18.493987,9.029197693,4.345619202,13.551803589,-0.089319095,0.106536008,1.084916115
18.494612,9.456443787,4.452430725,13.506027222,-0.089563236,0.111418821,1.085648537
18.495237,9.792137146,4.559242249,13.414474487,-0.090051517,0.115935422,1.084427834
18.495864,9.746360779,5.169593811,13.582321167,-0.092004642,0.116423704,1.086258888
18.496491,10.143089294,5.161964417,13.345809937,-0.092004642,0.116789915,1.082840919
18.497116,10.379600525,5.528175354,13.467880249,-0.092737064,0.121916868,1.085038185
18.498964,10.425376892,6.069862366,13.383956909,-0.091272220,0.129363164,1.082840919
18.499589,10.349082947,6.428443909,13.315292358,-0.088586673,0.130950078,1.083695412
18.500214,10.471153259,6.611549377,13.353439331,-0.090051517,0.136199102,1.082596779
18.500841,10.318565369,6.886207581,13.307662964,-0.090661868,0.137786016,1.078812599
18.501467,10.150718689,7.122718811,13.300033569,-0.093713626,0.140471563,1.081742287
18.502094,10.249900818,7.580482483,13.429733276,-0.091516361,0.141326055,1.079667091
18.502721,9.967613220,7.832252502,13.170333862,-0.091516361,0.142546758,1.079300880
18.503346,9.685325623,7.862770081,13.147445679,-0.090173587,0.143157110,1.075150490
18.503971,9.486961365,8.236610413,13.185592651,-0.092981204,0.144744024,1.073685646
18.504598,9.372520447,8.595191956,13.208480835,-0.092370853,0.144988164,1.070389748
18.505224,9.387779236,8.724891663,13.033004761,-0.096032962,0.145110235,1.069046974
18.505850,9.235191345,8.930885315,13.254257202,-0.096277103,0.148161992,1.065995216
18.506476,9.090232849,9.312355042,13.086410522,-0.096887454,0.147917852,1.062577248
18.507101,8.746910095,9.472572327,12.933822632,-0.093469486,0.146575078,1.061356544
18.507727,8.510398865,9.777748108,12.941452026,-0.098840579,0.146697149,1.057816505
18.508352,8.487510681,9.884559631,12.819381714,-0.097741947,0.149504766,1.053055763
18.508977,8.281517029,10.258399963,12.735458374,-0.096399173,0.147185430,1.055985451
18.509602,8.174705505,10.517799377,12.910934448,-0.097497806,0.148284063,1.051835060
18.510229,7.869529724,10.479652405,12.735458374,-0.101404056,0.150237188,1.047196388
18.524298,8.815574646,11.204444885,11.385055542,-0.115930423,0.151457891,0.984574318
18.525084,8.930015564,10.952674866,11.293502808,-0.114099368,0.153899297,0.982010841
18.525710,8.937644958,11.059486389,11.400314331,-0.114343509,0.157805547,0.978226662
18.526337,9.029197693,10.662757874,11.224838257,-0.115564212,0.154021367,0.975785255
18.527029,8.998680115,10.426246643,11.148544312,-0.112390384,0.157439336,0.976639748
18.527654,9.334373474,10.456764221,11.072250366,-0.111535892,0.159880742,0.975296974
18.528280,9.181785583,10.105812073,10.751815796,-0.113855228,0.166350469,0.970780373
18.528907,9.250450134,10.220252991,10.934921265,-0.115442142,0.162444219,0.976273537
18.529533,9.189414978,10.067665100,10.805221558,-0.111291751,0.163786992,0.974808693
18.530158,9.090232849,9.876930237,10.561080933,-0.109460697,0.165618047,0.974930763
18.530890,9.166526794,9.861671448,10.316940308,-0.110071048,0.171111211,0.973954201
18.531642,9.036827087,9.838783264,10.347457886,-0.107141361,0.168425664,0.976517677
18.532440,8.899497986,9.800636292,10.118576050,-0.110193118,0.169890508,0.975052834
18.533223,8.785057068,9.731971741,9.874435425,-0.109948978,0.171355352,0.974320412
18.533944,8.395957947,9.609901428,9.859176636,-0.107751712,0.173918828,0.977616310
18.534570,8.212852478,9.571754456,9.538742065,-0.105676517,0.175017461,0.976273537
18.535196,7.976341248,9.541236877,9.508224487,-0.106408939,0.175139531,0.977005959
18.535823,7.732200623,9.564125061,9.309860229,-0.108117923,0.177092656,0.980301857
18.536448,7.686424255,9.533607483,9.187789917,-0.106164798,0.179045781,0.981034279
18.537073,7.129478455,9.762489319,9.111495972,-0.106653079,0.176238164,0.979935646
18.537699,6.862449646,9.655677795,9.096237183,-0.106653079,0.177458867,0.980545998
18.538325,6.831932068,9.747230530,8.905502319,-0.100915775,0.180022344,0.981156349
18.538951,6.168174744,9.663307190,8.676620483,-0.106408939,0.177214727,0.983597755
18.539578,5.946922302,9.693824768,8.516403198,-0.103601322,0.174651250,0.976395607
18.540204,5.534934998,9.655677795,8.531661987,-0.104455814,0.177703008,0.977128029
18.540830,5.130577087,9.976112366,8.371444702,-0.101648197,0.179289922,0.978470802
18.541456,4.718589783,9.884559631,8.127304077,-0.099328861,0.177214727,0.979081154
18.542082,4.260826111,9.960853577,8.180709839,-0.099695072,0.176726446,0.979447365
18.542708,4.291343689,10.090553284,7.959457397,-0.102014408,0.177092656,0.975907326
18.544492,2.910423279,10.464393616,7.516952515,-0.102136478,0.175505742,0.976761818
18.545118,2.597618103,10.433876038,7.547470093,-0.100915775,0.174773321,0.977616310
18.545744,2.361106873,10.426246643,7.593246460,-0.102868900,0.172698125,0.973587990
18.546370,1.735496521,10.601722717,7.204147339,-0.103967533,0.172820196,0.974076271
18.546996,1.392173767,10.761940002,7.112594604,-0.105188236,0.170134649,0.972001076
18.547621,1.338768005,10.891639709,7.097335815,-0.105188236,0.166716680,0.969071388
18.548248,0.736045837,10.990821838,7.021041870,-0.105676517,0.169646367,0.968705177
18.548875,0.484275818,11.181556702,6.891342163,-0.104211673,0.167449102,0.968583107
18.549500,0.018882751,11.135780334,6.868453979,-0.107263431,0.166838750,0.967362404
18.550126,-0.309181213,11.051856995,6.548019409,-0.107019290,0.162688360,0.967850685
18.550752,-0.614356995,11.440956116,6.433578491,-0.108972415,0.167082891,0.965165138
18.551377,-0.889015198,11.501991272,6.380172729,-0.106775150,0.161833867,0.963944435
18.552007,-1.301002502,11.440956116,6.319137573,-0.104822025,0.160369024,0.963700294
18.552632,-1.323890686,11.738502502,6.181808472,-0.111291751,0.161223516,0.961991310
18.553257,-2.048683167,11.639320374,6.120773315,-0.110681400,0.157073125,0.961258888
18.553884,-2.201271057,11.906349182,5.846115112,-0.112268314,0.154265508,0.962357521
18.554509,-2.536964417,11.868202209,5.914779663,-0.111657962,0.153655156,0.961503029
18.555135,-2.781105042,12.112342834,5.762191772,-0.111047611,0.151824102,0.958939552
18.555762,-3.139686584,12.135231018,5.708786011,-0.110925540,0.151824102,0.956498146
18.556389,-3.421974182,12.112342834,5.426498413,-0.110681400,0.151091680,0.956009865
18.570318,-7.129859924,13.600074768,3.702255249,-0.125207767,0.125456914,0.912919044
18.571025,-7.175636292,14.095985413,3.717514038,-0.125818118,0.128264531,0.911210060
18.571650,-7.442665100,13.966285706,3.854843140,-0.127160892,0.125090703,0.908524513
18.572275,-7.541847229,13.989173889,3.381820679,-0.129480228,0.124602415,0.904984474
18.572900,-7.633399963,13.714515686,3.587814331,-0.131555423,0.121184446,0.902420998
18.573526,-7.564735413,14.012062073,3.419967651,-0.128991947,0.123503782,0.900467873
18.574153,-7.541847229,13.928138733,3.435226440,-0.134729251,0.120207883,0.896317482
18.574780,-7.740211487,13.790809631,3.580184937,-0.134363040,0.119597532,0.895462990
18.575406,-7.991981506,13.828956604,3.213973999,-0.136438236,0.116667844,0.893509865
18.576031,-7.930946350,13.714515686,3.206344604,-0.135705814,0.115325071,0.892899513
18.576658,-7.732582092,13.737403870,3.282638550,-0.138513431,0.114348508,0.888382912
18.577284,-7.785987854,13.752662659,2.832504272,-0.140466556,0.118010618,0.885453224
18.577911,-8.060646057,13.500892639,2.878280640,-0.140710697,0.111418821,0.883622169
18.578536,-8.022499084,13.561927795,3.069015503,-0.141931400,0.111907102,0.883988380
18.579161,-8.045387268,13.287269592,2.824874878,-0.141076908,0.111907102,0.880936623
18.579787,-8.136940002,13.325416565,2.977462769,-0.141809329,0.109343626,0.876908302
18.580412,-8.068275452,13.325416565,2.840133667,-0.142175540,0.107390501,0.877518654
18.581039,-8.068275452,12.921058655,2.870651245,-0.142053470,0.104949094,0.872269630
18.581666,-8.259010315,13.111793518,2.878280640,-0.144983158,0.103240110,0.871537209
18.582293,-8.037757874,12.943946838,2.672286987,-0.146081790,0.102141477,0.868973732
18.582918,-8.136940002,12.753211975,2.748580933,-0.147180423,0.097991087,0.868851662
18.583544,-7.961463928,12.768470764,2.794357300,-0.146814212,0.096404172,0.867264748
18.584171,-8.037757874,12.707435608,2.595993042,-0.145105228,0.095793821,0.863724709
18.584797,-7.839393616,12.387001038,2.580734253,-0.146692142,0.092742063,0.858475685
18.585422,-7.869911194,12.379371643,2.641769409,-0.146692142,0.090911008,0.856156349
18.586048,-7.747840881,12.173377991,2.580734253,-0.150232181,0.089812376,0.858353615
18.586674,-7.656288147,12.150489807,2.649398804,-0.148889408,0.087370969,0.851639748
18.587299,-7.389259338,11.967384338,2.618881226,-0.147912845,0.085661985,0.852128029
18.587924,-7.053565979,11.883460999,2.740951538,-0.149865970,0.080168821,0.850907326
18.588550,-7.091712952,11.608802795,2.603622437,-0.148279056,0.076628782,0.847611427
18.590343,-6.069374084,11.295997620,2.725692749,-0.149621829,0.069914915,0.844437599
18.590969,-5.848121643,11.158668518,2.657028198,-0.150598392,0.065764524,0.842240334
18.591594,-5.497169495,10.929786682,2.725692749,-0.153283939,0.061247926,0.839798927
18.592220,-5.161476135,10.777198792,2.718063354,-0.151819095,0.055754762,0.839798927
18.592846,-4.757118225,10.891639709,2.824874878,-0.150110111,0.058074098,0.837113380
18.593472,-4.230690002,10.533058167,2.908798218,-0.154992923,0.052947145,0.835526466
18.594099,-3.795814514,10.204994202,2.847763062,-0.154626712,0.048674684,0.832962990
18.594725,-3.315162659,10.204994202,3.053756714,-0.154016361,0.046477418,0.831498146
18.595352,-2.803993225,9.892189026,2.969833374,-0.156823978,0.039153200,0.829911232
18.595979,-2.109718323,9.739601135,3.000350952,-0.156091556,0.036101442,0.826004982
18.596604,-1.270484924,9.228431702,3.175827026,-0.160119876,0.035124879,0.825150490
18.597229,-0.621986389,9.068214417,3.404708862,-0.160730228,0.035246950,0.819535255
18.597855,0.072288513,8.579933167,3.175827026,-0.162317142,0.029997924,0.816239357
18.598481,1.018333435,8.404457092,3.305526733,-0.163781986,0.024016479,0.817948341
18.599108,1.773643494,8.389198303,3.358932495,-0.166833743,0.019255737,0.813431740
18.599735,2.460289001,7.694923401,3.473373413,-0.169519290,0.016936401,0.810746193
18.600361,3.314781189,7.321083069,3.694625854,-0.172571048,0.015349487,0.807206154
18.600987,4.100608826,7.328712463,3.618331909,-0.174768314,0.015715698,0.805497169
18.614968,23.334312439,-3.764427185,5.411239624,-0.192590579,0.048064332,0.790604591
18.615741,23.593711853,-4.344261169,5.571456909,-0.193078861,0.051726442,0.792557716
18.616368,23.708152771,-4.840171814,5.724044800,-0.189905033,0.057341676,0.791214943
18.616994,23.494529724,-5.084312439,5.663009644,-0.187951908,0.061614137,0.792923927
18.617620,23.723411560,-5.542076111,5.693527222,-0.187219486,0.067595579,0.792313576
18.618245,23.494529724,-6.152427673,5.746932983,-0.191003665,0.074675657,0.799027443
18.618871,23.540306091,-6.533897400,6.013961792,-0.189905033,0.080412962,0.798539162
18.619498,23.341941833,-6.861961365,5.716415405,-0.187219486,0.085661985,0.803421974
18.620124,23.143577576,-7.594383240,5.991073608,-0.185510501,0.088591672,0.803421974
18.620751,22.701072693,-7.800376892,5.876632690,-0.183191165,0.094206907,0.803299904
18.621376,22.174644470,-7.975852966,5.945297241,-0.182092533,0.101286985,0.809403419
18.622008,21.556663513,-8.387840271,5.937667847,-0.184656009,0.104216672,0.811112404
18.622633,20.732688904,-8.662498474,6.174179077,-0.184656009,0.110686399,0.812211037
18.623259,20.015525818,-8.982933044,6.128402710,-0.178674564,0.110808469,0.820755959
18.623975,19.321250916,-9.532249451,6.036849976,-0.179651126,0.118620969,0.822587013
18.624602,18.482017517,-9.593284607,5.991073608,-0.176233158,0.125212774,0.825516701
18.625228,17.818260193,-9.990013123,6.235214233,-0.175012454,0.129119024,0.829667091
18.625853,16.658592224,-10.310447693,5.960556030,-0.176599368,0.135222539,0.830765724
18.626479,15.834617615,-10.203636169,6.189437866,-0.171472415,0.133635625,0.837967873
18.627105,14.644432068,-10.470664978,6.219955444,-0.171350345,0.140715703,0.844925880
18.627730,13.713645935,-10.783470154,6.296249390,-0.172082767,0.141692266,0.845658302
18.628355,12.317466736,-10.646141052,5.960556030,-0.169031009,0.149138555,0.848221779
18.628982,11.409568787,-10.958946228,6.052108765,-0.168298587,0.149626836,0.856400490
18.629608,10.143089294,-10.943687439,6.006332397,-0.165979251,0.151213750,0.859452248
18.630234,8.762168884,-11.203086853,5.998703003,-0.165490970,0.152556524,0.863114357
18.630859,7.434654236,-11.050498962,6.105514526,-0.161828861,0.156218633,0.867020607
18.631485,6.038475037,-11.287010193,5.914779663,-0.158655033,0.155974492,0.873612404
18.632110,4.810142517,-11.149681091,6.006332397,-0.156457767,0.157561406,0.880814552
18.632736,3.719139099,-10.897911072,5.914779663,-0.153650150,0.159514531,0.884232521
18.633362,2.544212341,-11.004722595,5.975814819,-0.151452884,0.157195196,0.886429787
18.635144,-1.301002502,-10.562217712,5.960556030,-0.144739017,0.160857305,0.904984474
18.635770,-2.834510803,-10.432518005,5.846115112,-0.144983158,0.158171758,0.908524513
18.636397,-3.864479065,-10.363853455,5.907150269,-0.141076908,0.158537969,0.911820412
18.637022,-5.108070374,-10.058677673,5.792709351,-0.141931400,0.159392461,0.915970802
18.637647,-6.153297424,-9.845054626,5.815597534,-0.139489993,0.161345586,0.916947365
18.638273,-7.480812073,-9.700096130,5.891891479,-0.137292728,0.155608281,0.922196388
18.638900,-8.510780334,-9.509361267,5.785079956,-0.140344486,0.151824102,0.925614357
18.639527,-9.479713440,-9.227073669,5.586715698,-0.136072025,0.149993047,0.928299904
18.640153,-10.311317444,-9.120262146,5.777450562,-0.138757572,0.145476446,0.926224709
18.640779,-11.120033264,-8.815086365,5.533309937,-0.136316165,0.144255742,0.928299904
18.641405,-12.035560608,-8.914268494,5.632492065,-0.136316165,0.144988164,0.930863380
18.642031,-12.935829163,-8.593833923,5.640121460,-0.137292728,0.139617071,0.926835060
18.642656,-13.385963440,-8.296287537,5.548568726,-0.134851322,0.138396367,0.931351662
18.643283,-14.148902893,-8.288658142,5.663009644,-0.132165775,0.133757696,0.930253029
18.643908,-14.499855042,-8.067405701,5.533309937,-0.132654056,0.132170781,0.929642677
18.644535,-15.155982971,-8.113182068,5.487533569,-0.131921634,0.129607305,0.930985451
18.645162,-15.552711487,-7.846153259,5.609603882,-0.129114017,0.127654180,0.929520607
18.645788,-15.834999084,-7.876670837,5.457015991,-0.131799564,0.124968626,0.924149513
18.659718,-13.996315002,-8.494651794,4.579635620,-0.136194095,0.105315305,0.915238380
18.660438,-13.897132874,-8.731163025,4.785629272,-0.133264408,0.108611204,0.914628029
18.661064,-13.973426819,-8.815086365,4.625411987,-0.134851322,0.110442258,0.915482521
18.661689,-13.889503479,-8.731163025,4.572006226,-0.134363040,0.113127805,0.915604591
18.662316,-13.744544983,-8.967674255,4.602523804,-0.132043704,0.113127805,0.915848732
18.662941,-13.874244690,-8.921897888,4.732223511,-0.131311283,0.114226438,0.918656349
18.663566,-13.683509827,-9.150779724,4.602523804,-0.129724368,0.116789915,0.917801857
18.664191,-13.744544983,-9.082115173,4.388900757,-0.128503665,0.117400266,0.915970802
18.664817,-14.011573792,-9.127891541,4.640670776,-0.126672611,0.118010618,0.920853615
18.665444,-13.973426819,-8.982933044,4.526229858,-0.129114017,0.119597532,0.920487404
18.666070,-14.179420471,-9.249961853,4.442306519,-0.130090579,0.122527219,0.925004005
18.666695,-14.194679260,-9.097373962,4.465194702,-0.129480228,0.119109251,0.924759865
18.667320,-14.141273499,-9.051597595,4.396530151,-0.130700931,0.121306516,0.925736427
18.667945,-14.454078674,-9.105003357,4.373641968,-0.135095462,0.119719602,0.926468849
18.668571,-14.393043518,-9.158409119,4.396530151,-0.133874759,0.120452024,0.929032326
18.669197,-14.698219299,-8.998191833,4.404159546,-0.133020267,0.123381712,0.930863380
18.669823,-14.904212952,-9.105003357,4.175277710,-0.133996829,0.121550657,0.933915138
18.670450,-14.988136292,-9.234703064,4.465194702,-0.130945072,0.118376829,0.931351662
18.671075,-15.079689026,-9.234703064,4.457565308,-0.133142337,0.117522337,0.930741310
18.671700,-15.278053284,-9.105003357,4.381271362,-0.131799564,0.116057493,0.932572365
18.672326,-15.087318420,-9.204185486,4.259201050,-0.128747806,0.113616087,0.931229591
18.672953,-14.965248108,-9.211814880,4.190536499,-0.130945072,0.107512571,0.929642677
18.673579,-15.361976624,-9.036338806,4.427047729,-0.129602298,0.107634641,0.932694435
18.674205,-15.217018127,-8.990562439,4.106613159,-0.130334720,0.104094602,0.931107521
18.674832,-15.140724182,-9.105003357,4.190536499,-0.133142337,0.101286985,0.932572365
18.675457,-15.133094788,-9.272850037,4.282089233,-0.133630618,0.100310422,0.929398537
18.676083,-14.309120178,-9.181297302,4.366012573,-0.133874759,0.086516477,0.925736427
18.676709,-14.080238342,-9.471214294,4.564376831,-0.137903079,0.084685422,0.925370216
18.677335,-13.622474670,-9.326255798,4.381271362,-0.134485111,0.078337766,0.925370216
18.677961,-13.332557678,-9.570396423,4.358383179,-0.136438236,0.074431516,0.919999123
18.679764,-12.058448792,-9.875572205,4.503341675,-0.135827884,0.070403196,0.918045998
18.680390,-11.326026917,-9.928977966,4.564376831,-0.135217533,0.064543821,0.915848732
18.681016,-10.662269592,-10.173118591,4.434677124,-0.138635501,0.062102418,0.915482521
18.681641,-9.891700745,-10.432518005,4.533859253,-0.138879642,0.058440309,0.916092873
18.682268,-8.838844299,-10.577476501,4.701705933,-0.139978275,0.056365114,0.914261818
18.682893,-8.091163635,-10.600364685,4.777999878,-0.142175540,0.050749879,0.912796974
18.683518,-7.114601135,-10.966575623,4.655929565,-0.142297611,0.049529176,0.910843849
18.684143,-6.351661682,-11.248863220,4.846664429,-0.139367923,0.047087770,0.909256935
18.684768,-5.024147034,-11.546409607,4.732223511,-0.142907962,0.044280153,0.911332130
18.685395,-4.207801819,-11.729515076,4.892440796,-0.142785892,0.044036012,0.908524513
18.686022,-3.002357483,-12.141502380,4.877182007,-0.143152103,0.040862184,0.910355568
18.686647,-2.018165588,-12.683189392,5.045028687,-0.145349368,0.038909059,0.912186623
18.687272,-0.873756409,-12.515342712,5.197616577,-0.143518314,0.037200075,0.912064552
18.687897,0.453758240,-13.018882751,4.922958374,-0.142297611,0.037078004,0.911698341
18.688523,1.346397400,-13.446128845,5.258651733,-0.145349368,0.035246950,0.909379005
18.689149,2.597618103,-13.591087341,5.174728394,-0.139245853,0.038664918,0.913773537
18.689774,3.848838806,-13.873374939,5.342575073,-0.137536868,0.038664918,0.915360451
18.690401,4.863548279,-14.292991638,5.388351440,-0.140466556,0.037932497,0.914750099
18.711122,17.566490173,-20.823753357,7.570358276,-0.105798587,0.144621953,0.973832130
18.711892,16.940879822,-20.846641541,7.494064331,-0.102380618,0.148161992,0.978714943
18.712519,16.460227966,-20.869529724,7.814498901,-0.100549564,0.152556524,0.976761818
18.713145,15.697288513,-20.900047302,7.463546753,-0.100915775,0.154387578,0.980057716
18.713772,14.980125427,-20.945823669,7.417770386,-0.098596439,0.158537969,0.981400490
18.714399,14.354515076,-21.045005798,7.623764038,-0.096155033,0.165618047,0.985917091
18.715025,13.431358337,-20.945823669,7.768722534,-0.097131595,0.164641485,0.985795021
18.715651,12.759971619,-21.365440369,7.722946167,-0.088586673,0.171477422,0.988480568
18.716276,11.890220642,-21.243370056,7.814498901,-0.086511478,0.174529180,0.989945412
18.716901,10.989952087,-21.151817322,7.860275269,-0.081262454,0.178557500,0.995804787
18.717527,10.234642029,-20.884788513,7.616134644,-0.082849368,0.181731328,1.004227638
18.718152,9.364891052,-20.953453064,7.722946167,-0.080407962,0.181365117,1.003617287
18.718777,8.350181580,-21.060264587,7.791610718,-0.078088626,0.184905156,1.004349709
18.719403,7.472801208,-20.777976990,7.654281616,-0.076135501,0.188567266,1.006424904
18.720028,6.595420837,-20.808494568,7.745834351,-0.075158939,0.194060430,1.009354591
18.720653,5.702781677,-20.785606384,7.776351929,-0.072229251,0.194060430,1.013138771
18.721279,4.924583435,-20.648277283,7.669540405,-0.073327884,0.196990117,1.015213966
18.721906,4.161643982,-20.503318787,7.761093140,-0.073938236,0.196868047,1.020462990
18.722533,3.230857849,-20.571983337,7.455917358,-0.073572025,0.200652227,1.019852638
18.723159,2.300071716,-20.304954529,7.494064331,-0.075647220,0.202971563,1.023514748
18.723786,1.369285583,-20.205772400,7.593246460,-0.072717533,0.200896367,1.030961037
18.724411,0.652122498,-19.976890564,7.333847046,-0.074670658,0.200408086,1.030472755
18.725036,0.171470642,-20.098960876,7.524581909,-0.071863040,0.203215703,1.031815529
18.725661,-0.599098206,-19.801414490,7.280441284,-0.070398197,0.201872930,1.034867287
18.726420,-1.209449768,-19.770896912,7.288070679,-0.073327884,0.204558477,1.038529396
18.727045,-2.033424377,-19.519126892,7.326217651,-0.072595462,0.207610235,1.039139748
18.727671,-2.582740784,-19.480979919,7.036300659,-0.072107181,0.207121953,1.041092873
18.728345,-3.177833557,-19.465721130,7.066818237,-0.076135501,0.207121953,1.044388771
18.728970,-3.475379944,-19.137657166,6.921859741,-0.075403079,0.206389531,1.045731544
18.729596,-4.001808167,-18.962181091,6.570907593,-0.077112064,0.209075078,1.045243263
18.731432,-5.314064026,-18.626487732,6.357284546,-0.081140384,0.208220586,1.048295021
18.732057,-5.756568909,-18.397605896,6.128402710,-0.082239017,0.209563360,1.050126076
18.732682,-6.099891663,-18.588340759,6.227584839,-0.082727298,0.208708867,1.055130959
18.733308,-6.145668030,-18.458641052,6.235214233,-0.084314212,0.210539922,1.051590919
18.733934,-6.473731995,-18.389976501,6.074996948,-0.086877689,0.210417852,1.054886818
18.734559,-6.542396545,-18.046653748,5.754562378,-0.089685306,0.207366094,1.053910255
18.735184,-6.771278381,-18.260276794,5.678268433,-0.087243900,0.205046758,1.054154396
18.735810,-7.068824768,-18.000877380,5.479904175,-0.090661868,0.205168828,1.055985451
18.736436,-7.038307190,-18.039024353,5.220504761,-0.089929447,0.207976446,1.054398537
18.737061,-6.962013245,-18.008506775,5.357833862,-0.090539798,0.206755742,1.058793068
18.737687,-7.114601135,-17.863548279,4.991622925,-0.090539798,0.208953008,1.056229591
18.738313,-7.129859924,-17.970359802,4.961105347,-0.091394290,0.206877813,1.055741310
18.738939,-7.168006897,-17.871177673,4.800888062,-0.089807376,0.208953008,1.054276466
18.739564,-7.091712952,-17.688072205,4.747482300,-0.094568118,0.211150274,1.056595802
18.740191,-7.175636292,-17.817771912,4.625411987,-0.097741947,0.212126836,1.056473732
18.740816,-7.030677795,-17.634666443,4.419418335,-0.100183353,0.211760625,1.055130959
18.741441,-6.916236877,-17.344749451,4.457565308,-0.101770267,0.215911016,1.057206154
18.755463,-7.442665100,-16.337669373,0.017257690,-0.107751712,0.225066289,1.100174904
18.756243,-7.145118713,-16.085899353,-0.318435669,-0.108117923,0.223235235,1.102860451
18.756869,-7.465553284,-16.070640564,-0.348953247,-0.106408939,0.223357305,1.105790138
18.757495,-7.702064514,-15.620506287,-0.661758423,-0.105920658,0.225066289,1.108231544
18.758122,-7.465553284,-15.246665955,-0.806716919,-0.109582767,0.223601446,1.111405373
18.758749,-7.641029358,-15.246665955,-0.959304810,-0.109216556,0.221648321,1.114212990
18.759376,-7.763099670,-14.987266541,-1.157669067,-0.106775150,0.219939336,1.116044044
18.760010,-7.633399963,-14.392173767,-1.424697876,-0.105920658,0.222380742,1.117020607
18.760635,-7.938575745,-14.056480408,-1.485733032,-0.107751712,0.217497930,1.119462013
18.761261,-7.770729065,-13.789451599,-1.737503052,-0.110925540,0.217497930,1.125931740
18.761887,-7.900428772,-13.491905212,-1.729873657,-0.112390384,0.214690313,1.127152443
18.762513,-7.877540588,-13.163841248,-2.141860962,-0.110681400,0.213591680,1.126542091
18.763139,-8.014869690,-12.973106384,-2.172378540,-0.112512454,0.211028203,1.131669044
18.763764,-7.763099670,-12.461936951,-2.370742798,-0.114709720,0.206511602,1.131058693
18.764391,-7.900428772,-12.385643005,-2.553848267,-0.112390384,0.204314336,1.131913185
18.765018,-7.747840881,-11.821067810,-2.637771606,-0.117517337,0.198454961,1.134598732
18.765644,-7.618141174,-11.523521423,-2.851394653,-0.118371829,0.197966680,1.134598732
18.766269,-7.587623596,-11.287010193,-3.019241333,-0.116662845,0.193816289,1.134110451
18.766894,-7.282447815,-10.875022888,-3.194717407,-0.119470462,0.188933477,1.133744240
18.767519,-7.061195374,-10.386741638,-3.301528931,-0.118738040,0.186980352,1.134598732
18.768146,-6.931495667,-10.333335876,-3.499893188,-0.120447025,0.184294805,1.133866310
18.768772,-6.778907776,-10.203636169,-3.690628052,-0.119592533,0.177458867,1.130936623
18.769397,-6.374549866,-9.707725525,-3.538040161,-0.123742923,0.174162969,1.131913185
18.770023,-6.130409241,-9.578025818,-3.995803833,-0.123498783,0.169402227,1.129471779
18.770649,-5.809974670,-9.295738220,-4.072097778,-0.125818118,0.164397344,1.128251076
18.771276,-5.329322815,-9.112632751,-4.247573853,-0.124109134,0.159880742,1.126175880
18.771902,-5.039405823,-8.837974548,-4.217056274,-0.123987064,0.158171758,1.125931740
18.772528,-4.741859436,-8.593833923,-4.354385376,-0.127160892,0.154021367,1.124588966
18.773155,-3.887367249,-8.403099060,-4.468826294,-0.129358158,0.151702031,1.118973732
18.773781,-3.231239319,-8.181846619,-4.560379028,-0.127771243,0.144866094,1.118729591
18.775584,-1.682472229,-7.769859314,-4.766372681,-0.129724368,0.139372930,1.116898537
18.776210,-1.041603088,-7.396018982,-4.903701782,-0.128381595,0.136443242,1.111893654
18.776835,-0.583839417,-7.495201111,-5.041030884,-0.131311283,0.132048711,1.109208107
18.777462,0.102806091,-7.060325623,-5.041030884,-0.134485111,0.130095586,1.111527443
18.778088,0.682640076,-7.113731384,-5.254653931,-0.134118900,0.129485235,1.111161232
18.778714,1.125144958,-7.075584412,-5.315689087,-0.136682376,0.129363164,1.111405373
18.779341,1.468467712,-6.915367126,-5.132583618,-0.131189212,0.126311406,1.112015724
18.779967,2.101707458,-6.648338318,-5.185989380,-0.136316165,0.126311406,1.111893654
18.780592,2.551841736,-6.419456482,-5.292800903,-0.137414798,0.122527219,1.106522560
18.781217,3.230857849,-6.480491638,-5.254653931,-0.136194095,0.122771360,1.107987404
18.781843,3.642845154,-6.243980408,-5.163101196,-0.139489993,0.121672727,1.110062599
18.782469,4.138755798,-6.404197693,-5.414871216,-0.136316165,0.121672727,1.107865334
18.783096,4.222679138,-6.068504333,-5.216506958,-0.139734134,0.119353391,1.107865334
18.783721,4.527854919,-5.954063416,-5.346206665,-0.138391361,0.120574094,1.105179787
18.784346,5.130577087,-6.175315857,-5.453018188,-0.141076908,0.121184446,1.108597755
18.784973,4.840660095,-5.595481873,-5.346206665,-0.140466556,0.119231321,1.109086037
18.785599,5.389976501,-5.656517029,-5.506423950,-0.140710697,0.118376829,1.109574318
18.786224,5.496788025,-5.587852478,-5.041030884,-0.139245853,0.119353391,1.111527443
18.800210,3.154563904,-2.345359802,-4.491714478,-0.134240970,0.118743040,1.098832130
18.800948,2.948570251,-2.261436462,-4.369644165,-0.135461673,0.119231321,1.102128029
18.801574,2.666282654,-2.246177673,-4.087356567,-0.133264408,0.115203001,1.101151466
18.802199,2.315330505,-2.085960388,-4.117874146,-0.135461673,0.121184446,1.099564552
18.802825,2.010154724,-1.864707947,-4.293350220,-0.130700931,0.122283079,1.097245216
18.803451,1.560020447,-1.780784607,-4.011062622,-0.132043704,0.124724485,1.102005959
18.804078,1.178550720,-1.437461853,-4.156021118,-0.126550540,0.127043828,1.099564552
18.804703,0.850486755,-1.269615173,-4.087356567,-0.127527103,0.126677617,1.102860451
18.805328,0.339317322,-1.155174255,-3.744033813,-0.121423587,0.129119024,1.105790138
18.805953,-0.293922424,-0.994956970,-3.888992310,-0.122644290,0.130339727,1.104813576
18.806578,-0.621986389,-0.811851501,-3.736404419,-0.117761478,0.132781133,1.107010841
18.807204,-1.026344299,-0.659263611,-3.881362915,-0.116662845,0.133635625,1.109940529
18.807830,-1.583290100,-0.262535095,-3.721145630,-0.112878665,0.134368047,1.108597755
18.808455,-2.163124084,-0.155723572,-3.637222290,-0.111902103,0.138518438,1.111527443
18.809080,-2.483558655,0.096046448,-3.782180786,-0.111047611,0.137541875,1.112870216
18.809706,-3.208351135,0.500404358,-3.477005005,-0.106408939,0.140471563,1.112504005
18.810331,-3.795814514,0.675880432,-3.538040161,-0.106775150,0.144377813,1.111771584
18.810957,-4.558753967,1.019203186,-3.484634399,-0.103113040,0.145964727,1.110917091
18.811584,-4.955482483,1.103126526,-3.423599243,-0.107019290,0.144377813,1.113236427
18.812209,-5.520057678,1.393043518,-3.507522583,-0.103113040,0.145964727,1.112992287
18.812836,-6.122779846,1.629554749,-3.354934692,-0.104211673,0.147673711,1.110306740
18.813461,-6.603431702,1.766883850,-3.286270142,-0.103723392,0.152312383,1.111161232
18.814087,-7.274818420,2.033912659,-3.400711060,-0.099939212,0.148284063,1.111039162
18.814714,-7.885169983,2.438270569,-3.271011353,-0.104333743,0.151091680,1.108475685
18.815340,-8.465003967,2.575599670,-3.461746216,-0.106408939,0.152312383,1.111161232
18.815966,-9.128761292,2.796852112,-3.339675903,-0.103479251,0.151579961,1.106644630
18.816592,-9.586524963,3.086769104,-3.423599243,-0.105066165,0.152678594,1.107499123
18.817219,-9.998512268,3.292762756,-3.278640747,-0.100549564,0.151824102,1.103470802
18.817846,-10.311317444,3.498756409,-3.316787720,-0.102624759,0.152068242,1.103959084
18.818471,-10.845375061,3.620826721,-3.339675903,-0.102136478,0.152556524,1.100663185
18.820281,-12.272071838,4.261695862,-3.118423462,-0.099206790,0.153533086,1.097733498
18.820906,-12.554359436,4.429542542,-3.385452271,-0.100549564,0.152678594,1.093949318
18.821532,-12.714576721,4.971229553,-3.316787720,-0.097497806,0.153655156,1.095536232
18.822158,-13.202857971,4.795753479,-3.255752563,-0.099573001,0.153411016,1.093949318
18.822783,-13.340187073,5.146705627,-3.431228638,-0.096765384,0.155486211,1.090897560
18.823408,-13.508033752,5.299293518,-3.255752563,-0.095666751,0.153533086,1.093094826
18.824033,-13.675880432,5.573951721,-3.347305298,-0.094812259,0.154021367,1.088212013
18.824659,-13.973426819,5.665504456,-3.354934692,-0.094568118,0.151579961,1.087113380
18.825285,-13.797950745,5.818092346,-3.469375610,-0.096399173,0.152312383,1.088089943
18.825911,-14.209938049,5.978309631,-3.278640747,-0.094812259,0.153288946,1.087235451
18.826537,-14.148902893,6.230079651,-3.728775024,-0.094568118,0.153899297,1.087235451
18.827162,-13.988685608,6.336891174,-3.675369263,-0.095788822,0.151091680,1.085282326
18.827788,-14.064979553,6.527626038,-3.393081665,-0.092981204,0.150481328,1.082352638
18.828420,-14.095497131,6.680213928,-3.873733521,-0.094201908,0.153044805,1.083329201
18.829046,-13.942909241,6.985389709,-3.850845337,-0.092004642,0.153655156,1.082962990
18.829673,-13.714027405,6.924354553,-3.629592896,-0.090417728,0.152068242,1.083329201
18.830299,-13.698768616,7.191383362,-3.751663208,-0.089685306,0.154387578,1.078202248
18.830926,-13.591957092,7.343971252,-4.217056274,-0.087854251,0.150603399,1.078080177
18.844915,-5.390357971,9.472572327,-5.536941528,-0.078698978,0.141936406,1.044022560
18.845664,-4.947853088,9.640419006,-5.544570923,-0.079675540,0.140471563,1.044266701
18.846289,-4.467201233,9.785377502,-5.712417603,-0.078943118,0.141326055,1.042923927
18.846914,-4.116249084,9.670936584,-5.941299438,-0.078943118,0.140837774,1.041581154
18.847539,-3.444862366,9.823524475,-5.742935181,-0.078454837,0.139128789,1.040116310
18.848166,-2.910804749,9.823524475,-6.193069458,-0.078943118,0.139128789,1.037919044
18.848791,-2.384376526,9.892189026,-6.139663696,-0.077966556,0.137908086,1.034379005
18.849416,-1.957130432,9.899818420,-6.185440063,-0.077600345,0.134978399,1.033646584
18.850041,-1.529884338,9.831153870,-6.284622192,-0.077966556,0.134001836,1.031571388
18.850667,-1.217079163,9.869300842,-6.338027954,-0.079675540,0.136687383,1.029374123
18.851292,-0.683021545,9.945594788,-6.513504028,-0.079797611,0.133513555,1.026932716
18.851919,-0.232887268,9.968482971,-6.582168579,-0.083337650,0.132659063,1.025956154
18.852546,0.247764587,10.075294495,-6.727127075,-0.079309329,0.131438360,1.021927834
18.853172,0.736045837,9.968482971,-6.605056763,-0.082727298,0.128020391,1.020218849
18.853799,1.262474060,9.968482971,-6.742385864,-0.078943118,0.129363164,1.013749123
18.854424,1.682090759,9.922706604,-6.788162231,-0.081140384,0.126433477,1.013260841
18.855051,2.010154724,10.075294495,-6.925491333,-0.082483158,0.124846555,1.016068459
18.855676,2.597618103,9.945594788,-7.009414673,-0.081750736,0.124358274,1.010331154
18.856301,3.063011169,9.983741760,-7.078079224,-0.081140384,0.122405149,1.005082130
18.856927,3.421592712,9.815895081,-7.123855591,-0.083093509,0.122161008,1.005082130
18.857554,3.955650330,9.754859924,-7.162002563,-0.084070072,0.121184446,0.999588966
18.858179,4.390525818,9.678565979,-7.306961060,-0.081994876,0.118865110,0.996659279
18.858804,4.550743103,9.609901428,-7.360366821,-0.084314212,0.119841672,0.992753029
18.859430,5.168724060,9.472572327,-7.421401978,-0.085901126,0.119353391,0.994095802
18.860056,5.557823181,9.388648987,-7.375625610,-0.087976322,0.113860227,0.991898537
18.860681,5.946922302,9.281837463,-7.512954712,-0.091150150,0.116423704,0.987626076
18.861306,6.236839294,9.281837463,-7.367996216,-0.088464603,0.110686399,0.984330177
18.861932,6.503868103,9.007179260,-7.642654419,-0.090906009,0.108367063,0.983841896
18.862558,7.037925720,8.785926819,-7.573989868,-0.093591556,0.111662962,0.980057716
18.863184,7.510948181,8.373939514,-7.665542603,-0.096155033,0.107268430,0.978104591
18.864960,8.029747009,7.931434631,-7.635025024,-0.099206790,0.105559446,0.971390724
18.865586,8.098411560,8.190834045,-7.718948364,-0.096032962,0.103850462,0.971512794
18.866212,8.487510681,7.847511292,-7.841018677,-0.095056400,0.104216672,0.972245216
18.866839,8.518028259,7.626258850,-7.741836548,-0.101892337,0.099455930,0.970292091
18.867466,8.479881287,7.702552795,-7.841018677,-0.098108158,0.102751829,0.966996193
18.868091,8.662986755,7.359230042,-7.764724731,-0.100305423,0.102263547,0.963822365
18.868716,8.754539490,7.267677307,-7.726577759,-0.102258548,0.101042844,0.964798927
18.869342,8.655357361,6.939613342,-7.818130493,-0.101037845,0.101653196,0.961014748
18.869968,8.746910095,6.817543030,-7.657913208,-0.099695072,0.098235227,0.962357521
18.870594,8.731651306,6.466590881,-7.680801392,-0.100183353,0.096892454,0.959549904
18.871220,8.525657654,6.443702698,-7.657913208,-0.100793704,0.097991087,0.960160255
18.871847,8.365440369,6.413185120,-7.726577759,-0.100183353,0.098235227,0.960526466
18.872472,8.266258240,5.909645081,-7.673171997,-0.101892337,0.094939329,0.957718849
18.873099,8.205223083,5.970680237,-7.596878052,-0.098840579,0.094206907,0.956742287
18.873725,8.060264587,5.856239319,-7.505325317,-0.101037845,0.094573118,0.956376076
18.874352,7.953453064,5.764686584,-7.673171997,-0.100427493,0.095305540,0.959427834
18.874977,7.495689392,5.535804749,-7.642654419,-0.098108158,0.094573118,0.957230568
18.875602,7.320213318,5.390846252,-7.573989868,-0.102258548,0.089934446,0.956986427
18.889561,-0.309181213,4.521095276,-5.514053345,-0.083459720,0.062346559,0.970047951
18.890315,-0.461769104,4.727088928,-5.468276978,-0.085412845,0.056365114,0.968705177
18.890941,-0.759315491,4.521095276,-5.376724243,-0.088220462,0.056365114,0.969681740
18.891568,-0.652503967,4.681312561,-5.216506958,-0.089563236,0.058074098,0.967362404
18.892193,-1.148414612,4.826271057,-5.124954224,-0.089197025,0.055266481,0.970292091
18.892819,-1.186561584,4.856788635,-5.224136353,-0.087854251,0.055754762,0.966141701
18.893446,-1.346778870,4.856788635,-5.231765747,-0.090295658,0.055754762,0.967606544
18.894072,-1.682472229,4.650794983,-4.880813599,-0.092004642,0.053557497,0.967240334
18.894698,-1.590919495,4.635536194,-4.972366333,-0.089197025,0.053557497,0.968338966
18.895323,-1.667213440,4.788124084,-4.850296021,-0.091272220,0.049651247,0.968705177
18.895948,-1.743507385,4.864418030,-4.842666626,-0.091150150,0.046843629,0.966874123
18.896574,-1.659584045,4.627906799,-4.857925415,-0.093469486,0.047331911,0.968583107
18.897201,-1.644325256,4.971229553,-4.629043579,-0.089441165,0.045256715,0.966996193
18.897826,-1.598548889,4.887306213,-4.499343872,-0.090051517,0.044280153,0.968461037
18.898453,-1.499366760,4.826271057,-4.545120239,-0.089807376,0.044036012,0.965653419
18.899078,-1.636695862,4.772865295,-4.430679321,-0.089074954,0.040740114,0.968094826
18.899703,-1.560401917,4.933082581,-4.659561157,-0.088098392,0.038664918,0.969071388
18.900328,-1.293373108,5.024635315,-4.011062622,-0.088464603,0.040007692,0.966752052
18.900954,-0.972938538,4.963600159,-3.988174438,-0.088952884,0.037932497,0.967484474
18.901580,-0.827980042,5.055152893,-3.980545044,-0.091516361,0.034026247,0.969071388
18.902205,-0.538063049,4.994117737,-4.049209595,-0.091028079,0.033537965,0.967606544
18.902831,-0.255775452,5.245887756,-3.911880493,-0.091516361,0.033415895,0.968583107
18.903458,0.201988220,5.177223206,-3.751663208,-0.092126712,0.031462770,0.968216896
18.904085,0.316429138,5.192481995,-3.705886841,-0.092614993,0.030852417,0.966507912
18.904712,0.766563416,5.169593811,-3.797439575,-0.092614993,0.033660036,0.966996193
18.905337,1.109886169,5.116188049,-3.545669556,-0.093591556,0.029997924,0.966019630
18.905962,1.605796814,5.261146545,-3.621963501,-0.098230228,0.030730346,0.962601662
18.906589,1.796531677,5.131446838,-3.484634399,-0.097619876,0.031340700,0.961380959
18.907214,2.368736267,5.444252014,-3.354934692,-0.102868900,0.030364135,0.962357521
18.907840,2.734947205,5.589210510,-3.492263794,-0.100427493,0.027312377,0.963334084
18.909620,3.970909119,5.390846252,-3.354934692,-0.103601322,0.027800659,0.955765724
18.910246,4.482078552,5.535804749,-3.332046509,-0.106408939,0.028533081,0.957352638
18.910871,4.863548279,5.596839905,-3.179458618,-0.107141361,0.028044799,0.954545021
18.911497,5.245018005,5.398475647,-3.095535278,-0.109094486,0.028533081,0.953324318
18.912124,5.893516541,5.467140198,-3.171829224,-0.110681400,0.030974487,0.952347755
18.912749,6.160545349,5.474769592,-3.003982544,-0.111657962,0.030852417,0.947709084
18.913374,6.702232361,5.543434143,-2.981094360,-0.114343509,0.032439332,0.946976662
18.913999,6.946372986,5.329811096,-2.767471313,-0.116906986,0.029143432,0.945633888
18.914625,7.503318787,5.451881409,-2.813247681,-0.117273197,0.031218627,0.941239357
18.915252,8.037376404,5.436622620,-2.859024048,-0.123132572,0.030974487,0.939774513
18.915877,8.113670349,5.291664124,-2.843765259,-0.123254642,0.034148317,0.940629005
18.916502,8.502769470,5.100929260,-2.988723755,-0.125207767,0.040251832,0.936722755
18.917128,8.846092224,5.184852600,-2.973464966,-0.131799564,0.038542848,0.936600685
18.917753,9.036827087,5.085670471,-2.744583130,-0.130212650,0.039885622,0.931717873
18.918379,9.486961365,5.055152893,-2.637771606,-0.131067142,0.041716676,0.929764748
18.919009,9.464073181,4.963600159,-2.843765259,-0.134729251,0.041960817,0.927201271
18.919635,9.776878357,4.887306213,-2.637771606,-0.139245853,0.045256715,0.923661232
18.920260,9.876060486,4.864418030,-2.454666138,-0.140466556,0.045989137,0.922562599
18.920886,9.876060486,4.666053772,-2.637771606,-0.142907962,0.049895387,0.923417091
18.934824,4.222679138,1.133644104,-1.218704224,-0.185876712,0.069060422,0.873002052
18.935549,3.192710876,0.622474670,-1.211074829,-0.194055423,0.066619016,0.872757912
18.936175,2.605247498,0.363075256,-1.012710571,-0.193445072,0.067595579,0.870072365
18.936802,2.445030212,0.164710999,-1.020339966,-0.191736087,0.061736207,0.871048927
18.937429,2.078819275,-0.247276306,-1.043228149,-0.198327884,0.064421751,0.867508888
18.938056,1.697349548,-0.445640564,-0.844863892,-0.201257572,0.066130735,0.867142677
18.938681,0.949668884,-0.865257263,-0.715164185,-0.205407962,0.059661012,0.863602638
18.939307,0.560569763,-1.246726990,-0.570205688,-0.207116947,0.059905153,0.862015724
18.939932,0.148582458,-1.849449158,-0.463394165,-0.207971439,0.058928590,0.861283302
18.940557,-0.095558167,-1.826560974,-0.333694458,-0.207483158,0.060027223,0.862015724
18.941182,-0.248146057,-2.490318298,-0.455764771,-0.211999759,0.061369997,0.856156349
18.941807,-0.728797913,-2.742088318,0.017257690,-0.210412845,0.061003786,0.854569435
18.942434,-1.049232483,-3.093040466,-0.104812622,-0.213708743,0.060637575,0.853959084
18.943061,-1.110267639,-3.558433533,0.154586792,-0.212488040,0.052825075,0.852982521
18.943686,-1.636695862,-3.703392029,0.047775269,-0.214807376,0.055754762,0.847245216
18.944311,-1.796913147,-4.267967224,0.238510132,-0.214685306,0.056487184,0.849076271
18.944937,-2.048683167,-4.634178162,0.146957397,-0.215906009,0.055022340,0.847611427
18.945564,-2.308082581,-5.038536072,0.307174683,-0.218225345,0.053679567,0.848710060
18.946189,-2.407264709,-5.465782166,0.452133179,-0.217859134,0.054534059,0.848710060
18.946816,-2.453041077,-5.954063416,0.490280151,-0.220422611,0.053923707,0.848832130
18.947442,-2.597999573,-6.495750427,0.719161987,-0.218957767,0.055022340,0.844925880
18.948068,-2.643775940,-6.846702576,0.795455933,-0.218103275,0.054900270,0.846268654
18.948695,-2.865028381,-7.418907166,0.940414429,-0.218469486,0.054778200,0.848099709
18.949321,-3.025245667,-8.013999939,1.001449585,-0.217614993,0.054289918,0.849076271
18.949947,-2.903175354,-8.334434509,0.963302612,-0.219201908,0.053923707,0.849808693
18.950574,-3.048133850,-8.822715759,1.314254761,-0.219812259,0.053191286,0.852005959
18.951200,-2.971839905,-9.211814880,1.260848999,-0.217004642,0.056243043,0.853104591
18.951827,-2.956581116,-9.616172791,1.566024780,-0.215661868,0.055144411,0.853104591
18.952454,-2.994728088,-10.203636169,1.558395386,-0.215295658,0.055144411,0.854691505
18.953080,-2.964210510,-10.691917419,1.688095093,-0.215173587,0.054656129,0.857743263
18.961551,-1.178932190,-15.780723572,2.466293335,-0.207971439,0.068938352,0.889847755
18.962177,-0.652503967,-16.040122986,2.481552124,-0.207239017,0.068205930,0.891068459
18.962803,-0.400733948,-16.269004822,2.664657593,-0.207971439,0.073210813,0.897171974
18.963429,-0.316810608,-16.825950623,2.687545776,-0.205285892,0.074553587,0.898392677
18.964056,0.156211853,-17.054832458,2.405258179,-0.206140384,0.075774290,0.899247169
18.964681,0.087547302,-17.375267029,2.786727905,-0.204431400,0.080046751,0.901810646
18.965306,0.522422791,-17.550743103,2.626510620,-0.200769290,0.079314329,0.905594826
18.965933,0.552940369,-17.932212830,2.626510620,-0.202844486,0.081145383,0.909623146
18.966558,1.094627380,-18.206871033,2.885910034,-0.203088626,0.087248899,0.911210060
18.967184,1.262474060,-18.573081970,2.863021851,-0.204797611,0.086760618,0.914017677
18.967810,1.674461365,-18.481529236,2.809616089,-0.201257572,0.088957883,0.917069435
18.968437,1.926231384,-18.771446228,2.977462769,-0.198205814,0.092009641,0.920975685
18.969062,2.094078064,-19.290245056,2.939315796,-0.201135501,0.096282102,0.924027443
18.969687,2.368736267,-19.282615662,2.763839722,-0.197839603,0.098113157,0.926468849
18.970314,2.429771423,-19.374168396,2.885910034,-0.198694095,0.101164915,0.930741310
18.970939,2.658653259,-19.755638123,2.771469116,-0.195764408,0.103850462,0.932816505
18.971564,2.940940857,-19.999778748,2.664657593,-0.194421634,0.108977415,0.935135841
18.972190,3.124046326,-20.159996033,2.847763062,-0.193445072,0.114348508,0.937821388
18.986187,-4.390907288,-21.823204041,0.803085327,-0.152185306,0.217009649,1.013749123
18.986938,-5.108070374,-21.334922791,0.604721069,-0.148889408,0.223845586,1.015702248
18.987563,-5.733680725,-21.334922791,0.444503784,-0.146692142,0.223357305,1.018631935
18.988188,-6.313514709,-21.312034607,0.352951050,-0.145715579,0.226409063,1.024613380
18.988813,-7.694435120,-21.159446716,0.063034058,-0.147058353,0.229216680,1.025345802
18.989438,-8.236122131,-21.052635193,-0.158218384,-0.146081790,0.232268438,1.026322365
18.990064,-8.854103088,-21.022117615,-0.379470825,-0.148156986,0.229460821,1.032425880
18.990691,-9.594154358,-20.915306091,-0.318435669,-0.145959720,0.229582891,1.035477638
18.991316,-10.257911682,-20.648277283,-0.623611450,-0.146692142,0.231902227,1.039872169
18.991942,-10.631752014,-20.640647888,-0.829605103,-0.141565189,0.230681524,1.041214943
18.992568,-11.470985413,-20.427024841,-0.982192993,-0.141321048,0.231536016,1.043534279
18.993193,-12.088966370,-20.121849060,-1.073745728,-0.142053470,0.226653203,1.046586037
18.993820,-12.783241272,-20.053184509,-1.439956665,-0.141687259,0.229216680,1.046097755
18.994446,-13.141822815,-19.938743591,-1.317886353,-0.138025150,0.227263555,1.052201271
18.995138,-13.614845276,-19.831932068,-1.768020630,-0.139245853,0.223967656,1.051224709
18.995763,-14.110755920,-19.625938416,-1.981643677,-0.136560306,0.218962774,1.053421974
18.996389,-14.545631409,-19.397056580,-1.890090942,-0.139978275,0.219573125,1.055008888
18.997015,-14.530372620,-19.480979919,-2.271560669,-0.139245853,0.217375860,1.057694435
18.997642,-14.660072327,-19.328392029,-2.347854614,-0.138269290,0.213957891,1.057572365
18.998267,-15.133094788,-18.832481384,-2.775100708,-0.139123783,0.212859258,1.062699318
18.998892,-15.049171448,-18.862998962,-2.859024048,-0.138269290,0.211150274,1.063553810
18.999679,-15.247535706,-18.489158630,-3.065017700,-0.140100345,0.207488164,1.065262794
19.000464,-14.957618713,-18.290794373,-3.484634399,-0.138757572,0.203215703,1.067460060
19.001301,-14.927101135,-18.306053162,-3.644851685,-0.139001712,0.199675664,1.067948341
19.002126,-14.827919006,-17.962730408,-3.660110474,-0.137170658,0.199553594,1.070755959
19.002909,-14.202308655,-17.810142517,-4.094985962,-0.140222415,0.193572149,1.075882912
19.003535,-13.965797424,-17.634666443,-4.232315063,-0.137781009,0.189787969,1.078812599
19.004162,-13.950538635,-17.291343689,-4.468826294,-0.138391361,0.187956914,1.079789162
19.004789,-13.485145569,-17.298973083,-4.812149048,-0.136682376,0.186247930,1.080399513
19.006617,-12.943458557,-17.207420349,-5.063919067,-0.136926517,0.178313360,1.082230568
19.007244,-12.470436096,-16.665733337,-5.239395142,-0.135949954,0.181243047,1.084671974
19.007869,-12.180519104,-16.864097595,-5.628494263,-0.138391361,0.176360235,1.085160255
19.008495,-11.554908752,-16.482627869,-5.559829712,-0.139367923,0.172209844,1.089676857
19.009122,-11.425209045,-16.604698181,-5.758193970,-0.137903079,0.173918828,1.087723732
19.009748,-10.524940491,-16.398704529,-5.926040649,-0.137658939,0.169280156,1.087357521
19.010373,-9.784889221,-15.971458435,-6.177810669,-0.139734134,0.165495977,1.087967873
19.010999,-9.388160706,-16.230857849,-6.376174927,-0.136316165,0.165984258,1.089432716
19.011625,-8.739662170,-15.834129333,-6.521133423,-0.139978275,0.163298711,1.086869240
19.012251,-8.472633362,-15.940940857,-6.742385864,-0.138025150,0.162688360,1.087235451
19.012877,-7.999610901,-15.704429626,-6.811050415,-0.138147220,0.158537969,1.088212013
19.013710,-7.541847229,-15.773094177,-7.093338013,-0.137903079,0.158782110,1.089188576
19.014515,-7.068824768,-15.773094177,-7.055191040,-0.138025150,0.157073125,1.090653419
19.015319,-6.748390198,-15.376365662,-7.306961060,-0.137170658,0.154265508,1.086991310
19.016148,-5.817604065,-15.429771423,-7.566360474,-0.138513431,0.150969610,1.089554787
19.016856,-5.588722229,-14.979637146,-7.711318970,-0.136194095,0.149260625,1.091141701
19.017491,-5.138587952,-15.155113220,-7.696060181,-0.137170658,0.148894414,1.089432716
19.018118,-5.047035217,-15.071189880,-7.879165649,-0.137048587,0.149260625,1.090043068
19.032065,-3.986549377,-11.843955994,-8.680252075,-0.152917728,0.107634641,1.115067482
19.032792,-4.352760315,-11.615074158,-8.779434204,-0.153772220,0.106658079,1.116776466
19.033417,-4.299354553,-11.729515076,-8.870986938,-0.152307376,0.106169797,1.118119240
19.034196,-4.528236389,-11.088645935,-8.886245728,-0.146814212,0.102629758,1.117020607
19.034822,-4.795265198,-10.928428650,-9.069351196,-0.149621829,0.097502805,1.121048927
19.035447,-4.703712463,-10.669029236,-8.687881470,-0.148279056,0.097380735,1.122391701
19.036074,-4.741859436,-10.234153748,-8.901504517,-0.150598392,0.089446165,1.118729591
19.036699,-4.848670959,-10.081565857,-8.771804810,-0.150720462,0.087004758,1.118241310
19.037325,-4.940223694,-9.860313416,-8.771804810,-0.149621829,0.087615110,1.122391701
19.037951,-4.734230042,-9.822166443,-8.870986938,-0.148767337,0.083953001,1.120926857
19.038576,-4.619789124,-9.631431580,-8.726028442,-0.149988040,0.080901243,1.123490334
19.039203,-4.413795471,-9.364402771,-8.924392700,-0.148034915,0.079680540,1.125199318
19.039829,-4.680824280,-9.265220642,-8.870986938,-0.144861087,0.078215696,1.124100685
19.040455,-4.581642151,-8.921897888,-8.642105103,-0.143762454,0.073088743,1.123490334
19.041080,-4.490089417,-8.670127869,-8.802322388,-0.145227298,0.070403196,1.124833107
19.041706,-4.558753967,-8.601463318,-8.611587524,-0.138757572,0.069304563,1.125321388
19.042331,-4.291725159,-8.227622986,-8.611587524,-0.139856204,0.069060422,1.126175880
19.042957,-4.329872131,-8.258140564,-8.626846313,-0.140954837,0.066008665,1.128617287
19.043582,-4.383277893,-8.006370544,-8.687881470,-0.139123783,0.062590696,1.128739357
19.044207,-4.253578186,-7.754600525,-8.527664185,-0.137536868,0.059050661,1.128006935
19.044832,-4.017066956,-7.312095642,-8.657363892,-0.139489993,0.058928590,1.128983498
19.045459,-3.879737854,-6.953514099,-8.588699341,-0.137903079,0.057341676,1.130814552
19.046084,-3.841590881,-6.922996521,-8.489517212,-0.140100345,0.053435426,1.131913185
19.046709,-3.811073303,-6.724632263,-8.352188110,-0.137048587,0.049040895,1.132767677
19.047334,-3.788185120,-6.404197693,-8.230117798,-0.135827884,0.049895387,1.131913185
19.047959,-3.605079651,-6.160057068,-8.130935669,-0.139245853,0.046599489,1.133500099
19.048584,-3.544044495,-6.160057068,-8.138565063,-0.138757572,0.044158082,1.131424904
19.049210,-3.734779358,-5.854881287,-8.092788696,-0.137292728,0.043547731,1.134476662
19.049835,-3.528785706,-5.473411560,-7.947830200,-0.135949954,0.038664918,1.137894630
19.050460,-3.444862366,-5.282676697,-7.871536255,-0.137414798,0.039275270,1.138382912
19.052269,-3.368568420,-4.382408142,-7.779983521,-0.139978275,0.032195192,1.137162209
19.052896,-3.353309631,-4.222190857,-7.543472290,-0.140710697,0.032195192,1.137772560
19.053521,-3.330421448,-3.825462341,-7.474807739,-0.143640384,0.029753784,1.137772560
19.054146,-3.093910217,-3.581321716,-7.581619263,-0.142297611,0.028288940,1.137894630
19.054772,-3.437232971,-3.421104431,-7.558731079,-0.144372806,0.025725463,1.139603615
19.055399,-3.322792053,-2.993858337,-7.421401978,-0.148645267,0.027068237,1.138138771
19.056025,-3.093910217,-2.452171326,-7.306961060,-0.148156986,0.027312377,1.135819435
19.056652,-3.414344788,-2.414024353,-7.001785278,-0.149499759,0.026335815,1.135697365
19.057278,-3.505897522,-2.139366150,-7.093338013,-0.153161868,0.021575073,1.132157326
19.057905,-3.612709045,-1.719749451,-7.100967407,-0.152307376,0.021453002,1.137284279
19.058530,-3.635597229,-1.620567322,-6.643203735,-0.155237064,0.019866088,1.133011818
19.059155,-3.811073303,-1.223838806,-6.612686157,-0.154626712,0.018523315,1.135453224
19.059782,-3.864479065,-0.956809998,-6.750015259,-0.153650150,0.017302612,1.135575294
19.060408,-3.841590881,-0.628746033,-6.444839478,-0.155603275,0.019011596,1.132889748
19.061033,-4.032325745,-0.384605408,-6.437210083,-0.153650150,0.017668823,1.130692482
19.061660,-4.024696350,-0.262535095,-6.124404907,-0.158410892,0.015837768,1.128983498
19.062285,-4.223060608,0.241004944,-6.254104614,-0.157190189,0.015349487,1.128251076
19.076298,-7.473182678,3.521644592,-2.614883423,-0.164636478,0.005339722,1.087967873
19.077082,-7.564735413,3.262245178,-2.630142212,-0.164636478,0.006194214,1.087357521
19.077708,-7.770729065,3.666603088,-2.439407349,-0.164148197,0.003264526,1.089920998
19.078334,-7.679176331,3.720008850,-2.195266724,-0.161828861,0.002898315,1.086258888
19.078959,-7.511329651,3.575050354,-2.103713989,-0.160364017,0.000456909,1.088578224
19.079584,-7.656288147,3.849708557,-1.836685181,-0.162439212,0.002043823,1.085648537
19.080209,-7.450294495,3.658973694,-1.790908813,-0.160730228,0.000945190,1.083817482
19.080836,-7.641029358,3.704750061,-1.684097290,-0.161340579,0.000578979,1.085770607
19.081462,-7.633399963,3.674232483,-1.478103638,-0.159265384,0.003508667,1.089066505
19.082088,-7.419776917,3.842079163,-1.424697876,-0.158410892,-0.002228638,1.088212013
19.082713,-7.190895081,3.910743713,-1.241592407,-0.159753665,-0.002594849,1.089920998
19.083340,-7.007789612,3.681861877,-0.974563599,-0.156335697,-0.002106567,1.088700294
19.083965,-6.763648987,3.964149475,-0.821975708,-0.154260501,-0.004792114,1.092240334
19.084590,-6.649208069,4.025184631,-0.730422974,-0.154504642,-0.005646606,1.094071388
19.085217,-6.305885315,4.131996155,-0.539688110,-0.150598392,-0.006379028,1.094437599
19.085844,-6.191444397,4.147254944,-0.539688110,-0.153894290,-0.004670044,1.098221779
19.086470,-5.756568909,4.353248596,-0.348953247,-0.148645267,-0.009430787,1.095902443
19.087096,-5.809974670,4.292213440,-0.089553833,-0.150232181,-0.009919068,1.098954201
19.087721,-5.291175842,4.505836487,0.032516479,-0.147912845,-0.010895630,1.101883888
19.088347,-5.100440979,4.582130432,0.063034058,-0.147058353,-0.010407349,1.102250099
19.088972,-4.657936096,4.948341370,0.177474976,-0.142785892,-0.010651490,1.104569435
19.089598,-4.116249084,5.116188049,0.391098022,-0.141198978,-0.012238404,1.106400490
19.090224,-4.009437561,5.444252014,0.520797729,-0.140344486,-0.012604615,1.106644630
19.090850,-3.490638733,5.627357483,0.581832886,-0.138147220,-0.009186646,1.109696388
19.091475,-3.215980530,5.673133850,0.764938354,-0.139001712,-0.011872193,1.109208107
19.092102,-2.758216858,5.902015686,0.764938354,-0.136804447,-0.012848755,1.110917091
19.092729,-2.514076233,6.474220276,0.841232300,-0.136926517,-0.012116333,1.110917091
19.093354,-1.735877991,6.413185120,0.879379272,-0.138147220,-0.010163208,1.113480568
19.093980,-1.705360413,6.626808167,1.039596558,-0.134729251,-0.011505982,1.112748146
19.094606,-1.110267639,6.893836975,1.321884155,-0.134973392,-0.014191529,1.113724709
19.096423,-0.324440002,7.626258850,1.550765991,-0.133264408,-0.014069458,1.114457130
19.097049,0.133323669,7.839881897,1.672836304,-0.130945072,-0.010041138,1.116410255
19.097676,0.499534607,7.946693420,1.848312378,-0.132287845,-0.012116333,1.115677834
19.098301,0.903892517,8.145057678,2.023788452,-0.127527103,-0.013703248,1.116166115
19.098926,1.247215271,8.679115295,1.993270874,-0.129114017,-0.012604615,1.116166115
19.099552,1.491355896,8.747779846,2.084823608,-0.128991947,-0.013825318,1.112015724
19.100178,1.994895935,8.816444397,2.046676636,-0.129602298,-0.010651490,1.107865334
19.100803,2.284812927,9.350502014,2.374740601,-0.130700931,-0.013581177,1.106644630
19.101430,2.986717224,9.876930237,2.641769409,-0.127038822,-0.014679810,1.105423927
19.102056,3.352928162,10.067665100,2.580734253,-0.130700931,-0.011261841,1.102494240
19.102683,3.505516052,10.380470276,2.801986694,-0.132531986,-0.012238404,1.100785255
19.103309,3.749656677,10.548316956,2.855392456,-0.130945072,-0.013337037,1.099442482
19.103935,4.245567322,10.639869690,3.114791870,-0.135705814,-0.007721802,1.096756935
19.104560,4.558372498,11.013710022,3.213973999,-0.135339603,-0.010651490,1.093583107
19.105185,4.817771912,11.097633362,3.183456421,-0.136804447,-0.013092896,1.086258888
19.105810,5.252647400,11.425697327,3.336044312,-0.136926517,-0.008332154,1.085160255
19.106436,5.397605896,11.540138245,3.610702515,-0.143762454,-0.007477661,1.083695412
19.107063,5.779075623,11.585914612,3.618331909,-0.143884525,-0.007965943,1.078934669
19.107688,5.840110779,11.685096741,3.717514038,-0.145227298,-0.005524536,1.080033302
19.121673,9.280967712,13.478004456,5.785079956,-0.152185306,0.000212769,1.045365334
19.122438,9.174156189,13.272010803,5.914779663,-0.151208743,0.000578979,1.048050880
19.123064,8.960533142,13.622962952,6.136032104,-0.149865970,-0.002228638,1.046219826
19.123690,9.227561951,13.661109924,5.930038452,-0.148156986,0.003996948,1.043656349
19.124315,8.914756775,13.622962952,6.166549683,-0.148156986,0.006438354,1.044388771
19.124942,9.044456482,13.676368713,6.258102417,-0.148279056,0.006316284,1.043534279
19.125569,9.074974060,13.775550842,6.410690308,-0.149133548,0.004729370,1.040604591
19.126195,9.113121033,13.607704163,6.334396362,-0.151452884,0.003508667,1.042679787
19.126822,8.952903748,13.828956604,6.616683960,-0.150720462,0.007414917,1.044754982
19.127448,8.975791931,14.027320862,6.692977905,-0.148156986,0.006804565,1.043045998
19.128075,8.823204041,13.905250549,6.410690308,-0.146448001,0.008757690,1.038773537
19.128702,8.609580994,14.050209045,6.746383667,-0.146814212,0.008025268,1.039750099
19.129329,8.716392517,14.210426331,6.960006714,-0.148279056,0.008635620,1.036087990
19.129954,8.296775818,14.431678772,6.937118530,-0.147302493,0.007048706,1.036820412
19.130579,8.426475525,14.477455139,7.166000366,-0.148523197,0.009123901,1.036087990
19.131204,8.022117615,14.424049377,7.135482788,-0.154138431,0.010100463,1.032181740
19.131829,7.945823669,14.668190002,7.417770386,-0.152917728,0.008147338,1.029618263
19.132456,7.976341248,14.530860901,7.333847046,-0.155603275,0.012908081,1.028275490
19.133081,7.877159119,14.439308167,7.471176147,-0.158899173,0.012175659,1.022660255
19.133706,7.716941833,14.607154846,7.593246460,-0.162927493,0.012786010,1.022294044
19.134332,7.587242126,14.599525452,7.524581909,-0.165368900,0.017058471,1.016312599
19.134957,7.495689392,14.500343323,7.654281616,-0.167810306,0.015349487,1.016922951
19.135750,7.320213318,14.607154846,7.829757690,-0.173425540,0.018279174,1.010697365
19.136376,7.304954529,14.347755432,7.875534058,-0.173791751,0.019011596,1.011429787
19.137010,7.114219666,14.363014221,7.761093140,-0.172082767,0.014006713,1.011307716
19.137651,6.999778748,14.065467834,7.989974976,-0.171716556,0.015349487,1.007767677
19.138277,6.923484802,14.324867249,7.867904663,-0.175866947,0.015837768,1.007767677
19.138902,6.793785095,14.034950256,8.043380737,-0.175989017,0.017058471,1.006791115
19.139527,6.664085388,13.912879944,8.081527710,-0.176599368,0.015593627,1.006058693
19.140152,6.450462341,13.790809631,8.302780151,-0.176965579,0.015593627,1.004349709
19.141981,6.244468689,13.378822327,8.447738647,-0.175256595,0.011687377,0.994584084
19.142608,6.053733826,13.310157776,8.417221069,-0.177698001,0.013640502,0.994950294
19.143233,6.191062927,13.096534729,8.859725952,-0.180505618,0.015471557,0.991288185
19.143860,5.969810486,13.127052307,8.668991089,-0.182458743,0.015837768,0.988114357
19.144485,5.878257751,13.004981995,8.623214722,-0.183801517,0.016448120,0.988114357
19.145112,5.893516541,12.966835022,8.783432007,-0.189782962,0.020354370,0.985306740
19.145737,5.954551697,12.730323792,8.798690796,-0.190393314,0.021941284,0.987137794
19.146362,5.977439880,12.348854065,9.042831421,-0.190393314,0.020232299,0.981766701
19.146987,5.809593201,12.303077698,8.813949585,-0.188562259,0.020720581,0.984452248
19.147612,5.908775330,12.158119202,8.920761108,-0.188928470,0.020842651,0.983963966
19.148239,5.725669861,11.952125549,8.913131714,-0.187463626,0.022307495,0.985428810
19.148865,5.893516541,11.570655823,8.936019897,-0.184778079,0.024016479,0.987259865
19.149492,5.832481384,11.624061584,8.897872925,-0.185876712,0.025359252,0.986283302
19.150118,5.847740173,11.578285217,8.836837769,-0.186364993,0.022917846,0.988358498
19.150745,5.832481384,11.471473694,9.195419312,-0.186242923,0.026335815,0.988358498
19.151370,5.847740173,11.044227600,8.913131714,-0.186975345,0.022673706,0.988724709
19.151997,6.000328064,11.013710022,9.172531128,-0.184656009,0.025115112,0.985672951
19.152623,5.824851990,10.975563049,9.004684448,-0.185388431,0.027800659,0.990921974
19.166623,7.968711853,7.305824280,9.378524780,-0.172937259,0.043181520,0.976639748
19.167377,8.197593689,6.939613342,9.676071167,-0.169397220,0.045744997,0.974808693
19.168010,8.060264587,6.848060608,9.332748413,-0.168054447,0.046599489,0.975052834
19.168636,8.334922791,6.420814514,9.447189331,-0.168908939,0.051604372,0.975663185
19.169261,8.220481873,6.298744202,9.409042358,-0.168054447,0.051238161,0.978470802
19.169886,8.434104919,5.978309631,9.531112671,-0.164270267,0.052947145,0.981034279
19.170513,8.174705505,5.932533264,9.302230835,-0.162439212,0.054778200,0.975052834
19.171140,8.350181580,5.634986877,9.477706909,-0.162805423,0.058562379,0.978348732
19.171765,8.220481873,5.665504456,9.241195679,-0.159387454,0.059661012,0.983353615
19.172390,8.029747009,5.329811096,9.309860229,-0.157190189,0.063689329,0.980790138
19.173015,8.128929138,5.184852600,9.080978394,-0.155847415,0.065520383,0.981644630
19.173640,7.777976990,5.207740784,9.340377808,-0.153039798,0.066252805,0.984330177
19.174266,7.571983337,4.994117737,9.103866577,-0.152795658,0.069182493,0.988480568
19.174892,7.320213318,4.872047424,9.065719604,-0.149743900,0.071868040,0.987626076
19.175517,7.343101501,4.765235901,9.203048706,-0.147302493,0.074309446,0.987381935
19.176144,6.709861755,4.543983459,9.134384155,-0.151452884,0.076140501,0.991288185
19.176770,6.709861755,4.185401917,8.928390503,-0.145105228,0.077727415,0.989823341
19.177396,6.336021423,4.269325256,9.203048706,-0.141931400,0.080535032,0.996781349
19.178022,5.946922302,4.254066467,9.080978394,-0.139245853,0.079436399,0.997025490
19.178649,5.649375916,4.116737366,9.096237183,-0.140710697,0.084441282,0.998490334
19.179276,5.290794373,3.987037659,9.065719604,-0.139978275,0.084197141,1.003129005
19.179901,4.802513123,4.193031311,9.042831421,-0.140954837,0.081633665,1.004960060
19.180526,4.405784607,4.055702209,8.913131714,-0.136926517,0.083220579,1.004471779
19.181151,4.115867615,3.971778870,8.821578979,-0.136316165,0.083953001,1.005204201
19.181777,3.780174255,4.017555237,9.080978394,-0.135217533,0.082976438,1.012040138
19.182402,3.513145447,3.903114319,8.829208374,-0.136560306,0.083342649,1.007645607
19.183029,3.185081482,3.842079163,8.768173218,-0.133264408,0.085539915,1.010209084
19.183655,2.918052673,4.078590393,8.821578979,-0.134607181,0.083830930,1.014725685
19.184282,2.429771423,3.948890686,8.646102905,-0.133630618,0.081633665,1.013749123
19.184908,2.033042908,4.002296448,8.607955933,-0.130212650,0.081267454,1.016678810
19.186708,1.323509216,4.055702209,8.691879272,-0.129358158,0.077849485,1.019974709
19.187333,1.201438904,4.170143127,8.493515015,-0.128259525,0.074919797,1.020585060
19.187959,1.033592224,4.147254944,8.485885620,-0.126428470,0.076262571,1.023514748
19.188584,0.972557068,4.269325256,8.569808960,-0.127405033,0.076628782,1.023270607
19.189211,0.629234314,4.093849182,8.524032593,-0.123864993,0.075774290,1.023514748
19.189837,0.652122498,4.292213440,8.157821655,-0.125207767,0.071501829,1.025101662
19.190464,0.415611267,4.246437073,8.440109253,-0.124109134,0.072722532,1.024491310
19.191089,0.560569763,4.337989807,8.318038940,-0.123987064,0.070403196,1.025345802
19.191716,0.545310974,4.353248596,8.333297729,-0.120324954,0.067229368,1.027176857
19.192342,0.675010681,4.467689514,8.318038940,-0.121301517,0.066374876,1.028153419
19.192969,0.491905212,4.643165588,8.188339233,-0.119470462,0.063933469,1.024979591
19.193596,0.530052185,4.612648010,8.203598022,-0.121301517,0.063201047,1.024735451
19.194221,0.919151306,4.551612854,8.264633179,-0.120202884,0.061980348,1.029252052
19.194847,1.041221619,4.673683167,8.203598022,-0.117883548,0.060881715,1.026444435
19.195474,1.025962830,4.482948303,8.142562866,-0.117273197,0.061369997,1.027665138
19.196100,1.285362244,4.681312561,8.157821655,-0.120447025,0.063323118,1.027298927
19.196727,1.201438904,4.734718323,7.997604370,-0.116052493,0.059050661,1.026932716
19.197353,1.605796814,4.734718323,8.134933472,-0.119592533,0.058318239,1.027909279
19.197979,1.888084412,4.864418030,7.921310425,-0.118127689,0.059661012,1.027787209
19.198604,1.766014099,4.650794983,8.066268921,-0.116906986,0.058806520,1.029496193
19.219252,1.796531677,6.626808167,6.715866089,-0.127282962,0.090788938,1.025467873
19.220007,1.704978943,6.573402405,6.586166382,-0.128137454,0.088591672,1.025345802
19.220634,1.605796814,6.413185120,6.609054565,-0.129358158,0.092375852,1.024003029
19.221261,1.323509216,6.573402405,6.578536987,-0.125818118,0.089446165,1.023026466
19.221888,1.064109802,6.519996643,6.517501831,-0.127282962,0.089446165,1.021805763
19.222515,0.758934021,6.451332092,6.563278198,-0.129724368,0.091033079,1.017777443
19.223140,0.469017029,6.893836975,6.334396362,-0.130700931,0.090911008,1.017777443
19.223767,0.667381287,6.642066956,6.372543335,-0.132531986,0.091887571,1.016068459
19.224394,0.324058533,6.481849670,6.288619995,-0.129846439,0.093352415,1.016922951
19.225019,0.049400330,6.565773010,6.181808472,-0.128747806,0.090544797,1.017411232
19.225646,0.140953064,6.672584534,6.212326050,-0.130823001,0.090666868,1.015946388
19.226272,0.057029724,6.634437561,6.380172729,-0.127405033,0.089324094,1.014481544
19.226898,-0.049781799,6.542884827,6.044479370,-0.130212650,0.087615110,1.015702248
19.227523,-0.263404846,6.314002991,5.975814819,-0.129968509,0.089324094,1.014237404
19.228150,-0.209999084,6.321632385,5.960556030,-0.130823001,0.086760618,1.018387794
19.228775,-0.301551819,6.527626038,5.876632690,-0.130334720,0.085539915,1.017289162
19.229401,-0.347328186,6.397926331,5.891891479,-0.129114017,0.083953001,1.015336037
19.230026,-0.347328186,6.252967834,5.655380249,-0.132287845,0.084685422,1.017289162
19.230652,-0.492286682,6.130897522,5.525680542,-0.132287845,0.081023313,1.017533302
19.231278,-0.148963928,6.245338440,5.609603882,-0.134240970,0.082244016,1.018509865
19.231905,-0.194740295,6.062232971,5.746932983,-0.132287845,0.076384641,1.020951271
19.232531,-0.110816956,6.199562073,5.525680542,-0.132287845,0.075286008,1.020462990
19.233157,-0.042152405,6.016456604,5.350204468,-0.132043704,0.074187376,1.015702248
19.233782,0.201988220,5.879127502,5.296798706,-0.135705814,0.071135618,1.018998146
19.234409,0.430870056,6.085121155,5.205245972,-0.137536868,0.066619016,1.015458107
19.235034,0.705528259,5.879127502,5.090805054,-0.135827884,0.066741087,1.016678810
19.235660,1.010704041,5.665504456,5.205245972,-0.134485111,0.063445188,1.016556740
19.236285,0.964927673,5.802833557,5.128952026,-0.136072025,0.062224489,1.018143654
19.236912,1.628684998,5.573951721,4.915328979,-0.135339603,0.058318239,1.016068459
19.237537,2.155113220,5.276405334,5.075546265,-0.136682376,0.053313356,1.019608498
19.239449,3.330039978,5.367958069,4.739852905,-0.138757572,0.046233278,1.015824318
19.240091,3.856468201,5.123817444,4.594894409,-0.142541751,0.044646364,1.014725685
19.240718,4.298973083,5.215370178,4.648300171,-0.138513431,0.042082887,1.013260841
19.241344,5.069541931,4.933082581,4.495712280,-0.140954837,0.041472536,1.016190529
19.241970,5.542564392,4.978858948,4.381271362,-0.141443118,0.035491090,1.011063576
19.242597,6.046104431,4.818641663,4.503341675,-0.143762454,0.034514528,1.010697365
19.243223,6.274986267,4.872047424,4.350753784,-0.142785892,0.037078004,1.010941505
19.243849,7.159996033,4.521095276,4.053207397,-0.145227298,0.032439332,1.012040138
19.244474,7.701683044,4.528724670,4.221054077,-0.145227298,0.032561403,1.014969826
19.245100,8.266258240,4.513465881,4.114242554,-0.148034915,0.030242065,1.013260841
19.245727,8.746910095,4.307472229,3.946395874,-0.145593509,0.033782106,1.012528419
19.246354,9.113121033,4.536354065,4.121871948,-0.147912845,0.032927614,1.009476662
19.246981,9.410667419,4.406654358,4.213424683,-0.148523197,0.033660036,1.015702248
19.247606,9.891319275,4.093849182,3.892990112,-0.150964603,0.031462770,1.013627052
19.248233,10.349082947,4.284584045,4.098983765,-0.154138431,0.034148317,1.012528419
19.248860,10.654258728,4.040443420,3.900619507,-0.152673587,0.033415895,1.016434669
19.249486,10.860252380,4.131996155,3.931137085,-0.154504642,0.034880739,1.015824318
19.250111,11.157798767,4.139625549,3.999801636,-0.152795658,0.033293825,1.015824318
19.250738,11.173057556,3.727638245,3.862472534,-0.155847415,0.035124879,1.015458107
19.275805,-6.511878967,5.871498108,4.304977417,-0.158777103,0.057463747,1.025956154
19.276562,-6.611061096,6.039344788,4.297348022,-0.162317142,0.060881715,1.029252052
19.277187,-7.351112366,6.046974182,4.480453491,-0.163049564,0.061736207,1.026444435
19.277814,-7.648658752,6.123268127,4.236312866,-0.163659915,0.057707887,1.027298927
19.278439,-7.946205139,6.214820862,4.259201050,-0.162561283,0.061614137,1.026688576
19.279065,-8.564186096,6.268226624,4.396530151,-0.161950931,0.059050661,1.027420998
19.279691,-8.815956116,6.535255432,4.083724976,-0.161340579,0.058684450,1.026444435
19.280317,-9.159278870,6.771766663,4.312606812,-0.162195072,0.060149293,1.027909279
19.280944,-9.411048889,6.924354553,4.182907104,-0.160730228,0.057585817,1.026810646
19.281570,-9.693336487,6.947242737,4.030319214,-0.161218509,0.062468629,1.028397560
19.282197,-10.067176819,7.145606995,4.167648315,-0.162683353,0.059783082,1.029496193
19.282824,-10.357093811,7.420265198,4.221054077,-0.163537845,0.059294801,1.028275490
19.283449,-10.593605042,7.458412170,4.129501343,-0.166345462,0.055876832,1.027787209
19.284074,-10.593605042,7.321083069,3.954025269,-0.166101322,0.057219606,1.022660255
19.284699,-11.058998108,7.557594299,4.076095581,-0.167688236,0.058806520,1.026200294
19.285325,-11.097145081,7.733070374,3.923507690,-0.169275150,0.057585817,1.027054787
19.285950,-11.532020569,7.733070374,3.915878296,-0.169275150,0.056609254,1.020096779
19.286575,-11.539649963,7.611000061,4.091354370,-0.172204837,0.055388551,1.019120216
19.287201,-11.394691467,8.061134338,3.954025269,-0.172571048,0.053191286,1.021195412
19.287827,-11.570167542,8.000099182,3.900619507,-0.176355228,0.054778200,1.020707130
19.288453,-11.989784241,8.076393127,3.870101929,-0.179284915,0.054656129,1.015702248
19.289078,-11.753273010,8.084022522,3.664108276,-0.177453861,0.054411989,1.015580177
19.289705,-11.776161194,7.977210999,3.618331909,-0.178430423,0.051848512,1.013138771
19.290331,-12.218666077,8.068763733,3.633590698,-0.179040775,0.050627809,1.008866310
19.290957,-11.928749084,8.274757385,3.656478882,-0.179773197,0.052092653,1.007279396
19.291582,-12.043190002,8.015357971,3.557296753,-0.180627689,0.051360231,1.006180763
19.292207,-12.134742737,8.213722229,3.572555542,-0.184533939,0.052947145,1.005082130
19.292833,-12.035560608,8.152687073,3.412338257,-0.179895267,0.050017457,1.007645607
19.293459,-12.272071838,8.228981018,3.503890991,-0.176355228,0.051726442,1.005570412
19.294084,-12.272071838,8.297645569,3.442855835,-0.178186283,0.050505739,1.003739357
19.295906,-12.333106995,8.038246155,3.313156128,-0.176233158,0.051604372,1.000809669
19.296532,-12.188148499,8.267127991,3.282638550,-0.173547611,0.050383668,0.998368263
19.297157,-12.523841858,8.358680725,3.244491577,-0.173669681,0.049407106,0.996781349
19.297784,-12.317848206,8.022987366,3.038497925,-0.172815189,0.049773317,0.998002052
19.298410,-12.668800354,8.053504944,3.259750366,-0.173425540,0.054045778,0.995072365
19.299036,-12.355995178,7.931434631,3.061386108,-0.167932376,0.051360231,0.994584084
19.299661,-12.485694885,8.061134338,3.069015503,-0.169885501,0.053313356,0.993729591
19.300286,-12.508583069,7.885658264,3.046127319,-0.167077884,0.048674684,0.990921974
19.300912,-12.340736389,7.733070374,3.076644897,-0.165002689,0.049285036,0.989701271
19.301538,-12.523841858,7.702552795,2.908798218,-0.164636478,0.048186403,0.991288185
19.302163,-12.508583069,7.687294006,2.992721558,-0.163904056,0.047820192,0.989579201
19.302788,-12.569618225,7.527076721,3.069015503,-0.162073001,0.046721559,0.990921974
19.303414,-12.340736389,7.458412170,2.977462769,-0.160730228,0.047087770,0.987015724
19.304039,-12.371253967,7.313453674,3.030868530,-0.161950931,0.048918825,0.987015724
19.304664,-12.462806702,7.473670959,3.130050659,-0.159997806,0.046599489,0.987626076
19.305289,-12.363624573,7.359230042,3.000350952,-0.159875736,0.044036012,0.989579201
19.305916,-12.256813049,7.107460022,2.863021851,-0.161584720,0.045867067,0.986649513
19.306542,-12.325477600,7.221900940,2.885910034,-0.156457767,0.045989137,0.986283302
19.320678,-7.869911194,6.054603577,2.618881226,-0.120935306,0.026457885,0.994462013
19.321397,-7.656288147,6.077491760,2.756210327,-0.115686283,0.024382690,0.997757912
19.322023,-7.427406311,6.184303284,2.794357300,-0.114831790,0.026091674,1.000809669
19.322649,-7.000160217,6.008827209,2.763839722,-0.114953861,0.025359252,0.995804787
19.323274,-6.572914124,6.085121155,2.740951538,-0.111169681,0.021453002,0.997025490
19.323901,-6.366920471,6.161415100,2.550216675,-0.108850345,0.023650268,0.997269630
19.324526,-6.046485901,6.382667542,2.687545776,-0.107873783,0.022551635,0.999466896
19.325152,-5.558204651,6.237709045,2.588363647,-0.104699954,0.021086792,0.993363380
19.325778,-5.497169495,6.169044495,2.580734253,-0.103113040,0.019255737,1.000077248
19.326405,-5.115699768,6.382667542,2.733322144,-0.101892337,0.020354370,0.997513771
19.327031,-4.528236389,6.252967834,2.557846069,-0.102502689,0.020598510,0.996537209
19.327656,-4.039955139,6.161415100,2.405258179,-0.099817142,0.020476440,0.997513771
19.328282,-3.719520569,6.420814514,2.245040894,-0.096521243,0.018645385,0.994950294
19.328909,-3.177833557,6.100379944,2.412887573,-0.096032962,0.017546752,0.996048927
19.329534,-3.002357483,6.222450256,2.580734253,-0.092492923,0.016570190,1.000077248
19.330161,-2.430152893,6.603919983,2.351852417,-0.089807376,0.012297729,1.000443459
19.330787,-2.086830139,6.375038147,2.496810913,-0.089929447,0.012053588,0.997391701
19.331414,-1.705360413,6.436073303,2.206893921,-0.088708743,0.010466674,0.999466896
19.332039,-1.316261292,6.550514221,2.397628784,-0.090417728,0.008391479,0.996537209
19.332664,-1.026344299,6.199562073,2.489181519,-0.088830814,0.005339722,1.000931740
19.333290,-0.469398499,6.519996643,2.504440308,-0.090661868,0.008025268,1.002030373
19.333916,0.041770935,6.756507874,2.435775757,-0.089197025,0.006682495,0.998368263
19.334543,0.667381287,6.512367249,2.245040894,-0.084070072,0.007414917,0.996659279
19.335168,1.109886169,6.695472717,2.512069702,-0.087732181,0.005339722,0.999588966
19.335795,1.285362244,6.581031799,2.382369995,-0.083337650,0.004241089,1.000565529
19.336420,1.895713806,6.817543030,2.504440308,-0.086267337,0.003508667,0.998246193
19.337045,2.345848083,7.046424866,2.489181519,-0.083459720,0.004119019,0.997269630
19.337670,2.483177185,6.977760315,2.260299683,-0.083581790,0.006804565,0.996415138
19.338296,3.131675720,6.825172424,2.397628784,-0.080041751,0.006316284,1.001420021
19.338921,3.543663025,6.901466370,2.405258179,-0.081140384,0.006072144,1.001053810
19.340716,4.543113708,6.886207581,2.451034546,-0.078454837,0.010588745,1.002640724
19.341341,4.825401306,7.244789124,2.405258179,-0.076989993,0.010222534,1.001420021
19.341967,4.985618591,7.237159729,2.428146362,-0.077966556,0.011077026,1.003006935
19.342592,5.397605896,7.313453674,2.382369995,-0.075403079,0.009368042,1.002030373
19.343218,5.580711365,7.183753967,2.176376343,-0.074060306,0.011565307,1.001175880
19.343843,5.702781677,7.466041565,2.351852417,-0.075036868,0.011931518,0.999100685
19.344468,5.824851990,7.557594299,2.222152710,-0.072717533,0.015349487,0.999222755
19.345095,6.099510193,7.633888245,2.382369995,-0.068200931,0.016448120,0.995682716
19.345721,6.122398376,7.588111877,2.206893921,-0.072961673,0.016326049,1.000077248
19.346348,6.068992615,7.961952209,2.298446655,-0.066125736,0.016814331,0.997635841
19.346975,6.137657166,7.740699768,2.359481812,-0.067224368,0.018889526,0.996537209
19.347601,6.458091736,8.122169495,2.229782104,-0.065759525,0.019499877,0.997147560
19.348227,6.313133240,8.068763733,2.283187866,-0.067346439,0.024016479,0.998368263
19.348853,6.137657166,8.084022522,2.306076050,-0.068323001,0.025969604,0.998368263
19.349480,5.992698669,8.381568909,2.359481812,-0.066614017,0.022551635,0.998734474
19.350105,5.901145935,8.412086487,2.184005737,-0.066003665,0.024626831,0.997147560
19.350730,5.641746521,8.572303772,2.237411499,-0.066125736,0.025237182,0.998978615
19.351355,5.611228943,8.778297424,2.420516968,-0.066125736,0.029631713,0.998124123
19.351980,5.260276794,8.885108948,2.267929077,-0.068567142,0.028899292,0.997269630
19.371695,-5.069923401,11.128150940,2.946945190,-0.142297611,0.003020386,0.940506935
19.372433,-5.703163147,11.288368225,3.091903687,-0.146936283,0.000945190,0.937088966
19.373058,-5.619239807,11.234962463,3.099533081,-0.151574954,-0.001496216,0.937577248
19.373684,-6.038856506,10.983192444,3.198715210,-0.159509525,-0.001496216,0.935013771
19.374311,-6.382179260,10.899269104,3.275009155,-0.157068118,-0.002106567,0.934647560
19.374937,-6.374549866,10.708534241,3.206344604,-0.156823978,-0.005036255,0.936112404
