time,gyro x,gyro y,gyro z,accel x,accel y,accel z
6.744514,1.756271362,-0.636749268,-0.472259521,0.059023805,0.055019043,0.922646046
6.754546,-2.920547485,4.986114502,-0.373077393,-0.025082642,-0.037266113,1.043373585
6.755173,-2.241531372,4.551239014,-0.075531006,-0.009579713,0.008998536,1.027260303
6.755798,-3.065505981,4.581756592,-0.189971924,0.015566772,0.025722168,1.022255421
6.756423,-3.683486938,4.810638428,0.160980225,0.013735717,0.024379395,1.025551319
6.757048,-4.164138794,5.123443604,0.092315674,-0.006039673,0.001063965,1.044960499
6.757674,-3.324905396,4.284210205,0.160980225,-0.020932252,-0.014438964,1.060829639
6.758299,-3.927627563,4.101104736,-0.006866455,-0.001767213,0.020106934,1.024940968
6.758925,-4.896560669,5.161590576,-0.434112549,0.042300172,0.040980957,1.003090382
6.759551,-5.865493774,6.367034912,-0.243377686,0.060366578,0.041591309,0.995399952
6.760176,-6.582656860,6.893463135,0.252532959,0.012270873,0.005946777,1.014809132
6.760802,-6.491104126,6.138153076,0.595855713,-0.041928343,-0.019810058,1.014931202
6.761427,-6.010452271,5.085296631,0.054168701,-0.072079711,-0.050205566,1.026039600
6.762053,-3.500381470,3.429718018,-0.090789795,-0.101864867,-0.089878418,1.061439991
6.762679,-1.486221313,1.385040283,-0.128936768,-0.057553343,-0.077305175,1.031166553
6.763304,-0.540176392,0.629730225,-0.662994385,-0.006283814,-0.066196777,1.018715382
6.763929,1.870712280,0.492401123,-0.083160400,-0.026425416,-0.103916503,1.071571827
6.764555,3.366073608,-0.453643799,0.206756592,0.001406616,-0.011997558,1.013222218
6.765180,1.779159546,0.263519287,-0.220489502,0.034487672,0.055385254,0.990272999
6.765806,0.306686401,2.125091553,-0.388336182,0.089907594,0.091151856,0.979530811
6.766432,-2.424636841,4.108734131,-0.342559814,0.075381227,0.099818848,0.987831593
6.767057,-4.141250610,5.268402100,0.222015381,0.020327514,0.071742676,1.010658741
6.767683,-5.255142212,4.581756592,0.244903564,-0.048520140,0.053798340,1.007851124
6.768310,-7.063308716,4.177398682,-0.312042236,-0.023251588,0.053310059,0.961952686
6.768937,-7.177749634,3.872222900,-0.411224365,-0.032528929,-0.016514160,0.992958546
6.769562,-5.903640747,2.651519775,-0.388336182,-0.040585570,-0.069858886,0.994301319
6.770189,-4.995742798,1.758880615,-0.106048584,-0.046200804,-0.076084472,0.976479053
6.770814,-3.256240845,1.613922119,-0.365447998,-0.005429322,-0.081333496,0.959877491
6.771441,-0.952163696,1.430816650,-0.220489502,-0.018734986,-0.136387214,1.011147022
6.772066,2.877792358,0.538177490,0.115203857,-0.044125609,-0.161167488,1.050209522
6.772691,6.448348999,-1.094512939,-0.029754639,-0.065854125,-0.140049323,1.078041553
6.773318,8.073410034,-1.857452393,-0.128936768,0.008730834,-0.022495605,1.030189991
6.773944,6.944259644,-0.285797119,-0.457000732,0.086245485,0.073939942,1.013588428
6.774570,4.197677612,1.766510010,-0.228118896,0.102236696,0.134364739,1.037514210
6.775195,-0.128189087,3.986663818,0.046539307,0.067690797,0.180019036,1.106483936
6.775820,-3.919998169,4.558868408,0.031280518,-0.034726195,0.147304192,1.139687061
6.776447,-6.399551392,2.666778564,-0.029754639,-0.118832640,0.057948731,1.151039600
6.777074,-4.591384888,-1.628570557,0.016021729,-0.172787726,-0.085605957,1.168617725
6.777700,-2.508560181,-4.794769287,-0.357818604,-0.079037718,-0.075718261,1.060829639
6.778327,-2.241531372,-4.420928955,-0.975799561,0.101382203,-0.008579589,0.930702686
6.778954,-1.875320435,-0.812225342,-0.495147705,0.183169305,-0.007236816,0.904213428
6.779579,-1.608291626,2.773590088,0.000762939,0.143618524,-0.017002441,0.898842335
6.780206,-1.684585571,4.795379639,0.489044189,0.041689821,0.008266114,0.911049366
6.780832,-1.348892212,5.100555420,-0.174713135,-0.035092406,0.023158692,0.946938038
6.781457,-0.173965454,3.383941650,-0.464630127,-0.133847296,-0.029575683,1.024330616
6.782083,1.840194702,-0.346832275,-0.464630127,-0.164486945,-0.065464355,1.048622608
6.782708,1.779159546,-2.803497314,-0.838470459,-0.012753541,0.078456543,0.934731007
6.783335,-2.676406860,-0.064544678,-1.013946533,0.115176149,0.098354004,0.945595264
6.783960,-1.791397095,2.636260986,-0.601959229,0.102358766,-0.037266113,1.047523975
6.797226,-1.753250122,8.259124756,-1.303863525,0.020205444,0.084071778,1.019691944
6.797958,-0.944534302,5.413360596,-1.364898682,-0.104916625,0.097011231,1.055092335
6.798583,-3.584304810,2.346343994,-1.441192627,-0.090024047,0.142787591,0.973061085
6.799209,-9.207168579,3.498382568,-1.998138428,0.002749389,0.193568841,0.857582569
6.799835,-10.710159302,5.024261475,-2.158355713,-0.017148072,0.035487793,1.011513233
6.800461,-6.513992310,2.514190674,-2.036285400,-0.103329711,-0.130527839,1.142860889
6.801087,-4.202285767,-1.445465088,-2.181243896,-0.061093383,0.010463379,0.962929249
6.801712,-7.307449341,0.156707764,-2.165985107,0.027407592,0.021327637,0.864418507
6.802337,-9.123245239,3.490753174,-2.272796631,0.079287477,-0.012241699,0.899940968
6.802964,-7.246414185,4.429168701,-2.059173584,0.028140014,-0.114780761,1.020912647
6.803591,-2.844253540,2.155609131,-1.784515381,-0.068539672,-0.167515144,1.070229053
6.804218,0.283798218,0.553436279,-2.028656006,-0.075985961,-0.095859863,0.993324757
6.804844,-0.059524536,0.263519287,-1.715850830,-0.029721314,-0.028354980,0.927040577
6.805469,-2.104202271,1.781768799,-1.700592041,0.064761110,0.031825684,0.925941944
6.806096,-4.133621216,3.826446533,-1.357269287,0.095766969,0.092006348,0.951820850
6.806721,-17.118850708,10.959930420,-1.921844482,0.785952508,1.292079568,0.355263233
6.807348,-68.571487427,42.949981689,-2.341461182,0.705386102,1.062465310,0.534950733
6.807974,-67.343154907,39.287872314,0.695037842,-0.584897101,0.035487793,1.516884327
6.808599,-65.954605103,10.601348877,0.595855713,-1.267758369,0.066249512,1.240639210
6.809225,-72.500625610,-6.831817627,0.626373291,-0.772030890,-0.021763183,0.789223194
6.809850,-66.603103638,-12.187652588,-2.463531494,-0.050229125,-0.507725120,0.680092335
6.810476,-50.619522095,-9.387664795,-4.332733154,0.262759149,-0.907871604,0.631020069
6.811101,-32.255569458,-1.720123291,-1.067352295,0.247378290,-1.087559104,0.602943897
6.811727,-13.754287720,1.850433350,1.557159424,-0.013363892,-1.023105979,0.583168507
6.812353,2.923568726,-1.712493896,2.678680420,-0.227231085,-0.827915549,0.634926319
6.812979,19.349655151,-9.090118408,2.312469482,-0.248593390,-0.611729026,0.763344288
6.813605,31.533798218,-13.309173584,1.511383057,-0.097592406,-0.371372551,0.872231007
6.814231,38.217147827,-13.370208740,1.648712158,0.084414430,-0.188511238,0.985268116
6.814856,41.085800171,-11.493377686,2.625274658,0.155947626,-0.036045410,1.110634327
6.815482,41.276535034,-8.540802002,3.159332275,0.126406610,0.122523926,1.206703663
6.816109,37.293991089,-6.343536377,2.747344971,0.035098024,0.255336434,1.296791553
6.816735,30.290206909,-5.756072998,2.754974365,-0.009457642,0.312465340,1.403969288
6.817361,22.668441772,-5.870513916,2.449798584,0.036440797,0.319179207,1.462929249
6.817986,14.901718140,-4.451446533,2.472686768,0.103945680,0.305995613,1.435463428
6.818611,6.417831421,-2.002410889,2.533721924,0.097598024,0.245692864,1.375160694
6.819236,-0.311294556,-0.575714111,2.564239502,0.050356813,0.154140130,1.313393116
6.819863,-3.866592407,-0.018768311,2.693939209,0.022158569,0.066615723,1.225502491
6.820489,-5.468765259,0.393218994,2.617645264,0.020937866,-0.008091308,1.116493702
6.821116,-4.896560669,0.515289307,2.381134033,0.008364623,-0.078647949,1.031654835
6.821742,-2.096572876,0.850982666,2.861785889,0.014101928,-0.127842292,0.975868702
6.822369,1.565536499,1.285858154,2.678680420,0.011538452,-0.116245605,0.931068897
6.822995,4.754623413,1.507110596,2.510833740,-0.009945923,-0.072910644,0.914955616
6.823622,6.867965698,1.430816650,2.228546143,-0.027279908,-0.020176269,0.919716358
6.824248,7.821640015,0.690765381,2.266693115,-0.024716431,0.032313965,0.929604053
6.824874,7.760604858,0.438995361,1.877593994,-0.030331666,0.082118653,0.921791553
6.825501,6.578048706,-0.026397705,1.679229736,-0.037655883,0.093349122,0.937782764
6.826128,5.509933472,-0.598602295,1.374053955,-0.033871703,0.085536622,0.954262257
6.826754,4.113754272,-1.170806885,1.206207275,-0.024594361,0.084437989,0.936195850
6.827380,3.015121460,-1.544647217,1.114654541,-0.022152955,0.060023926,0.930336475
6.842098,0.733932495,-0.537567139,1.404571533,-0.007626588,-0.032139160,0.981239796
6.842762,1.077255249,-0.568084717,1.396942139,-0.006894166,-0.023350097,0.983192921
6.843387,1.641830444,-0.827484131,1.427459717,-0.007870728,-0.005649902,0.986855030
6.844012,1.985153198,-0.644378662,1.572418213,-0.008359009,0.001796387,0.989662647
6.844637,1.657089233,-0.667266846,1.442718506,-0.006039673,0.008998536,0.991737843
6.845263,1.672348022,-0.644378662,1.496124268,-0.000790650,0.015224122,0.993080616
6.845889,1.473983765,-1.010589600,1.213836670,-0.004574830,0.019008301,0.996742725
6.846515,1.199325562,-0.735931396,1.160430908,-0.004330689,0.025355957,0.995155811
6.847142,0.756820679,-0.972442627,1.358795166,-0.005673463,0.038417481,0.990272999
6.847767,0.245651245,-0.911407471,1.099395752,-0.007138306,0.024257325,0.997475147
6.848394,0.138839722,-1.002960205,1.076507568,0.003115600,0.012782715,1.014320850
6.849020,0.161727905,-0.957183838,0.916290283,0.008852905,0.000697754,1.021400928
6.849645,0.688156128,-0.629119873,0.893402100,0.011904662,-0.017246582,1.020790577
6.850271,1.237472534,-0.331573486,0.954437256,0.006167358,-0.021030761,1.018593311
6.850898,2.061447144,-0.301055908,0.931549072,0.001772827,-0.024937011,1.014564991
6.851525,2.519210815,-0.018768311,0.786590576,0.002505248,-0.021763183,1.013222218
6.852150,3.106674194,-0.140838623,0.916290283,0.006167358,-0.007480957,1.014320850
6.852776,3.366073608,-0.217132568,0.710296631,0.008974975,0.008144043,1.015175343
6.854444,3.388961792,0.583953857,0.527191162,0.039736696,-0.025791503,0.989174366
6.855069,4.449447632,1.385040283,0.717926025,0.011294311,-0.011387207,0.992592335
6.855694,5.197128296,0.767059326,0.641632080,-0.020688111,0.020717286,1.003456593
6.856321,4.479965210,0.370330811,0.550079346,-0.023251588,0.036342286,1.020912647
6.856946,4.106124878,-0.095062256,0.428009033,-0.003232056,0.040248536,1.024330616
6.857572,3.068527222,0.278778076,0.420379639,0.004336303,0.043056153,1.036171436
6.858199,1.870712280,0.187225342,0.496673584,-0.002133423,0.048305176,1.043007374
6.858824,0.650009155,0.141448975,0.466156006,-0.012143189,0.046352051,1.044716358
6.859450,-0.563064575,0.278778076,0.557708740,-0.004941041,0.036098145,1.035439014
6.860075,-1.737991333,0.095672607,0.275421143,-0.001401002,0.015102051,1.022133350
6.860700,-1.821914673,0.309295654,0.435638428,-0.001278931,-0.000034668,1.008217335
6.861327,-1.608291626,0.225372314,0.267791748,-0.007138306,-0.007114746,0.996986866
6.861954,-1.745620728,0.065155029,0.351715088,-0.008725220,-0.010410644,0.992348194
6.862579,-1.165786743,0.057525635,0.397491455,-0.003109986,-0.017368652,0.987343311
6.863206,-0.852981567,0.278778076,0.504302979,-0.001034791,-0.022983886,0.979774952
6.863832,-0.059524536,0.110931396,0.458526611,-0.009091431,-0.021763183,0.983803272
6.864458,0.199874878,-0.026397705,0.428009033,-0.015927369,-0.019565918,0.985146046
6.865083,0.276168823,0.217742920,0.351715088,-0.016049439,-0.011997558,0.991371632
6.865708,0.169357300,0.057525635,0.290679932,-0.011288697,-0.005771973,0.993324757
6.866333,0.146469116,0.011749268,0.565338135,-0.007992798,-0.003696777,0.996986866
6.866958,-0.105300903,0.019378662,0.290679932,-0.013119752,-0.004429199,0.997597218
6.867585,-0.273147583,-0.079803467,0.435638428,-0.013852173,-0.005771973,1.002602100
6.868210,-0.547805786,-0.362091064,0.458526611,-0.010434205,-0.003940918,1.001991749
6.868836,-1.005569458,-0.285797119,0.344085693,-0.011654908,-0.008945800,1.002846241
6.869462,-0.967422485,-0.140838623,0.473785400,-0.008359009,-0.007969238,1.001259327
6.870087,-0.906387329,-0.255279541,0.542449951,-0.007992798,-0.010288574,1.001869678
6.870712,-1.348892212,-0.339202881,0.481414795,-0.008236939,-0.006382324,0.998085499
6.871337,-1.417556763,-0.140838623,0.565338135,-0.010190064,-0.011143066,0.998085499
6.871964,-1.287857056,-0.194244385,0.542449951,-0.007504517,-0.011753418,0.993813038
6.872589,-1.364151001,-0.201873779,0.634002686,-0.007748658,-0.010410644,0.991737843
6.873214,-1.524368286,-0.323944092,0.511932373,-0.007138306,-0.013950683,0.992104053
6.886223,-1.387039185,-1.079254150,1.519012451,-0.006283814,-0.010532714,0.993813038
6.886917,-1.493850708,-1.010589600,1.602935791,-0.005063111,-0.007603027,0.994057178
6.887543,-1.440444946,-1.269989014,1.854705811,-0.005551392,-0.010776855,0.997231007
6.888169,-1.730361938,-1.262359619,1.641082764,-0.005429322,-0.014683105,0.996132374
6.888795,-1.669326782,-1.346282959,1.602935791,-0.006283814,-0.010532714,0.994179249
6.889420,-1.768508911,-1.231842041,1.534271240,-0.008481080,-0.015659668,0.992470264
6.890046,-1.646438599,-1.338653564,1.725006104,-0.007870728,-0.014805175,0.992226124
6.890672,-1.539627075,-1.308135986,1.847076416,-0.009091431,-0.016636230,0.990883350
6.891298,-1.593032837,-1.369171143,1.679229736,-0.007504517,-0.015781738,0.991005421
6.891925,-1.562515259,-1.460723877,1.786041260,-0.005673463,-0.014194824,0.993324757
6.892551,-1.524368286,-1.361541748,1.892852783,-0.005429322,-0.011997558,0.998939991
6.893178,-1.341262817,-1.430206299,1.946258545,-0.008603150,-0.013096191,0.994911671
6.893805,-1.463333130,-1.254730225,1.763153076,-0.005063111,-0.014194824,0.995888233
6.894430,-1.409927368,-1.193695068,1.824188232,-0.005795533,-0.009434082,1.002846241
6.895057,-1.554885864,-1.208953857,2.037811279,-0.003109986,-0.010166503,1.002968311
6.895684,-1.631179810,-1.102142334,2.022552490,-0.003476197,-0.009434082,1.003334522
6.896310,-1.730361938,-1.140289307,2.014923096,-0.002011353,-0.008579589,1.005165577
6.896935,-1.898208618,-1.147918701,1.908111572,-0.004086548,-0.006626465,1.004799366
6.897562,-1.974502563,-1.102142334,2.114105225,-0.002011353,-0.004429199,1.002968311
6.898188,-2.195755005,-1.163177490,2.068328857,-0.003598267,-0.008823730,1.003578663
6.898814,-2.241531372,-1.231842041,2.045440674,-0.003354127,-0.009189941,1.007118702
6.899439,-2.165237427,-1.331024170,2.053070068,-0.001767213,-0.010776855,1.006264210
6.900065,-2.325454712,-1.010589600,2.205657959,-0.000790650,-0.010654785,1.007606983
6.900691,-2.272048950,-1.002960205,2.457427979,-0.007016236,-0.008945800,1.009560108
6.901317,-2.317825317,-1.178436279,2.411651611,-0.009823853,-0.009434082,1.013100147
6.901944,-2.417007446,-1.247100830,2.228546143,-0.003964478,-0.001255371,1.017616749
6.902570,-2.897659302,-1.002960205,2.373504639,-0.009579713,-0.003574707,1.016762257
6.903197,-3.050247192,-0.941925049,2.136993408,0.005068725,0.005336426,1.015785694
6.903822,-3.523269653,-0.858001709,2.426910400,-0.028744752,0.017055176,1.028481007
6.904448,-4.164138794,-1.498870850,2.213287354,0.004580444,-0.005649902,1.009804249
6.905073,-3.492752075,-1.094512939,2.144622803,0.013613647,-0.024692871,1.006142139
6.905699,-3.103652954,-0.728302002,2.381134033,0.014223998,-0.027012207,1.000648975
6.906325,-2.417007446,-0.392608643,2.388763428,-0.001156861,-0.031406738,0.997841358
6.906952,-1.928726196,-0.522308350,2.487945557,-0.010922486,-0.030063964,0.998573780
6.907578,-1.310745239,-0.667266846,2.342987061,-0.003720338,-0.027500488,0.999062061
6.908204,-1.036087036,-0.720672607,2.251434326,-0.000424439,-0.012852050,1.005043507
6.908829,-0.845352173,-0.575714111,2.365875244,0.000063842,-0.006016113,1.014076710
6.909456,-0.914016724,-0.743560791,2.259063721,0.009829467,-0.006260254,1.022499561
6.910081,-1.333633423,-0.636749268,2.465057373,0.002383178,-0.004307129,1.024086475
6.910707,-1.608291626,-0.446014404,2.457427979,-0.004941041,0.004115723,1.018837452
6.911334,-1.867691040,-0.423126221,2.449798584,-0.004086548,-0.013218261,1.022499561
6.911959,-1.799026489,-0.262908936,2.342987061,0.001284545,-0.011387207,1.022987843
6.912585,-2.149978638,-0.293426514,2.640533447,-0.002499634,-0.013096191,1.017128468
6.913211,-2.127090454,-0.362091064,2.793121338,-0.006283814,-0.016270019,1.018105030
6.913836,-2.317825317,-0.415496826,2.640533447,-0.006405884,-0.022007324,1.019936085
6.914462,-2.195755005,-0.346832275,2.526092529,0.005923217,-0.023838378,1.024818897
6.915088,-2.294937134,-0.056915283,2.663421631,0.004336303,-0.020054199,1.017250538
6.915714,-2.188125610,-0.110321045,2.724456787,-0.004086548,-0.017612793,1.010170460
6.916339,-2.195755005,-0.049285889,2.777862549,-0.004330689,-0.020786621,1.008705616
6.928984,-0.067153931,-0.011138916,2.571868896,0.000796264,-0.004429199,1.020302296
6.930083,-0.105300903,0.217742920,2.808380127,0.003970092,-0.005527832,1.030189991
6.930828,0.054916382,0.324554443,2.899932861,0.000918334,-0.005039551,1.027260303
6.931593,-0.135818481,0.233001709,2.625274658,-0.001278931,0.000819824,1.023476124
6.932325,-0.410476685,0.500030518,2.709197998,-0.002499634,-0.000034668,1.022621632
6.932950,-0.563064575,0.332183838,2.800750732,0.002139037,-0.001499512,1.020912647
6.933575,-0.990310669,0.370330811,2.518463135,-0.000424439,0.001308105,1.019203663
6.934201,-0.975051880,0.438995361,2.724456787,0.000552123,-0.002598145,1.013710499
6.934826,-1.181045532,0.622100830,2.533721924,0.010806030,-0.008579589,1.012123585
6.935452,-1.310745239,0.545806885,2.526092529,0.035342164,-0.028721191,1.007484913
6.936078,-1.829544067,0.500030518,3.060150146,0.032534547,-0.011387207,0.991127491
6.936704,-1.875320435,0.393218994,3.014373779,-0.008969361,-0.043857910,0.991737843
6.937330,-1.440444946,0.660247803,2.754974365,-0.025326783,-0.052891113,1.003212452
6.937957,-0.944534302,0.652618408,3.166961670,-0.013730103,-0.034580566,1.000771046
6.938583,-0.608840942,0.477142334,3.060150146,-0.007138306,-0.027622558,0.997719288
6.939208,0.093063354,0.835723877,3.159332275,-0.017514283,-0.019565918,0.989662647
6.939834,-0.128189087,0.759429932,3.212738037,-0.028988892,-0.019199707,0.994179249
6.940459,-0.158706665,0.675506592,3.083038330,-0.022152955,-0.019932128,0.993446827
6.941084,0.024398804,0.164337158,3.197479248,-0.017026002,-0.016514160,0.993202686
6.941710,-0.082412720,0.156707764,3.197479248,-0.015927369,-0.007969238,0.979042530
6.942336,0.062545776,0.080413818,3.220367432,-0.011654908,-0.008091308,0.979897022
6.942962,-0.067153931,-0.018768311,3.327178955,-0.005185181,-0.017612793,0.989174366
6.943588,0.115951538,0.110931396,3.052520752,0.006289428,-0.013584472,0.998329639
6.944214,0.016769409,-0.232391357,3.426361084,0.001528686,0.006557129,0.993935108
6.944840,0.306686401,-0.140838623,3.189849854,-0.012143189,0.011806153,1.002235889
6.945465,0.146469116,-0.133209229,3.060150146,-0.016293580,0.014125489,1.017128468
6.946091,-0.723281860,0.194854736,2.930450439,0.005434936,0.014613770,1.013222218
6.946716,-1.341262817,0.095672607,3.273773193,0.006289428,0.008021973,1.002968311
6.947342,-1.142898560,-0.041656494,3.327178955,-0.009701783,0.003749512,1.000404835
6.947968,-0.852981567,0.065155029,2.968597412,-0.002743775,-0.002598145,0.993446827
6.948595,-0.639358521,-0.064544678,2.999114990,0.003970092,-0.013584472,0.997475147
6.949222,-0.235000610,-0.125579834,2.983856201,0.010073608,-0.016025878,1.009315968
6.949847,0.115951538,0.057525635,2.983856201,0.006899780,0.000087402,1.014198780
6.950472,-0.128189087,0.271148682,2.747344971,0.003481811,0.012904786,1.017372608
6.951098,-0.120559692,0.286407471,2.991485596,-0.003476197,0.016688965,1.022255421
6.951723,-0.311294556,0.194854736,2.808380127,-0.002499634,0.014613770,1.022255421
6.952348,-1.013198853,0.240631104,2.747344971,0.001772827,0.013393067,1.014320850
6.953129,-1.402297974,0.126190186,2.701568604,-0.001401002,0.002528809,1.008339405
6.954854,-1.165786743,0.049896240,2.716827393,0.000063842,0.007899903,1.010536671
6.955480,-1.089492798,0.355072021,2.587127686,-0.001889283,0.003017090,1.012367725
6.956105,-1.165786743,0.515289307,2.533721924,0.004946655,0.004359863,1.012245655
6.956732,-1.417556763,0.652618408,2.503204346,0.004824584,0.009486817,1.012489796
6.957358,-1.303115845,0.568695068,2.526092529,-0.000546509,0.007777832,1.011391163
6.957984,-1.684585571,0.767059326,2.251434326,-0.003720338,0.003627441,1.008217335
6.958611,-1.623550415,0.522918701,2.411651611,0.002505248,0.003627441,1.008339405
6.959236,-1.608291626,0.690765381,2.404022217,0.001162475,0.008632325,1.012367725
6.959863,-1.715103149,0.622100830,2.259063721,0.005434936,0.008266114,1.009560108
6.960489,-1.516738892,0.751800537,2.228546143,0.007754272,0.010585450,1.009926319
6.961116,-1.676956177,0.728912354,2.198028564,-0.001034791,0.012538575,1.006752491
6.973658,-1.982131958,0.530548096,0.801849365,-0.004086548,0.013270997,1.012123585
6.974332,-2.066055298,0.454254150,0.656890869,-0.002377564,0.013881348,1.013222218
6.974957,-2.211013794,0.400848389,0.626373291,-0.001645142,0.014247559,1.013222218
6.975582,-2.203384399,0.484771729,0.405120850,-0.002621705,0.015102051,1.008339405
6.976209,-2.340713501,0.591583252,0.511932373,-0.004696900,0.013759278,1.007484913
6.976835,-2.180496216,0.545806885,0.443267822,-0.004574830,0.015834473,1.012123585
6.977460,-2.279678345,0.667877197,0.344085693,-0.004452759,0.012416504,1.009804249
6.978086,-2.531448364,0.553436279,0.077056885,-0.007138306,0.008998536,1.009315968
6.978712,-2.592483521,0.469512939,0.275421143,-0.004452759,0.006923340,1.010048389
6.979338,-2.432266235,0.652618408,0.206756592,-0.004330689,0.007045410,1.006020069
6.979965,-2.272048950,0.515289307,0.038909912,-0.003842408,0.005702637,1.010292530
6.980592,-2.470413208,0.599212646,0.054168701,-0.002865845,0.004604004,1.005775928
6.981218,-2.424636841,0.515289307,0.099945068,-0.002987916,0.003627441,1.003334522
6.981844,-2.653518677,0.431365967,-0.090789795,-0.008603150,0.003627441,1.009438038
6.982469,-2.714553833,0.309295654,-0.037384033,-0.006283814,0.001918457,1.004555225
6.983096,-2.760330200,0.446624756,0.222015381,-0.006527955,-0.001255371,1.006264210
6.983721,-2.722183228,0.461883545,-0.228118896,-0.007748658,-0.008945800,1.003944874
6.984346,-3.157058716,0.400848389,-0.075531006,-0.006161744,-0.008335449,0.999306202
6.984971,-2.828994751,0.309295654,-0.075531006,-0.004941041,-0.007114746,1.000893116
6.985597,-2.867141724,0.477142334,-0.037384033,-0.010312134,-0.014194824,1.003212452
6.986224,-2.806106567,0.278778076,-0.098419189,-0.007870728,-0.015171386,1.000038624
6.986849,-3.103652954,0.034637451,-0.136566162,-0.009457642,-0.011875488,1.001259327
6.987474,-2.920547485,0.324554443,0.145721436,-0.005063111,-0.014316894,1.001137257
6.988099,-2.951065063,0.187225342,-0.167083740,-0.006527955,-0.013096191,0.997963428
6.988724,-2.989212036,0.225372314,-0.022125244,-0.005917603,-0.015537597,1.000648975
6.989349,-2.806106567,0.210113525,0.153350830,-0.004574830,-0.012119628,1.003456593
6.989975,-3.004470825,0.187225342,-0.167083740,-0.006772095,-0.007847168,1.001503468
6.990601,-3.019729614,0.057525635,-0.045013428,-0.004941041,-0.008823730,1.001991749
6.991227,-2.867141724,0.057525635,0.069427490,-0.002011353,-0.005649902,1.004189014
6.991853,-2.867141724,0.133819580,0.069427490,-0.002377564,-0.003330566,1.003090382
6.992478,-2.966323853,0.294036865,-0.167083740,-0.010190064,-0.007358887,1.006386280
6.993103,-3.103652954,0.324554443,0.130462646,-0.010922486,-0.005405762,1.003578663
6.993728,-3.324905396,0.126190186,0.000762939,-0.004941041,-0.004917481,1.006874561
6.994353,-3.309646606,0.103302002,0.038909912,-0.003109986,-0.005771973,1.006142139
6.994978,-3.050247192,0.408477783,-0.121307373,-0.003476197,-0.004062988,1.007240772
6.995605,-3.347793579,0.309295654,-0.067901611,-0.002255494,-0.005283691,1.011391163
6.996231,-3.279129028,0.156707764,-0.251007080,-0.004208619,-0.006870606,1.009682178
7.003406,-3.202835083,0.713653564,-0.258636475,-0.004696900,-0.009800293,0.999672413
7.004033,-3.111282349,0.393218994,-0.220489502,-0.003842408,-0.010410644,0.997719288
7.004660,-3.012100220,0.484771729,-0.144195557,-0.001278931,-0.008945800,1.002357960
7.005285,-2.836624146,0.477142334,-0.296783447,-0.003109986,-0.009800293,1.001137257
7.005911,-2.813735962,0.377960205,-0.098419189,-0.004941041,-0.007358887,1.005653858
7.006536,-2.828994751,0.393218994,-0.228118896,-0.004696900,-0.008335449,1.003456593
7.007161,-2.653518677,0.416107178,-0.098419189,-0.002621705,-0.006504395,1.009193897
7.007787,-2.783218384,0.461883545,-0.098419189,-0.004941041,-0.007725098,1.007606983
7.008412,-2.790847778,0.438995361,-0.205230713,-0.003964478,-0.009922363,1.009438038
7.009043,-2.767959595,0.446624756,-0.098419189,-0.003598267,-0.008945800,1.005043507
7.009669,-2.584854126,0.629730225,-0.083160400,-0.001401002,-0.007236816,1.005165577
7.010294,-2.409378052,0.500030518,-0.281524658,-0.001278931,-0.011997558,1.006874561
7.022894,-1.516738892,1.224822998,-0.586700439,-0.003476197,-0.006748535,1.003822803
7.023645,-1.631179810,1.400299072,-0.350189209,0.000674194,-0.010776855,1.002968311
7.024270,-1.768508911,1.362152100,-0.601959229,-0.001034791,-0.010288574,1.002968311
7.024896,-1.364151001,1.354522705,-0.754547119,0.000796264,-0.013828613,0.999794483
7.025522,-1.226821899,1.552886963,-0.380706787,-0.001401002,-0.017979003,0.996986866
7.026147,-1.051345825,1.316375732,-0.533294678,-0.007748658,-0.018955566,0.997231007
7.026772,-0.746170044,1.110382080,-0.579071045,-0.006527955,-0.020786621,0.994301319
7.027399,-0.730911255,1.224822998,-0.510406494,-0.007626588,-0.020176269,0.996132374
7.028026,-0.410476685,0.995941162,-0.624847412,-0.003354127,-0.025791503,0.997963428
7.028653,0.276168823,1.056976318,-0.540924072,-0.003720338,-0.037021972,1.006264210
7.029280,1.100143433,0.828094482,-0.624847412,-0.006039673,-0.038853027,1.004189014
7.029907,1.542648315,1.110382080,-0.426483154,0.007388061,-0.022983886,0.991859913
7.030534,1.588424683,1.247711182,-0.556182861,0.005190795,-0.013340332,0.999550343
7.031161,1.428207397,1.186676025,-0.403594971,-0.000546509,-0.007114746,1.010414600
7.031788,1.542648315,1.285858154,-0.403594971,-0.007992798,-0.001011231,1.012123585
7.032413,1.214584351,1.148529053,-0.434112549,-0.002621705,0.005214355,1.015907764
7.033044,1.184066772,1.240081787,-0.533294678,0.005434936,0.007777832,1.016884327
7.033669,0.711044312,1.682586670,-0.472259521,0.001528686,0.006557129,1.017860889
7.034295,0.337203979,1.552886963,-0.449371338,-0.002743775,0.003261230,1.017494678
7.034920,-0.036636353,1.911468506,-0.594329834,-0.003109986,-0.001865723,1.011391163
7.035546,-0.242630005,1.682586670,-0.441741943,-0.004818970,-0.009189941,1.010902882
7.036172,-0.418106079,1.674957275,-0.518035889,-0.003354127,-0.014316894,1.001747608
7.036798,-0.265518188,1.720733643,-0.518035889,-0.005185181,-0.019687988,1.000526905
7.037500,-0.128189087,1.789398193,-0.464630127,-0.006039673,-0.024448730,0.996010303
7.038166,0.100692749,1.545257568,-0.655364990,-0.007748658,-0.030063964,0.996864796
7.038847,0.810226440,1.514739990,-0.472259521,-0.002743775,-0.031040527,0.994789600
7.039501,1.100143433,1.735992432,-0.533294678,-0.005551392,-0.030918457,1.000648975
7.040249,1.779159546,1.591033936,-0.540924072,-0.007260377,-0.030552246,1.010658741
7.040985,2.168258667,1.529998779,-0.220489502,-0.001401002,-0.025913574,1.016518116
7.041732,2.488693237,1.514739990,-0.571441650,0.003725952,0.001430176,1.014198780
7.042453,2.023300171,2.025909424,-0.556182861,0.023379272,0.028895997,1.008461475
7.043225,1.100143433,2.872772217,-0.556182861,0.006777709,0.034145020,1.007973194
7.043962,0.245651245,2.834625244,-0.556182861,-0.021054322,0.040858887,1.002113819
7.044594,-1.280227661,2.186126709,-0.380706787,-0.030331666,0.033290528,0.990517139
7.045322,-2.073684692,1.911468506,-0.418853760,-0.019345338,0.010341309,0.976601124
7.045995,-2.233901978,1.972503662,-0.487518311,-0.008847291,-0.018223144,0.968056202
7.046704,-1.379409790,1.934356689,-0.487518311,-0.022885377,-0.053135253,0.951942921
7.047401,-0.585952759,1.484222412,-0.579071045,-0.030575806,-0.058994628,0.943275928
7.048061,0.283798218,1.118011475,-0.434112549,-0.030209595,-0.063999511,0.939369678
7.048686,0.917037964,0.637359619,-0.365447998,-0.031430297,-0.058872558,0.936073780
7.049311,1.802047729,0.240631104,-0.380706787,-0.040585570,-0.070225097,0.943031788
7.049979,2.580245972,-0.468902588,0.000762939,-0.025204713,-0.050937988,0.935463428
7.050605,3.655990601,-0.446014404,-0.212860107,0.018252319,-0.045444824,0.943520069
7.051247,4.289230347,0.644989014,-0.266265869,0.005434936,-0.044834472,0.966835499
7.051905,4.487594604,0.194854736,0.069427490,-0.036313109,-0.021519043,0.985756397
7.052573,4.113754272,-0.568084717,0.290679932,-0.036313109,-0.005161621,0.993080616
7.053230,4.174789429,-0.636749268,-0.228118896,-0.010922486,-0.007358887,1.001015186
7.055078,3.717025757,-0.003509521,0.008392334,0.000796264,-0.014683105,1.025063038
7.067976,4.746994019,0.927276611,-0.312042236,-0.005307252,-0.028110839,0.997475147
7.068636,5.548080444,0.667877197,-0.518035889,-0.008725220,-0.033481933,0.998207569
7.069261,5.647262573,0.538177490,-0.159454346,-0.010678345,-0.028477050,0.996864796
7.069888,6.463607788,0.248260498,-0.281524658,-0.013363892,-0.040928222,1.004189014
7.070513,7.173141479,0.126190186,-0.243377686,-0.015439088,-0.046055175,1.008949757
7.071139,8.050521851,-0.041656494,-0.281524658,0.009463256,-0.034580566,1.000404835
7.071766,7.951339722,0.622100830,-0.342559814,0.034853883,-0.001133301,0.986366749
7.072391,7.875045776,1.369781494,-0.113677979,0.002993530,-0.004307129,1.008461475
7.073017,7.676681519,1.018829346,-0.083160400,-0.016293580,0.013393067,1.010048389
7.073643,6.761154175,0.850982666,-0.296783447,-0.012997681,0.021327637,0.990517139
7.074269,6.066879272,0.805206299,-0.136566162,-0.014584595,0.011562012,0.993935108
7.074895,5.395492554,0.751800537,-0.060272217,-0.020443970,-0.001987793,0.994545460
7.075520,5.738815308,0.370330811,-0.182342529,-0.023739869,-0.034580566,1.004189014
7.076145,6.372055054,-0.079803467,-0.296783447,-0.017758423,-0.038486816,0.988197803
7.076771,6.593307495,0.332183838,-0.159454346,-0.002499634,-0.033970214,0.971596241
7.077396,7.112106323,0.492401123,0.099945068,-0.008114869,-0.041904785,0.979408741
7.078022,7.752975464,-0.056915283,-0.159454346,-0.020566041,-0.040317871,0.985512257
7.078647,7.997116089,-0.362091064,0.008392334,-0.015927369,-0.023838378,0.981728077
7.079273,8.462509155,-0.301055908,0.077056885,-0.015927369,-0.020664550,0.984779835
7.079900,8.798202515,-0.644378662,-0.281524658,-0.009579713,-0.011997558,0.988441944
7.080526,9.301742554,-0.964813232,0.191497803,-0.011899048,-0.004551270,0.992470264
7.081151,9.072860718,-0.682525635,0.046539307,-0.004574830,0.009364747,0.993202686
7.081778,8.637985229,-0.262908936,-0.067901611,0.001650756,0.032313965,0.991737843
7.082405,7.150253296,-0.285797119,0.283050537,0.003481811,0.060023926,0.987953663
7.083030,6.066879272,0.065155029,0.069427490,-0.020932252,0.032558106,1.017006397
7.083655,5.982955933,-0.842742920,0.099945068,-0.046689086,-0.004185059,1.042641163
7.084282,6.768783569,-1.689605713,-0.136566162,-0.049618773,-0.033115722,1.052162647
7.084908,10.636886597,-4.031829834,-0.075531006,-0.192441046,-0.246860847,1.207314014
7.085535,17.694076538,-9.761505127,0.214385986,-0.071103148,-0.075352050,1.131264210
7.086160,16.839584351,-8.121185303,-0.121307373,0.123476930,0.019130372,0.986122608
7.086786,14.108261108,-2.467803955,-1.113128662,0.216982782,0.034511231,0.992714405
7.087413,12.872299194,1.873321533,-1.059722900,0.182192743,0.070399903,1.042030811
7.088041,10.697921753,3.643341064,0.115203857,0.056216188,0.121303223,1.068886280
7.088667,7.348617554,3.032989502,0.389862061,-0.045102172,0.154384270,1.077797413
7.089293,3.312667847,1.613922119,0.038909912,-0.089779906,0.142299309,1.084145069
7.089919,0.718673706,0.973052979,-0.670623779,-0.051449828,0.124110840,1.086464405
7.090544,-0.875869751,0.767059326,-1.212310791,-0.020443970,0.069057129,1.095131397
7.091170,-2.172866821,0.538177490,-0.891876221,0.000185912,0.040492676,1.067543507
7.091796,-4.179397583,0.873870850,-0.556182861,0.014590209,-0.001255371,1.021889210
7.092423,-4.515090942,1.301116943,-0.090789795,0.008364623,-0.049717285,0.994057178
7.093048,-3.645339966,1.766510010,-0.540924072,0.002505248,-0.066196777,0.967079639
7.093675,-2.180496216,1.774139404,-0.807952881,-0.010067994,-0.064976074,0.941933155
7.094301,-0.440994263,1.331634521,-0.624847412,-0.030331666,-0.070957519,0.933266163
7.094927,1.245101929,0.339813232,-0.251007080,-0.046811156,-0.072544433,0.909340382
7.095552,2.542098999,-0.751190186,-0.373077393,-0.051816039,-0.075474121,0.890175343
7.096177,3.953536987,-1.208953857,-0.350189209,-0.042904906,-0.076938964,0.883949757
7.096803,5.899032593,-1.697235107,-0.388336182,-0.036313109,-0.062290527,0.890419483
7.097429,7.867416382,-2.109222412,-0.319671631,-0.036435179,-0.063389160,0.897011280
7.098054,9.950241089,-3.024749756,-0.258636475,-0.054989867,-0.078770019,0.915077686
7.110663,18.487533569,-10.638885498,0.382232666,0.026553100,-0.000156738,1.013222218
7.111406,19.265731812,-10.684661865,0.565338135,-0.000668580,-0.012607910,1.005531788
7.112031,19.952377319,-10.585479736,0.443267822,-0.013974244,-0.012974121,1.001137257
7.112656,20.516952515,-11.188201904,0.435638428,-0.029477173,-0.015171386,1.005531788
7.113281,20.738204956,-11.295013428,-0.090789795,-0.002865845,0.005946777,1.007606983
7.113907,21.035751343,-11.768035889,0.000762939,-0.001645142,0.017665528,1.017616749
7.114533,20.753463745,-12.050323486,0.458526611,-0.020443970,0.021815918,1.027382374
7.115159,20.799240112,-12.332611084,0.809478760,-0.059262328,0.000819824,1.032021046
7.115784,20.303329468,-12.653045654,0.664520264,-0.020566041,0.007533691,1.030067921
7.116409,19.082626343,-12.271575928,-0.518035889,0.058047242,0.045131348,1.018837452
7.117042,17.861923218,-11.295013428,-1.128387451,0.075991578,0.054530762,1.014931202
7.117669,17.167648315,-11.478118896,-0.052642822,0.036684938,0.071864747,1.051064014
7.118294,16.862472534,-13.362579346,2.030181885,-0.152524054,0.258144051,1.168739796
7.118921,14.543136597,-17.314605713,3.716278076,-0.192318976,0.190272942,1.236122608
7.119548,12.338241577,-18.825225830,-0.060272217,-0.108090453,0.020351075,1.222206593
7.120174,10.804733276,-17.184906006,-3.890228271,0.044741578,0.045497559,1.181068897
7.120800,8.874496460,-14.041595459,-3.508758545,0.197451532,0.082118653,1.122231007
7.121427,6.013473511,-10.905914307,-0.823211670,0.243594110,0.087245606,1.060097218
7.122052,1.847824097,-8.266143799,0.634002686,0.204775751,0.071498536,0.996620655
7.122677,-1.982131958,-5.374603271,-0.403594971,0.151064813,0.065883301,0.940346241
7.123303,-4.919448853,-2.246551514,-1.090240479,0.080019899,0.093471192,0.916664600
7.123929,-6.704727173,0.751800537,-0.182342529,0.045596071,0.111903809,0.915932178
7.124554,-7.261672974,2.903289795,0.412750244,-0.000912720,0.113002442,0.945595264
7.125179,-8.367935181,2.453155518,-0.754547119,-0.029233033,0.073817872,0.990883350
7.125804,-7.238784790,1.560516357,-1.143646240,-0.002621705,0.014369629,0.990395069
7.126430,-4.682937622,0.515289307,-1.181793213,-0.004941041,-0.027866699,0.998817921
7.127057,-2.409378052,-0.453643799,-1.074981689,-0.020688111,-0.069126464,0.999672413
7.127682,-0.189224243,-1.651458740,-1.120758057,-0.056576781,-0.081943847,0.997597218
7.128309,1.985153198,-2.757720947,-1.494598389,-0.069394164,-0.109775878,0.989540577
7.128936,4.304489136,-3.749542236,-1.479339600,-0.059262328,-0.099766113,0.977333546
7.129561,6.204208374,-5.489044189,-1.151275635,-0.062314086,-0.072178222,0.974159718
7.130188,8.081039429,-7.198028564,-0.769805908,-0.063534789,-0.050205566,0.977943897
7.130814,9.507736206,-9.319000244,-0.670623779,-0.060483031,-0.053135253,0.978310108
7.131441,10.972579956,-10.562591553,-1.113128662,-0.042050414,-0.051792480,0.970375538
7.132067,11.956771851,-10.577850342,-1.265716553,-0.044735961,-0.011753418,0.959877491
7.132694,12.506088257,-11.714630127,-0.144195557,-0.045834593,0.048061036,0.975014210
7.133320,12.269577026,-11.829071045,-0.174713135,0.006777709,0.043422364,0.953285694
7.133945,10.484298706,-10.776214600,-1.593780518,0.037295289,0.039516114,0.933632374
7.134570,8.599838257,-9.700469971,-2.188873291,0.076113649,0.055141114,0.917519093
7.135197,6.669601440,-7.785491943,-1.563262939,0.100161500,0.066615723,0.898964405
7.135824,4.846176147,-5.595855713,-0.685882568,0.102480836,0.071986817,0.892372608
7.136450,2.816757202,-3.284149170,-0.472259521,0.090884157,0.062343262,0.892006397
7.137077,1.115402222,-1.254730225,-1.044464111,0.070742555,0.037196778,0.891640186
7.137702,0.405868530,1.545257568,-0.884246826,0.022280639,-0.028354980,0.901527882
7.138328,1.206954956,2.018280029,-0.807952881,0.001650756,-0.051792480,0.909218311
7.138955,1.473983765,2.041168213,-0.586700439,-0.018246705,-0.069004394,0.927650928
7.139580,2.549728394,1.674957275,-0.670623779,-0.027035767,-0.082676269,0.945595264
7.140206,3.785690308,0.850982666,-0.739288330,-0.037655883,-0.087925293,0.968422413
7.140831,5.151351929,0.141448975,-0.319671631,-0.042050414,-0.081577636,0.988441944
7.153363,1.252731323,-1.582794189,0.031280518,-0.000546509,0.018397950,0.994057178
7.155246,0.398239136,-0.964813232,-0.197601318,0.013613647,0.024013184,0.999794483
7.155873,-0.112930298,-0.697784424,-0.067901611,0.010561889,0.021083497,0.998939991
7.156498,-0.578323364,-0.232391357,-0.182342529,0.010073608,0.018520020,0.998207569
7.157123,-1.150527954,-0.117950439,-0.174713135,0.005434936,0.014979981,0.996864796
7.157796,-1.463333130,-0.095062256,-0.434112549,0.000185912,0.010829590,0.997231007
7.158422,-1.913467407,0.126190186,-0.228118896,-0.000668580,0.005336426,0.996132374
7.159047,-1.898208618,0.080413818,-0.228118896,-0.001767213,-0.002354004,0.993568897
7.159673,-2.043167114,0.141448975,-0.304412842,-0.006527955,-0.009922363,0.993813038
7.160298,-1.768508911,0.049896240,-0.563812256,-0.006405884,-0.019810058,0.991981983
7.160923,-1.493850708,0.019378662,-0.426483154,-0.007992798,-0.028965332,0.990272999
7.161548,-1.081863403,-0.247650146,-0.426483154,-0.010190064,-0.027622558,0.989052296
7.162173,-0.395217896,-0.430755615,-0.266265869,-0.016049439,-0.025181152,0.990517139
7.162798,0.573715210,-0.713043213,-0.029754639,-0.018368775,-0.020176269,0.992592335
7.163424,1.306137085,-1.475982666,-0.144195557,-0.019589478,-0.021763183,0.995033741
7.164049,2.091964722,-1.704864502,-0.182342529,-0.017270142,-0.019687988,0.993080616
7.164674,2.305587769,-1.910858154,-0.266265869,-0.015561158,-0.020542480,0.988319874
7.165301,2.816757202,-1.994781494,-0.083160400,-0.008847291,-0.015659668,0.989174366
7.165926,3.259262085,-2.101593018,0.046539307,-0.000790650,-0.011753418,0.987343311
7.166552,3.282150269,-2.017669678,0.160980225,0.000918334,-0.007725098,0.985878468
7.167178,3.160079956,-2.444915771,0.145721436,0.002749389,-0.006870606,0.986732960
7.167804,3.251632690,-2.063446045,-0.052642822,0.000796264,-0.002720215,0.985512257
7.168430,3.388961792,-2.261810303,-0.022125244,0.002383178,0.001063965,0.983925343
7.169055,3.396591187,-2.040557861,0.267791748,-0.001401002,0.000575684,0.982704639
7.169680,3.495773315,-1.872711182,-0.182342529,-0.000302369,0.000575684,0.985146046
7.170306,3.488143921,-1.880340576,0.145721436,-0.003109986,0.002406738,0.987343311
7.170931,3.205856323,-2.017669678,0.351715088,-0.005063111,0.002650879,0.987221241
7.171557,3.320297241,-1.834564209,0.191497803,-0.002865845,0.004848144,0.987099171
7.172182,2.854904175,-1.910858154,0.107574463,0.000430053,0.008998536,0.992836475
7.172807,2.763351440,-1.857452393,0.405120850,0.002383178,0.008754395,0.996498585
7.173433,2.320846558,-1.613311768,0.244903564,0.006655639,0.011684082,0.996376514
7.174058,2.275070190,-1.544647217,0.260162354,0.005923217,0.013515137,1.002480030
7.174685,1.840194702,-1.483612061,0.397491455,0.007754272,0.014857911,1.006874561
7.175312,1.550277710,-1.468353271,0.160980225,0.005434936,0.015834473,1.007362843
7.175938,0.909408569,-1.079254150,0.359344482,0.007998412,0.011684082,1.011024952
7.176564,0.825485229,-1.132659912,0.313568115,0.011172241,0.012538575,1.013100147
7.177189,0.566085815,-0.850372314,0.466156006,0.008974975,0.010341309,1.016029835
7.177814,0.184616089,-0.652008057,0.244903564,0.006167358,0.008021973,1.017372608
7.178439,-0.021377563,-0.766448975,0.321197510,0.005312866,0.007655762,1.012733936
7.179066,-0.090042114,-0.758819580,0.237274170,0.003115600,0.004726074,1.013588428
7.179693,-0.135818481,-0.629119873,0.389862061,0.002871459,0.004359863,1.013832569
7.180318,0.123580933,-0.789337158,0.153350830,0.001040405,0.001063965,1.017128468
7.180945,0.260910034,-0.835113525,0.336456299,0.000918334,-0.003208496,1.012245655
7.181572,0.466903687,-0.720672607,0.275421143,-0.000058228,-0.006016113,1.008583546
7.182197,0.505050659,-0.934295654,0.336456299,-0.000668580,-0.001743652,1.009804249
7.182823,0.909408569,-0.903778076,0.290679932,-0.000058228,-0.003452637,1.004799366
7.183450,1.016220093,-1.109771729,0.344085693,0.002383178,-0.001621582,1.002480030
7.184076,1.107772827,-1.231842041,0.222015381,0.001040405,-0.000278809,1.001747608
7.184701,1.275619507,-1.247100830,0.313568115,0.000918334,0.001063965,1.001381397
7.197335,0.642379761,-0.293426514,0.138092041,0.003115600,0.009364747,1.018593311
7.198013,0.436386108,-0.430755615,0.122833252,0.002016967,0.004970215,1.016518116
7.198639,0.245651245,-0.392608643,0.191497803,0.000918334,0.006679199,1.011635303
7.199264,0.238021851,-0.583343506,0.283050537,0.003603881,0.005458496,1.012123585
7.199889,0.276168823,-0.308685303,0.138092041,0.002261108,0.006679199,1.011879444
7.200516,0.276168823,-0.453643799,0.168609619,0.005434936,0.007533691,1.011269093
7.201141,0.352462769,-0.590972900,0.244903564,0.006289428,0.006435059,1.009804249
7.201766,0.329574585,-0.384979248,0.145721436,0.004702514,0.008632325,1.008339405
7.202392,0.131210327,-0.423126221,0.305938721,0.002749389,0.007533691,1.006142139
7.203017,0.161727905,-0.522308350,0.153350830,0.007510131,0.007533691,1.005775928
7.203643,0.299057007,-0.377349854,0.031280518,0.004214233,0.008021973,1.004921436
7.204270,0.283798218,-0.446014404,0.077056885,0.004946655,0.009608887,1.003456593
7.204897,0.314315796,-0.430755615,0.199127197,0.005434936,0.010341309,1.001747608
7.205522,0.100692749,-0.224761963,0.000762939,0.006411498,0.009120606,1.000282764
7.206149,0.276168823,-0.285797119,0.099945068,0.005434936,0.011439942,0.999672413
7.206776,0.321945190,-0.095062256,-0.067901611,0.005434936,0.011073731,0.998939991
7.207402,0.245651245,-0.163726807,0.023651123,0.003359741,0.013393067,0.999916553
7.208028,0.245651245,-0.095062256,0.054168701,0.005312866,0.008754395,1.001015186
7.208655,0.039657593,0.072784424,-0.045013428,0.005068725,0.008754395,1.000038624
7.209282,0.009140015,0.019378662,-0.220489502,0.002016967,0.008754395,1.003090382
7.209909,0.070175171,-0.148468018,-0.151824951,0.005068725,0.006068848,0.999306202
7.210536,0.161727905,0.095672607,0.054168701,0.003115600,0.005458496,1.001137257
7.211163,0.176986694,-0.026397705,-0.045013428,-0.001767213,0.008266114,1.002968311
7.211803,-0.151077271,0.088043213,-0.052642822,0.001772827,0.006068848,1.001869678
7.212430,-0.265518188,0.149078369,-0.029754639,-0.000546509,0.004848144,1.001869678
7.213056,0.001510620,0.126190186,-0.159454346,-0.000302369,0.001308105,1.002113819
7.213681,-0.006118774,0.011749268,-0.014495850,-0.002621705,0.000697754,1.001015186
7.214308,-0.105300903,0.019378662,-0.060272217,-0.000546509,0.000087402,0.999550343
7.214934,-0.173965454,0.049896240,-0.098419189,-0.002621705,-0.002354004,0.999306202
7.215559,-0.227371216,-0.026397705,0.183868408,-0.003964478,-0.004307129,0.998695850
7.216186,0.032028198,-0.369720459,-0.029754639,-0.004330689,-0.006138184,0.998451710
7.216813,0.093063354,-0.217132568,-0.136566162,-0.001523072,-0.003452637,0.996010303
7.217439,0.344833374,-0.240020752,0.115203857,0.000063842,-0.002720215,0.995155811
7.218065,0.093063354,-0.354461670,0.000762939,-0.003232056,-0.003330566,0.995033741
7.218691,0.154098511,-0.346832275,-0.159454346,-0.002377564,-0.001865723,0.993446827
7.219317,0.169357300,-0.514678955,0.016021729,-0.003598267,-0.001255371,0.991493702
7.219942,0.390609741,-0.575714111,-0.022125244,-0.000058228,0.000575684,0.991371632
7.220567,0.558456421,-0.507049561,-0.090789795,-0.002011353,0.002895019,0.993813038
7.221192,0.581344604,-0.667266846,-0.098419189,0.003725952,0.002528809,0.991859913
7.221818,0.764450073,-0.743560791,0.206756592,-0.000546509,-0.000522949,0.993568897
7.222444,0.962814331,-0.682525635,0.092315674,0.001162475,0.002528809,0.994545460
7.223070,0.901779175,-0.476531982,0.145721436,0.001406616,0.006068848,0.995033741
7.223695,0.901779175,-0.446014404,0.061798096,0.000430053,0.004237793,0.999184132
7.224322,0.787338257,-0.552825928,0.054168701,0.001406616,0.003383301,0.998329639
7.224947,0.856002808,-0.644378662,-0.098419189,0.002993530,0.005946777,0.999550343
7.225574,0.894149780,-0.491790771,0.031280518,0.001650756,0.005336426,1.001503468
7.226200,0.894149780,-0.575714111,0.183868408,-0.000302369,0.004970215,1.001381397
7.226825,0.901779175,-0.430755615,-0.113677979,-0.000180298,0.004481934,1.002357960
7.227451,1.008590698,-0.491790771,0.153350830,0.001894897,0.005946777,1.001259327
7.239993,0.413497925,-0.796966553,0.077056885,-0.000668580,0.003261230,1.001869678
7.240700,0.375350952,-0.644378662,0.077056885,0.001772827,0.004359863,1.001015186
7.241326,0.390609741,-0.476531982,0.054168701,0.001894897,0.002895019,1.000893116
7.241951,0.299057007,-0.430755615,0.138092041,0.003970092,0.003383301,0.999428272
7.242576,0.436386108,-0.377349854,0.115203857,0.003725952,0.003017090,0.999550343
7.243202,0.505050659,-0.453643799,0.092315674,0.003725952,0.004115723,1.000526905
7.243828,0.497421265,-0.453643799,-0.022125244,0.002139037,0.001674316,0.998573780
7.244454,0.398239136,-0.499420166,0.199127197,0.003603881,0.003993652,1.001381397
7.245080,0.444015503,-0.301055908,0.183868408,0.002139037,0.001674316,1.001503468
7.245706,0.543197632,-0.468902588,0.077056885,0.004702514,0.005092285,1.001381397
7.246331,0.474533081,-0.407867432,0.298309326,0.002139037,0.003017090,1.003578663
7.253445,0.367721558,-0.194244385,0.077056885,0.001406616,0.006557129,1.005531788
7.255227,0.268539429,-0.110321045,0.099945068,0.001040405,0.004359863,1.005775928
7.255852,0.245651245,0.065155029,0.016021729,0.004336303,0.006190918,1.006020069
7.256478,0.154098511,-0.217132568,0.054168701,0.002505248,0.007777832,1.006752491
7.257178,0.047286987,0.042266846,0.000762939,0.001650756,0.006068848,1.004189014
7.257804,0.062545776,-0.003509521,0.008392334,0.001650756,0.004848144,1.004555225
7.258431,0.077804565,-0.140838623,0.191497803,-0.001278931,0.006679199,1.003334522
7.259056,0.100692749,0.049896240,-0.045013428,0.001406616,0.004604004,1.000771046
7.259681,0.016769409,-0.095062256,0.084686279,0.000674194,0.002650879,1.001381397
7.260306,-0.021377563,-0.247650146,0.016021729,0.000307983,0.001186035,0.999062061
7.260932,-0.196853638,-0.125579834,0.374603271,-0.000180298,0.004359863,0.999428272
7.261558,-0.067153931,-0.125579834,-0.098419189,-0.000668580,0.003139160,0.998329639
7.262184,0.024398804,-0.133209229,0.122833252,0.003481811,0.002772949,1.000404835
7.262811,0.138839722,-0.026397705,0.008392334,0.004824584,0.004237793,0.999428272
7.263436,0.047286987,0.004119873,0.092315674,0.001528686,0.004237793,0.999306202
7.264062,0.016769409,-0.087432861,0.061798096,-0.000546509,0.001674316,1.000404835
7.264687,0.062545776,0.095672607,0.168609619,0.000185912,0.001308105,1.000282764
7.265313,0.245651245,-0.087432861,0.145721436,-0.002499634,0.002162598,1.000160694
7.265939,0.077804565,-0.049285889,0.160980225,0.000307983,-0.000400879,0.999428272
7.266564,0.077804565,0.057525635,-0.052642822,-0.000546509,0.002284668,1.000771046
7.267189,0.123580933,-0.293426514,0.130462646,-0.000302369,0.001552246,1.002113819
7.267816,0.070175171,-0.194244385,-0.006866455,-0.001156861,0.000331543,1.000404835
7.268443,-0.059524536,-0.095062256,0.183868408,-0.000424439,0.002528809,0.997719288
7.269069,0.123580933,-0.140838623,0.313568115,0.003237670,-0.000278809,1.000648975
7.269696,0.138839722,-0.194244385,0.023651123,0.001894897,-0.001011231,1.002968311
7.270322,0.321945190,-0.095062256,-0.075531006,-0.000546509,-0.000522949,1.001625538
7.270947,0.169357300,-0.163726807,0.336456299,0.000918334,0.000087402,1.002357960
7.271574,0.001510620,-0.186614990,0.099945068,0.002139037,0.002528809,1.001625538
7.272199,0.291427612,-0.156097412,0.138092041,0.000552123,0.001186035,1.003090382
7.272825,0.306686401,-0.194244385,0.389862061,-0.000790650,0.001796387,1.000771046
7.273451,0.222763062,-0.217132568,0.275421143,0.001284545,0.002650879,1.004677296
7.274077,0.215133667,-0.156097412,0.138092041,0.001772827,0.000819824,1.001869678
7.274704,0.413497925,-0.240020752,0.405120850,-0.000302369,0.000819824,1.003578663
7.275329,0.405868530,-0.072174072,0.328826904,0.000918334,0.002528809,1.004921436
7.275954,0.558456421,-0.201873779,0.107574463,-0.001401002,0.000453613,1.000404835
7.276579,0.367721558,-0.217132568,0.443267822,0.000063842,-0.004673340,1.001015186
7.277204,0.352462769,-0.423126221,0.229644775,0.000674194,-0.000645020,1.002846241
7.277829,0.436386108,-0.140838623,0.130462646,0.000918334,0.000087402,1.002968311
7.278456,0.329574585,-0.079803467,0.283050537,0.000063842,-0.000645020,1.003700733
7.291053,0.878890991,-0.209503174,0.717926025,0.001040405,-0.007603027,1.000038624
7.291746,0.810226440,-0.560455322,0.817108154,0.002261108,-0.008457519,1.003456593
7.292371,0.810226440,-0.560455322,0.817108154,0.002261108,-0.008457519,1.003456593
7.292996,0.932296753,-0.476531982,0.946807861,0.002139037,-0.007236816,1.005775928
7.293623,0.924667358,-0.468902588,0.885772705,0.002016967,-0.005161621,1.005775928
7.294249,0.794967651,-0.339202881,0.908660889,0.008242553,-0.010776855,1.011757374
7.294875,0.886520386,-0.621490479,1.045989990,0.002749389,-0.006992676,1.014076710
7.295500,0.657638550,-0.301055908,0.717926025,0.003115600,-0.010288574,1.017128468
7.296127,0.863632202,-0.293426514,1.099395752,0.002871459,-0.010898925,1.015541553
7.296753,0.665267944,-0.087432861,1.305389404,0.002505248,-0.009556152,1.017616749
7.297379,0.718673706,-0.293426514,1.152801514,0.000796264,-0.007114746,1.014931202
7.298004,0.634750366,-0.362091064,1.335906982,0.001040405,-0.010410644,1.015785694
7.298630,0.329574585,-0.056915283,1.076507568,0.003725952,-0.006016113,1.015663624
7.299255,0.482162476,-0.331573486,1.602935791,0.000918334,-0.002720215,1.016396046
7.299882,0.169357300,-0.156097412,1.366424561,-0.001767213,-0.006260254,1.013222218
7.300508,0.108322144,-0.354461670,1.488494873,-0.001645142,-0.001865723,1.012489796
7.301134,0.283798218,-0.186614990,1.587677002,-0.000546509,-0.004185059,1.010170460
7.301761,0.032028198,-0.011138916,1.305389404,0.001772827,-0.005405762,1.007606983
7.302388,-0.067153931,-0.240020752,1.763153076,0.001894897,-0.004429199,1.005653858
7.303013,-0.151077271,-0.049285889,1.236724854,0.000552123,0.000331543,1.003944874
7.303639,0.024398804,-0.049285889,1.786041260,-0.000912720,-0.003818848,1.003944874
7.304266,0.054916382,-0.232391357,1.549530029,-0.002865845,-0.002720215,1.001137257
7.304892,0.085433960,-0.217132568,1.633453369,-0.002865845,-0.001255371,0.997597218
7.305518,0.093063354,-0.018768311,1.602935791,-0.001523072,0.000819824,0.993446827
7.306143,0.352462769,-0.156097412,1.396942139,0.002627319,-0.000156738,0.992226124
7.306770,0.215133667,-0.224761963,1.633453369,-0.000180298,0.000453613,0.993935108
7.307396,0.566085815,-0.270538330,1.534271240,0.004092162,0.001552246,0.992348194
7.308021,0.581344604,-0.209503174,1.663970947,-0.001523072,-0.002109863,0.995399952
7.308646,0.650009155,-0.362091064,1.755523682,0.000185912,0.001918457,0.996010303
7.309273,0.657638550,-0.301055908,1.526641846,0.005557006,0.007045410,0.996986866
7.309899,0.779708862,-0.186614990,1.412200928,0.002871459,0.008632325,1.000160694
7.310526,0.733932495,-0.255279541,1.732635498,-0.000912720,0.013270997,1.001869678
7.311153,0.932296753,-0.201873779,1.587677002,0.004336303,0.012660645,1.000893116
7.311778,0.802597046,0.027008057,1.656341553,0.001772827,0.018275879,1.004555225
7.312405,0.878890991,-0.163726807,1.824188232,0.002871459,0.020351075,1.007729053
7.313030,1.016220093,-0.186614990,1.412200928,0.004214233,0.023769043,1.007240772
7.313655,0.833114624,-0.186614990,1.404571533,0.003603881,0.028041504,1.008583546
7.314280,0.787338257,-0.133209229,1.305389404,0.002016967,0.026088379,1.010536671
7.314905,0.276168823,-0.201873779,1.412200928,0.004092162,0.025966309,1.007362843
7.315532,0.535568237,-0.133209229,1.251983643,0.007143920,0.022914551,1.009193897
7.316158,0.138839722,-0.079803467,1.351165771,0.008486694,0.026454590,1.015175343
7.316783,0.329574585,0.126190186,1.152801514,0.005801147,0.025844239,1.012856007
7.317409,-0.006118774,0.210113525,1.061248779,0.006655639,0.021449707,1.012367725
7.318043,-0.013748169,0.019378662,1.045989990,0.006167358,0.022182129,1.011269093
7.318668,-0.303665161,0.210113525,1.084136963,0.005923217,0.023036622,1.012001514
7.319293,-0.181594849,0.217742920,0.992584229,0.005312866,0.021083497,1.010658741
7.319920,-0.555435181,0.103302002,0.817108154,0.007265991,0.024135254,1.005043507
7.320546,-0.425735474,0.355072021,0.954437256,0.007510131,0.026088379,1.006264210
7.321171,-0.593582153,0.149078369,0.870513916,0.005068725,0.025600098,1.002724171
7.333648,0.253280640,-0.339202881,0.016021729,-0.000912720,0.001552246,0.994301319
7.334289,0.581344604,-0.156097412,0.023651123,0.000918334,0.003627441,0.999184132
7.334915,0.428756714,-0.323944092,-0.113677979,-0.000790650,-0.001133301,1.000526905
7.335540,0.474533081,-0.491790771,-0.235748291,-0.000546509,-0.000889160,1.001869678
7.336167,0.459274292,-0.255279541,0.160980225,-0.000912720,0.000575684,1.001625538
7.336794,0.306686401,-0.430755615,-0.083160400,-0.002987916,-0.002354004,1.002968311
7.337420,0.558456421,-0.415496826,-0.022125244,0.004214233,-0.003330566,1.003822803
7.338046,0.306686401,-0.301055908,0.214385986,0.002627319,-0.002476074,1.003456593
7.338672,0.505050659,-0.339202881,-0.014495850,0.003115600,-0.003208496,1.004677296
7.339297,0.421127319,-0.476531982,0.000762939,0.002261108,0.000331543,1.006020069
7.339922,0.741561890,-0.568084717,0.199127197,0.001650756,0.002040527,1.005409718
7.340548,0.711044312,-0.400238037,0.237274170,0.003115600,0.002895019,1.004066944
7.341173,0.588973999,-0.682525635,-0.037384033,-0.000668580,0.001796387,1.003212452
7.341800,0.627120972,-0.575714111,0.061798096,0.000796264,0.002406738,1.003944874
7.342427,0.711044312,-0.461273193,0.107574463,-0.000302369,0.002162598,1.003822803
7.343054,0.611862183,-0.491790771,-0.006866455,0.001406616,0.002528809,1.002357960
7.343681,0.672897339,-0.613861084,0.214385986,0.000796264,0.004726074,1.002968311
7.344306,0.779708862,-0.537567139,-0.014495850,0.003481811,0.005214355,1.001869678
7.344931,0.566085815,-0.453643799,0.130462646,0.000063842,0.004115723,1.003700733
7.345557,0.535568237,-0.507049561,0.153350830,0.001650756,0.003993652,1.000771046
7.346182,0.527938843,-0.652008057,-0.014495850,0.001162475,0.004726074,1.000038624
7.346808,0.642379761,-0.598602295,0.069427490,0.003603881,0.003993652,1.000771046
7.347433,0.634750366,-0.743560791,0.115203857,0.000918334,0.005214355,1.002235889
7.348059,0.550827026,-0.491790771,0.107574463,0.001894897,0.004848144,1.004189014
7.348684,0.238021851,-0.423126221,0.214385986,0.005679077,0.010097168,1.003578663
7.349309,0.535568237,-0.522308350,-0.029754639,0.005190795,0.006435059,1.003334522
7.349934,0.512680054,-0.392608643,0.084686279,0.005312866,0.005092285,1.003700733
7.350561,0.550827026,-0.323944092,0.008392334,0.004824584,0.007045410,1.005043507
7.351187,0.787338257,-0.392608643,0.199127197,0.006167358,0.010951661,1.004066944
7.351812,0.260910034,-0.285797119,-0.090789795,0.005190795,0.006679199,1.003700733
7.352437,0.497421265,-0.461273193,-0.029754639,0.005801147,0.010341309,1.005043507
7.353063,0.375350952,-0.369720459,0.107574463,0.004580444,0.010707520,1.006264210
7.353688,0.428756714,-0.156097412,0.069427490,0.001040405,0.005946777,1.003700733
7.355364,0.123580933,-0.247650146,-0.022125244,0.007388061,0.007411621,1.010048389
7.355990,0.062545776,-0.034027100,-0.113677979,0.004824584,0.007167480,1.006874561
7.356615,0.062545776,-0.034027100,-0.113677979,0.004824584,0.007167480,1.006874561
7.357242,0.207504272,-0.293426514,0.107574463,0.002383178,0.007655762,1.008095264
7.357869,0.230392456,-0.110321045,-0.052642822,0.004946655,0.006923340,1.008095264
7.358495,0.184616089,-0.178985596,-0.159454346,0.004092162,0.008632325,1.004189014
7.359120,0.230392456,-0.079803467,0.267791748,0.003237670,0.004359863,1.006508350
7.359747,0.108322144,-0.049285889,-0.067901611,0.004580444,0.003871582,1.007606983
7.360372,0.215133667,-0.178985596,-0.075531006,0.004580444,0.004970215,1.007362843
7.360999,0.100692749,-0.064544678,0.183868408,0.003970092,0.004848144,1.002235889
7.361626,0.009140015,-0.133209229,-0.113677979,0.003725952,0.005946777,1.004677296
7.362251,0.108322144,-0.293426514,0.077056885,0.003970092,0.005458496,1.001015186
7.362876,0.016769409,0.004119873,0.107574463,0.002383178,0.006801269,1.001625538
7.363501,0.199874878,-0.056915283,0.084686279,0.002627319,0.004115723,0.998451710
7.364127,0.283798218,-0.041656494,-0.014495850,0.005190795,0.005946777,1.001381397
7.364754,0.245651245,-0.056915283,0.038909912,0.003970092,0.004726074,1.003212452
7.365379,0.146469116,0.095672607,0.107574463,0.003237670,0.004970215,0.999428272
7.377915,0.138839722,0.126190186,-0.113677979,0.001040405,0.007411621,1.011147022
7.378578,0.032028198,0.034637451,-0.067901611,-0.002499634,0.007411621,1.011024952
7.379205,0.001510620,0.149078369,-0.029754639,-0.003720338,0.007289551,1.014687061
7.379832,-0.181594849,-0.095062256,-0.098419189,-0.001767213,0.005946777,1.011757374
7.380457,-0.349441528,-0.003509521,-0.006866455,0.000430053,0.008876465,1.008461475
7.381083,-0.250259399,0.072784424,-0.243377686,-0.000546509,0.008388184,1.007484913
7.381709,-0.379959106,-0.247650146,-0.136566162,-0.000424439,0.004848144,1.002846241
7.382334,-0.334182739,-0.209503174,-0.037384033,0.002016967,0.006190918,1.003578663
7.382960,-0.570693970,-0.293426514,-0.235748291,-0.001889283,0.002040527,1.001015186
7.383587,-0.440994263,-0.125579834,-0.174713135,-0.000790650,0.007533691,1.000282764
7.384214,-0.692764282,-0.346832275,0.046539307,0.001650756,0.004604004,0.996742725
7.384841,-0.418106079,0.019378662,-0.014495850,0.003359741,0.002895019,0.998329639
7.385467,-0.463882446,0.034637451,-0.045013428,0.001894897,0.002284668,0.993202686
7.386093,-0.235000610,-0.034027100,0.099945068,0.002016967,0.000819824,0.994545460
7.386718,-0.128189087,-0.217132568,-0.037384033,0.000552123,-0.000889160,0.994301319
7.387343,-0.166336060,-0.171356201,-0.022125244,0.003848022,0.003383301,0.992592335
7.387969,-0.044265747,0.027008057,-0.067901611,0.001040405,0.002895019,0.992958546
7.388596,-0.036636353,-0.201873779,-0.022125244,-0.000546509,0.001918457,0.991737843
7.389223,0.062545776,0.034637451,0.008392334,0.001406616,0.001796387,0.993935108
7.389849,0.115951538,-0.209503174,0.069427490,-0.000912720,0.001063965,0.996010303
7.390475,-0.051895142,-0.148468018,-0.258636475,-0.000546509,0.003017090,0.994423389
7.391101,0.054916382,-0.018768311,0.092315674,0.001162475,0.000819824,0.997353077
7.391726,0.085433960,-0.255279541,-0.060272217,-0.003476197,0.002284668,0.999916553
7.392352,0.154098511,-0.323944092,-0.067901611,0.001040405,0.002284668,1.001503468
7.392977,0.077804565,-0.163726807,-0.098419189,-0.002255494,0.001796387,0.998329639
7.393604,0.131210327,-0.308685303,-0.022125244,-0.000668580,0.002528809,0.997963428
7.394231,0.352462769,-0.499420166,0.130462646,0.000307983,0.002406738,0.998451710
7.394856,0.169357300,-0.224761963,0.023651123,0.000063842,0.002772949,0.998573780
7.395481,0.169357300,-0.415496826,-0.052642822,-0.003598267,0.002040527,1.000038624
7.396107,0.123580933,-0.430755615,-0.106048584,0.002505248,0.004604004,0.999550343
7.396732,0.375350952,-0.476531982,0.199127197,0.002505248,0.003017090,0.999428272
7.397357,0.329574585,-0.728302002,0.016021729,-0.000058228,0.001796387,0.997353077
7.397984,0.405868530,-0.522308350,-0.136566162,0.003115600,0.006435059,0.998329639
7.398609,0.405868530,-0.308685303,0.275421143,0.004702514,0.004237793,1.001259327
7.399235,0.398239136,-0.476531982,-0.144195557,0.003725952,0.005702637,1.000526905
7.399861,0.314315796,-0.552825928,0.023651123,0.003237670,0.003993652,0.999794483
7.400486,0.489791870,-0.217132568,0.016021729,0.006899780,0.005946777,0.998817921
7.401112,0.451644897,-0.354461670,-0.128936768,0.002993530,0.005580566,1.001137257
7.401738,0.444015503,-0.606231689,-0.128936768,0.003603881,0.008754395,1.001991749
7.402365,0.413497925,-0.362091064,0.016021729,0.000674194,0.007289551,1.000526905
7.402991,0.360092163,-0.194244385,0.054168701,0.000918334,0.005702637,1.002602100
7.403618,0.154098511,-0.323944092,0.138092041,0.004458373,0.006190918,1.002357960
7.404245,0.260910034,-0.224761963,0.023651123,0.003848022,0.004604004,1.004555225
7.404870,0.108322144,-0.163726807,0.061798096,0.001162475,0.003993652,1.005043507
7.405495,0.047286987,-0.034027100,-0.045013428,0.002627319,0.003993652,1.003456593
7.406121,-0.105300903,-0.209503174,-0.159454346,0.003848022,0.003505371,1.005287647
7.406746,0.070175171,-0.102691650,0.168609619,0.003115600,0.005458496,1.006508350
7.407372,0.077804565,-0.262908936,-0.029754639,-0.000058228,0.004481934,1.005653858
7.407997,-0.158706665,-0.102691650,-0.090789795,-0.000790650,0.003871582,1.004066944
7.420562,0.054916382,-0.278167725,0.054168701,0.004336303,0.004604004,1.007851124
7.421236,0.039657593,-0.156097412,-0.045013428,0.003970092,0.007655762,1.007362843
7.421862,-0.051895142,-0.034027100,0.115203857,0.004336303,0.008144043,1.012856007
7.422489,0.131210327,-0.026397705,-0.128936768,0.003481811,0.006801269,1.009926319
7.423116,-0.227371216,-0.034027100,0.122833252,0.004580444,0.006801269,1.010048389
7.423743,-0.135818481,0.065155029,0.046539307,0.004580444,0.006923340,1.007118702
7.424369,-0.036636353,0.057525635,0.130462646,0.003481811,0.003993652,1.008705616
7.424995,-0.364700317,0.019378662,-0.022125244,0.005068725,0.006679199,1.010048389
7.425621,-0.334182739,0.255889893,0.023651123,0.005923217,0.007167480,1.009071827
7.426247,-0.494400024,0.255889893,0.252532959,0.004092162,0.005946777,1.007851124
7.426874,-0.349441528,0.164337158,-0.289154053,0.005557006,0.004726074,1.008339405
7.427500,-0.265518188,0.233001709,-0.067901611,0.003359741,0.006557129,1.007973194
7.428125,-0.227371216,0.080413818,0.054168701,0.002505248,0.005214355,1.007729053
7.428752,-0.532546997,0.202484131,-0.098419189,0.003970092,0.008510254,1.004555225
7.429378,-0.540176392,0.095672607,-0.006866455,0.002261108,0.007655762,1.002968311
7.430004,-0.540176392,0.179595947,-0.113677979,0.002749389,0.004604004,1.001381397
7.430629,-0.357070923,-0.026397705,-0.075531006,0.003359741,0.007167480,1.001991749
7.431255,-0.372329712,0.004119873,0.099945068,0.004092162,0.007411621,1.002846241
7.431881,-0.524917603,0.210113525,-0.006866455,0.005068725,0.005824707,1.001991749
7.432506,-0.288406372,0.271148682,0.138092041,0.007388061,0.008510254,1.001259327
7.433131,-0.502029419,0.004119873,0.084686279,0.008608764,0.006190918,1.006020069
7.433756,-0.479141235,0.255889893,-0.067901611,0.010561889,0.009853028,1.005043507
7.434383,-0.486770630,0.286407471,0.031280518,0.009951537,0.009242676,1.004799366
7.435010,-0.479141235,0.477142334,-0.060272217,0.006167358,0.007289551,1.006874561
7.435635,-0.456253052,0.416107178,-0.067901611,0.012148803,0.008754395,1.010658741
7.436260,-0.578323364,0.377960205,0.054168701,0.008364623,0.008266114,1.009193897
7.436885,-0.646987915,0.698394775,0.153350830,0.006533569,0.010707520,1.011635303
7.437511,-0.967422485,0.828094482,-0.029754639,0.008608764,0.010951661,1.011879444
7.438137,-0.654617310,0.721282959,-0.045013428,0.004092162,0.010463379,1.013100147
7.438763,-1.196304321,0.919647217,0.023651123,0.005801147,0.009975098,1.015541553
7.439389,-1.097122192,0.629730225,-0.121307373,0.007388061,0.011073731,1.017494678
7.440016,-1.104751587,0.942535400,-0.037384033,0.006167358,0.010829590,1.015053272
7.440642,-1.211563110,0.751800537,0.016021729,0.006167358,0.008876465,1.012001514
7.441267,-1.547256470,0.973052979,-0.144195557,0.005679077,0.003871582,1.018227100
7.441892,-1.188674927,1.293487549,0.061798096,0.011782592,0.002650879,1.018349171
7.442517,-1.089492798,1.156158447,-0.037384033,0.009707397,0.002895019,1.020912647
7.443143,-1.356521606,1.278228760,-0.182342529,0.003725952,0.008266114,1.014564991
7.443769,-1.158157349,1.087493896,0.069427490,-0.000058228,0.008876465,1.016762257
7.444396,-1.638809204,0.713653564,-0.144195557,0.000063842,0.013148926,1.016640186
7.445023,-1.821914673,0.934906006,-0.098419189,-0.003232056,0.011928223,1.018837452
7.445648,-1.692214966,0.828094482,-0.045013428,0.003481811,0.011684082,1.015663624
7.446275,-1.860061646,0.889129639,0.160980225,0.005923217,0.011684082,1.012978077
7.446901,-1.837173462,1.026458740,-0.182342529,0.008242553,0.010219239,1.008095264
7.447528,-2.233901978,1.140899658,-0.083160400,0.006899780,0.008388184,1.007606983
7.448153,-2.134719849,1.232452393,0.107574463,0.009829467,0.006557129,1.006752491
7.448779,-2.104202271,1.446075439,-0.098419189,0.007632202,0.003017090,1.008217335
7.449404,-2.378860474,1.316375732,-0.060272217,0.008120483,0.001674316,1.006874561
7.450030,-2.378860474,1.674957275,0.107574463,0.006045287,0.000941894,1.008827686
7.450655,-2.508560181,1.873321533,-0.052642822,0.009951537,-0.001743652,1.009804249
7.451282,-2.294937134,1.880950928,0.046539307,0.001528686,-0.006870606,1.015663624
7.465101,-3.546157837,2.537078857,0.893402100,0.003725952,-0.005161621,1.009315968
7.465819,-3.439346313,2.430267334,0.763702393,-0.000180298,-0.003940918,1.005409718
7.466445,-3.424087524,2.300567627,0.794219971,-0.000058228,-0.003574707,1.006264210
7.467070,-3.462234497,2.285308838,0.626373291,-0.001401002,-0.005161621,1.004066944
7.467696,-3.530899048,2.559967041,1.160430908,-0.000546509,-0.006504395,1.003578663
7.468321,-3.454605103,2.300567627,0.695037842,0.001772827,-0.005894043,1.004677296
7.468948,-3.363052368,2.323455811,0.824737549,0.005679077,-0.005039551,1.008583546
7.469573,-3.347793579,2.300567627,1.061248779,0.012515014,-0.002109863,1.002846241
7.470200,-3.370681763,1.995391846,0.855255127,0.002505248,0.010707520,1.004555225
7.470827,-3.248611450,1.751251221,1.152801514,0.003603881,0.016200684,1.006264210
7.471453,-3.332534790,2.163238525,0.862884521,0.006533569,0.015102051,1.009315968
7.472078,-3.324905396,2.712554932,1.030731201,0.009463256,0.003505371,1.010536671
7.472705,-3.683486938,3.063507080,1.129913330,0.011782592,-0.001865723,1.013588428
7.473331,-4.164138794,3.567047119,1.007843018,0.019595092,-0.002354004,1.019569874
7.473957,-4.713455200,3.734893799,1.107025146,0.019350952,-0.007480957,1.021400928
7.474583,-4.888931274,4.024810791,1.351165771,0.018130248,-0.011997558,1.025063038
7.475208,-5.018630981,4.009552002,1.274871826,0.002871459,-0.018711425,1.024818897
7.475833,-5.125442505,4.383392334,1.168060303,-0.001156861,-0.017612793,1.026405811
7.476460,-4.957595825,4.238433838,1.442718506,-0.010800416,-0.013218261,1.023720264
7.477086,-4.621902466,3.872222900,1.335906982,-0.013974244,-0.008091308,1.024696827
7.477713,-4.522720337,3.773040771,1.396942139,-0.010556275,-0.014194824,1.021889210
7.478338,-4.484573364,3.261871338,1.541900635,-0.013608033,-0.010288574,1.018593311
7.478963,-4.545608521,2.834625244,1.473236084,-0.012509400,-0.005405762,1.014076710
7.479589,-4.492202759,2.636260986,1.610565186,-0.006650025,-0.002720215,1.012367725
7.480214,-4.423538208,2.651519775,1.419830322,-0.001034791,0.000575684,1.012245655
7.480839,-4.484573364,2.590484619,1.633453369,0.005679077,-0.000156738,1.007606983
7.481464,-4.293838501,2.865142822,1.457977295,0.012515014,0.003749512,1.004433155
7.482091,-4.583755493,3.177947998,1.541900635,0.015444702,0.006679199,1.003090382
7.482716,-4.690567017,3.246612549,1.709747314,0.017275756,0.005824707,0.999550343
7.483342,-4.965225220,3.185577393,1.618194580,0.017397827,0.005458496,0.994179249
7.483968,-5.346694946,3.528900146,1.869964600,0.012515014,0.003749512,0.997963428
7.484594,-5.445877075,3.719635010,1.824188232,0.006411498,0.001918457,1.000160694
7.485219,-5.400100708,4.307098389,1.869964600,0.008852905,-0.000034668,1.000160694
7.485844,-5.590835571,4.413909912,1.778411865,0.005679077,-0.001743652,1.002968311
7.486471,-5.445877075,4.574127197,1.885223389,0.007754272,-0.004917481,1.006386280
7.487097,-5.323806763,4.864044189,1.915740967,0.003603881,-0.005527832,1.012245655
7.487723,-5.049148560,4.581756592,1.900482178,0.001040405,-0.007847168,1.015663624
7.488348,-5.346694946,4.780120850,1.908111572,-0.001767213,-0.009678222,1.020546436
7.488975,-5.072036743,4.619903564,1.984405518,-0.003720338,-0.010166503,1.021156788
7.489600,-5.285659790,4.291839600,2.106475830,-0.008847291,-0.005649902,1.022499561
7.490225,-5.270401001,4.177398682,2.068328857,-0.008236939,-0.009556152,1.024574757
7.490851,-5.453506470,4.185028076,2.220916748,-0.005673463,-0.010166503,1.021278858
7.491477,-5.415359497,3.879852295,1.969146729,-0.006039673,-0.009800293,1.019569874
7.492104,-5.522171021,3.879852295,2.114105225,-0.004941041,-0.007969238,1.014564991
7.492729,-5.407730103,3.940887451,2.114105225,-0.003598267,-0.005405762,1.016762257
7.493356,-5.705276489,3.719635010,2.068328857,-0.007504517,-0.007480957,1.015419483
7.493983,-5.751052856,3.765411377,2.198028564,-0.010434205,-0.009312011,1.009560108
7.494609,-5.697647095,3.712005615,2.182769775,-0.002987916,-0.011020996,1.004433155
7.495234,-5.949417114,3.559417725,2.091217041,-0.008359009,-0.010898925,1.002113819
7.514507,-2.195755005,1.873321533,4.532623291,-0.004208619,-0.041050293,0.997475147
7.515258,-2.371231079,2.125091553,4.418182373,-0.004086548,-0.041782714,1.002480030
7.515883,-1.921096802,2.277679443,4.776763916,-0.008847291,-0.036533691,0.999916553
7.516509,-1.791397095,2.384490967,4.753875732,-0.012875611,-0.032871582,1.002235889
7.517134,-1.516738892,2.506561279,4.837799072,-0.019589478,-0.038853027,1.004921436
7.517759,-1.585403442,2.285308838,5.142974854,-0.024350220,-0.042148925,1.003090382
7.518384,-1.585403442,2.544708252,5.326080322,-0.021664673,-0.052769043,1.004311085
7.519010,-1.860061646,2.445526123,5.196380615,-0.024838502,-0.045811035,1.002235889
7.519637,-1.776138306,2.102203369,5.539703369,-0.019833619,-0.035312988,1.001381397
7.520263,-2.066055298,1.850433350,5.783843994,-0.016293580,-0.034580566,0.997963428
7.520888,-2.165237427,1.598663330,5.921173096,-0.016171509,-0.034824707,0.993080616
7.521514,-2.272048950,1.102752686,6.111907959,-0.017148072,-0.034214355,0.988197803
7.522140,-2.241531372,1.224822998,6.226348877,-0.017392213,-0.040317871,0.986122608
7.522765,-2.645889282,1.499481201,6.409454346,-0.012875611,-0.044712402,0.979408741
7.523391,-2.737442017,1.804656982,6.371307373,-0.006161744,-0.057407714,0.971596241
7.524018,-2.737442017,1.705474854,6.684112549,-0.002133423,-0.069004394,0.970253468
7.524643,-2.439895630,1.758880615,6.653594971,-0.005551392,-0.068027832,0.966957569
7.525269,-1.821914673,1.583404541,7.248687744,-0.019833619,-0.053379394,0.966469288
7.525894,-1.509109497,1.514739990,7.363128662,-0.028866822,-0.046299316,0.968910694
7.526519,-1.043716431,0.744171143,7.462310791,-0.028866822,-0.036655761,0.972450733
7.527144,-0.479141235,0.438995361,7.691192627,-0.024350220,-0.019932128,0.979408741
7.527770,-0.372329712,0.286407471,8.126068115,-0.013241822,0.005702637,0.986366749
7.528397,-0.120559692,-0.423126221,8.309173584,-0.005795533,0.038661622,0.996986866
7.529023,-0.608840942,-1.071624756,8.835601807,0.013491577,0.086391114,1.011635303
7.529649,-0.776687622,-1.369171143,8.896636963,0.040224977,0.112270020,1.035316944
7.530276,-0.296035767,-0.873260498,9.049224854,0.077578492,0.105678223,1.067665577
7.530901,0.222763062,0.828094482,9.255218506,0.094424196,0.101527832,1.108192921
7.531526,0.505050659,2.926177979,9.300994873,0.093935914,0.097499512,1.142250538
7.532152,-0.761428833,4.986114502,9.262847900,0.088931032,0.090907715,1.172646046
7.532779,-3.096023560,6.336517334,9.682464600,0.083559938,0.065883301,1.203651905
7.533406,-5.766311646,7.862396240,10.002899170,0.075747438,0.035854004,1.234657764
7.534033,-8.116165161,9.762115479,10.384368896,0.066592164,0.006801269,1.271645069
7.534659,-10.473648071,11.539764404,10.781097412,0.058535524,-0.008945800,1.297523975
7.535285,-12.251296997,12.493438721,10.880279541,0.047305055,-0.004673340,1.305092335
7.535912,-14.105239868,12.584991455,10.689544678,0.030703491,0.004359863,1.293373585
7.536538,-15.890518188,11.562652588,11.124420166,0.007143920,0.022182129,1.277504444
7.537164,-17.446914673,10.441131592,11.132049561,-0.007138306,0.023402832,1.255653858
7.537789,-18.911758423,9.807891846,11.177825928,0.005923217,-0.013706543,1.232338428
7.538414,-19.773880005,9.632415771,11.635589600,0.026919311,-0.053623535,1.203163624
7.539041,-20.498672485,10.395355225,11.101531982,0.044863649,-0.094639160,1.159218311
7.539667,-21.002212524,11.509246826,11.261749268,0.044009157,-0.140903816,1.104286671
7.540292,-21.322647095,12.188262939,12.024688721,0.009463256,-0.183750495,1.041054249
7.540917,-20.796218872,12.859649658,12.429046631,-0.036801390,-0.204502448,0.969276905
7.541543,-20.063796997,12.707061768,12.635040283,-0.096737914,-0.179844245,0.892006397
7.542168,-19.056716919,11.318511963,12.337493896,-0.153500617,-0.132358894,0.811073780
7.542793,-17.599502563,8.632965088,12.535858154,-0.191342413,-0.093296386,0.731239796
7.543420,-15.814224243,5.474395752,12.703704834,-0.194394171,-0.083530761,0.659706593
7.544046,-13.601699829,3.025360107,12.711334229,-0.173642218,-0.100010253,0.599159718
7.556686,9.965499878,-6.343536377,13.626861572,-0.041440062,0.028407715,1.156288624
7.557462,7.325729370,-6.869964600,13.634490967,0.000307983,0.084071778,1.150795460
7.558088,5.151351929,-6.580047607,13.855743408,0.020571655,0.092006348,1.139320850
7.558715,2.969345093,-5.824737549,13.848114014,0.041689821,0.095912598,1.129799366
7.559341,1.023849487,-4.787139893,13.771820068,0.056582399,0.090541504,1.120155811
7.559968,-0.891128540,-3.184967041,13.909149170,0.068911500,0.083583497,1.112099171
7.560594,-2.462783813,-1.514129639,14.206695557,0.076113649,0.072963379,1.105263233
7.561220,-3.538528442,0.233001709,13.993072510,0.083437867,0.055995606,1.101845264
7.561847,-4.270950317,1.812286377,14.122772217,0.090517946,0.036830567,1.097816944
7.562473,-5.056777954,3.513641357,13.893890381,0.086001344,0.022304200,1.100868702
7.563099,-4.881301880,4.413909912,14.092254639,0.063906617,0.015956543,1.100746632
7.563753,-5.415359497,5.596466064,14.115142822,0.050356813,0.008632325,1.104408741
7.565496,-5.575576782,6.702728271,14.176177979,0.015322631,0.007411621,1.111732960
7.566121,-5.743423462,6.595916748,13.954925537,-0.000058228,0.012050293,1.115150928
7.566748,-6.132522583,6.504364014,14.084625244,-0.004941041,0.010951661,1.116493702
7.567373,-6.407180786,6.153411865,14.046478271,0.000918334,0.000453613,1.118080616
7.567998,-6.674209595,5.749053955,13.855743408,0.001650756,-0.009922363,1.114662647
7.568623,-6.643692017,5.665130615,13.718414307,0.003970092,-0.016392089,1.109169483
7.569249,-6.147781372,5.482025146,13.642120361,0.011294311,-0.018345214,1.100868702
7.569874,-5.514541626,5.100555420,13.771820068,0.006289428,-0.013828613,1.087929249
7.570499,-4.949966431,4.864044189,13.695526123,-0.002255494,-0.013706543,1.075233936
7.571126,-4.469314575,4.558868408,13.520050049,-0.013485963,-0.011631347,1.048866749
7.571751,-4.324356079,4.276580811,13.596343994,-0.030453736,-0.001011231,1.029945850
7.572377,-4.034439087,3.635711670,13.550567627,-0.033871703,-0.001255371,1.006386280
7.573003,-3.836074829,3.475494385,13.520050049,-0.028988892,0.002040527,0.987587452
7.573629,-3.874221802,3.467864990,13.451385498,-0.024716431,0.009486817,0.966225147
7.574254,-3.675857544,3.002471924,13.367462158,-0.008236939,0.011317872,0.942665577
7.574881,-3.355422974,2.857513428,13.481903076,0.004336303,0.007045410,0.923988819
7.575506,-3.263870239,2.819366455,13.413238525,0.003603881,0.004604004,0.910561085
7.576133,-2.882400513,3.170318604,13.840484619,0.003970092,-0.000156738,0.902260303
7.576759,-2.386489868,3.795928955,13.718414307,0.008486694,-0.003696777,0.895058155
7.577386,-2.272048950,4.215545654,13.253021240,0.011416381,-0.005649902,0.889076710
7.578011,-1.936355591,4.268951416,13.512420654,0.007876342,-0.001499512,0.887001514
7.578636,-2.157608032,4.322357178,13.497161865,-0.001278931,-0.007603027,0.881752491
7.579261,-2.279678345,4.108734131,13.756561279,-0.006283814,-0.010288574,0.888344288
7.579888,-2.073684692,4.215545654,13.665008545,-0.010556275,-0.028843261,0.885780811
7.580515,-1.928726196,4.040069580,13.603973389,-0.038998656,-0.020908691,0.890419483
7.581140,-1.799026489,3.338165283,13.687896729,-0.053891234,-0.012852050,0.896522999
7.581766,-0.730911255,2.277679443,13.466644287,-0.039486937,-0.032871582,0.901283741
7.582393,-0.120559692,1.461334229,13.504791260,-0.031918578,-0.022617675,0.902870655
7.583020,0.329574585,1.179046631,13.459014893,-0.019223267,-0.029575683,0.904701710
7.583647,0.863632202,0.690765381,13.657379150,-0.021054322,-0.035435058,0.906410694
7.584273,0.909408569,0.240631104,13.993072510,-0.033627562,-0.023716308,0.903358936
7.584899,1.267990112,-0.156097412,13.848114014,-0.044980101,-0.021274902,0.903969288
7.585524,1.382431030,-0.514678955,14.092254639,-0.043149047,-0.015415527,0.909828663
7.586151,1.245101929,-0.613861084,13.947296143,-0.041073851,-0.007236816,0.913856983
7.586776,1.634201050,-1.231842041,13.924407959,-0.038876586,-0.001011231,0.916420460
7.587402,1.771530151,-1.590423584,14.153289795,-0.032895140,0.008632325,0.928383350
7.588028,2.244552612,-1.971893311,14.229583740,-0.025815064,-0.001499512,0.930824757
7.600932,2.595504761,-0.133209229,14.061737061,0.014468139,-0.005649902,1.108192921
7.601647,2.282699585,0.110931396,13.985443115,0.015200561,0.018275879,1.111122608
7.602274,1.985153198,0.660247803,14.092254639,0.023135131,0.029018067,1.111366749
7.602900,1.382431030,1.362152100,14.168548584,0.020327514,0.026576661,1.111366749
7.603526,0.672897339,1.888580322,14.153289795,0.020083373,0.023158692,1.107826710
7.604152,-0.112930298,2.346343994,13.954925537,0.024111694,0.017421387,1.108192921
7.604777,-0.723281860,3.017730713,13.939666748,0.032412477,0.002528809,1.101234913
7.605403,-0.944534302,3.322906494,14.191436768,0.029482787,0.003261230,1.098183155
7.606030,-1.425186157,3.712005615,14.275360107,0.020571655,0.015956543,1.100014210
7.606656,-1.875320435,3.788299561,14.336395264,0.017641967,0.011317872,1.100624561
7.607282,-2.111831665,4.223175049,14.138031006,0.023135131,0.000087402,1.097206593
7.607908,-2.615371704,4.871673584,13.939666748,0.024844116,-0.010776855,1.094276905
7.608534,-2.951065063,5.405731201,14.275360107,0.017397827,-0.013340332,1.086220264
7.609160,-3.332534790,5.916900635,14.305877686,0.023013061,-0.017002441,1.084511280
7.609786,-3.546157837,6.145782471,14.389801025,0.019595092,-0.023472168,1.073524952
7.610412,-3.851333618,6.351776123,14.351654053,0.009341186,-0.013828613,1.067055225
7.611041,-4.133621216,6.374664307,14.466094971,-0.001156861,-0.001011231,1.063637257
7.611667,-4.171768188,6.687469482,14.611053467,-0.006283814,-0.003452637,1.051918507
7.612292,-4.469314575,6.634063721,14.466094971,-0.009579713,-0.002598145,1.045082569
7.612919,-4.682937622,6.389923096,14.664459229,-0.013730103,-0.006138184,1.037270069
7.613545,-4.957595825,6.290740967,14.466094971,-0.004941041,-0.013828613,1.029579639
7.614172,-4.957595825,6.115264893,14.427947998,-0.001156861,-0.019199707,1.018837452
7.614798,-4.690567017,6.092376709,14.710235596,-0.007260377,-0.025181152,1.010902882
7.615425,-4.476943970,6.206817627,14.740753174,-0.012875611,-0.026523925,0.999062061
7.616051,-4.316726685,6.260223389,14.534759521,-0.018368775,-0.020176269,0.989052296
7.616678,-3.996292114,6.100006104,14.778900146,-0.019833619,-0.026645996,0.977821827
7.617304,-3.942886353,6.031341553,14.771270752,-0.021298463,-0.029819824,0.967689991
7.617929,-3.622451782,5.787200928,14.694976807,-0.023984009,-0.022495605,0.957069874
7.618554,-3.446975708,5.565948486,14.809417725,-0.024594361,-0.024326660,0.947792530
7.619179,-3.088394165,5.291290283,15.000152588,-0.025326783,-0.020054199,0.941444874
7.619804,-2.767959595,5.070037842,15.106964111,-0.027524048,-0.016392089,0.934120655
7.620430,-2.638259888,4.902191162,14.786529541,-0.025570923,-0.017246582,0.925087452
7.621056,-2.401748657,4.673309326,14.740753174,-0.026059205,-0.014316894,0.914711475
7.621681,-1.783767700,3.628082275,14.839935303,-0.030819947,-0.007114746,0.908730030
7.622307,-1.783767700,3.628082275,14.839935303,-0.030819947,-0.007114746,0.908730030
7.622932,-1.234451294,3.292388916,14.740753174,-0.030209595,-0.003696777,0.900673389
7.623558,-0.891128540,2.857513428,14.588165283,-0.032162718,-0.006870606,0.900673389
7.624184,-0.517288208,2.605743408,14.771270752,-0.027524048,-0.003940918,0.898598194
7.624809,-0.173965454,2.094573975,14.839935303,-0.029477173,-0.002842285,0.897743702
7.625435,0.230392456,1.873321533,14.687347412,-0.025082642,-0.008457519,0.898109913
7.626061,0.299057007,1.751251221,14.519500732,-0.025448853,-0.004062988,0.900551319
7.626687,0.863632202,1.720733643,14.405059814,-0.024472291,0.001918457,0.908119678
7.627312,0.810226440,1.201934814,14.107513428,-0.022885377,0.002040527,0.909828663
7.627938,1.191696167,0.889129639,14.275360107,-0.023251588,0.006679199,0.908852100
7.628563,1.489242554,0.355072021,14.199066162,-0.025082642,0.010585450,0.912025928
7.629190,1.542648315,0.385589600,14.168548584,-0.028012330,0.017787598,0.915688038
7.629816,2.015670776,0.118560791,14.023590088,-0.028378541,0.020351075,0.919716358
7.630443,2.122482300,-0.217132568,13.802337646,-0.032040648,0.027187012,0.918983936
7.631069,2.221664429,-0.743560791,13.565826416,-0.028866822,0.036342286,0.924599171
7.643701,3.480514526,-2.681427002,9.796905518,0.011416381,0.066493653,1.032753468
7.644457,3.465255737,-2.856903076,9.468841553,0.011782592,0.068935059,1.035561085
7.645083,3.381332397,-2.765350342,9.285736084,0.013247436,0.074306153,1.035194874
7.645709,3.511032104,-2.612762451,8.881378174,0.010195678,0.081874512,1.038368702
7.646334,3.472885132,-2.818756104,8.545684814,0.011172241,0.093227051,1.037392139
7.646959,3.152450562,-2.887420654,8.171844482,0.009097045,0.100185059,1.042030811
7.647584,2.839645386,-2.742462158,7.988739014,0.015932983,0.103725098,1.038612843
7.648211,2.641281128,-2.536468506,7.645416260,0.021426147,0.107143067,1.041542530
7.648837,2.412399292,-2.673797607,7.279205322,0.021792358,0.105922364,1.040199757
7.649464,2.130111694,-2.086334229,7.111358643,0.019350952,0.103358887,1.032387257
7.650091,1.481613159,-2.208404541,6.798553467,0.020327514,0.101283692,1.031776905
7.650718,1.031478882,-2.032928467,6.531524658,0.023501342,0.099574707,1.027138233
7.651344,0.909408569,-1.842193604,6.157684326,0.026431030,0.092982911,1.022621632
7.651971,0.825485229,-1.575164795,5.867767334,0.026797241,0.096156739,1.019203663
7.652596,1.031478882,-1.315765381,5.615997314,0.028628295,0.107265137,1.013710499
7.653222,1.283248901,-1.483612061,5.348968506,0.033266969,0.102626465,1.007729053
7.653848,1.702865601,-1.453094482,4.921722412,0.028994506,0.106288575,0.999794483
7.654474,2.015670776,-1.277618408,4.250335693,0.019717162,0.119716309,0.988930225
7.655101,2.610763550,-1.720123291,3.807830811,0.005312866,0.137538567,0.975746632
7.655728,2.885421753,-1.865081787,3.395843506,-0.003476197,0.147914544,0.966713428
7.656354,3.228744507,-2.071075439,2.854156494,-0.011288697,0.159145012,0.949013233
7.656981,3.358444214,-2.246551514,2.251434326,-0.018612916,0.169398919,0.935585499
7.657606,3.823837280,-2.696685791,1.656341553,-0.022885377,0.180019036,0.920570850
7.658233,4.350265503,-3.131561279,1.168060303,-0.029355103,0.182704583,0.903725147
7.658858,4.777511597,-3.810577393,0.710296631,-0.037777953,0.197963372,0.886879444
7.659484,5.151351929,-4.863433838,0.054168701,-0.044125609,0.209682122,0.867470264
7.660109,5.624374390,-5.656890869,-0.739288330,-0.047055297,0.217372552,0.849647999
7.660735,5.578598022,-6.313018799,-1.273345947,-0.046689086,0.216518059,0.838051319
7.661362,5.158981323,-7.526092529,-1.700592041,-0.038632445,0.210170403,0.833046436
7.661987,4.769882202,-8.121185303,-2.410125732,-0.020077759,0.192103997,0.828407764
7.662612,4.205307007,-8.746795654,-2.608489990,0.006899780,0.170741692,0.828163624
7.663239,3.312667847,-8.723907471,-2.997589111,0.029360717,0.140224114,0.833534718
7.663866,2.389511108,-8.250885010,-3.432464600,0.047182985,0.111903809,0.846107960
7.665538,0.886520386,-5.237274170,-4.431915283,0.062075563,0.041469239,0.913856983
7.666165,0.871261597,-4.016571045,-4.401397705,0.055849977,0.024623536,0.945106983
7.666790,1.313766479,-2.887420654,-4.988861084,0.044497438,0.019374512,0.978310108
7.667417,1.916488647,-2.101593018,-4.859161377,0.030581420,0.019008301,1.012245655
7.668044,2.259811401,-1.880340576,-5.301666260,0.010928100,0.019984864,1.046913624
7.668669,2.984603882,-1.735382080,-5.423736572,-0.000668580,0.032436036,1.078773975
7.669294,3.320297241,-2.200775146,-5.461883545,-0.010067994,0.042079590,1.109657764
7.669920,3.343185425,-2.689056396,-5.583953857,-0.013730103,0.050746582,1.135292530
7.670546,2.984603882,-2.811126709,-5.736541748,-0.010434205,0.059291504,1.160927296
7.671171,2.519210815,-3.535919189,-5.934906006,-0.006527955,0.060878418,1.180824757
7.671797,1.557907104,-3.726654053,-5.988311768,0.008486694,0.055995606,1.198891163
7.672422,0.955184937,-3.635101318,-6.140899658,0.022890991,0.044520997,1.213295460
7.673049,0.321945190,-3.574066162,-6.140899658,0.028017944,0.033900879,1.217323780
7.673675,-0.624099731,-3.375701904,-6.110382080,0.027285522,0.025844239,1.222206593
7.674302,-1.310745239,-3.101043701,-6.125640869,0.027407592,-0.000645020,1.218788624
7.674927,-1.760879517,-2.727203369,-6.270599365,0.030825561,-0.017002441,1.209267139
7.687545,-2.195755005,1.324005127,-7.674407959,-0.011899048,0.028651856,0.951576710
7.688257,-1.646438599,0.919647217,-8.040618896,-0.010190064,0.024501465,0.947914600
7.688882,-1.409927368,0.950164795,-8.246612549,-0.008969361,0.032313965,0.944862843
7.689508,-1.463333130,0.896759033,-8.444976807,-0.003720338,0.040614747,0.936317921
7.690134,-1.310745239,0.660247803,-8.536529541,-0.003109986,0.043544434,0.932899952
7.690760,-1.707473755,0.850982666,-8.650970459,0.000430053,0.049892090,0.928993702
7.691385,-1.623550415,0.706024170,-8.475494385,-0.000546509,0.051479004,0.930458546
7.692011,-1.646438599,0.927276611,-8.910369873,-0.000058228,0.047938965,0.937294483
7.692638,-1.318374634,0.858612061,-9.047698975,-0.002011353,0.040614747,0.938759327
7.693265,-1.211563110,0.736541748,-9.070587158,0.002871459,0.043666504,0.943520069
7.693890,-0.776687622,0.721282959,-9.185028076,0.003359741,0.040980957,0.950600147
7.694516,-0.235000610,0.606842041,-9.566497803,0.001650756,0.041347168,0.953041553
7.695142,0.169357300,0.576324463,-9.535980225,-0.004452759,0.040858887,0.963661671
7.695767,0.543197632,0.522918701,-9.749603271,-0.003109986,0.037196778,0.975746632
7.696393,0.764450073,0.347442627,-9.803009033,-0.001767213,0.033900879,0.984779835
7.697019,0.955184937,0.553436279,-9.864044189,0.003359741,0.036220215,0.994545460
7.697646,1.000961304,0.530548096,-10.085296631,0.013125366,0.036952637,1.006386280
7.698271,0.924667358,0.713653564,-10.321807861,0.020449584,0.034755372,1.018471241
7.698897,1.275619507,1.079864502,-10.482025146,0.009585327,0.032924317,1.024208546
7.699522,0.978073120,0.927276611,-10.260772705,0.003237670,0.039394043,1.036293507
7.700147,0.604232788,1.102752686,-10.817718506,0.010195678,0.035609864,1.042641163
7.700774,0.405868530,1.339263916,-10.962677002,0.011050170,0.028163575,1.044960499
7.701399,-0.051895142,1.392669678,-11.031341553,0.009951537,0.029994629,1.047035694
7.702024,-0.364700317,1.354522705,-10.977935791,0.011660522,0.040736817,1.049477100
7.702650,-0.402847290,1.163787842,-11.168670654,0.007998412,0.050258301,1.054237843
7.703275,-0.021377563,1.026458740,-11.359405518,0.005434936,0.061854981,1.053383350
7.703900,-0.364700317,1.064605713,-11.801910400,0.004458373,0.070888184,1.049599171
7.704525,-0.425735474,0.866241455,-11.893463135,0.008486694,0.073451661,1.048988819
7.705151,-0.837722778,1.087493896,-11.946868896,0.007388061,0.074184082,1.046425343
7.705777,-1.081863403,1.179046631,-11.893463135,0.013125366,0.076625489,1.044838428
7.706404,-1.303115845,1.697845459,-12.564849854,0.025210327,0.068568848,1.044594288
7.707029,-1.310745239,2.086944580,-12.648773193,0.035952516,0.060390137,1.037270069
7.707655,-1.257339478,2.498931885,-12.847137451,0.030093139,0.065517090,1.036171436
7.708282,-1.196304321,2.483673096,-12.908172607,0.025576537,0.068324707,1.032753468
7.708908,-1.631179810,2.407379150,-13.358306885,0.018984741,0.060756348,1.027870655
7.709534,-1.554885864,2.659149170,-13.495635986,0.006411498,0.055873536,1.023476124
7.710160,-1.615921021,2.788848877,-13.709259033,0.002871459,0.053554200,1.024696827
7.710785,-1.707473755,3.307647705,-13.709259033,0.007632202,0.047572754,1.026405811
7.711412,-1.432815552,3.422088623,-14.105987549,0.013247436,0.046352051,1.024208546
7.712043,-1.181045532,3.544158936,-14.502716064,0.013979858,0.050136231,1.024818897
7.712669,-0.448623657,3.269500732,-14.762115479,0.012637084,0.060878418,1.025551319
7.713296,0.100692749,3.155059814,-15.143585205,0.007388061,0.066981934,1.027870655
7.713922,0.413497925,2.903289795,-15.151214600,-0.001278931,0.068812989,1.022621632
7.714614,1.061996460,2.407379150,-16.150665283,-0.014584595,0.092738770,1.006264210
7.715412,0.978073120,1.972503662,-16.410064697,-0.012387330,0.108485840,1.004311085
7.716206,0.764450073,1.385040283,-16.814422607,-0.013363892,0.112270020,0.999184132
7.716837,0.970443726,0.797576904,-17.188262939,-0.003109986,0.105922364,0.993813038
7.717464,1.298507690,1.018829346,-17.501068115,0.006167358,0.088344239,0.993935108
7.718091,1.939376831,1.652069092,-18.004608154,0.009707397,0.077846192,0.989174366
7.730748,9.996017456,-2.872161865,-28.639984131,0.022890991,0.185756341,0.930336475
7.731481,9.790023804,-3.337554932,-29.555511475,0.005312866,0.182216302,0.933754444
7.732107,9.629806519,-3.291778564,-30.326080322,0.008120483,0.180995598,0.939613819
7.732733,9.202560425,-3.093414307,-30.730438232,0.017275756,0.174525872,0.940712452
7.733359,9.393295288,-3.200225830,-31.150054932,0.011416381,0.177821770,0.945961475
7.733984,9.355148315,-3.657989502,-31.691741943,0.018374389,0.190639153,0.954384327
7.734609,9.416183472,-3.558807373,-32.317352295,0.026308959,0.182094231,0.956947803
7.735234,9.378036499,-3.543548584,-33.042144775,0.016421264,0.178432122,0.961464405
7.735861,9.347518921,-3.398590088,-33.560943604,0.006289428,0.180385247,0.963783741
7.736486,9.339889526,-3.703765869,-34.049224854,0.014712280,0.181239739,0.965370655
7.737112,9.103378296,-3.635101318,-34.529876709,0.009341186,0.183437005,0.966835499
7.737739,8.790573120,-3.787689209,-35.193634033,0.016299194,0.179164544,0.976479053
7.738364,8.424362183,-3.619842529,-35.536956787,0.024355834,0.171229973,0.981239796
7.738991,8.157333374,-3.390960693,-35.819244385,0.027285522,0.171229973,0.987953663
7.739618,8.020004272,-3.574066162,-36.666107178,0.025942748,0.160853997,0.990639210
7.740244,8.027633667,-3.650360107,-37.169647217,0.027285522,0.158412591,0.995277882
7.740870,7.768234253,-3.459625244,-37.619781494,0.030703491,0.155727044,1.002724171
7.741496,7.760604858,-3.490142822,-38.169097900,0.041567750,0.140224114,1.009193897
7.742121,7.905563354,-3.001861572,-38.451385498,0.030215209,0.121181153,1.011879444
7.742746,7.768234253,-2.948455811,-38.863372803,0.023257202,0.107020997,1.019814014
7.743372,8.225997925,-3.154449463,-39.366912842,0.025698608,0.097011231,1.017982960
7.743997,8.744796753,-3.551177979,-40.045928955,0.017764037,0.098842286,1.020790577
7.744623,9.431442261,-3.848724365,-40.114593506,0.014468139,0.103114747,1.026527882
7.745249,9.889205933,-3.741912842,-40.663909912,0.020205444,0.093104981,1.028969288
7.745874,10.331710815,-3.505401611,-41.251373291,0.029238647,0.087367676,1.031532764
7.746501,10.507186890,-3.459625244,-41.526031494,0.029604858,0.079066895,1.033607960
7.747126,10.743698120,-3.192596436,-41.762542725,0.015566772,0.074428223,1.036171436
7.747751,11.064132690,-3.390960693,-41.716766357,0.013247436,0.073695801,1.044228077
7.748378,10.858139038,-3.085784912,-42.273712158,0.031924196,0.066127442,1.059608936
7.749003,11.102279663,-2.780609131,-42.807769775,0.026431030,0.060268067,1.058754444
7.749628,11.407455444,-2.696685791,-42.914581299,0.023257202,0.067226075,1.062782764
7.750255,12.086471558,-2.879791260,-43.112945557,0.015932983,0.069423340,1.066200733
7.750880,12.590011597,-3.139190674,-43.410491943,0.023013061,0.071254395,1.063515186
7.751506,13.337692261,-3.421478271,-44.066619873,0.033999391,0.076869629,1.063026905
7.752131,13.917526245,-3.589324951,-44.707489014,0.017031616,0.071498536,1.052406788
7.752756,14.154037476,-3.635101318,-44.898223877,0.015688842,0.071620606,1.049843311
7.753382,14.390548706,-3.482513428,-44.951629639,0.027041381,0.060634278,1.042641163
7.754007,14.215072632,-2.780609131,-45.333099365,0.026553100,0.040004395,1.033974171
7.754632,14.306625366,-2.208404541,-45.706939697,0.032900758,0.026698731,1.026283741
7.755257,14.543136597,-2.124481201,-45.867156982,0.033144899,0.029140137,1.024330616
7.755883,15.611251831,-2.093963623,-45.867156982,0.030093139,0.024379395,1.022255421
7.756510,17.007431030,-1.872711182,-46.187591553,0.024233764,0.022914551,1.024696827
7.757137,19.052108765,-1.582794189,-46.378326416,0.004092162,0.026454590,1.022987843
7.757764,20.303329468,-1.582794189,-46.965789795,-0.007992798,0.027309082,1.023842335
7.766151,22.203048706,-1.727752686,-50.086212158,0.045107789,0.061977051,1.034218311
7.766776,21.707138062,-1.399688721,-50.238800049,0.030337280,0.054774903,1.031898975
7.767401,21.737655640,-1.353912354,-50.559234619,0.005312866,0.053920411,1.023720264
7.768028,22.355636597,-1.155548096,-50.543975830,-0.003720338,0.049281739,1.020180225
7.768771,22.981246948,-1.041107178,-51.032257080,-0.007260377,0.042934082,1.013466358
7.781482,36.599716187,-2.597503662,-56.746673584,0.012026733,0.041713379,1.031166553
7.782246,37.141403198,-3.162078857,-56.929779053,0.007021850,0.035243653,1.035072803
7.782873,37.942489624,-3.451995850,-56.815338135,0.018618530,0.025600098,1.036781788
7.783498,38.682540894,-3.505401611,-57.395172119,0.025332397,0.022548340,1.040199757
7.784123,39.323410034,-3.444366455,-57.593536377,0.024477905,0.017787598,1.043495655
7.784749,40.109237671,-3.352813721,-57.746124268,0.034609742,0.015834473,1.047768116
7.785374,40.834030151,-2.788238525,-57.967376709,0.033877321,0.018764161,1.053871632
7.785999,41.612228394,-2.429656982,-58.303070068,0.030825561,0.027553223,1.057289600
7.786624,42.451461792,-2.261810303,-58.539581299,0.035464235,0.032191895,1.059486866
7.787250,43.038925171,-2.177886963,-58.959197998,0.034853883,0.023158692,1.065834522
7.787876,43.641647339,-1.933746338,-58.745574951,0.026308959,0.016566895,1.073524952
7.788501,44.000228882,-1.788787842,-58.928680420,0.015200561,0.010219239,1.080238819
7.789126,44.137557983,-1.834564209,-58.989715576,0.008120483,-0.005771973,1.083290577
7.789751,43.862899780,-1.697235107,-59.004974365,0.003237670,-0.004429199,1.086830616
7.790376,44.000228882,-1.941375732,-59.111785889,-0.001767213,-0.009067871,1.090736866
7.791003,44.259628296,-2.406768799,-58.791351318,0.002871459,-0.024692871,1.100136280
7.791628,44.602951050,-2.109222412,-58.707427979,0.008486694,-0.037266113,1.106361866
7.792255,45.281967163,-1.872711182,-59.127044678,0.020571655,-0.037266113,1.104408741
7.792880,45.877059937,-1.949005127,-58.959197998,0.020815795,-0.033726074,1.100258350
7.793507,46.411117554,-1.727752686,-58.989715576,0.008242553,-0.019199707,1.093300343
7.794133,46.792587280,-1.849822998,-58.486175537,-0.005551392,-0.019077636,1.087563038
7.794759,47.135910034,-1.765899658,-58.310699463,0.001528686,-0.026035644,1.081703663
7.795385,47.212203979,-1.216583252,-58.600616455,0.019839233,-0.025181152,1.073891163
7.796010,47.349533081,-1.308135986,-58.615875244,0.036562867,-0.021030761,1.069740772
7.796637,47.326644897,-1.155548096,-58.142852783,0.044497438,-0.012974121,1.063759327
7.797262,46.830734253,-1.132659912,-57.769012451,0.035830446,-0.002231934,1.060219288
7.797888,46.708663940,-0.308685303,-57.532501221,0.033755250,-0.017490722,1.068642139
7.798514,46.907028198,0.850982666,-57.540130615,0.018008178,-0.014316894,1.064857960
7.799140,46.517929077,2.003021240,-57.112884521,0.014956420,-0.012363769,1.063881397
7.799767,46.319564819,2.407379150,-57.051849365,0.020327514,-0.020786621,1.066566944
7.800393,45.960983276,2.453155518,-56.746673584,0.030459350,-0.031406738,1.061562061
7.801018,45.777877808,2.445526123,-56.479644775,0.016787475,-0.036533691,1.065102100
7.801644,45.594772339,2.376861572,-55.976104736,0.005190795,-0.044712402,1.065224171
7.802271,45.770248413,2.567596436,-55.808258057,-0.002255494,-0.058140136,1.070595264
7.802898,46.128829956,2.712554932,-55.419158936,-0.015072877,-0.065830566,1.069252491
7.803524,46.441635132,2.537078857,-54.991912842,-0.016659791,-0.079380371,1.076332569
7.804150,47.280868530,2.071685791,-54.564666748,0.004336303,-0.077427246,1.080727100
7.804775,47.898849487,1.621551514,-54.053497314,0.003359741,-0.083042480,1.080360889
7.805401,48.379501343,1.186676025,-53.557586670,-0.007504517,-0.090610839,1.078773975
7.806028,48.822006226,1.102752686,-52.931976318,-0.016903931,-0.086338378,1.078529835
7.806653,49.348434448,0.896759033,-52.588653564,-0.030453736,-0.072910644,1.070961475
7.807280,49.905380249,1.095123291,-52.153778076,-0.039486937,-0.063633300,1.062782764
7.807906,50.157150269,0.942535400,-51.879119873,-0.026303345,-0.063877441,1.061195850
7.808531,50.538619995,1.026458740,-51.253509521,-0.020688111,-0.055698730,1.052772999
7.809156,50.424179077,1.041717529,-50.612640381,-0.012265259,-0.051914550,1.047157764
7.809782,49.668869019,0.866241455,-50.177764893,-0.009945923,-0.050327636,1.035439014
7.810408,49.081405640,1.232452393,-49.636077881,-0.004086548,-0.054355957,1.033974171
7.811041,47.967514038,1.629180908,-48.941802979,-0.011288697,-0.052646972,1.020302296
7.823727,45.655807495,0.622100830,-36.086273193,-0.006527955,-0.152500495,1.022377491
7.824475,44.496139526,0.606842041,-35.376739502,-0.013363892,-0.174595222,1.029457569
7.825101,43.466171265,1.140899658,-34.514617920,-0.013608033,-0.190830573,1.039589405
7.825727,42.878707886,1.819915771,-34.033966064,-0.007748658,-0.206333503,1.048378468
7.826352,42.581161499,2.559967041,-33.728790283,0.002505248,-0.225620613,1.060585499
7.826977,42.291244507,2.826995850,-32.904815674,0.015566772,-0.250522941,1.076454639
7.827603,42.504867554,3.231353760,-32.019805908,0.020571655,-0.278232902,1.084389210
7.828228,42.611679077,3.490753174,-31.615447998,0.004092162,-0.301548332,1.091713428
7.828853,42.634567261,3.788299561,-31.043243408,-0.006283814,-0.317783684,1.104530811
7.829478,43.031295776,3.475494385,-30.272674561,-0.008725220,-0.334873527,1.116127491
7.830104,43.656906128,3.399200439,-29.738616943,-0.007138306,-0.339390129,1.125771046
7.830729,45.045455933,3.094024658,-28.914642334,-0.015072877,-0.345005363,1.137245655
7.831355,46.472152710,3.444976807,-28.456878662,-0.013363892,-0.360996574,1.148842335
7.831982,48.280319214,3.620452881,-28.121185303,-0.016781861,-0.367344230,1.157265186
7.832607,49.531539917,3.422088623,-27.579498291,-0.022030884,-0.367710441,1.161049366
7.833233,50.393661499,3.010101318,-27.236175537,-0.023373658,-0.364780754,1.166176319
7.833859,51.095565796,2.544708252,-26.473236084,-0.025815064,-0.367222160,1.170204639
7.834485,51.240524292,2.209014893,-25.611114502,-0.027768189,-0.361728996,1.173622608
7.835112,51.911911011,2.369232178,-25.359344482,-0.022397095,-0.359409660,1.177772999
7.835738,52.751144409,2.788848877,-24.924468994,-0.012997681,-0.352695793,1.180580616
7.836363,53.552230835,3.300018311,-24.123382568,0.001894897,-0.336338371,1.180092335
7.836989,54.009994507,3.216094971,-23.680877686,0.000918334,-0.325840324,1.171425343
7.837616,54.429611206,3.109283447,-23.169708252,0.005923217,-0.329380363,1.168617725
7.838243,54.498275757,3.223724365,-22.269439697,0.014712280,-0.338413566,1.171425343
7.838869,55.192550659,3.712005615,-21.834564209,0.020815795,-0.340122551,1.171303272
7.839494,55.642684937,4.635162354,-21.147918701,0.024844116,-0.332432121,1.173378468
7.840119,56.451400757,4.795379639,-20.461273193,0.023379272,-0.317783684,1.166298389
7.840745,56.962570190,5.031890869,-19.950103760,0.024477905,-0.298862785,1.163002491
7.841371,57.511886597,5.092926025,-19.408416748,0.018008178,-0.295566887,1.164955616
7.841997,58.442672729,5.077667236,-18.714141846,0.013857787,-0.289829582,1.158974171
7.842624,59.434494019,5.321807861,-18.088531494,0.001406616,-0.282017082,1.159584522
7.843249,60.472091675,5.733795166,-17.554473877,-0.007504517,-0.272251457,1.160561085
7.843876,61.486801147,5.947418213,-17.081451416,-0.013852173,-0.257236809,1.155922413
7.844503,62.646469116,6.161041260,-16.394805908,-0.021054322,-0.243931159,1.153969288
7.845129,63.867172241,6.367034912,-15.624237061,-0.033261351,-0.230137214,1.151161671
7.845756,64.736923218,6.183929443,-15.235137939,-0.050351195,-0.209751472,1.149696827
7.846381,65.515121460,6.244964600,-14.563751221,-0.060849242,-0.192295417,1.147133350
7.847007,66.461166382,6.061859131,-14.037322998,-0.065732054,-0.180088386,1.145668507
7.847634,67.163070679,6.168670654,-13.404083252,-0.070859008,-0.159702644,1.143105030
7.848260,68.139633179,6.519622803,-12.961578369,-0.075741820,-0.140903816,1.139687061
7.848886,69.070419312,6.496734619,-12.412261963,-0.091122679,-0.123203613,1.139320850
7.849513,69.932540894,6.603546143,-11.832427979,-0.102597289,-0.110020019,1.135658741
7.850140,70.756515503,6.969757080,-11.374664307,-0.123593383,-0.093052246,1.131264210
7.850767,71.214279175,7.572479248,-10.863494873,-0.150570929,-0.066685058,1.122475147
7.851392,71.992477417,7.862396240,-10.634613037,-0.166073859,-0.044712402,1.114296436
7.852018,72.206100464,7.679290771,-9.902191162,-0.177182257,-0.031772949,1.108925343
7.852644,72.488388062,7.343597412,-9.535980225,-0.178158820,-0.020908691,1.105019093
7.866515,82.482894897,6.695098877,-0.930023193,-0.057553343,0.025233887,1.013710499
7.867217,83.375534058,6.359405518,-0.426483154,-0.053525023,0.018520020,1.004921436
7.867842,84.519943237,5.993194580,-0.197601318,-0.045834593,0.013026856,1.003456593
7.868467,85.893234253,5.855865479,0.153350830,-0.036679320,0.012416504,1.001015186
7.869093,87.358078003,5.939788818,0.435638428,-0.023007447,0.005946777,1.006386280
7.869718,88.830551147,6.290740967,0.809478760,-0.002743775,0.002772949,1.016884327
7.870345,90.417465210,6.161041260,1.038360596,0.018252319,0.004726074,1.025673389
7.870971,91.836532593,5.932159424,0.901031494,0.033755250,0.006068848,1.036659718
7.871747,93.255599976,5.825347900,1.259613037,0.036807008,0.010463379,1.048378468
7.872373,94.392379761,5.283660889,1.580047607,0.037539430,0.015346192,1.059853077
7.872999,95.239242554,5.009002686,1.793670654,0.034365602,0.029628418,1.061195850
7.873624,95.758041382,4.581756592,1.854705811,0.040102907,0.038051270,1.065712452
7.874249,96.246322632,3.803558350,2.144622803,0.054385133,0.040980957,1.071205616
7.874875,97.230514526,3.422088623,2.274322510,0.074404664,0.027797364,1.082191944
7.875500,98.634323120,3.444976807,2.060699463,0.089785524,0.025355957,1.088295460
7.876125,99.801620483,3.185577393,2.159881592,0.090151735,0.036342286,1.088417530
7.876752,100.617965698,3.040618896,2.037811279,0.088808961,0.043544434,1.083046436
7.877378,101.358016968,2.529449463,1.976776123,0.085146852,0.052943848,1.080849171
7.878003,101.731857300,2.353973389,2.480316162,0.093935914,0.050624512,1.080727100
7.878629,102.250656128,2.483673096,2.434539795,0.096743532,0.046962403,1.081825733
7.879256,103.074630737,2.796478271,2.510833740,0.107607789,0.045497559,1.091713428
7.879883,104.127487183,3.803558350,2.594757080,0.122744508,0.051967286,1.100990772
7.880509,105.729660034,4.322357178,2.548980713,0.123965211,0.062587403,1.102577686
7.881135,106.599411011,4.207916260,2.602386475,0.115420289,0.078456543,1.103920460
7.881760,107.690414429,4.093475342,2.671051025,0.107485719,0.086024903,1.115272999
7.882386,108.659347534,4.200286865,2.701568604,0.101626344,0.092738770,1.122353077
7.883012,109.536727905,4.192657471,2.632904053,0.094790407,0.114467286,1.126137257
7.883637,110.063156128,4.223175049,2.404022217,0.085024782,0.133021966,1.122231007
7.884262,110.498031616,4.085845947,2.350616455,0.084048219,0.138393059,1.119789600
7.884887,110.826095581,3.925628662,2.198028564,0.088076539,0.144374505,1.116371632
7.885512,111.108383179,3.971405029,2.426910400,0.083926149,0.154750481,1.113319874
7.886137,110.955795288,3.994293213,2.091217041,0.086489625,0.158656731,1.108681202
7.886762,110.559066772,3.986663818,2.121734619,0.100771852,0.156581536,1.101479053
7.887388,110.681137085,3.917999268,2.236175537,0.104189821,0.163051262,1.092201710
7.888015,110.314926147,4.146881104,2.236175537,0.108584352,0.177577630,1.084999561
7.888640,110.238632202,4.383392334,2.205657959,0.121890016,0.176601067,1.075600147
7.889266,110.513290405,4.825897217,2.213287354,0.127016962,0.182338372,1.071693897
7.889891,110.925277710,5.253143311,2.220916748,0.121767946,0.195888177,1.062660694
7.890516,111.383041382,5.314178467,2.220916748,0.114687867,0.203578606,1.049477100
7.891142,111.833175659,5.359954834,1.992034912,0.101015992,0.213466302,1.041786671
7.891769,112.184127808,5.695648193,1.946258545,0.076479860,0.222865716,1.022743702
7.892395,112.252792358,5.596466064,1.938629150,0.066958375,0.229213372,1.011757374
7.893022,111.894210815,5.474395752,1.938629150,0.063540407,0.228603020,0.998329639
7.893648,111.604293823,5.009002686,1.976776123,0.069888063,0.232753411,0.990395069
7.894274,111.192306519,4.612274170,1.938629150,0.079287477,0.231410637,0.980995655
7.894899,110.856613159,4.421539307,1.717376709,0.091860719,0.243495598,0.970741749
7.895524,111.001571655,4.093475342,1.519012451,0.104922242,0.239833489,0.962318897
7.896149,111.581405640,3.864593506,1.595306396,0.100161500,0.244594231,0.953407764
7.896776,111.993392944,4.108734131,1.717376709,0.097353883,0.245814934,0.944496632
7.897401,112.405380249,4.505462646,1.648712158,0.091250367,0.249721184,0.938148975
7.910062,125.382980347,-2.193145752,-0.823211670,-0.042782836,0.311366707,0.889320850
7.910761,126.138290405,-2.811126709,-0.632476807,-0.052914672,0.316005379,0.890541553
7.911387,127.229293823,-3.101043701,-0.739288330,-0.041928343,0.320521981,0.901039600
7.912013,128.625473022,-3.261260986,-1.212310791,-0.036435179,0.330653816,0.906898975
7.912639,129.899581909,-3.955535889,-1.448822021,-0.033749633,0.342006356,0.914589405
7.913264,130.967697144,-4.451446533,-1.685333252,-0.026425416,0.345424324,0.923256397
7.913891,131.875595093,-4.855804443,-1.692962646,-0.031430297,0.338588387,0.928017139
7.914518,132.814010620,-5.061798096,-1.715850830,-0.034848265,0.337245613,0.940224171
7.915143,133.836349487,-4.802398682,-2.265167236,-0.029599244,0.341762215,0.948036671
7.915769,134.454330444,-4.657440186,-2.577972412,-0.019223267,0.350673348,0.954628468
7.916395,134.973129272,-4.665069580,-2.639007568,-0.005795533,0.347499520,0.967079639
7.917021,135.659774780,-4.535369873,-2.867889404,-0.008725220,0.351527840,0.978310108
7.917647,136.499008179,-4.550628662,-2.997589111,-0.025937134,0.376796395,0.979652882
7.918272,136.781295776,-5.016021729,-3.363800049,-0.037289672,0.400111824,0.979286671
7.918898,136.598190308,-5.794219971,-3.668975830,-0.024106080,0.396815926,0.981117725
7.919524,136.941513062,-6.114654541,-3.592681885,-0.019589478,0.388881356,0.985390186
7.920151,137.025436401,-6.122283936,-3.630828857,-0.013363892,0.386439949,0.993690968
7.920777,137.322982788,-5.817108154,-4.012298584,-0.004941041,0.396815926,0.997353077
7.921402,138.078292847,-5.435638428,-4.553985596,0.006411498,0.405482918,1.003822803
7.922027,138.650497437,-5.077056885,-4.721832275,0.007021850,0.415858895,1.004555225
7.922652,138.719161987,-5.061798096,-4.508209229,-0.000180298,0.425502449,1.005531788
7.923279,138.421615601,-5.283050537,-4.798126221,-0.009335572,0.433437020,1.007362843
7.923904,138.589462280,-5.214385986,-4.943084717,-0.019223267,0.440028816,1.010658741
7.924529,138.475021362,-4.893951416,-5.103302002,-0.020810181,0.444179207,1.018105030
7.925154,138.612350464,-5.046539307,-5.416107178,-0.008481080,0.446620613,1.022621632
7.925781,138.261398315,-4.962615967,-5.423736572,0.005068725,0.447230965,1.031410694
7.926406,138.146957397,-5.191497803,-5.591583252,0.018252319,0.453212410,1.042030811
7.927032,138.475021362,-4.901580811,-5.828094482,0.020083373,0.457240731,1.045814991
7.927657,138.887008667,-4.893951416,-6.247711182,0.009585327,0.469325691,1.052040577
7.928282,139.146408081,-4.810028076,-6.446075439,-0.009091431,0.482997566,1.051918507
7.929019,139.161666870,-4.939727783,-6.682586670,-0.015683228,0.482021004,1.049843311
7.929791,138.459762573,-5.649261475,-6.751251221,-0.007748658,0.482753426,1.048256397
7.930582,138.360580444,-6.030731201,-7.201385498,-0.000546509,0.488246590,1.051552296
7.931397,138.078292847,-6.519012451,-7.636260986,0.010561889,0.488490731,1.049599171
7.932174,138.040145874,-6.412200928,-7.521820068,0.015566772,0.492396981,1.053017139
7.932801,138.497909546,-6.206207275,-7.781219482,0.020571655,0.496059090,1.053017139
7.933427,139.245590210,-6.290130615,-8.155059814,0.019839233,0.500697732,1.048744678
7.934053,139.573654175,-5.901031494,-8.750152588,0.020815795,0.506190896,1.049110889
7.934679,139.665206909,-6.183319092,-9.185028076,0.023257202,0.506435037,1.047646046
7.935306,139.657577515,-6.549530029,-9.192657471,0.034975953,0.498012215,1.045570850
7.935932,139.649948120,-6.381683350,-9.490203857,0.032900758,0.493617684,1.049965382
7.936559,139.802536011,-6.374053955,-9.825897217,0.037173219,0.489711434,1.055824757
7.937185,140.573104858,-6.023101807,-10.039520264,0.042178102,0.490687996,1.061439991
7.937810,140.962203979,-5.992584229,-10.367584229,0.042422242,0.505214334,1.063637257
7.938437,141.435226440,-6.175689697,-10.970306396,0.042788453,0.512050271,1.061806202
7.939064,141.686996460,-6.686859131,-11.275482178,0.052432008,0.499110848,1.067055225
7.939690,142.221054077,-6.244354248,-11.450958252,0.060610719,0.483241707,1.076332569
7.940317,142.770370483,-6.129913330,-11.786651611,0.057436891,0.493251473,1.084145069
7.952931,150.353988647,-3.696136475,-20.125579834,0.106997438,0.504481912,1.063026905
7.953618,150.804122925,-4.382781982,-20.446014404,0.095400758,0.515712380,1.053627491
7.954244,150.918563843,-4.764251709,-21.132659912,0.070986696,0.526088357,1.041908741
7.954870,150.567611694,-5.763702393,-21.720123291,0.063052125,0.531337380,1.033730030
7.955495,150.369247437,-5.847625732,-22.200775146,0.070376344,0.528773904,1.021889210
7.956121,150.643905640,-5.756072998,-22.414398193,0.076846071,0.527919412,1.014442921
7.956747,150.903305054,-5.649261475,-22.849273682,0.089785524,0.522914529,1.009438038
7.957374,151.650985718,-5.305938721,-23.635101318,0.099795289,0.507777810,1.006142139
7.958000,152.825912476,-5.054168701,-23.909759521,0.095400758,0.501430154,1.006508350
7.958627,153.665145874,-4.703216553,-24.466705322,0.094424196,0.499110848,1.000160694
7.959252,154.481491089,-4.924468994,-25.160980225,0.078188844,0.508998513,0.996376514
7.959877,154.550155640,-5.176239014,-25.496673584,0.054995485,0.519252419,0.996742725
7.960503,154.611190796,-5.405120850,-25.939178467,0.041933961,0.526210427,0.993935108
7.961130,154.153427124,-5.855255127,-26.168060303,0.040713258,0.541347146,0.997475147
7.961757,153.863510132,-6.244354248,-26.755523682,0.039248414,0.558803201,0.992592335
7.962382,153.352340698,-6.877593994,-27.388763428,0.037539430,0.560268044,0.986122608
7.963009,153.367599487,-7.220916748,-27.571868896,0.047060914,0.541957498,0.993690968
7.963634,153.680404663,-6.747894287,-27.930450439,0.047671266,0.521815896,1.000038624
7.964260,154.237350464,-6.015472412,-28.266143799,0.043154664,0.514247537,1.004066944
7.964887,154.183944702,-5.572967529,-28.891754150,0.034121461,0.524745584,1.000648975
7.966597,153.092941284,-5.839996338,-29.631805420,-0.009823853,0.559779763,1.002235889
7.967222,152.711471558,-6.366424561,-30.135345459,-0.031796508,0.579677224,1.001015186
7.967848,151.757797241,-6.793670654,-30.463409424,-0.038144164,0.586635232,0.998939991
7.968473,151.002487183,-7.159881592,-31.256866455,-0.037655883,0.588588357,0.999306202
7.969098,150.437911987,-7.281951904,-31.333160400,-0.033261351,0.584804177,0.997719288
7.969725,149.736007690,-7.304840088,-31.546783447,-0.023251588,0.581386209,0.994667530
7.970352,148.850997925,-7.251434326,-31.912994385,-0.022519166,0.574550271,0.990517139
7.970978,148.316940308,-7.373504639,-32.454681396,-0.028744752,0.566249490,0.985756397
7.971603,147.767623901,-7.274322510,-32.416534424,-0.045590453,0.573939919,0.981117725
7.972228,146.920761108,-6.877593994,-32.729339600,-0.062314086,0.566981912,0.972328663
7.972854,146.592697144,-7.030181885,-32.866668701,-0.063778929,0.571376443,0.972084522
7.973479,146.630844116,-7.251434326,-33.003997803,-0.066342406,0.571620584,0.974770069
7.974125,146.577438354,-6.641082764,-33.538055420,-0.079892211,0.579799294,0.971474171
7.974759,146.813949585,-6.755523682,-33.759307861,-0.079648070,0.583583474,0.976356983
7.975386,146.546920776,-7.480316162,-34.079742432,-0.083066039,0.578578591,0.979408741
7.976011,146.333297729,-7.610015869,-34.125518799,-0.091610961,0.581019998,0.980385303
7.976637,146.310409546,-7.770233154,-34.445953369,-0.099423461,0.585658669,0.982094288
7.977263,145.974716187,-8.052520752,-34.651947021,-0.106625609,0.596278787,0.987099171
7.977890,145.875534058,-8.540802002,-35.224151611,-0.109189086,0.596156716,0.988197803
7.978515,146.661361694,-8.487396240,-35.445404053,-0.104916625,0.596889138,0.997719288
7.979140,147.256454468,-8.472137451,-35.964202881,-0.106381468,0.605067849,1.002602100
7.979765,147.950729370,-8.632354736,-36.345672607,-0.119809203,0.617519021,1.005287647
7.980390,148.728927612,-9.227447510,-36.704254150,-0.133603156,0.625697732,1.006996632
7.981017,148.370346069,-9.669952393,-36.917877197,-0.135556281,0.623012185,1.013222218
7.981643,148.263534546,-10.112457275,-37.047576904,-0.142636359,0.620082498,1.017738819
7.982268,147.836288452,-10.265045166,-37.276458740,-0.141781867,0.620448709,1.025307178
7.982895,147.515853882,-10.303192139,-37.390899658,-0.132870734,0.620692849,1.034462452
7.995536,151.185592651,-6.725006104,-39.214324951,-0.000546509,0.656337380,1.273354053
7.996279,151.391586304,-6.274871826,-39.305877686,0.000552123,0.647792459,1.269325733
7.996905,151.597579956,-5.763702393,-38.947296143,0.005679077,0.637538552,1.269936085
7.997530,151.986679077,-4.932098389,-38.954925537,0.005068725,0.628261209,1.273842335
7.998155,152.383407593,-4.161529541,-38.909149170,0.011294311,0.624721169,1.275673389
7.998780,152.955612183,-3.513031006,-38.886260986,0.019595092,0.624354959,1.273842335
7.999407,153.817733765,-3.131561279,-38.848114014,0.036929078,0.624110818,1.274940968
8.000041,154.580673218,-2.963714600,-38.611602783,0.050356813,0.619472146,1.277870655
8.000666,155.854782104,-2.834014893,-38.573455811,0.057681032,0.616054177,1.273598194
8.001293,157.197555542,-2.719573975,-38.474273682,0.067934938,0.608974099,1.276283741
8.001920,158.975204468,-2.071075439,-38.771820068,0.075869508,0.608485818,1.272499561
8.002547,160.661300659,-1.681976318,-38.909149170,0.086001344,0.612269998,1.267616749
8.003174,162.377914429,-1.178436279,-38.535308838,0.090884157,0.611659646,1.260292530
8.003801,164.132675171,-0.758819580,-38.665008545,0.088931032,0.599940896,1.252480030
8.004426,166.009506226,-0.209503174,-38.375091553,0.093203492,0.591762185,1.249062061
8.005051,167.680343628,0.614471436,-38.375091553,0.095766969,0.592006326,1.243324757
8.005678,169.969161987,0.873870850,-38.809967041,0.094912477,0.599818826,1.236122608
8.006303,171.739181519,0.789947510,-38.527679443,0.101626344,0.603236794,1.227821827
8.006930,173.631271362,0.927276611,-38.535308838,0.106875367,0.604701638,1.228310108
8.007556,175.790390015,0.850982666,-38.268280029,0.109438844,0.605189919,1.221230030
8.008182,177.972396851,1.148529053,-38.718414307,0.105166383,0.611903787,1.215370655
8.015328,199.449142456,4.520721436,-39.115142822,0.081484742,0.650233865,1.162758350
8.015955,200.730880737,4.673309326,-39.061737061,0.078188844,0.658046365,1.149818897
8.016581,202.264389038,4.902191162,-39.145660400,0.071597047,0.664271951,1.142372608
8.017206,203.256210327,5.108184814,-39.351654053,0.064639039,0.670619607,1.133949757
8.017832,204.171737671,5.550689697,-39.405059814,0.063540407,0.672328591,1.122475147
8.018458,204.858383179,6.092376709,-39.237213135,0.063662477,0.678554177,1.116005421
8.019083,205.285629272,6.351776123,-39.748382568,0.058535524,0.686610818,1.105629444
8.019710,206.010421753,6.557769775,-39.481353760,0.057803102,0.688075662,1.100258350
8.020336,206.262191772,7.061309814,-39.595794678,0.058169313,0.691737771,1.090492725
8.020963,206.613143921,8.014984131,-39.847564697,0.051089235,0.686732888,1.090736866
8.021588,207.261642456,8.556671143,-39.832305908,0.044741578,0.687953591,1.086952686
8.022213,207.719406128,9.197540283,-40.084075928,0.039370485,0.691981912,1.081703663
8.022840,207.810958862,10.135955811,-40.122222900,0.030093139,0.698207498,1.074501514
8.023465,208.238204956,10.570831299,-40.053558350,0.020449584,0.705165505,1.070473194
8.024090,208.512863159,10.471649170,-40.320587158,0.008974975,0.705287576,1.065102100
8.024716,208.711227417,10.792083740,-40.396881104,-0.004818970,0.707240701,1.061439991
8.025341,208.886703491,11.104888916,-40.557098389,-0.011654908,0.702724099,1.055580616
8.025968,209.008773804,11.173553467,-40.778350830,-0.020932252,0.703700662,1.046791553
8.026593,209.085067749,11.089630127,-40.816497803,-0.023861939,0.705287576,1.037147999
8.027218,209.168991089,10.898895264,-40.938568115,-0.029355103,0.704311013,1.028725147
8.027845,209.077438354,10.914154053,-40.991973877,-0.028866822,0.703334451,1.020302296
8.028470,209.786972046,11.371917725,-41.487884521,-0.033017211,0.706019998,1.011513233
8.029095,210.298141479,11.585540771,-41.640472412,-0.041562133,0.708339334,1.006752491
8.029720,211.000045776,11.555023193,-41.548919678,-0.055234008,0.716884255,0.996010303
8.030347,211.785873413,11.646575928,-41.655731201,-0.067563109,0.722255349,0.993568897
8.030973,212.312301636,11.616058350,-42.060089111,-0.076108031,0.722499490,0.986488819
8.031600,212.869247437,11.516876221,-42.304229736,-0.083432250,0.720790505,0.984657764
8.044167,226.434310913,10.441131592,-49.018096924,-0.163022101,0.771083474,1.094032764
8.044864,226.510604858,10.296173096,-49.224090576,-0.159848273,0.769008279,1.100746632
8.045490,226.754745483,10.494537354,-49.811553955,-0.152401984,0.771693826,1.105751514
8.046117,226.831039429,10.479278564,-50.109100342,-0.133481085,0.770473123,1.112465382
8.046742,227.220138550,10.876007080,-50.429534912,-0.123837523,0.772426248,1.116615772
8.047367,227.387985229,11.371917725,-51.085662842,-0.123105101,0.784144998,1.122841358
8.047994,227.815231323,11.501617432,-51.436614990,-0.131283820,0.804408669,1.122353077
8.048621,228.074630737,11.509246826,-51.970672607,-0.140927374,0.808192849,1.123207569
8.049248,228.265365601,11.333770752,-52.436065674,-0.144467413,0.810634255,1.124916553
8.049874,228.135665894,11.364288330,-52.924346924,-0.140072882,0.807338357,1.128944874
8.050500,228.242477417,11.455841064,-53.473663330,-0.127499640,0.804408669,1.129433155
8.051127,227.761825562,11.417694092,-53.618621826,-0.115902953,0.794032693,1.129311085
